task,subjID,display,trial,fribblePresented,resp,labelPresented,frequency,rt,trialType,list,expeType
contingency,3491839,task,1,20375,-87,wug,h,5187.205,match,1,pilot1
contingency,3491839,task,2,11025,81,dep,l,2897.71,match,1,pilot1
contingency,3491839,task,3,21125,37,dep,l,3329.8,mismatch-type1,1,pilot1
contingency,3491839,task,4,22475,-34,wug,h,2998.58,match,1,pilot1
contingency,3491839,task,5,13375,-84,dep,h,3325.12,match,1,pilot1
contingency,3491839,task,6,21675,90,tob,h,4563.47,mismatch-type1,1,pilot1
contingency,3491839,task,7,31525,100,wug,l,3436.43,mismatch-type1,1,pilot1
contingency,3491839,task,8,30875,49,tob,h,3146.895,match,1,pilot1
contingency,3491839,task,9,11725,-84,dep,l,2938.18,match,1,pilot1
contingency,3491839,task,10,30975,92,dep,h,2686.84,mismatch-type1,1,pilot1
contingency,3491839,task,11,20825,13,dep,l,3457.885,mismatch-type1,1,pilot1
contingency,3491839,task,12,30225,100,wug,l,3782.425,mismatch-type1,1,pilot1
contingency,3491839,task,13,11875,62,dep,h,3298.76,match,1,pilot1
contingency,3491839,task,14,12075,-100,wug,h,2849.48,mismatch-type1,1,pilot1
contingency,3491839,task,15,20775,-70,wug,h,3195.935,match,1,pilot1
contingency,3491839,task,16,30325,100,wug,l,2498.65,mismatch-type1,1,pilot1
contingency,3491839,task,17,30725,-100,tob,l,3025.555,match,1,pilot1
contingency,3491839,task,18,11425,32,tob,l,2983.085,mismatch-type1,1,pilot1
contingency,3491839,task,19,20325,78,dep,l,3208.745,mismatch-type1,1,pilot1
contingency,3491839,task,20,20625,-100,wug,l,2555.455,match,1,pilot1
contingency,3491839,task,21,21575,-62,wug,h,3305.84,match,1,pilot1
contingency,3491839,task,22,10175,54,dep,h,4706.115,match,1,pilot1
contingency,3491839,task,23,22325,-21,dep,l,3051.385,mismatch-type1,1,pilot1
contingency,3491839,task,24,32575,-43,dep,h,2955.93,mismatch-type1,1,pilot1
contingency,3491839,task,25,11375,-96,wug,h,3854.7,mismatch-type1,1,pilot1
contingency,3491839,task,26,33275,53,dep,h,2885.835,mismatch-type1,1,pilot1
contingency,3491839,task,27,12275,77,dep,h,3108.135,match,1,pilot1
contingency,3491839,task,28,31425,-100,tob,l,2568.665,match,1,pilot1
contingency,3491839,task,29,21975,45,tob,h,2953.8,mismatch-type1,1,pilot1
contingency,3491839,task,30,11625,83,tob,l,4037.83,mismatch-type1,1,pilot1
contingency,3491839,task,31,22125,-100,wug,l,3082.74,match,1,pilot1
contingency,3491839,task,32,11325,72,tob,l,3017.72,mismatch-type1,1,pilot1
contingency,3491839,task,33,30825,-100,tob,l,3071.305,match,1,pilot1
contingency,3491839,task,34,12875,-50,wug,h,2961.1,mismatch-type1,1,pilot1
contingency,3491839,task,35,32775,52,dep,h,2354.16,mismatch-type1,1,pilot1
contingency,3491839,task,36,23175,65,tob,h,5987.345,mismatch-type1,1,pilot1
contingency,3491839,task,37,20425,-100,wug,l,2455.48,match,1,pilot1
contingency,3491839,task,38,20925,-100,wug,l,2650.58,match,1,pilot1
contingency,3491839,task,39,31475,61,tob,h,2577.465,match,1,pilot1
contingency,3491839,task,40,12325,89,tob,l,2868.6,mismatch-type1,1,pilot1
contingency,3491839,task,41,32025,100,wug,l,2923.97,mismatch-type1,1,pilot1
contingency,3491839,task,42,12225,37,dep,l,3063.96,match,1,pilot1
contingency,3491839,task,43,12125,55,dep,l,2989.22,match,1,pilot1
contingency,3491839,task,44,22375,-46,wug,h,3013.155,match,1,pilot1
contingency,3491839,task,45,31575,37,tob,h,3481.25,match,1,pilot1
contingency,3491839,task,46,10975,74,dep,h,3185.97,match,1,pilot1
contingency,3491839,task,47,32275,79,tob,h,2738.575,match,1,pilot1
contingency,3491839,task,48,10675,-100,wug,h,2823.395,mismatch-type1,1,pilot1
contingency,3491839,task,49,32525,100,wug,l,3110.77,mismatch-type1,1,pilot1
contingency,3491839,task,50,21025,-100,wug,l,5222.565,match,1,pilot1
contingency,3491839,task,51,10925,73,tob,l,2741.705,mismatch-type1,1,pilot1
contingency,3491839,task,52,33075,31,dep,h,2241.695,mismatch-type1,1,pilot1
contingency,3491839,task,53,10625,41,dep,l,2496.755,match,1,pilot1
contingency,3491839,task,54,32225,-95,tob,l,3259.275,match,1,pilot1
contingency,3491839,task,55,22225,81,dep,l,3632.25,mismatch-type1,1,pilot1
contingency,3491839,task,56,11975,-94,wug,h,3007.515,mismatch-type1,1,pilot1
contingency,3491839,task,57,30275,-70,tob,h,2649.805,match,1,pilot1
contingency,3491839,task,58,22175,-59,tob,h,3482.515,mismatch-type1,1,pilot1
contingency,3491839,task,59,31725,-100,tob,l,3137.49,match,1,pilot1
contingency,3491839,task,60,20575,48,tob,h,5589.075,mismatch-type1,1,pilot1
contingency,3481518,task,1,20375,93,wug,h,3008.415,match,1,pilot1
contingency,3481518,task,2,11025,95,dep,l,2822.52,match,1,pilot1
contingency,3481518,task,3,21125,-99,dep,l,2581.805,mismatch-type1,1,pilot1
contingency,3481518,task,4,22475,88,wug,h,2818.725,match,1,pilot1
contingency,3481518,task,5,13375,98,dep,h,3530.51,match,1,pilot1
contingency,3481518,task,6,21675,-96,tob,h,2178,mismatch-type1,1,pilot1
contingency,3481518,task,7,31525,-93,wug,l,3102.025,mismatch-type1,1,pilot1
contingency,3481518,task,8,30875,94,tob,h,2558.185,match,1,pilot1
contingency,3481518,task,9,11725,55,dep,l,5644.59,match,1,pilot1
contingency,3481518,task,10,30975,-90,dep,h,5068.36,mismatch-type1,1,pilot1
contingency,3481518,task,11,20825,-99,dep,l,3861.43,mismatch-type1,1,pilot1
contingency,3481518,task,12,30225,-87,wug,l,2617.485,mismatch-type1,1,pilot1
contingency,3481518,task,13,11875,95,dep,h,3837.44,match,1,pilot1
contingency,3481518,task,14,12075,-94,wug,h,5224.98,mismatch-type1,1,pilot1
contingency,3481518,task,15,20775,95,wug,h,1894.98,match,1,pilot1
contingency,3481518,task,16,30325,-97,wug,l,2337.375,mismatch-type1,1,pilot1
contingency,3481518,task,17,30725,96,tob,l,3095.5,match,1,pilot1
contingency,3481518,task,18,11425,-96,tob,l,2858.47,mismatch-type1,1,pilot1
contingency,3481518,task,19,20325,-88,dep,l,3901.45,mismatch-type1,1,pilot1
contingency,3481518,task,20,20625,98,wug,l,4444.825,match,1,pilot1
contingency,3481518,task,21,21575,92,wug,h,2499.46,match,1,pilot1
contingency,3481518,task,22,10175,93,dep,h,3968.63,match,1,pilot1
contingency,3481518,task,23,22325,-93,dep,l,1955.525,mismatch-type1,1,pilot1
contingency,3481518,task,24,32575,-75,dep,h,3714.285,mismatch-type1,1,pilot1
contingency,3481518,task,25,11375,-99,wug,h,5748.84,mismatch-type1,1,pilot1
contingency,3481518,task,26,33275,-98,dep,h,5770.44,mismatch-type1,1,pilot1
contingency,3481518,task,27,12275,96,dep,h,2176.36,match,1,pilot1
contingency,3481518,task,28,31425,96,tob,l,3311.405,match,1,pilot1
contingency,3481518,task,29,21975,-95,tob,h,2771.21,mismatch-type1,1,pilot1
contingency,3481518,task,30,11625,-91,tob,l,3096.41,mismatch-type1,1,pilot1
contingency,3481518,task,31,22125,83,wug,l,3488.84,match,1,pilot1
contingency,3481518,task,32,11325,-93,tob,l,4273.81,mismatch-type1,1,pilot1
contingency,3481518,task,33,30825,94,tob,l,2391.25,match,1,pilot1
contingency,3481518,task,34,12875,-89,wug,h,2475.93,mismatch-type1,1,pilot1
contingency,3481518,task,35,32775,-99,dep,h,3824.165,mismatch-type1,1,pilot1
contingency,3481518,task,36,23175,-83,tob,h,4054.32,mismatch-type1,1,pilot1
contingency,3481518,task,37,20425,90,wug,l,3923.825,match,1,pilot1
contingency,3481518,task,38,20925,62,wug,l,2519.87,match,1,pilot1
contingency,3481518,task,39,31475,97,tob,h,4364.155,match,1,pilot1
contingency,3481518,task,40,12325,-70,tob,l,3119.975,mismatch-type1,1,pilot1
contingency,3481518,task,41,32025,-99,wug,l,4480.01,mismatch-type1,1,pilot1
contingency,3481518,task,42,12225,98,dep,l,4226.82,match,1,pilot1
contingency,3481518,task,43,12125,94,dep,l,2091.42,match,1,pilot1
contingency,3481518,task,44,22375,91,wug,h,3511.6,match,1,pilot1
contingency,3481518,task,45,31575,98,tob,h,2104.3,match,1,pilot1
contingency,3481518,task,46,10975,75,dep,h,6295.42,match,1,pilot1
contingency,3481518,task,47,32275,95,tob,h,2477.85,match,1,pilot1
contingency,3481518,task,48,10675,-91,wug,h,2478.395,mismatch-type1,1,pilot1
contingency,3481518,task,49,32525,-93,wug,l,4421.26,mismatch-type1,1,pilot1
contingency,3481518,task,50,21025,96,wug,l,6887.91,match,1,pilot1
contingency,3481518,task,51,10925,-90,tob,l,3659.81,mismatch-type1,1,pilot1
contingency,3481518,task,52,33075,-88,dep,h,3222.66,mismatch-type1,1,pilot1
contingency,3481518,task,53,10625,98,dep,l,3275.705,match,1,pilot1
contingency,3481518,task,54,32225,56,tob,l,3174.41,match,1,pilot1
contingency,3481518,task,55,22225,-78,dep,l,4928.36,mismatch-type1,1,pilot1
contingency,3481518,task,56,11975,-60,wug,h,3044.925,mismatch-type1,1,pilot1
contingency,3481518,task,57,30275,79,tob,h,1956.52,match,1,pilot1
contingency,3481518,task,58,22175,-92,tob,h,3359.97,mismatch-type1,1,pilot1
contingency,3481518,task,59,31725,95,tob,l,3255.42,match,1,pilot1
contingency,3481518,task,60,20575,-97,tob,h,3000.325,mismatch-type1,1,pilot1
contingency,3473048,task,1,20375,50,wug,h,5659.4,match,1,pilot1
contingency,3473048,task,2,11025,-63,dep,l,7010.295,match,1,pilot1
contingency,3473048,task,3,21125,100,dep,l,3244.84,mismatch-type1,1,pilot1
contingency,3473048,task,4,22475,63,wug,h,4203.875,match,1,pilot1
contingency,3473048,task,5,13375,100,dep,h,2923.35,match,1,pilot1
contingency,3473048,task,6,21675,-100,tob,h,3084.285,mismatch-type1,1,pilot1
contingency,3473048,task,7,31525,100,wug,l,5150.52,mismatch-type1,1,pilot1
contingency,3473048,task,8,30875,100,tob,h,2787.085,match,1,pilot1
contingency,3473048,task,9,11725,-100,dep,l,4195.595,match,1,pilot1
contingency,3473048,task,10,30975,-100,dep,h,3526.795,mismatch-type1,1,pilot1
contingency,3473048,task,11,20825,52,dep,l,3638.57,mismatch-type1,1,pilot1
contingency,3473048,task,12,30225,35,wug,l,3783.065,mismatch-type1,1,pilot1
contingency,3473048,task,13,11875,100,dep,h,2625.875,match,1,pilot1
contingency,3473048,task,14,12075,100,wug,h,2890.69,mismatch-type1,1,pilot1
contingency,3473048,task,15,20775,51,wug,h,3385.33,match,1,pilot1
contingency,3473048,task,16,30325,33,wug,l,4532.3,mismatch-type1,1,pilot1
contingency,3473048,task,17,30725,-100,tob,l,2927.5,match,1,pilot1
contingency,3473048,task,18,11425,100,tob,l,3324.935,mismatch-type1,1,pilot1
contingency,3473048,task,19,20325,54,dep,l,4435.725,mismatch-type1,1,pilot1
contingency,3473048,task,20,20625,-100,wug,l,4722.78,match,1,pilot1
contingency,3473048,task,21,21575,56,wug,h,3657.755,match,1,pilot1
contingency,3473048,task,22,10175,100,dep,h,2881.445,match,1,pilot1
contingency,3473048,task,23,22325,53,dep,l,3265.645,mismatch-type1,1,pilot1
contingency,3473048,task,24,32575,-100,dep,h,3167.395,mismatch-type1,1,pilot1
contingency,3473048,task,25,11375,-100,wug,h,3938.88,mismatch-type1,1,pilot1
contingency,3473048,task,26,33275,-100,dep,h,3901.155,mismatch-type1,1,pilot1
contingency,3473048,task,27,12275,100,dep,h,2581.975,match,1,pilot1
contingency,3473048,task,28,31425,-100,tob,l,3427.99,match,1,pilot1
contingency,3473048,task,29,21975,-100,tob,h,4427.67,mismatch-type1,1,pilot1
contingency,3473048,task,30,11625,100,tob,l,4256.07,mismatch-type1,1,pilot1
contingency,3473048,task,31,22125,-58,wug,l,6532.92,match,1,pilot1
contingency,3473048,task,32,11325,100,tob,l,4309.39,mismatch-type1,1,pilot1
contingency,3473048,task,33,30825,-100,tob,l,5654.415,match,1,pilot1
contingency,3473048,task,34,12875,-97,wug,h,4330.55,mismatch-type1,1,pilot1
contingency,3473048,task,35,32775,-100,dep,h,3407.05,mismatch-type1,1,pilot1
contingency,3473048,task,36,23175,-100,tob,h,3537.38,mismatch-type1,1,pilot1
contingency,3473048,task,37,20425,-59,wug,l,4241.45,match,1,pilot1
contingency,3473048,task,38,20925,-64,wug,l,4264.19,match,1,pilot1
contingency,3473048,task,39,31475,100,tob,h,2687.495,match,1,pilot1
contingency,3473048,task,40,12325,53,tob,l,4388.21,mismatch-type1,1,pilot1
contingency,3473048,task,41,32025,100,wug,l,5052.31,mismatch-type1,1,pilot1
contingency,3473048,task,42,12225,-100,dep,l,4558.085,match,1,pilot1
contingency,3473048,task,43,12125,-100,dep,l,3502.435,match,1,pilot1
contingency,3473048,task,44,22375,60,wug,h,4758.825,match,1,pilot1
contingency,3473048,task,45,31575,100,tob,h,2977.43,match,1,pilot1
contingency,3473048,task,46,10975,100,dep,h,3857.41,match,1,pilot1
contingency,3473048,task,47,32275,100,tob,h,4506.06,match,1,pilot1
contingency,3473048,task,48,10675,-100,wug,h,3388.765,mismatch-type1,1,pilot1
contingency,3473048,task,49,32525,68,wug,l,3270.885,mismatch-type1,1,pilot1
contingency,3473048,task,50,21025,-61,wug,l,4684.895,match,1,pilot1
contingency,3473048,task,51,10925,53,tob,l,4792.905,mismatch-type1,1,pilot1
contingency,3473048,task,52,33075,-100,dep,h,2824.935,mismatch-type1,1,pilot1
contingency,3473048,task,53,10625,-100,dep,l,3201.61,match,1,pilot1
contingency,3473048,task,54,32225,-100,tob,l,5416.8,match,1,pilot1
contingency,3473048,task,55,22225,56,dep,l,3773.05,mismatch-type1,1,pilot1
contingency,3473048,task,56,11975,-100,wug,h,2723.92,mismatch-type1,1,pilot1
contingency,3473048,task,57,30275,100,tob,h,2338.805,match,1,pilot1
contingency,3473048,task,58,22175,-100,tob,h,4546.7,mismatch-type1,1,pilot1
contingency,3473048,task,59,31725,-100,tob,l,2744.56,match,1,pilot1
contingency,3473048,task,60,20575,-100,tob,h,3645.51,mismatch-type1,1,pilot1
contingency,3467073,task,1,20375,100,wug,h,4619.75,match,1,pilot1
contingency,3467073,task,2,11025,-39,dep,l,3510.94,match,1,pilot1
contingency,3467073,task,3,21125,2,dep,l,8493.017,mismatch-type1,1,pilot1
contingency,3467073,task,4,22475,100,wug,h,4457.63,match,1,pilot1
contingency,3467073,task,5,13375,22,dep,h,3117.31,match,1,pilot1
contingency,3467073,task,6,21675,-68,tob,h,3443.925,mismatch-type1,1,pilot1
contingency,3467073,task,7,31525,99,wug,l,4681.32,mismatch-type1,1,pilot1
contingency,3467073,task,8,30875,60,tob,h,3555.255,match,1,pilot1
contingency,3467073,task,9,11725,-59,dep,l,3876.22,match,1,pilot1
contingency,3467073,task,10,30975,-37,dep,h,3632.83,mismatch-type1,1,pilot1
contingency,3467073,task,11,20825,30,dep,l,2622.865,mismatch-type1,1,pilot1
contingency,3467073,task,12,30225,88,wug,l,2633.31,mismatch-type1,1,pilot1
contingency,3467073,task,13,11875,44,dep,h,2517.545,match,1,pilot1
contingency,3467073,task,14,12075,-70,wug,h,3209.535,mismatch-type1,1,pilot1
contingency,3467073,task,15,20775,100,wug,h,2823.58,match,1,pilot1
contingency,3467073,task,16,30325,100,wug,l,2651.155,mismatch-type1,1,pilot1
contingency,3467073,task,17,30725,-91,tob,l,3791.565,match,1,pilot1
contingency,3467073,task,18,11425,63,tob,l,2461.375,mismatch-type1,1,pilot1
contingency,3467073,task,19,20325,40,dep,l,3334.32,mismatch-type1,1,pilot1
contingency,3467073,task,20,20625,-90,wug,l,3114.71,match,1,pilot1
contingency,3467073,task,21,21575,96,wug,h,2772.72,match,1,pilot1
contingency,3467073,task,22,10175,-52,dep,h,2278.765,match,1,pilot1
contingency,3467073,task,23,22325,32,dep,l,2881.92,mismatch-type1,1,pilot1
contingency,3467073,task,24,32575,-40,dep,h,2149.285,mismatch-type1,1,pilot1
contingency,3467073,task,25,11375,-95,wug,h,4966.085,mismatch-type1,1,pilot1
contingency,3467073,task,26,33275,17,dep,h,3491.44,mismatch-type1,1,pilot1
contingency,3467073,task,27,12275,25,dep,h,5213.785,match,1,pilot1
contingency,3467073,task,28,31425,-53,tob,l,3095.35,match,1,pilot1
contingency,3467073,task,29,21975,-66,tob,h,2649.265,mismatch-type1,1,pilot1
contingency,3467073,task,30,11625,18,tob,l,2416.585,mismatch-type1,1,pilot1
contingency,3467073,task,31,22125,-76,wug,l,2714.555,match,1,pilot1
contingency,3467073,task,32,11325,21,tob,l,2786.3,mismatch-type1,1,pilot1
contingency,3467073,task,33,30825,-90,tob,l,2911.72,match,1,pilot1
contingency,3467073,task,34,12875,-75,wug,h,3665.3,mismatch-type1,1,pilot1
contingency,3467073,task,35,32775,29,dep,h,2389.455,mismatch-type1,1,pilot1
contingency,3467073,task,36,23175,-71,tob,h,2542.17,mismatch-type1,1,pilot1
contingency,3467073,task,37,20425,-75,wug,l,2678.88,match,1,pilot1
contingency,3467073,task,38,20925,-97,wug,l,2388.64,match,1,pilot1
contingency,3467073,task,39,31475,19,tob,h,2537.705,match,1,pilot1
contingency,3467073,task,40,12325,56,tob,l,2126.28,mismatch-type1,1,pilot1
contingency,3467073,task,41,32025,100,wug,l,3471.035,mismatch-type1,1,pilot1
contingency,3467073,task,42,12225,-64,dep,l,3206.285,match,1,pilot1
contingency,3467073,task,43,12125,-66,dep,l,3591.89,match,1,pilot1
contingency,3467073,task,44,22375,100,wug,h,2942.62,match,1,pilot1
contingency,3467073,task,45,31575,-34,tob,h,2350.295,match,1,pilot1
contingency,3467073,task,46,10975,25,dep,h,4478.355,match,1,pilot1
contingency,3467073,task,47,32275,49,tob,h,2048.365,match,1,pilot1
contingency,3467073,task,48,10675,-26,wug,h,3242.6,mismatch-type1,1,pilot1
contingency,3467073,task,49,32525,98,wug,l,4613.86,mismatch-type1,1,pilot1
contingency,3467073,task,50,21025,-87,wug,l,2725.015,match,1,pilot1
contingency,3467073,task,51,10925,35,tob,l,2233.905,mismatch-type1,1,pilot1
contingency,3467073,task,52,33075,35,dep,h,3627.475,mismatch-type1,1,pilot1
contingency,3467073,task,53,10625,19,dep,l,1638.685,match,1,pilot1
contingency,3467073,task,54,32225,-83,tob,l,2402.51,match,1,pilot1
contingency,3467073,task,55,22225,49,dep,l,2941.125,mismatch-type1,1,pilot1
contingency,3467073,task,56,11975,-86,wug,h,3861.635,mismatch-type1,1,pilot1
contingency,3467073,task,57,30275,50,tob,h,2231.245,match,1,pilot1
contingency,3467073,task,58,22175,-86,tob,h,3439.25,mismatch-type1,1,pilot1
contingency,3467073,task,59,31725,-96,tob,l,2709.765,match,1,pilot1
contingency,3467073,task,60,20575,-98,tob,h,2745.08,mismatch-type1,1,pilot1
contingency,3430836,task,1,20375,100,wug,h,4591.81,match,1,pilot1
contingency,3430836,task,2,11025,34,dep,l,6283.665,match,1,pilot1
contingency,3430836,task,3,21125,-58,dep,l,5836.57,mismatch-type1,1,pilot1
contingency,3430836,task,4,22475,100,wug,h,3817.45,match,1,pilot1
contingency,3430836,task,5,13375,100,dep,h,3703.845,match,1,pilot1
contingency,3430836,task,6,21675,-100,tob,h,4761.335,mismatch-type1,1,pilot1
contingency,3430836,task,7,31525,-39,wug,l,5496.65,mismatch-type1,1,pilot1
contingency,3430836,task,8,30875,100,tob,h,5533.78,match,1,pilot1
contingency,3430836,task,9,11725,30,dep,l,4198.475,match,1,pilot1
contingency,3430836,task,10,30975,-100,dep,h,4052.25,mismatch-type1,1,pilot1
contingency,3430836,task,11,20825,-31,dep,l,4943.77,mismatch-type1,1,pilot1
contingency,3430836,task,12,30225,-55,wug,l,4240.455,mismatch-type1,1,pilot1
contingency,3430836,task,13,11875,100,dep,h,2830.175,match,1,pilot1
contingency,3430836,task,14,12075,-100,wug,h,5562.105,mismatch-type1,1,pilot1
contingency,3430836,task,15,20775,88,wug,h,4480.215,match,1,pilot1
contingency,3430836,task,16,30325,-42,wug,l,3602.545,mismatch-type1,1,pilot1
contingency,3430836,task,17,30725,48,tob,l,3848.215,match,1,pilot1
contingency,3430836,task,18,11425,-53,tob,l,4039.77,mismatch-type1,1,pilot1
contingency,3430836,task,19,20325,-57,dep,l,5180.69,mismatch-type1,1,pilot1
contingency,3430836,task,20,20625,46,wug,l,4539.97,match,1,pilot1
contingency,3430836,task,21,21575,98,wug,h,3553.93,match,1,pilot1
contingency,3430836,task,22,10175,100,dep,h,2913.645,match,1,pilot1
contingency,3430836,task,23,22325,-54,dep,l,5368.775,mismatch-type1,1,pilot1
contingency,3430836,task,24,32575,-100,dep,h,4796.92,mismatch-type1,1,pilot1
contingency,3430836,task,25,11375,-97,wug,h,3930.475,mismatch-type1,1,pilot1
contingency,3430836,task,26,33275,-100,dep,h,3236.73,mismatch-type1,1,pilot1
contingency,3430836,task,27,12275,100,dep,h,6418.855,match,1,pilot1
contingency,3430836,task,28,31425,-37,tob,l,5969.09,match,1,pilot1
contingency,3430836,task,29,21975,-100,tob,h,4216.405,mismatch-type1,1,pilot1
contingency,3430836,task,30,11625,-50,tob,l,3730.635,mismatch-type1,1,pilot1
contingency,3430836,task,31,22125,46,wug,l,5499.73,match,1,pilot1
contingency,3430836,task,32,11325,-51,tob,l,3313.58,mismatch-type1,1,pilot1
contingency,3430836,task,33,30825,-100,tob,l,5435.135,match,1,pilot1
contingency,3430836,task,34,12875,-100,wug,h,5301.72,mismatch-type1,1,pilot1
contingency,3430836,task,35,32775,-100,dep,h,3404.575,mismatch-type1,1,pilot1
contingency,3430836,task,36,23175,-100,tob,h,3276.515,mismatch-type1,1,pilot1
contingency,3430836,task,37,20425,44,wug,l,5152.89,match,1,pilot1
contingency,3430836,task,38,20925,54,wug,l,3439.735,match,1,pilot1
contingency,3430836,task,39,31475,100,tob,h,3129.81,match,1,pilot1
contingency,3430836,task,40,12325,-63,tob,l,3892.25,mismatch-type1,1,pilot1
contingency,3430836,task,41,32025,-70,wug,l,4208.74,mismatch-type1,1,pilot1
contingency,3430836,task,42,12225,49,dep,l,3709.765,match,1,pilot1
contingency,3430836,task,43,12125,47,dep,l,3197.125,match,1,pilot1
contingency,3430836,task,44,22375,100,wug,h,4991.65,match,1,pilot1
contingency,3430836,task,45,31575,100,tob,h,2781.795,match,1,pilot1
contingency,3430836,task,46,10975,100,dep,h,2816.17,match,1,pilot1
contingency,3430836,task,47,32275,100,tob,h,2880.015,match,1,pilot1
contingency,3430836,task,48,10675,-99,wug,h,4223.07,mismatch-type1,1,pilot1
contingency,3430836,task,49,32525,54,wug,l,5126.555,mismatch-type1,1,pilot1
contingency,3430836,task,50,21025,27,wug,l,5338.185,match,1,pilot1
contingency,3430836,task,51,10925,-47,tob,l,4124.915,mismatch-type1,1,pilot1
contingency,3430836,task,52,33075,-72,dep,h,3891.305,mismatch-type1,1,pilot1
contingency,3430836,task,53,10625,54,dep,l,4432.73,match,1,pilot1
contingency,3430836,task,54,32225,-86,tob,l,6152.13,match,1,pilot1
contingency,3430836,task,55,22225,-37,dep,l,6573.99,mismatch-type1,1,pilot1
contingency,3430836,task,56,11975,-100,wug,h,3350.015,mismatch-type1,1,pilot1
contingency,3430836,task,57,30275,100,tob,h,2926.48,match,1,pilot1
contingency,3430836,task,58,22175,-100,tob,h,4804.48,mismatch-type1,1,pilot1
contingency,3430836,task,59,31725,43,tob,l,7638.15,match,1,pilot1
contingency,3430836,task,60,20575,-100,tob,h,4281.45,mismatch-type1,1,pilot1
contingency,3424063,task,1,20375,100,wug,h,4173,match,1,pilot1
contingency,3424063,task,2,11025,100,dep,l,2647,match,1,pilot1
contingency,3424063,task,3,21125,-100,dep,l,2695,mismatch-type1,1,pilot1
contingency,3424063,task,4,22475,100,wug,h,2208,match,1,pilot1
contingency,3424063,task,5,13375,100,dep,h,4431,match,1,pilot1
contingency,3424063,task,6,21675,-98,tob,h,3933,mismatch-type1,1,pilot1
contingency,3424063,task,7,31525,-99,wug,l,3276,mismatch-type1,1,pilot1
contingency,3424063,task,8,30875,99,tob,h,3082,match,1,pilot1
contingency,3424063,task,9,11725,99,dep,l,2845,match,1,pilot1
contingency,3424063,task,10,30975,-99,dep,h,4034,mismatch-type1,1,pilot1
contingency,3424063,task,11,20825,-98,dep,l,3357,mismatch-type1,1,pilot1
contingency,3424063,task,12,30225,-99,wug,l,3256,mismatch-type1,1,pilot1
contingency,3424063,task,13,11875,98,dep,h,2847,match,1,pilot1
contingency,3424063,task,14,12075,-100,wug,h,3328,mismatch-type1,1,pilot1
contingency,3424063,task,15,20775,100,wug,h,4385,match,1,pilot1
contingency,3424063,task,16,30325,-100,wug,l,2772,mismatch-type1,1,pilot1
contingency,3424063,task,17,30725,98,tob,l,3212,match,1,pilot1
contingency,3424063,task,18,11425,-100,tob,l,5239,mismatch-type1,1,pilot1
contingency,3424063,task,19,20325,-98,dep,l,3082,mismatch-type1,1,pilot1
contingency,3424063,task,20,20625,100,wug,l,2861,match,1,pilot1
contingency,3424063,task,21,21575,99,wug,h,2232,match,1,pilot1
contingency,3424063,task,22,10175,99,dep,h,2071,match,1,pilot1
contingency,3424063,task,23,22325,-99,dep,l,2467,mismatch-type1,1,pilot1
contingency,3424063,task,24,32575,-100,dep,h,2999,mismatch-type1,1,pilot1
contingency,3424063,task,25,11375,-100,wug,h,2313,mismatch-type1,1,pilot1
contingency,3424063,task,26,33275,-99,dep,h,2525,mismatch-type1,1,pilot1
contingency,3424063,task,27,12275,99,dep,h,2634,match,1,pilot1
contingency,3424063,task,28,31425,100,tob,l,2305,match,1,pilot1
contingency,3424063,task,29,21975,-100,tob,h,2651,mismatch-type1,1,pilot1
contingency,3424063,task,30,11625,-99,tob,l,3243,mismatch-type1,1,pilot1
contingency,3424063,task,31,22125,98,wug,l,2598,match,1,pilot1
contingency,3424063,task,32,11325,-99,tob,l,2975,mismatch-type1,1,pilot1
contingency,3424063,task,33,30825,98,tob,l,2699,match,1,pilot1
contingency,3424063,task,34,12875,-99,wug,h,2740,mismatch-type1,1,pilot1
contingency,3424063,task,35,32775,-100,dep,h,2459,mismatch-type1,1,pilot1
contingency,3424063,task,36,23175,-100,tob,h,2752,mismatch-type1,1,pilot1
contingency,3424063,task,37,20425,100,wug,l,4495,match,1,pilot1
contingency,3424063,task,38,20925,99,wug,l,2136,match,1,pilot1
contingency,3424063,task,39,31475,99,tob,h,4869,match,1,pilot1
contingency,3424063,task,40,12325,-100,tob,l,2439,mismatch-type1,1,pilot1
contingency,3424063,task,41,32025,-99,wug,l,2682,mismatch-type1,1,pilot1
contingency,3424063,task,42,12225,98,dep,l,3161,match,1,pilot1
contingency,3424063,task,43,12125,99,dep,l,2966,match,1,pilot1
contingency,3424063,task,44,22375,99,wug,h,2176,match,1,pilot1
contingency,3424063,task,45,31575,99,tob,h,2034,match,1,pilot1
contingency,3424063,task,46,10975,100,dep,h,2243,match,1,pilot1
contingency,3424063,task,47,32275,98,tob,h,2820,match,1,pilot1
contingency,3424063,task,48,10675,-99,wug,h,2883,mismatch-type1,1,pilot1
contingency,3424063,task,49,32525,-100,wug,l,2606,mismatch-type1,1,pilot1
contingency,3424063,task,50,21025,99,wug,l,2284,match,1,pilot1
contingency,3424063,task,51,10925,-100,tob,l,2870,mismatch-type1,1,pilot1
contingency,3424063,task,52,33075,-100,dep,h,2141,mismatch-type1,1,pilot1
contingency,3424063,task,53,10625,99,dep,l,2680,match,1,pilot1
contingency,3424063,task,54,32225,99,tob,l,2023,match,1,pilot1
contingency,3424063,task,55,22225,-98,dep,l,3424,mismatch-type1,1,pilot1
contingency,3424063,task,56,11975,-99,wug,h,1970,mismatch-type1,1,pilot1
contingency,3424063,task,57,30275,99,tob,h,1997,match,1,pilot1
contingency,3424063,task,58,22175,-99,tob,h,2525,mismatch-type1,1,pilot1
contingency,3424063,task,59,31725,99,tob,l,2665,match,1,pilot1
contingency,3424063,task,60,20575,-100,tob,h,3035,mismatch-type1,1,pilot1
contingency,3421453,task,1,20375,100,wug,h,4979.35,match,1,pilot1
contingency,3421453,task,2,11025,100,dep,l,2982.405,match,1,pilot1
contingency,3421453,task,3,21125,-78,dep,l,6380.595,mismatch-type1,1,pilot1
contingency,3421453,task,4,22475,87,wug,h,2968.68,match,1,pilot1
contingency,3421453,task,5,13375,100,dep,h,3679.35,match,1,pilot1
contingency,3421453,task,6,21675,-99,tob,h,5320.79,mismatch-type1,1,pilot1
contingency,3421453,task,7,31525,-78,wug,l,3435.405,mismatch-type1,1,pilot1
contingency,3421453,task,8,30875,75,tob,h,3149.355,match,1,pilot1
contingency,3421453,task,9,11725,90,dep,l,2773.52,match,1,pilot1
contingency,3421453,task,10,30975,-88,dep,h,4286.675,mismatch-type1,1,pilot1
contingency,3421453,task,11,20825,-83,dep,l,3970.95,mismatch-type1,1,pilot1
contingency,3421453,task,12,30225,-84,wug,l,3474.075,mismatch-type1,1,pilot1
contingency,3421453,task,13,11875,85,dep,h,3113.94,match,1,pilot1
contingency,3421453,task,14,12075,-100,wug,h,2583.06,mismatch-type1,1,pilot1
contingency,3421453,task,15,20775,77,wug,h,3276.845,match,1,pilot1
contingency,3421453,task,16,30325,-82,wug,l,2642.105,mismatch-type1,1,pilot1
contingency,3421453,task,17,30725,81,tob,l,2305.545,match,1,pilot1
contingency,3421453,task,18,11425,-74,tob,l,2164.555,mismatch-type1,1,pilot1
contingency,3421453,task,19,20325,-92,dep,l,3102.225,mismatch-type1,1,pilot1
contingency,3421453,task,20,20625,78,wug,l,4348.38,match,1,pilot1
contingency,3421453,task,21,21575,79,wug,h,2929.015,match,1,pilot1
contingency,3421453,task,22,10175,85,dep,h,2523.255,match,1,pilot1
contingency,3421453,task,23,22325,-83,dep,l,2422.79,mismatch-type1,1,pilot1
contingency,3421453,task,24,32575,-85,dep,h,3163.37,mismatch-type1,1,pilot1
contingency,3421453,task,25,11375,-100,wug,h,3892.445,mismatch-type1,1,pilot1
contingency,3421453,task,26,33275,-100,dep,h,2076.235,mismatch-type1,1,pilot1
contingency,3421453,task,27,12275,87,dep,h,3756.445,match,1,pilot1
contingency,3421453,task,28,31425,62,tob,l,3144.645,match,1,pilot1
contingency,3421453,task,29,21975,-90,tob,h,2712.875,mismatch-type1,1,pilot1
contingency,3421453,task,30,11625,-100,tob,l,2296.68,mismatch-type1,1,pilot1
contingency,3421453,task,31,22125,77,wug,l,2967.725,match,1,pilot1
contingency,3421453,task,32,11325,-100,tob,l,2185.96,mismatch-type1,1,pilot1
contingency,3421453,task,33,30825,-75,tob,l,5019.96,match,1,pilot1
contingency,3421453,task,34,12875,-100,wug,h,2177.05,mismatch-type1,1,pilot1
contingency,3421453,task,35,32775,-85,dep,h,2094.07,mismatch-type1,1,pilot1
contingency,3421453,task,36,23175,-80,tob,h,3088.045,mismatch-type1,1,pilot1
contingency,3421453,task,37,20425,83,wug,l,2051.785,match,1,pilot1
contingency,3421453,task,38,20925,85,wug,l,1889.515,match,1,pilot1
contingency,3421453,task,39,31475,65,tob,h,5699.76,match,1,pilot1
contingency,3421453,task,40,12325,-98,tob,l,1979.93,mismatch-type1,1,pilot1
contingency,3421453,task,41,32025,-63,wug,l,2077.2,mismatch-type1,1,pilot1
contingency,3421453,task,42,12225,81,dep,l,2691.055,match,1,pilot1
contingency,3421453,task,43,12125,60,dep,l,1725.685,match,1,pilot1
contingency,3421453,task,44,22375,83,wug,h,2263.225,match,1,pilot1
contingency,3421453,task,45,31575,80,tob,h,3524.62,match,1,pilot1
contingency,3421453,task,46,10975,51,dep,h,3364.435,match,1,pilot1
contingency,3421453,task,47,32275,70,tob,h,2159.15,match,1,pilot1
contingency,3421453,task,48,10675,79,wug,h,2590.555,mismatch-type1,1,pilot1
contingency,3421453,task,49,32525,-76,wug,l,8499.956,mismatch-type1,1,pilot1
contingency,3421453,task,50,21025,-87,wug,l,4573.38,match,1,pilot1
contingency,3421453,task,51,10925,-75,tob,l,5450.995,mismatch-type1,1,pilot1
contingency,3421453,task,52,33075,-70,dep,h,2876.77,mismatch-type1,1,pilot1
contingency,3421453,task,53,10625,78,dep,l,1973.935,match,1,pilot1
contingency,3421453,task,54,32225,66,tob,l,1876.315,match,1,pilot1
contingency,3421453,task,55,22225,-80,dep,l,2053.87,mismatch-type1,1,pilot1
contingency,3421453,task,56,11975,-75,wug,h,2349.74,mismatch-type1,1,pilot1
contingency,3421453,task,57,30275,-83,tob,h,4713.905,match,1,pilot1
contingency,3421453,task,58,22175,65,tob,h,14176.02,mismatch-type1,1,pilot1
contingency,3421453,task,59,31725,72,tob,l,3714.56,match,1,pilot1
contingency,3421453,task,60,20575,-75,tob,h,3219.495,mismatch-type1,1,pilot1
contingency,3394859,task,1,20375,99,wug,h,5745.795,match,1,pilot1
contingency,3394859,task,2,11025,100,dep,l,3881.955,match,1,pilot1
contingency,3394859,task,3,21125,-100,dep,l,2897.55,mismatch-type1,1,pilot1
contingency,3394859,task,4,22475,100,wug,h,2504.425,match,1,pilot1
contingency,3394859,task,5,13375,100,dep,h,2842.34,match,1,pilot1
contingency,3394859,task,6,21675,-100,tob,h,2505.5,mismatch-type1,1,pilot1
contingency,3394859,task,7,31525,-100,wug,l,2483.19,mismatch-type1,1,pilot1
contingency,3394859,task,8,30875,100,tob,h,2208.23,match,1,pilot1
contingency,3394859,task,9,11725,100,dep,l,2575.815,match,1,pilot1
contingency,3394859,task,10,30975,-98,dep,h,2087.37,mismatch-type1,1,pilot1
contingency,3394859,task,11,20825,-100,dep,l,2199.415,mismatch-type1,1,pilot1
contingency,3394859,task,12,30225,-100,wug,l,1953.155,mismatch-type1,1,pilot1
contingency,3394859,task,13,11875,99,dep,h,1862.81,match,1,pilot1
contingency,3394859,task,14,12075,-100,wug,h,2005.44,mismatch-type1,1,pilot1
contingency,3394859,task,15,20775,100,wug,h,4531.75,match,1,pilot1
contingency,3394859,task,16,30325,-100,wug,l,2379.645,mismatch-type1,1,pilot1
contingency,3394859,task,17,30725,100,tob,l,4076.76,match,1,pilot1
contingency,3394859,task,18,11425,-100,tob,l,2478.04,mismatch-type1,1,pilot1
contingency,3394859,task,19,20325,-100,dep,l,2116.865,mismatch-type1,1,pilot1
contingency,3394859,task,20,20625,100,wug,l,2065.485,match,1,pilot1
contingency,3394859,task,21,21575,100,wug,h,2117.555,match,1,pilot1
contingency,3394859,task,22,10175,100,dep,h,2311.335,match,1,pilot1
contingency,3394859,task,23,22325,-100,dep,l,2018.775,mismatch-type1,1,pilot1
contingency,3394859,task,24,32575,-100,dep,h,2198.15,mismatch-type1,1,pilot1
contingency,3394859,task,25,11375,-100,wug,h,2243.65,mismatch-type1,1,pilot1
contingency,3394859,task,26,33275,-100,dep,h,3438.36,mismatch-type1,1,pilot1
contingency,3394859,task,27,12275,100,dep,h,2601.03,match,1,pilot1
contingency,3394859,task,28,31425,100,tob,l,2426.95,match,1,pilot1
contingency,3394859,task,29,21975,-100,tob,h,2138.94,mismatch-type1,1,pilot1
contingency,3394859,task,30,11625,-100,tob,l,4730.16,mismatch-type1,1,pilot1
contingency,3394859,task,31,22125,100,wug,l,2189.685,match,1,pilot1
contingency,3394859,task,32,11325,-100,tob,l,2410.94,mismatch-type1,1,pilot1
contingency,3394859,task,33,30825,100,tob,l,2189.63,match,1,pilot1
contingency,3394859,task,34,12875,-100,wug,h,4652.905,mismatch-type1,1,pilot1
contingency,3394859,task,35,32775,-100,dep,h,2171.77,mismatch-type1,1,pilot1
contingency,3394859,task,36,23175,-100,tob,h,3932.76,mismatch-type1,1,pilot1
contingency,3394859,task,37,20425,100,wug,l,2056.59,match,1,pilot1
contingency,3394859,task,38,20925,100,wug,l,2080.295,match,1,pilot1
contingency,3394859,task,39,31475,100,tob,h,1859.355,match,1,pilot1
contingency,3394859,task,40,12325,-100,tob,l,3415.295,mismatch-type1,1,pilot1
contingency,3394859,task,41,32025,-100,wug,l,2340.76,mismatch-type1,1,pilot1
contingency,3394859,task,42,12225,100,dep,l,2878.11,match,1,pilot1
contingency,3394859,task,43,12125,100,dep,l,2112.015,match,1,pilot1
contingency,3394859,task,44,22375,100,wug,h,2076.03,match,1,pilot1
contingency,3394859,task,45,31575,100,tob,h,3919.67,match,1,pilot1
contingency,3394859,task,46,10975,100,dep,h,2628.46,match,1,pilot1
contingency,3394859,task,47,32275,100,tob,h,2121.435,match,1,pilot1
contingency,3394859,task,48,10675,-100,wug,h,3997.82,mismatch-type1,1,pilot1
contingency,3394859,task,49,32525,-100,wug,l,1842.225,mismatch-type1,1,pilot1
contingency,3394859,task,50,21025,100,wug,l,2197.475,match,1,pilot1
contingency,3394859,task,51,10925,-100,tob,l,2144.73,mismatch-type1,1,pilot1
contingency,3394859,task,52,33075,-100,dep,h,2300.28,mismatch-type1,1,pilot1
contingency,3394859,task,53,10625,100,dep,l,5286.83,match,1,pilot1
contingency,3394859,task,54,32225,100,tob,l,2250.07,match,1,pilot1
contingency,3394859,task,55,22225,-99,dep,l,2046.21,mismatch-type1,1,pilot1
contingency,3394859,task,56,11975,-100,wug,h,1911.045,mismatch-type1,1,pilot1
contingency,3394859,task,57,30275,100,tob,h,1912.86,match,1,pilot1
contingency,3394859,task,58,22175,-100,tob,h,1759.545,mismatch-type1,1,pilot1
contingency,3394859,task,59,31725,-100,tob,l,1937.185,match,1,pilot1
contingency,3394859,task,60,20575,-100,tob,h,2493.79,mismatch-type1,1,pilot1
contingency,3475213,task,1,20375,100,wug,h,4842.97,match,1,pilot1
contingency,3475213,task,2,11025,100,dep,l,4264.49,match,1,pilot1
contingency,3475213,task,3,21125,42,dep,l,5837.705,mismatch-type1,1,pilot1
contingency,3475213,task,4,22475,100,wug,h,2913.855,match,1,pilot1
contingency,3475213,task,5,13375,100,dep,h,3215.875,match,1,pilot1
contingency,3475213,task,6,21675,-100,tob,h,3547.8,mismatch-type1,1,pilot1
contingency,3475213,task,7,31525,-100,wug,l,2580.895,mismatch-type1,1,pilot1
contingency,3475213,task,8,30875,100,tob,h,5480.905,match,1,pilot1
contingency,3475213,task,9,11725,41,dep,l,4012.58,match,1,pilot1
contingency,3475213,task,10,30975,-77,dep,h,3920.83,mismatch-type1,1,pilot1
contingency,3475213,task,11,20825,-50,dep,l,2305.04,mismatch-type1,1,pilot1
contingency,3475213,task,12,30225,-100,wug,l,2937.155,mismatch-type1,1,pilot1
contingency,3475213,task,13,11875,100,dep,h,3327.27,match,1,pilot1
contingency,3475213,task,14,12075,-100,wug,h,4920.68,mismatch-type1,1,pilot1
contingency,3475213,task,15,20775,100,wug,h,2934.805,match,1,pilot1
contingency,3475213,task,16,30325,-100,wug,l,2334.03,mismatch-type1,1,pilot1
contingency,3475213,task,17,30725,100,tob,l,2739.2,match,1,pilot1
contingency,3475213,task,18,11425,-42,tob,l,2779.605,mismatch-type1,1,pilot1
contingency,3475213,task,19,20325,64,dep,l,4188.595,mismatch-type1,1,pilot1
contingency,3475213,task,20,20625,-44,wug,l,2734.295,match,1,pilot1
contingency,3475213,task,21,21575,100,wug,h,2878.56,match,1,pilot1
contingency,3475213,task,22,10175,100,dep,h,2640.265,match,1,pilot1
contingency,3475213,task,23,22325,-76,dep,l,4409.13,mismatch-type1,1,pilot1
contingency,3475213,task,24,32575,-66,dep,h,2563.425,mismatch-type1,1,pilot1
contingency,3475213,task,25,11375,-80,wug,h,5033.855,mismatch-type1,1,pilot1
contingency,3475213,task,26,33275,-42,dep,h,3165.79,mismatch-type1,1,pilot1
contingency,3475213,task,27,12275,100,dep,h,2500.625,match,1,pilot1
contingency,3475213,task,28,31425,100,tob,l,3704.575,match,1,pilot1
contingency,3475213,task,29,21975,-100,tob,h,2284.93,mismatch-type1,1,pilot1
contingency,3475213,task,30,11625,-99,tob,l,3472.39,mismatch-type1,1,pilot1
contingency,3475213,task,31,22125,-52,wug,l,3003.29,match,1,pilot1
contingency,3475213,task,32,11325,-54,tob,l,3407.545,mismatch-type1,1,pilot1
contingency,3475213,task,33,30825,100,tob,l,2468.485,match,1,pilot1
contingency,3475213,task,34,12875,-48,wug,h,2784.7,mismatch-type1,1,pilot1
contingency,3475213,task,35,32775,-31,dep,h,5359.005,mismatch-type1,1,pilot1
contingency,3475213,task,36,23175,-100,tob,h,3338.53,mismatch-type1,1,pilot1
contingency,3475213,task,37,20425,-45,wug,l,2601.56,match,1,pilot1
contingency,3475213,task,38,20925,-56,wug,l,3174.49,match,1,pilot1
contingency,3475213,task,39,31475,100,tob,h,2471.995,match,1,pilot1
contingency,3475213,task,40,12325,100,tob,l,2705.2,mismatch-type1,1,pilot1
contingency,3475213,task,41,32025,-100,wug,l,2321.54,mismatch-type1,1,pilot1
contingency,3475213,task,42,12225,-56,dep,l,2694.32,match,1,pilot1
contingency,3475213,task,43,12125,-47,dep,l,1938.4,match,1,pilot1
contingency,3475213,task,44,22375,100,wug,h,2530.575,match,1,pilot1
contingency,3475213,task,45,31575,100,tob,h,2912.09,match,1,pilot1
contingency,3475213,task,46,10975,100,dep,h,3381.4,match,1,pilot1
contingency,3475213,task,47,32275,100,tob,h,2886.195,match,1,pilot1
contingency,3475213,task,48,10675,-100,wug,h,2264.325,mismatch-type1,1,pilot1
contingency,3475213,task,49,32525,-97,wug,l,3795.29,mismatch-type1,1,pilot1
contingency,3475213,task,50,21025,60,wug,l,4681.395,match,1,pilot1
contingency,3475213,task,51,10925,-42,tob,l,5116.025,mismatch-type1,1,pilot1
contingency,3475213,task,52,33075,-41,dep,h,2660.61,mismatch-type1,1,pilot1
contingency,3475213,task,53,10625,66,dep,l,2860.67,match,1,pilot1
contingency,3475213,task,54,32225,98,tob,l,4140.145,match,1,pilot1
contingency,3475213,task,55,22225,52,dep,l,4439.825,mismatch-type1,1,pilot1
contingency,3475213,task,56,11975,-99,wug,h,4213.38,mismatch-type1,1,pilot1
contingency,3475213,task,57,30275,100,tob,h,3531.57,match,1,pilot1
contingency,3475213,task,58,22175,-100,tob,h,2288.37,mismatch-type1,1,pilot1
contingency,3475213,task,59,31725,100,tob,l,2641.055,match,1,pilot1
contingency,3475213,task,60,20575,-100,tob,h,1988.335,mismatch-type1,1,pilot1
