fribbleID,subjID,learning,task,label,rt,resp,plugin,trialIndex,acc,trialType,frequency,fribblePresented,trial,labelPresented,correctCategory,correctFrequency,correctLabel,body
1025,1805848,LF,conJudg,wug,2026.81499999994,-49,image-slider-response,693,NA,match,l,2.2,5,wug,2,low,wug,blue
1025,1803468,LF,conJudg,wug,2487.67499998212,0,image-slider-response,639,NA,match,l,2.2,5,wug,2,low,wug,blue
1025,1846268,FL,conJudg,wug,1894.16499994695,-100,image-slider-response,635,NA,match,l,2.2,5,wug,2,low,wug,blue
1025,1826960,LF,conJudg,wug,3783.61999988556,-99,image-slider-response,685,NA,match,l,2.2,5,wug,2,low,wug,blue
1025,1860901,LF,conJudg,wug,3864.73500000103,-81,image-slider-response,669,NA,match,l,2.2,5,wug,2,low,wug,blue
1025,1802987,LF,conJudg,wug,2037.13500000047,-100,image-slider-response,703,NA,match,l,2.2,5,wug,2,low,wug,blue
1025,1802109,FL,conJudg,wug,4195.71499992162,0,image-slider-response,695,NA,match,l,2.2,5,wug,2,low,wug,blue
1025,1802984,LF,conJudg,wug,2439.45000000531,-66,image-slider-response,629,NA,match,l,2.2,5,wug,2,low,wug,blue
1025,1826537,LF,conJudg,wug,4309.60499995854,-34,image-slider-response,693,NA,match,l,2.2,5,wug,2,low,wug,blue
1025,1810097,LF,conJudg,wug,1997.42999998853,-45,image-slider-response,703,NA,match,l,2.2,5,wug,2,low,wug,blue
1025,1828956,LF,conJudg,wug,1017.96999998624,0,image-slider-response,601,NA,match,l,2.2,5,wug,2,low,wug,blue
1025,1839507,FL,conJudg,wug,2559.0900000534,36,image-slider-response,641,NA,match,l,2.2,5,wug,2,low,wug,blue
1025,1826534,FL,conJudg,wug,1935.54999999469,-100,image-slider-response,619,NA,match,l,2.2,5,wug,2,low,wug,blue
1025,1826940,LF,conJudg,wug,2145.62999992631,33,image-slider-response,669,NA,match,l,2.2,5,wug,2,low,wug,blue
1025,1810094,LF,conJudg,wug,3481.53500002809,-89,image-slider-response,711,NA,match,l,2.2,5,wug,2,low,wug,blue
1025,1852272,LF,conJudg,wug,2966.78000000247,20,image-slider-response,677,NA,match,l,2.2,5,wug,2,low,wug,blue
1025,1810084,LF,conJudg,wug,2283.49999999767,0,image-slider-response,691,NA,match,l,2.2,5,wug,2,low,wug,blue
1025,1828965,LF,conJudg,wug,3561.61499999871,97,image-slider-response,611,NA,match,l,2.2,5,wug,2,low,wug,blue
1025,1807534,LF,conJudg,wug,2279.94000003673,-71,image-slider-response,635,NA,match,l,2.2,5,wug,2,low,wug,blue
1025,1825241,LF,conJudg,wug,1889.20500001404,-100,image-slider-response,687,NA,match,l,2.2,5,wug,2,low,wug,blue
1025,1824046,FL,conJudg,wug,3187.45999998646,-27,image-slider-response,617,NA,match,l,2.2,5,wug,2,low,wug,blue
1025,1826533,FL,conJudg,wug,5069.83499997295,-100,image-slider-response,619,NA,match,l,2.2,5,wug,2,low,wug,blue
1025,1802992,LF,conJudg,wug,2091.56500000972,100,image-slider-response,665,NA,match,l,2.2,5,wug,2,low,wug,blue
1025,1826942,FL,conJudg,wug,2416.94500000088,15,image-slider-response,655,NA,match,l,2.2,5,wug,2,low,wug,blue
1025,1802216,LF,conJudg,wug,3088,35,image-slider-response,661,NA,match,l,2.2,5,wug,2,low,wug,blue
1025,1799963,FL,conJudg,wug,1859.17999997037,-76,image-slider-response,701,NA,match,l,2.2,5,wug,2,low,wug,blue
1025,1826930,LF,conJudg,wug,1857.77999996208,36,image-slider-response,695,NA,match,l,2.2,5,wug,2,low,wug,blue
1025,1825230,FL,conJudg,wug,2510.21500001661,-100,image-slider-response,607,NA,match,l,2.2,5,wug,2,low,wug,blue
1025,1827631,FL,conJudg,wug,4301.39999999665,-9,image-slider-response,631,NA,match,l,2.2,5,wug,2,low,wug,blue
1025,1828968,LF,conJudg,wug,5781.58499998972,-100,image-slider-response,601,NA,match,l,2.2,5,wug,2,low,wug,blue
1025,1826954,LF,conJudg,wug,3167,88,image-slider-response,675,NA,match,l,2.2,5,wug,2,low,wug,blue
1025,1800351,FL,conJudg,wug,2967.01999998186,-83,image-slider-response,663,NA,match,l,2.2,5,wug,2,low,wug,blue
1025,1845200,LF,conJudg,wug,3193.13000002876,-55,image-slider-response,717,NA,match,l,2.2,5,wug,2,low,wug,blue
1025,1826950,LF,conJudg,wug,1593.3199999854,-100,image-slider-response,689,NA,match,l,2.2,5,wug,2,low,wug,blue
1025,1851567,LF,conJudg,wug,1908.23000000091,-100,image-slider-response,627,NA,match,l,2.2,5,wug,2,low,wug,blue
1025,1851568,LF,conJudg,wug,1452.02000000433,38,image-slider-response,657,NA,match,l,2.2,5,wug,2,low,wug,blue
1025,1825233,FL,conJudg,wug,3931,10,image-slider-response,633,NA,match,l,2.2,5,wug,2,low,wug,blue
1025,1803488,LF,conJudg,wug,2877.02499999432,-26,image-slider-response,641,NA,match,l,2.2,5,wug,2,low,wug,blue
1025,1825237,FL,conJudg,wug,5743,0,image-slider-response,695,NA,match,l,2.2,5,wug,2,low,wug,blue
1025,1803482,LF,conJudg,wug,1951.80999999866,-51,image-slider-response,613,NA,match,l,2.2,5,wug,2,low,wug,blue
1025,1851428,FL,conJudg,wug,6056.53499999607,-100,image-slider-response,601,NA,match,l,2.2,5,wug,2,low,wug,blue
1025,1800340,LF,conJudg,wug,3167.74500004249,43,image-slider-response,713,NA,match,l,2.2,5,wug,2,low,wug,blue
1025,1825232,FL,conJudg,wug,2200.92999999179,26,image-slider-response,613,NA,match,l,2.2,5,wug,2,low,wug,blue
1025,1825243,LF,conJudg,wug,2367.96999999206,-67,image-slider-response,669,NA,match,l,2.2,5,wug,2,low,wug,blue
1025,1826929,LF,conJudg,wug,3269,-87,image-slider-response,685,NA,match,l,2.2,5,wug,2,low,wug,blue
1025,1802184,FL,conJudg,wug,NA,NA,image-slider-response,693,NA,match,l,2.2,5,wug,2,low,wug,blue
1025,1826934,FL,conJudg,wug,3406.02500000026,-100,image-slider-response,607,NA,match,l,2.2,5,wug,2,low,wug,blue
1025,1845205,FL,conJudg,wug,4382.2050000017,-38,image-slider-response,703,NA,match,l,2.2,5,wug,2,low,wug,blue
1025,1852241,LF,conJudg,wug,1491,-89,image-slider-response,613,NA,match,l,2.2,5,wug,2,low,wug,blue
1025,1826938,LF,conJudg,wug,2788.71500003152,-100,image-slider-response,703,NA,match,l,2.2,5,wug,2,low,wug,blue
1025,1846250,FL,conJudg,wug,2682.89499997627,-96,image-slider-response,649,NA,match,l,2.2,5,wug,2,low,wug,blue
1025,1845983,FL,conJudg,wug,2886,-100,image-slider-response,603,NA,match,l,2.2,5,wug,2,low,wug,blue
1025,1826949,FL,conJudg,wug,4289.06500001904,75,image-slider-response,653,NA,match,l,2.2,5,wug,2,low,wug,blue
1025,1851574,LF,conJudg,wug,4267.20000000205,-100,image-slider-response,661,NA,match,l,2.2,5,wug,2,low,wug,blue
1025,1846376,FL,conJudg,wug,7766.99999999977,-87,image-slider-response,705,NA,match,l,2.2,5,wug,2,low,wug,blue
1025,1825245,FL,conJudg,wug,2358.80000004545,100,image-slider-response,621,NA,match,l,2.2,5,wug,2,low,wug,blue
1025,1823763,FL,conJudg,wug,4974.71999994013,75,image-slider-response,683,NA,match,l,2.2,5,wug,2,low,wug,blue
1025,1825231,LF,conJudg,wug,2163.17499999423,100,image-slider-response,667,NA,match,l,2.2,5,wug,2,low,wug,blue
1025,1802164,LF,conJudg,wug,2347.29999999935,18,image-slider-response,697,NA,match,l,2.2,5,wug,2,low,wug,blue
1025,1839502,LF,conJudg,wug,1461.08000000101,48,image-slider-response,657,NA,match,l,2.2,5,wug,2,low,wug,blue
1025,1825257,FL,conJudg,wug,269.804999996326,0,image-slider-response,687,NA,match,l,2.2,5,wug,2,low,wug,blue
1025,1805884,LF,conJudg,wug,4382.2049999726,-93,image-slider-response,605,NA,match,l,2.2,5,wug,2,low,wug,blue
1025,1800348,FL,conJudg,wug,1232.69499998423,17,image-slider-response,715,NA,match,l,2.2,5,wug,2,low,wug,blue
1025,1826947,FL,conJudg,wug,1878.11500008684,49,image-slider-response,609,NA,match,l,2.2,5,wug,2,low,wug,blue
1025,1825226,LF,conJudg,wug,2998.58000001404,20,image-slider-response,663,NA,match,l,2.2,5,wug,2,low,wug,blue
1025,1828971,FL,conJudg,wug,4892,100,image-slider-response,605,NA,match,l,2.2,5,wug,2,low,wug,blue
1025,1824294,LF,conJudg,wug,3027,2,image-slider-response,627,NA,match,l,2.2,5,wug,2,low,wug,blue
1025,1803017,LF,conJudg,wug,3619.10999985412,-99,image-slider-response,655,NA,match,l,2.2,5,wug,2,low,wug,blue
1025,1802995,LF,conJudg,wug,2582.30999999796,100,image-slider-response,653,NA,match,l,2.2,5,wug,2,low,wug,blue
1025,1851423,FL,conJudg,wug,5408.91000000003,-98,image-slider-response,605,NA,match,l,2.2,5,wug,2,low,wug,blue
1025,1802091,LF,conJudg,wug,3317.70500000031,-100,image-slider-response,605,NA,match,l,2.2,5,wug,2,low,wug,blue
1025,1802986,FL,conJudg,wug,3008,-100,image-slider-response,679,NA,match,l,2.2,5,wug,2,low,wug,blue
1025,1800336,LF,conJudg,wug,1904.41000001738,-33,image-slider-response,685,NA,match,l,2.2,5,wug,2,low,wug,blue
1025,1852726,LF,conJudg,wug,2943.41999999597,-93,image-slider-response,625,NA,match,l,2.2,5,wug,2,low,wug,blue
1025,1845981,LF,conJudg,wug,1957.91500000632,-100,image-slider-response,679,NA,match,l,2.2,5,wug,2,low,wug,blue
1025,1802104,FL,conJudg,wug,4406.90000005998,-6,image-slider-response,663,NA,match,l,2.2,5,wug,2,low,wug,blue
1025,1807532,FL,conJudg,wug,2528.9999999986,-69,image-slider-response,679,NA,match,l,2.2,5,wug,2,low,wug,blue
1025,1823786,FL,conJudg,wug,3054.8049999997,69,image-slider-response,711,NA,match,l,2.2,5,wug,2,low,wug,blue
1025,1799788,FL,conJudg,wug,5975.4649999995,-14,image-slider-response,653,NA,match,l,2.2,5,wug,2,low,wug,blue
1025,1825250,LF,conJudg,wug,2966.30014888011,51,image-slider-response,653,NA,match,l,2.2,5,wug,2,low,wug,blue
1025,1799781,LF,conJudg,wug,2368,-75,image-slider-response,625,NA,match,l,2.2,5,wug,2,low,wug,blue
1025,1810112,LF,conJudg,wug,1849.25999999896,-53,image-slider-response,671,NA,match,l,2.2,5,wug,2,low,wug,blue
1025,1826550,FL,conJudg,wug,2499.90999999864,33,image-slider-response,665,NA,match,l,2.2,5,wug,2,low,wug,blue
1025,1860953,LF,conJudg,wug,NA,NA,image-slider-response,709,NA,match,l,2.2,5,wug,2,low,wug,blue
1025,1823741,FL,conJudg,wug,5976,43,image-slider-response,637,NA,match,l,2.2,5,wug,2,low,wug,blue
1025,1826990,FL,conJudg,wug,3077.18500006013,-100,image-slider-response,637,NA,match,l,2.2,5,wug,2,low,wug,blue
1025,1807538,FL,conJudg,wug,4636.51499990374,-41,image-slider-response,663,NA,match,l,2.2,5,wug,2,low,wug,blue
1025,1803475,LF,conJudg,wug,2863.84000000544,-87,image-slider-response,707,NA,match,l,2.2,5,wug,2,low,wug,blue
1025,1828958,LF,conJudg,wug,1831.08999999973,60,image-slider-response,605,NA,match,l,2.2,5,wug,2,low,wug,blue
1025,1829239,LF,conJudg,wug,478.334999992512,0,image-slider-response,633,NA,match,l,2.2,5,wug,2,low,wug,blue
1025,1807583,LF,conJudg,wug,3670.29000003822,19,image-slider-response,697,NA,match,l,2.2,5,wug,2,low,wug,blue
1025,1828959,LF,conJudg,wug,5437.42999999085,48,image-slider-response,673,NA,match,l,2.2,5,wug,2,low,wug,blue
1025,1851493,FL,conJudg,wug,1689.12499999988,-83,image-slider-response,685,NA,match,l,2.2,5,wug,2,low,wug,blue
1025,1802090,FL,conJudg,wug,1909.34500005096,60,image-slider-response,679,NA,match,l,2.2,5,wug,2,low,wug,blue
1025,1823745,LF,conJudg,wug,1093.11499999603,81,image-slider-response,655,NA,match,l,2.2,5,wug,2,low,wug,blue
1025,1800339,FL,conJudg,wug,3084.16000002762,14,image-slider-response,607,NA,match,l,2.2,5,wug,2,low,wug,blue
1025,1858029,LF,conJudg,wug,5491.23000004329,58,image-slider-response,599,NA,match,l,2.2,5,wug,2,low,wug,blue
1025,1825248,FL,conJudg,wug,2228.19999999786,26,image-slider-response,715,NA,match,l,2.2,5,wug,2,low,wug,blue
1025,1800337,FL,conJudg,wug,2170,-49,image-slider-response,625,NA,match,l,2.2,5,wug,2,low,wug,blue
1025,1803477,LF,conJudg,wug,2060.39499992039,65,image-slider-response,631,NA,match,l,2.2,5,wug,2,low,wug,blue
1025,1846262,LF,conJudg,wug,6590.62499995343,1,image-slider-response,699,NA,match,l,2.2,5,wug,2,low,wug,blue
1025,1810086,LF,conJudg,wug,3802.08999989554,-60,image-slider-response,667,NA,match,l,2.2,5,wug,2,low,wug,blue
1025,1827166,FL,conJudg,wug,4537,-1,image-slider-response,623,NA,match,l,2.2,5,wug,2,low,wug,blue
1025,1799599,FL,conJudg,wug,3776.68000000087,76,image-slider-response,631,NA,match,l,2.2,5,wug,2,low,wug,blue
1025,1839503,FL,conJudg,wug,1587,49,image-slider-response,687,NA,match,l,2.2,5,wug,2,low,wug,blue
1025,1803026,FL,conJudg,wug,3948.05000000633,100,image-slider-response,647,NA,match,l,2.2,5,wug,2,low,wug,blue
1025,1826532,FL,conJudg,wug,2502.11000000127,-100,image-slider-response,703,NA,match,l,2.2,5,wug,2,low,wug,blue
1025,1860936,LF,conJudg,wug,1899.10500000406,0,image-slider-response,621,NA,match,l,2.2,5,wug,2,low,wug,blue
1025,1826538,LF,conJudg,wug,4120.8199999528,100,image-slider-response,619,NA,match,l,2.2,5,wug,2,low,wug,blue
1025,1800338,FL,conJudg,wug,2200.70000004489,100,image-slider-response,673,NA,match,l,2.2,5,wug,2,low,wug,blue
1025,1800346,LF,conJudg,wug,3019,-10,image-slider-response,677,NA,match,l,2.2,5,wug,2,low,wug,blue
1025,1807562,FL,conJudg,wug,1739.41499995999,-72,image-slider-response,695,NA,match,l,2.2,5,wug,2,low,wug,blue
1025,1800341,FL,conJudg,wug,2690.3650000022,43,image-slider-response,661,NA,match,l,2.2,5,wug,2,low,wug,blue
1025,1826946,FL,conJudg,wug,2344.43500000006,34,image-slider-response,709,NA,match,l,2.2,5,wug,2,low,wug,blue
1025,1800478,FL,conJudg,wug,6021.13500004634,100,image-slider-response,647,NA,match,l,2.2,5,wug,2,low,wug,blue
1025,1828953,FL,conJudg,wug,3538.5850000002,33,image-slider-response,605,NA,match,l,2.2,5,wug,2,low,wug,blue
1025,1802093,LF,conJudg,wug,3014.80500001344,-83,image-slider-response,703,NA,match,l,2.2,5,wug,2,low,wug,blue
1025,1802108,LF,conJudg,wug,2324,100,image-slider-response,705,NA,match,l,2.2,5,wug,2,low,wug,blue
1025,1803466,LF,conJudg,wug,2086.86499996111,32,image-slider-response,665,NA,match,l,2.2,5,wug,2,low,wug,blue
1025,1802107,FL,conJudg,wug,2372.32000008225,46,image-slider-response,703,NA,match,l,2.2,5,wug,2,low,wug,blue
1025,1802098,FL,conJudg,wug,4405.26999998838,-100,image-slider-response,633,NA,match,l,2.2,5,wug,2,low,wug,blue
1025,1823789,LF,conJudg,wug,2007.53000000259,-100,image-slider-response,691,NA,match,l,2.2,5,wug,2,low,wug,blue
1025,1823753,LF,conJudg,wug,2448.5449999338,-88,image-slider-response,645,NA,match,l,2.2,5,wug,2,low,wug,blue
1025,1798900,FL,conJudg,wug,1987.83499997808,-100,image-slider-response,679,NA,match,l,2.2,5,wug,2,low,wug,blue
1025,1845196,LF,conJudg,wug,3569.18500000029,45,image-slider-response,655,NA,match,l,2.2,5,wug,2,low,wug,blue
1025,1845201,FL,conJudg,wug,2526.25500003342,37,image-slider-response,625,NA,match,l,2.2,5,wug,2,low,wug,blue
1025,1802089,LF,conJudg,wug,3104.0750000393,-44,image-slider-response,697,NA,match,l,2.2,5,wug,2,low,wug,blue
1025,1828961,FL,conJudg,wug,5529.43999995477,100,image-slider-response,689,NA,match,l,2.2,5,wug,2,low,wug,blue
1025,1839564,LF,conJudg,wug,1961,-82,image-slider-response,705,NA,match,l,2.2,5,wug,2,low,wug,blue
1025,1827017,FL,conJudg,wug,1548.79999998957,45,image-slider-response,643,NA,match,l,2.2,5,wug,2,low,wug,blue
1025,1860949,LF,conJudg,wug,2130,-28,image-slider-response,717,NA,match,l,2.2,5,wug,2,low,wug,blue
1025,1825229,FL,conJudg,wug,3595,-84,image-slider-response,639,NA,match,l,2.2,5,wug,2,low,wug,blue
1025,1825235,LF,conJudg,wug,4546,28,image-slider-response,603,NA,match,l,2.2,5,wug,2,low,wug,blue
1025,1828957,LF,conJudg,wug,4183.79500001902,-58,image-slider-response,657,NA,match,l,2.2,5,wug,2,low,wug,blue
1025,1839499,FL,conJudg,wug,1947.66499999969,-100,image-slider-response,685,NA,match,l,2.2,5,wug,2,low,wug,blue
1025,1803474,LF,conJudg,wug,2772.40000000002,-55,image-slider-response,647,NA,match,l,2.2,5,wug,2,low,wug,blue
1025,1802102,LF,conJudg,wug,2381.18000000028,-94,image-slider-response,707,NA,match,l,2.2,5,wug,2,low,wug,blue
1025,1803478,LF,conJudg,wug,3764.63999999943,-74,image-slider-response,689,NA,match,l,2.2,5,wug,2,low,wug,blue
1025,1805815,FL,conJudg,wug,2424.17500005104,0,image-slider-response,621,NA,match,l,2.2,5,wug,2,low,wug,blue
1025,1824289,LF,conJudg,wug,6894.38000018708,-30,image-slider-response,655,NA,match,l,2.2,5,wug,2,low,wug,blue
1025,1803039,LF,conJudg,wug,2432.12000001222,83,image-slider-response,621,NA,match,l,2.2,5,wug,2,low,wug,blue
1025,1846372,FL,conJudg,wug,2103.79999999702,84,image-slider-response,661,NA,match,l,2.2,5,wug,2,low,wug,blue
1025,1803558,LF,conJudg,wug,3050.80000002636,-100,image-slider-response,635,NA,match,l,2.2,5,wug,2,low,wug,blue
1025,1860600,LF,conJudg,wug,2434.97499999986,-100,image-slider-response,675,NA,match,l,2.2,5,wug,2,low,wug,blue
1025,1845228,FL,conJudg,wug,3493.31499999994,100,image-slider-response,711,NA,match,l,2.2,5,wug,2,low,wug,blue
1025,1802989,FL,conJudg,wug,3500.05999999843,-100,image-slider-response,655,NA,match,l,2.2,5,wug,2,low,wug,blue
1025,1851575,LF,conJudg,wug,2531.16499999992,-100,image-slider-response,673,NA,match,l,2.2,5,wug,2,low,wug,blue
1025,1802990,FL,conJudg,wug,3851.32500000333,-61,image-slider-response,697,NA,match,l,2.2,5,wug,2,low,wug,blue
1025,1802118,FL,conJudg,wug,1931.95499999984,-100,image-slider-response,717,NA,match,l,2.2,5,wug,2,low,wug,blue
1025,1852721,LF,conJudg,wug,2958,28,image-slider-response,641,NA,match,l,2.2,5,wug,2,low,wug,blue
1025,1826962,FL,conJudg,wug,3621.97999999998,39,image-slider-response,643,NA,match,l,2.2,5,wug,2,low,wug,blue
1025,1839495,LF,conJudg,wug,2571.78500000003,-34,image-slider-response,629,NA,match,l,2.2,5,wug,2,low,wug,blue
1025,1846093,LF,conJudg,wug,2283.66000019014,-62,image-slider-response,625,NA,match,l,2.2,5,wug,2,low,wug,blue
1025,1824284,FL,conJudg,wug,1479.98500009999,-30,image-slider-response,663,NA,match,l,2.2,5,wug,2,low,wug,blue
1025,1823770,FL,conJudg,wug,3056,-93,image-slider-response,661,NA,match,l,2.2,5,wug,2,low,wug,blue
1025,1807546,LF,conJudg,wug,3878.12000000849,48,image-slider-response,625,NA,match,l,2.2,5,wug,2,low,wug,blue
1025,1845203,LF,conJudg,wug,2297.16999997618,-60,image-slider-response,715,NA,match,l,2.2,5,wug,2,low,wug,blue
1025,1825225,LF,conJudg,wug,3137.630000012,-100,image-slider-response,613,NA,match,l,2.2,5,wug,2,low,wug,blue
1025,1803472,FL,conJudg,wug,2571.85000000009,-24,image-slider-response,709,NA,match,l,2.2,5,wug,2,low,wug,blue
1025,1802094,FL,conJudg,wug,2973.57499999995,-45,image-slider-response,621,NA,match,l,2.2,5,wug,2,low,wug,blue
1025,1826984,FL,conJudg,wug,5502.68000000506,-100,image-slider-response,633,NA,match,l,2.2,5,wug,2,low,wug,blue
1025,1852242,LF,conJudg,wug,2357.81999997562,78,image-slider-response,683,NA,match,l,2.2,5,wug,2,low,wug,blue
1025,1805816,LF,conJudg,wug,2174.81000000401,100,image-slider-response,629,NA,match,l,2.2,5,wug,2,low,wug,blue
1025,1800332,LF,conJudg,wug,3601.49999998976,-30,image-slider-response,625,NA,match,l,2.2,5,wug,2,low,wug,blue
1025,1810091,LF,conJudg,wug,4501,-61,image-slider-response,713,NA,match,l,2.2,5,wug,2,low,wug,blue
1025,1827354,LF,conJudg,wug,3156.33499999973,64,image-slider-response,695,NA,match,l,2.2,5,wug,2,low,wug,blue
1025,1851604,LF,conJudg,wug,1999.29499998689,-22,image-slider-response,653,NA,match,l,2.2,5,wug,2,low,wug,blue
1025,1845206,FL,conJudg,wug,3200,-32,image-slider-response,667,NA,match,l,2.2,5,wug,2,low,wug,blue
1025,1823744,FL,conJudg,wug,2417.47500002384,-100,image-slider-response,611,NA,match,l,2.2,5,wug,2,low,wug,blue
1025,1826935,FL,conJudg,wug,2206,-40,image-slider-response,673,NA,match,l,2.2,5,wug,2,low,wug,blue
1025,1800331,FL,conJudg,wug,1925,-100,image-slider-response,713,NA,match,l,2.2,5,wug,2,low,wug,blue
1025,1839506,FL,conJudg,wug,2609.11499999929,-20,image-slider-response,649,NA,match,l,2.2,5,wug,2,low,wug,blue
1025,1845209,LF,conJudg,wug,1400.80000000307,-17,image-slider-response,697,NA,match,l,2.2,5,wug,2,low,wug,blue
1025,1828946,FL,conJudg,wug,2828.20499996888,-76,image-slider-response,707,NA,match,l,2.2,5,wug,2,low,wug,blue
1025,1805817,FL,conJudg,wug,2354.22999999719,50,image-slider-response,669,NA,match,l,2.2,5,wug,2,low,wug,blue
1025,1800334,LF,conJudg,wug,3098,-70,image-slider-response,637,NA,match,l,2.2,5,wug,2,low,wug,blue
1025,1829020,FL,conJudg,wug,4724,0,image-slider-response,637,NA,match,l,2.2,5,wug,2,low,wug,blue
1025,1851570,LF,conJudg,wug,1983.86499999824,-100,image-slider-response,681,NA,match,l,2.2,5,wug,2,low,wug,blue
1025,1826963,LF,conJudg,wug,3026.24000003561,-6,image-slider-response,617,NA,match,l,2.2,5,wug,2,low,wug,blue
1025,1807533,LF,conJudg,wug,2860.78999983147,-100,image-slider-response,673,NA,match,l,2.2,5,wug,2,low,wug,blue
1025,1802998,FL,conJudg,wug,4449.4400001131,-100,image-slider-response,635,NA,match,l,2.2,5,wug,2,low,wug,blue
1025,1846359,FL,conJudg,wug,3853,-100,image-slider-response,623,NA,match,l,2.2,5,wug,2,low,wug,blue
1025,1824300,FL,conJudg,wug,3968.01499999128,-100,image-slider-response,697,NA,match,l,2.2,5,wug,2,low,wug,blue
1025,1802988,LF,conJudg,wug,3911.10500006471,45,image-slider-response,611,NA,match,l,2.2,5,wug,2,low,wug,blue
1025,1825238,LF,conJudg,wug,1757.86499999964,-55,image-slider-response,665,NA,match,l,2.2,5,wug,2,low,wug,blue
1025,1802114,LF,conJudg,wug,4240,41,image-slider-response,619,NA,match,l,2.2,5,wug,2,low,wug,blue
1025,1851571,LF,conJudg,wug,2594.31000007316,100,image-slider-response,691,NA,match,l,2.2,5,wug,2,low,wug,blue
1025,1802124,FL,conJudg,wug,2105.90000008233,-100,image-slider-response,715,NA,match,l,2.2,5,wug,2,low,wug,blue
1025,1800333,LF,conJudg,wug,2206.06000000041,23,image-slider-response,635,NA,match,l,2.2,5,wug,2,low,wug,blue
1025,1800335,LF,conJudg,wug,2635.41999997688,-66,image-slider-response,681,NA,match,l,2.2,5,wug,2,low,wug,blue
1025,1802993,LF,conJudg,wug,728.289999999106,0,image-slider-response,667,NA,match,l,2.2,5,wug,2,low,wug,blue
1025,1824290,FL,conJudg,wug,4308.80999995861,-86,image-slider-response,641,NA,match,l,2.2,5,wug,2,low,wug,blue
1025,1826951,FL,conJudg,wug,3490.25500001153,98,image-slider-response,681,NA,match,l,2.2,5,wug,2,low,wug,blue
1025,1803485,FL,conJudg,wug,1954.95499996468,-89,image-slider-response,617,NA,match,l,2.2,5,wug,2,low,wug,blue
1025,1845993,FL,conJudg,wug,4210.65000002272,-100,image-slider-response,689,NA,match,l,2.2,5,wug,2,low,wug,blue
1025,1826536,FL,conJudg,wug,3082.14499999303,-43,image-slider-response,629,NA,match,l,2.2,5,wug,2,low,wug,blue
1025,1826969,FL,conJudg,wug,3721.06000036001,-65,image-slider-response,691,NA,match,l,2.2,5,wug,2,low,wug,blue
1025,1803471,FL,conJudg,wug,1888,-58,image-slider-response,605,NA,match,l,2.2,5,wug,2,low,wug,blue
1025,1824285,LF,conJudg,wug,2469.71000000124,-26,image-slider-response,657,NA,match,l,2.2,5,wug,2,low,wug,blue
1025,1827017,FL,conJudg,wug,2097.19999996014,31,image-slider-response,601,NA,match,l,2.2,5,wug,2,low,wug,blue
1025,1803476,FL,conJudg,wug,5682.53999999794,1,image-slider-response,669,NA,match,l,2.2,5,wug,2,low,wug,blue
1025,1798885,LF,conJudg,wug,3516.79999998305,49,image-slider-response,625,NA,match,l,2.2,5,wug,2,low,wug,blue
1025,1824287,LF,conJudg,wug,3627,-2,image-slider-response,699,NA,match,l,2.2,5,wug,2,low,wug,blue
1025,1803023,LF,conJudg,wug,4547.42999997688,-26,image-slider-response,689,NA,match,l,2.2,5,wug,2,low,wug,blue
1025,1839496,FL,conJudg,wug,NA,NA,image-slider-response,665,NA,match,l,2.2,5,wug,2,low,wug,blue
1025,1846355,FL,conJudg,wug,4801.9649999988,-100,image-slider-response,673,NA,match,l,2.2,5,wug,2,low,wug,blue
1025,1803489,FL,conJudg,wug,5730,48,image-slider-response,609,NA,match,l,2.2,5,wug,2,low,wug,blue
1025,1860602,LF,conJudg,wug,1826.37999998406,30,image-slider-response,633,NA,match,l,2.2,5,wug,2,low,wug,blue
1025,1826932,FL,conJudg,wug,1741.38500000117,-58,image-slider-response,689,NA,match,l,2.2,5,wug,2,low,wug,blue
1025,1803000,FL,conJudg,wug,2494.34500000649,-64,image-slider-response,657,NA,match,l,2.2,5,wug,2,low,wug,blue
1025,1839497,LF,conJudg,wug,2827.60499999858,0,image-slider-response,647,NA,match,l,2.2,5,wug,2,low,wug,blue
1025,1810080,LF,conJudg,wug,2893.74500000849,53,image-slider-response,677,NA,match,l,2.2,5,wug,2,low,wug,blue
1025,1826924,LF,conJudg,wug,2512.73499999661,-71,image-slider-response,691,NA,match,l,2.2,5,wug,2,low,wug,blue
1025,1803481,FL,conJudg,wug,2308.23499999684,99,image-slider-response,657,NA,match,l,2.2,5,wug,2,low,wug,blue
1025,1827347,FL,conJudg,wug,1451.58500014804,-14,image-slider-response,689,NA,match,l,2.2,5,wug,2,low,wug,blue
1025,1802117,LF,conJudg,wug,2451,21,image-slider-response,653,NA,match,l,2.2,5,wug,2,low,wug,blue
1025,1845198,FL,conJudg,wug,3915.21000000008,-24,image-slider-response,689,NA,match,l,2.2,5,wug,2,low,wug,blue
1025,1828951,LF,conJudg,wug,2471.17000003345,100,image-slider-response,685,NA,match,l,2.2,5,wug,2,low,wug,blue
1025,1803492,LF,conJudg,wug,3139.93000000482,38,image-slider-response,689,NA,match,l,2.2,5,wug,2,low,wug,blue
1025,1825234,FL,conJudg,wug,2206,-36,image-slider-response,665,NA,match,l,2.2,5,wug,2,low,wug,blue
1025,1851566,LF,conJudg,wug,2727,19,image-slider-response,681,NA,match,l,2.2,5,wug,2,low,wug,blue
1025,1826945,LF,conJudg,wug,2071.12500001676,-100,image-slider-response,705,NA,match,l,2.2,5,wug,2,low,wug,blue
1025,1845195,LF,conJudg,wug,2736.50499997893,100,image-slider-response,603,NA,match,l,2.2,5,wug,2,low,wug,blue
1025,1810315,LF,conJudg,wug,4463.99999991991,-100,image-slider-response,703,NA,match,l,2.2,5,wug,2,low,wug,blue
1025,1846352,FL,conJudg,wug,2441.76000007428,-55,image-slider-response,705,NA,match,l,2.2,5,wug,2,low,wug,blue
1025,1798877,LF,conJudg,wug,3545.39999994449,-100,image-slider-response,599,NA,match,l,2.2,5,wug,2,low,wug,blue
1025,1828947,FL,conJudg,wug,2262.51500000944,-75,image-slider-response,683,NA,match,l,2.2,5,wug,2,low,wug,blue
1025,1803469,FL,conJudg,wug,2847.75999999687,48,image-slider-response,635,NA,match,l,2.2,5,wug,2,low,wug,blue
1025,1839500,LF,conJudg,wug,2061.22000003234,-100,image-slider-response,691,NA,match,l,2.2,5,wug,2,low,wug,blue
1025,1824288,LF,conJudg,wug,1677,0,image-slider-response,619,NA,match,l,2.2,5,wug,2,low,wug,blue
1025,1852720,LF,conJudg,wug,1901.71000000555,-18,image-slider-response,699,NA,match,l,2.2,5,wug,2,low,wug,blue
1025,1803486,LF,conJudg,wug,2390.83000016399,0,image-slider-response,669,NA,match,l,2.2,5,wug,2,low,wug,blue
1025,1826943,FL,conJudg,wug,6705.24500007741,-85,image-slider-response,679,NA,match,l,2.2,5,wug,2,low,wug,blue
1025,1826988,LF,conJudg,wug,3649.94999999902,48,image-slider-response,605,NA,match,l,2.2,5,wug,2,low,wug,blue
1025,1851782,LF,conJudg,wug,2288.02500001621,13,image-slider-response,629,NA,match,l,2.2,5,wug,2,low,wug,blue
1025,1858026,LF,conJudg,wug,2673.20000000473,-92,image-slider-response,707,NA,match,l,2.2,5,wug,2,low,wug,blue
1025,1826957,FL,conJudg,wug,NA,NA,image-slider-response,641,NA,match,l,2.2,5,wug,2,low,wug,blue
1025,1802088,FL,conJudg,wug,4314.20000000077,-40,image-slider-response,701,NA,match,l,2.2,5,wug,2,low,wug,blue
1025,1828954,FL,conJudg,wug,3434.66999999876,-100,image-slider-response,653,NA,match,l,2.2,5,wug,2,low,wug,blue
1025,1846353,FL,conJudg,wug,3825,60,image-slider-response,657,NA,match,l,2.2,5,wug,2,low,wug,blue
1025,1826928,LF,conJudg,wug,5412.78499993496,-1,image-slider-response,599,NA,match,l,2.2,5,wug,2,low,wug,blue
1025,1803465,FL,conJudg,wug,7266.5599999018,100,image-slider-response,599,NA,match,l,2.2,5,wug,2,low,wug,blue
1025,1851422,FL,conJudg,wug,4452.98000006005,-16,image-slider-response,605,NA,match,l,2.2,5,wug,2,low,wug,blue
1025,1824292,FL,conJudg,wug,3894.66000000539,0,image-slider-response,713,NA,match,l,2.2,5,wug,2,low,wug,blue
1025,1798890,FL,conJudg,wug,2254.57999999716,100,image-slider-response,639,NA,match,l,2.2,5,wug,2,low,wug,blue
1025,1828964,FL,conJudg,wug,2157.68500000564,87,image-slider-response,713,NA,match,l,2.2,5,wug,2,low,wug,blue
1025,1829030,FL,conJudg,wug,2532.03500000015,100,image-slider-response,605,NA,match,l,2.2,5,wug,2,low,wug,blue
1025,1826931,LF,conJudg,wug,2267,-8,image-slider-response,649,NA,match,l,2.2,5,wug,2,low,wug,blue
1025,1826983,LF,conJudg,wug,3473.04499999154,23,image-slider-response,673,NA,match,l,2.2,5,wug,2,low,wug,blue
1025,1826535,LF,conJudg,wug,4567.53000000026,-38,image-slider-response,693,NA,match,l,2.2,5,wug,2,low,wug,blue
1025,1851569,FL,conJudg,wug,2407.99999999988,-99,image-slider-response,677,NA,match,l,2.2,5,wug,2,low,wug,blue
1025,1851573,LF,conJudg,wug,2351.72500000033,-85,image-slider-response,675,NA,match,l,2.2,5,wug,2,low,wug,blue
1025,1802982,FL,conJudg,wug,2500.47500000079,58,image-slider-response,665,NA,match,l,2.2,5,wug,2,low,wug,blue
1025,1845984,LF,conJudg,wug,2278.90999999363,100,image-slider-response,639,NA,match,l,2.2,5,wug,2,low,wug,blue
1025,1860895,LF,conJudg,wug,2524.72499999567,68,image-slider-response,603,NA,match,l,2.2,5,wug,2,low,wug,blue
1025,1802161,LF,conJudg,wug,2898.19999999972,-100,image-slider-response,679,NA,match,l,2.2,5,wug,2,low,wug,blue
1025,1826539,LF,conJudg,wug,7375.39499998093,-12,image-slider-response,599,NA,match,l,2.2,5,wug,2,low,wug,blue
1025,1827042,LF,conJudg,wug,2195.84499998018,-50,image-slider-response,627,NA,match,l,2.2,5,wug,2,low,wug,blue
1025,1803483,FL,conJudg,wug,1987.60499991477,54,image-slider-response,615,NA,match,l,2.2,5,wug,2,low,wug,blue
1025,1846243,LF,conJudg,wug,822.869999999995,0,image-slider-response,665,NA,match,l,2.2,5,wug,2,low,wug,blue
1025,1807535,FL,conJudg,wug,3761,-67,image-slider-response,661,NA,match,l,2.2,5,wug,2,low,wug,blue
1025,1810079,LF,conJudg,wug,2821.3649999816,-39,image-slider-response,603,NA,match,l,2.2,5,wug,2,low,wug,blue
1025,1828952,FL,conJudg,wug,3283.9650000023,-88,image-slider-response,623,NA,match,l,2.2,5,wug,2,low,wug,blue
1025,1802985,FL,conJudg,wug,2214.89500000002,0,image-slider-response,615,NA,match,l,2.2,5,wug,2,low,wug,blue
1025,1802360,FL,conJudg,wug,2110.82500000158,-47,image-slider-response,697,NA,match,l,2.2,5,wug,2,low,wug,blue
1025,1823743,LF,conJudg,wug,NA,NA,image-slider-response,667,NA,match,l,2.2,5,wug,2,low,wug,blue
1025,1803487,FL,conJudg,wug,4625.48500002595,66,image-slider-response,641,NA,match,l,2.2,5,wug,2,low,wug,blue
1025,1827397,LF,conJudg,wug,2720.75500000035,-88,image-slider-response,695,NA,match,l,2.2,5,wug,2,low,wug,blue
1025,1845982,FL,conJudg,wug,2180,100,image-slider-response,697,NA,match,l,2.2,5,wug,2,low,wug,blue
1025,1803490,FL,conJudg,wug,2886.17000001203,100,image-slider-response,627,NA,match,l,2.2,5,wug,2,low,wug,blue
1025,1803470,LF,conJudg,wug,4039.53499998897,-31,image-slider-response,629,NA,match,l,2.2,5,wug,2,low,wug,blue
1025,1825240,LF,conJudg,wug,2443.00999998813,58,image-slider-response,629,NA,match,l,2.2,5,wug,2,low,wug,blue
1025,1827036,LF,conJudg,wug,3598,-100,image-slider-response,601,NA,match,l,2.2,5,wug,2,low,wug,blue
1025,1807564,LF,conJudg,wug,2524.76000000024,-99,image-slider-response,629,NA,match,l,2.2,5,wug,2,low,wug,blue
1025,1846365,FL,conJudg,wug,2451.53999999992,-73,image-slider-response,673,NA,match,l,2.2,5,wug,2,low,wug,blue
1025,1802092,LF,conJudg,wug,2255,45,image-slider-response,607,NA,match,l,2.2,5,wug,2,low,wug,blue
1025,1807547,FL,conJudg,wug,1997.78999999398,13,image-slider-response,685,NA,match,l,2.2,5,wug,2,low,wug,blue
1025,1803473,FL,conJudg,wug,1580.46499999915,-100,image-slider-response,671,NA,match,l,2.2,5,wug,2,low,wug,blue
1025,1860636,LF,conJudg,wug,2237,-9,image-slider-response,653,NA,match,l,2.2,5,wug,2,low,wug,blue
1025,1828972,LF,conJudg,wug,NA,NA,image-slider-response,691,NA,match,l,2.2,5,wug,2,low,wug,blue
1025,1800330,LF,conJudg,wug,2565.85500016809,-100,image-slider-response,689,NA,match,l,2.2,5,wug,2,low,wug,blue
1025,1828989,LF,conJudg,wug,NA,NA,image-slider-response,655,NA,match,l,2.2,5,wug,2,low,wug,blue
1025,1803484,FL,conJudg,wug,3156.16500005126,55,image-slider-response,625,NA,match,l,2.2,5,wug,2,low,wug,blue
1025,1827024,LF,conJudg,wug,5606.36499995599,100,image-slider-response,667,NA,match,l,2.2,5,wug,2,low,wug,blue
1025,1846354,FL,conJudg,wug,2933.79999999888,-100,image-slider-response,709,NA,match,l,2.2,5,wug,2,low,wug,blue
1025,1825254,LF,conJudg,wug,3100,65,image-slider-response,713,NA,match,l,2.2,5,wug,2,low,wug,blue
1025,1799783,LF,conJudg,wug,1745.12499989942,33,image-slider-response,715,NA,match,l,2.2,5,wug,2,low,wug,blue
1025,1858044,LF,conJudg,wug,5413,-49,image-slider-response,717,NA,match,l,2.2,5,wug,2,low,wug,blue
1025,1826948,FL,conJudg,wug,2248.02500000806,-32,image-slider-response,697,NA,match,l,2.2,5,wug,2,low,wug,blue
1025,1825290,FL,conJudg,wug,6837.74499999708,-31,image-slider-response,619,NA,match,l,2.2,5,wug,2,low,wug,blue
1025,1802095,FL,conJudg,wug,3289.59500000195,-52,image-slider-response,645,NA,match,l,2.2,5,wug,2,low,wug,blue
1025,1846363,FL,conJudg,wug,2343.9699999945,-100,image-slider-response,689,NA,match,l,2.2,5,wug,2,low,wug,blue
1025,1802100,LF,conJudg,wug,1203.7550000241,0,image-slider-response,691,NA,match,l,2.2,5,wug,2,low,wug,blue
1025,1823768,LF,conJudg,wug,2766.42499999981,21,image-slider-response,709,NA,match,l,2.2,5,wug,2,low,wug,blue
1025,1826937,LF,conJudg,wug,7408,100,image-slider-response,653,NA,match,l,2.2,5,wug,2,low,wug,blue
1025,1826939,LF,conJudg,wug,2270.13000007719,-70,image-slider-response,651,NA,match,l,2.2,5,wug,2,low,wug,blue
1025,1860605,LF,conJudg,wug,1860.29499999131,29,image-slider-response,639,NA,match,l,2.2,5,wug,2,low,wug,blue
1025,1852243,LF,conJudg,wug,6914.18500000145,20,image-slider-response,705,NA,match,l,2.2,5,wug,2,low,wug,blue
1025,1802429,LF,conJudg,wug,5277.39999999898,100,image-slider-response,635,NA,match,l,2.2,5,wug,2,low,wug,blue
1025,1802991,FL,conJudg,wug,1087.7900000196,-7,image-slider-response,635,NA,match,l,2.2,5,wug,2,low,wug,blue
1075,1828964,FL,conJudg,wug,1992.44500000344,-88,image-slider-response,689,NA,match,h,2.1,5,wug,2,high,wug,purple
1075,1823745,LF,conJudg,wug,712.735000008252,59,image-slider-response,657,NA,match,h,2.1,5,wug,2,high,wug,purple
1075,1826938,LF,conJudg,wug,1969.64999998454,100,image-slider-response,645,NA,match,h,2.1,5,wug,2,high,wug,purple
1075,1824284,FL,conJudg,wug,1329.49499995448,28,image-slider-response,695,NA,match,h,2.1,5,wug,2,high,wug,purple
1075,1828956,LF,conJudg,wug,2664.75500000524,-65,image-slider-response,681,NA,match,h,2.1,5,wug,2,high,wug,purple
1075,1839499,FL,conJudg,wug,1403.30499999982,100,image-slider-response,699,NA,match,h,2.1,5,wug,2,high,wug,purple
1075,1803017,LF,conJudg,wug,3634.39500005916,98,image-slider-response,665,NA,match,h,2.1,5,wug,2,high,wug,purple
1075,1825254,LF,conJudg,wug,3480,79,image-slider-response,677,NA,match,h,2.1,5,wug,2,high,wug,purple
1075,1828971,FL,conJudg,wug,7726,100,image-slider-response,609,NA,match,h,2.1,5,wug,2,high,wug,purple
1075,1825241,LF,conJudg,wug,2687.4700000044,100,image-slider-response,615,NA,match,h,2.1,5,wug,2,high,wug,purple
1075,1826939,LF,conJudg,wug,4349.37499999069,100,image-slider-response,639,NA,match,h,2.1,5,wug,2,high,wug,purple
1075,1845196,LF,conJudg,wug,1958.50499999861,-30,image-slider-response,681,NA,match,h,2.1,5,wug,2,high,wug,purple
1075,1802090,FL,conJudg,wug,1811.6699999664,16,image-slider-response,685,NA,match,h,2.1,5,wug,2,high,wug,purple
1075,1807546,LF,conJudg,wug,1928.0349999899,91,image-slider-response,651,NA,match,h,2.1,5,wug,2,high,wug,purple
1075,1851567,LF,conJudg,wug,2587.30999999528,100,image-slider-response,625,NA,match,h,2.1,5,wug,2,high,wug,purple
1075,1803469,FL,conJudg,wug,4979.26000000001,100,image-slider-response,679,NA,match,h,2.1,5,wug,2,high,wug,purple
1075,1810080,LF,conJudg,wug,3805.50999997649,32,image-slider-response,621,NA,match,h,2.1,5,wug,2,high,wug,purple
1075,1826538,LF,conJudg,wug,3371.35999999009,100,image-slider-response,691,NA,match,h,2.1,5,wug,2,high,wug,purple
1075,1803466,LF,conJudg,wug,2241.18500004988,-24,image-slider-response,681,NA,match,h,2.1,5,wug,2,high,wug,purple
1075,1800338,FL,conJudg,wug,2094.90500000538,100,image-slider-response,669,NA,match,h,2.1,5,wug,2,high,wug,purple
1075,1852243,LF,conJudg,wug,2662.14000000036,100,image-slider-response,611,NA,match,h,2.1,5,wug,2,high,wug,purple
1075,1803039,LF,conJudg,wug,1996.68500002008,100,image-slider-response,637,NA,match,h,2.1,5,wug,2,high,wug,purple
1075,1826937,LF,conJudg,wug,2174,100,image-slider-response,677,NA,match,h,2.1,5,wug,2,high,wug,purple
1075,1826930,LF,conJudg,wug,1999.02499979362,100,image-slider-response,717,NA,match,h,2.1,5,wug,2,high,wug,purple
1075,1826949,FL,conJudg,wug,3709.26000003237,-61,image-slider-response,645,NA,match,h,2.1,5,wug,2,high,wug,purple
1075,1851571,LF,conJudg,wug,3719.92999990471,66,image-slider-response,605,NA,match,h,2.1,5,wug,2,high,wug,purple
1075,1839564,LF,conJudg,wug,1737,100,image-slider-response,643,NA,match,h,2.1,5,wug,2,high,wug,purple
1075,1826931,LF,conJudg,wug,3667,-100,image-slider-response,633,NA,match,h,2.1,5,wug,2,high,wug,purple
1075,1826950,LF,conJudg,wug,3994.65499992948,100,image-slider-response,675,NA,match,h,2.1,5,wug,2,high,wug,purple
1075,1824300,FL,conJudg,wug,4177.1300000255,100,image-slider-response,621,NA,match,h,2.1,5,wug,2,high,wug,purple
1075,1810079,LF,conJudg,wug,1839.85499991104,100,image-slider-response,663,NA,match,h,2.1,5,wug,2,high,wug,purple
1075,1827024,LF,conJudg,wug,4417.6500000176,63,image-slider-response,645,NA,match,h,2.1,5,wug,2,high,wug,purple
1075,1799788,FL,conJudg,wug,3619.2849999998,100,image-slider-response,677,NA,match,h,2.1,5,wug,2,high,wug,purple
1075,1846354,FL,conJudg,wug,3093.3149999982,100,image-slider-response,603,NA,match,h,2.1,5,wug,2,high,wug,purple
1075,1803476,FL,conJudg,wug,1802.11500000232,100,image-slider-response,709,NA,match,h,2.1,5,wug,2,high,wug,purple
1075,1826963,LF,conJudg,wug,2539.0849999385,6,image-slider-response,625,NA,match,h,2.1,5,wug,2,high,wug,purple
1075,1810094,LF,conJudg,wug,NA,NA,image-slider-response,601,NA,match,h,2.1,5,wug,2,high,wug,purple
1075,1825243,LF,conJudg,wug,6977.7150000009,-12,image-slider-response,667,NA,match,h,2.1,5,wug,2,high,wug,purple
1075,1826935,FL,conJudg,wug,1875,28,image-slider-response,693,NA,match,h,2.1,5,wug,2,high,wug,purple
1075,1803468,LF,conJudg,wug,2477.01999999117,100,image-slider-response,667,NA,match,h,2.1,5,wug,2,high,wug,purple
1075,1852720,LF,conJudg,wug,2908.65499997744,100,image-slider-response,655,NA,match,h,2.1,5,wug,2,high,wug,purple
1075,1807562,FL,conJudg,wug,2386.38500007801,80,image-slider-response,693,NA,match,h,2.1,5,wug,2,high,wug,purple
1075,1825231,LF,conJudg,wug,1790.95499999681,100,image-slider-response,653,NA,match,h,2.1,5,wug,2,high,wug,purple
1075,1845983,FL,conJudg,wug,2307,100,image-slider-response,605,NA,match,h,2.1,5,wug,2,high,wug,purple
1075,1802360,FL,conJudg,wug,2903.33499999903,50,image-slider-response,653,NA,match,h,2.1,5,wug,2,high,wug,purple
1075,1803465,FL,conJudg,wug,2702.74500001688,100,image-slider-response,695,NA,match,h,2.1,5,wug,2,high,wug,purple
1075,1823770,FL,conJudg,wug,3192,93,image-slider-response,619,NA,match,h,2.1,5,wug,2,high,wug,purple
1075,1803471,FL,conJudg,wug,2271.00000000047,99,image-slider-response,693,NA,match,h,2.1,5,wug,2,high,wug,purple
1075,1851423,FL,conJudg,wug,2500.81500000122,100,image-slider-response,653,NA,match,h,2.1,5,wug,2,high,wug,purple
1075,1810097,LF,conJudg,wug,1544.54999999143,0,image-slider-response,687,NA,match,h,2.1,5,wug,2,high,wug,purple
1075,1860605,LF,conJudg,wug,606.360000005225,0,image-slider-response,627,NA,match,h,2.1,5,wug,2,high,wug,purple
1075,1805848,LF,conJudg,wug,2859.22000000009,50,image-slider-response,617,NA,match,h,2.1,5,wug,2,high,wug,purple
1075,1827631,FL,conJudg,wug,3668.60000000452,-4,image-slider-response,641,NA,match,h,2.1,5,wug,2,high,wug,purple
1075,1803484,FL,conJudg,wug,3849.04999984428,97,image-slider-response,609,NA,match,h,2.1,5,wug,2,high,wug,purple
1075,1800330,LF,conJudg,wug,1885.85500000045,100,image-slider-response,639,NA,match,h,2.1,5,wug,2,high,wug,purple
1075,1825226,LF,conJudg,wug,3551.15000001388,100,image-slider-response,689,NA,match,h,2.1,5,wug,2,high,wug,purple
1075,1828946,FL,conJudg,wug,2417.4200000125,100,image-slider-response,615,NA,match,h,2.1,5,wug,2,high,wug,purple
1075,1798890,FL,conJudg,wug,2904.51500000199,100,image-slider-response,675,NA,match,h,2.1,5,wug,2,high,wug,purple
1075,1828965,LF,conJudg,wug,4242.91000000085,100,image-slider-response,599,NA,match,h,2.1,5,wug,2,high,wug,purple
1075,1805815,FL,conJudg,wug,2508.96000000648,91,image-slider-response,699,NA,match,h,2.1,5,wug,2,high,wug,purple
1075,1800336,LF,conJudg,wug,2685.38999999873,76,image-slider-response,599,NA,match,h,2.1,5,wug,2,high,wug,purple
1075,1845200,LF,conJudg,wug,3285.93499981798,78,image-slider-response,689,NA,match,h,2.1,5,wug,2,high,wug,purple
1075,1825248,FL,conJudg,wug,6153.76000000106,100,image-slider-response,627,NA,match,h,2.1,5,wug,2,high,wug,purple
1075,1810086,LF,conJudg,wug,3952.95500010252,100,image-slider-response,701,NA,match,h,2.1,5,wug,2,high,wug,purple
1075,1827354,LF,conJudg,wug,4339.78999999992,42,image-slider-response,599,NA,match,h,2.1,5,wug,2,high,wug,purple
1075,1802109,FL,conJudg,wug,2537.80499997083,53,image-slider-response,623,NA,match,h,2.1,5,wug,2,high,wug,purple
1075,1827042,LF,conJudg,wug,1835.79499996267,100,image-slider-response,683,NA,match,h,2.1,5,wug,2,high,wug,purple
1075,1802091,LF,conJudg,wug,2569.01500000001,100,image-slider-response,715,NA,match,h,2.1,5,wug,2,high,wug,purple
1075,1802107,FL,conJudg,wug,5321.20500016026,36,image-slider-response,663,NA,match,h,2.1,5,wug,2,high,wug,purple
1075,1825257,FL,conJudg,wug,257.420000001672,0,image-slider-response,693,NA,match,h,2.1,5,wug,2,high,wug,purple
1075,1852726,LF,conJudg,wug,2239.0449999948,73,image-slider-response,677,NA,match,h,2.1,5,wug,2,high,wug,purple
1075,1800334,LF,conJudg,wug,2224,67,image-slider-response,609,NA,match,h,2.1,5,wug,2,high,wug,purple
1075,1860949,LF,conJudg,wug,2280,100,image-slider-response,659,NA,match,h,2.1,5,wug,2,high,wug,purple
1075,1800346,LF,conJudg,wug,2537,100,image-slider-response,693,NA,match,h,2.1,5,wug,2,high,wug,purple
1075,1807533,LF,conJudg,wug,2620.15500012785,100,image-slider-response,667,NA,match,h,2.1,5,wug,2,high,wug,purple
1075,1846359,FL,conJudg,wug,2774,97,image-slider-response,717,NA,match,h,2.1,5,wug,2,high,wug,purple
1075,1826951,FL,conJudg,wug,3703.12999997986,-84,image-slider-response,651,NA,match,h,2.1,5,wug,2,high,wug,purple
1075,1802982,FL,conJudg,wug,1713.52499999921,36,image-slider-response,711,NA,match,h,2.1,5,wug,2,high,wug,purple
1075,1845984,LF,conJudg,wug,1955.19500000228,100,image-slider-response,659,NA,match,h,2.1,5,wug,2,high,wug,purple
1075,1858029,LF,conJudg,wug,3422.61000000872,60,image-slider-response,627,NA,match,h,2.1,5,wug,2,high,wug,purple
1075,1826983,LF,conJudg,wug,4612.65000001004,8,image-slider-response,649,NA,match,h,2.1,5,wug,2,high,wug,purple
1075,1851574,LF,conJudg,wug,1401.29999999772,29,image-slider-response,687,NA,match,h,2.1,5,wug,2,high,wug,purple
1075,1800351,FL,conJudg,wug,2806.61500000861,73,image-slider-response,665,NA,match,h,2.1,5,wug,2,high,wug,purple
1075,1828947,FL,conJudg,wug,1615.36499997601,85,image-slider-response,687,NA,match,h,2.1,5,wug,2,high,wug,purple
1075,1825250,LF,conJudg,wug,4154.30032558797,-7,image-slider-response,669,NA,match,h,2.1,5,wug,2,high,wug,purple
1075,1839506,FL,conJudg,wug,2616.49999994552,73,image-slider-response,635,NA,match,h,2.1,5,wug,2,high,wug,purple
1075,1852721,LF,conJudg,wug,3558,81,image-slider-response,673,NA,match,h,2.1,5,wug,2,high,wug,purple
1075,1803487,FL,conJudg,wug,2148.08500005165,100,image-slider-response,701,NA,match,h,2.1,5,wug,2,high,wug,purple
1075,1825237,FL,conJudg,wug,3510,35,image-slider-response,629,NA,match,h,2.1,5,wug,2,high,wug,purple
1075,1802117,LF,conJudg,wug,2561,-14,image-slider-response,669,NA,match,h,2.1,5,wug,2,high,wug,purple
1075,1846353,FL,conJudg,wug,3182,87,image-slider-response,645,NA,match,h,2.1,5,wug,2,high,wug,purple
1075,1802124,FL,conJudg,wug,4941.65499997325,100,image-slider-response,701,NA,match,h,2.1,5,wug,2,high,wug,purple
1075,1803478,LF,conJudg,wug,1363.40999999992,100,image-slider-response,691,NA,match,h,2.1,5,wug,2,high,wug,purple
1075,1851570,LF,conJudg,wug,2402.05000000051,-19,image-slider-response,661,NA,match,h,2.1,5,wug,2,high,wug,purple
1075,1802095,FL,conJudg,wug,4903.83999999892,-29,image-slider-response,699,NA,match,h,2.1,5,wug,2,high,wug,purple
1075,1802989,FL,conJudg,wug,2557.8349999995,100,image-slider-response,621,NA,match,h,2.1,5,wug,2,high,wug,purple
1075,1860953,LF,conJudg,wug,2306,100,image-slider-response,695,NA,match,h,2.1,5,wug,2,high,wug,purple
1075,1802995,LF,conJudg,wug,2423.97999999963,100,image-slider-response,643,NA,match,h,2.1,5,wug,2,high,wug,purple
1075,1829030,FL,conJudg,wug,2478.83000000007,-100,image-slider-response,611,NA,match,h,2.1,5,wug,2,high,wug,purple
1075,1803485,FL,conJudg,wug,4358.95500006154,76,image-slider-response,625,NA,match,h,2.1,5,wug,2,high,wug,purple
1075,1852242,LF,conJudg,wug,2344.48999998858,46,image-slider-response,621,NA,match,h,2.1,5,wug,2,high,wug,purple
1075,1825225,LF,conJudg,wug,3372.13500001235,99,image-slider-response,687,NA,match,h,2.1,5,wug,2,high,wug,purple
1075,1802984,LF,conJudg,wug,2790.26500001783,70,image-slider-response,653,NA,match,h,2.1,5,wug,2,high,wug,purple
1075,1825234,FL,conJudg,wug,2512,-41,image-slider-response,653,NA,match,h,2.1,5,wug,2,high,wug,purple
1075,1845228,FL,conJudg,wug,4189.47500000289,100,image-slider-response,637,NA,match,h,2.1,5,wug,2,high,wug,purple
1075,1839503,FL,conJudg,wug,1711,88,image-slider-response,707,NA,match,h,2.1,5,wug,2,high,wug,purple
1075,1826924,LF,conJudg,wug,5364.4749999803,100,image-slider-response,677,NA,match,h,2.1,5,wug,2,high,wug,purple
1075,1823741,FL,conJudg,wug,2458,-36,image-slider-response,649,NA,match,h,2.1,5,wug,2,high,wug,purple
1075,1826533,FL,conJudg,wug,2480.16500007361,100,image-slider-response,679,NA,match,h,2.1,5,wug,2,high,wug,purple
1075,1824285,LF,conJudg,wug,1488.28000000142,37,image-slider-response,651,NA,match,h,2.1,5,wug,2,high,wug,purple
1075,1824289,LF,conJudg,wug,4966.49000002071,36,image-slider-response,633,NA,match,h,2.1,5,wug,2,high,wug,purple
1075,1845206,FL,conJudg,wug,2887,50,image-slider-response,681,NA,match,h,2.1,5,wug,2,high,wug,purple
1075,1826534,FL,conJudg,wug,3078.90000002226,100,image-slider-response,639,NA,match,h,2.1,5,wug,2,high,wug,purple
1075,1826539,LF,conJudg,wug,3720.36999999546,100,image-slider-response,649,NA,match,h,2.1,5,wug,2,high,wug,purple
1075,1824294,LF,conJudg,wug,2646,41,image-slider-response,693,NA,match,h,2.1,5,wug,2,high,wug,purple
1075,1825238,LF,conJudg,wug,2293.85999999789,98,image-slider-response,613,NA,match,h,2.1,5,wug,2,high,wug,purple
1075,1851566,LF,conJudg,wug,1698,100,image-slider-response,657,NA,match,h,2.1,5,wug,2,high,wug,purple
1075,1839507,FL,conJudg,wug,NA,NA,image-slider-response,711,NA,match,h,2.1,5,wug,2,high,wug,purple
1075,1846262,LF,conJudg,wug,2613.61999996006,69,image-slider-response,649,NA,match,h,2.1,5,wug,2,high,wug,purple
1075,1828951,LF,conJudg,wug,2170.09999998845,100,image-slider-response,705,NA,match,h,2.1,5,wug,2,high,wug,purple
1075,1802991,FL,conJudg,wug,2949.20999999158,-14,image-slider-response,599,NA,match,h,2.1,5,wug,2,high,wug,purple
1075,1828968,LF,conJudg,wug,3308.86500002816,76,image-slider-response,715,NA,match,h,2.1,5,wug,2,high,wug,purple
1075,1802094,FL,conJudg,wug,2592.34499999916,100,image-slider-response,651,NA,match,h,2.1,5,wug,2,high,wug,purple
1075,1823744,FL,conJudg,wug,4096.19499999098,100,image-slider-response,603,NA,match,h,2.1,5,wug,2,high,wug,purple
1075,1828958,LF,conJudg,wug,1495.51999999944,100,image-slider-response,625,NA,match,h,2.1,5,wug,2,high,wug,purple
1075,1803558,LF,conJudg,wug,3800.50499999197,-29,image-slider-response,629,NA,match,h,2.1,5,wug,2,high,wug,purple
1075,1851575,LF,conJudg,wug,2506.90500000003,100,image-slider-response,651,NA,match,h,2.1,5,wug,2,high,wug,purple
1075,1802184,FL,conJudg,wug,NA,NA,image-slider-response,643,NA,match,h,2.1,5,wug,2,high,wug,purple
1075,1825232,FL,conJudg,wug,678.819999971893,0,image-slider-response,701,NA,match,h,2.1,5,wug,2,high,wug,purple
1075,1846363,FL,conJudg,wug,2124.10999999708,100,image-slider-response,713,NA,match,h,2.1,5,wug,2,high,wug,purple
1075,1851569,FL,conJudg,wug,3854.99999999988,100,image-slider-response,617,NA,match,h,2.1,5,wug,2,high,wug,purple
1075,1824287,LF,conJudg,wug,4209,-69,image-slider-response,705,NA,match,h,2.1,5,wug,2,high,wug,purple
1075,1802429,LF,conJudg,wug,3629.89999999991,100,image-slider-response,701,NA,match,h,2.1,5,wug,2,high,wug,purple
1075,1803473,FL,conJudg,wug,1516.95499999914,100,image-slider-response,713,NA,match,h,2.1,5,wug,2,high,wug,purple
1075,1825245,FL,conJudg,wug,NA,NA,image-slider-response,691,NA,match,h,2.1,5,wug,2,high,wug,purple
1075,1807547,FL,conJudg,wug,2550.09500001324,100,image-slider-response,651,NA,match,h,2.1,5,wug,2,high,wug,purple
1075,1799783,LF,conJudg,wug,5764.74500005133,82,image-slider-response,673,NA,match,h,2.1,5,wug,2,high,wug,purple
1075,1828961,FL,conJudg,wug,6197.80500000343,79,image-slider-response,693,NA,match,h,2.1,5,wug,2,high,wug,purple
1075,1800348,FL,conJudg,wug,3609.12999999709,-11,image-slider-response,703,NA,match,h,2.1,5,wug,2,high,wug,purple
1075,1803483,FL,conJudg,wug,2316.82500010356,54,image-slider-response,687,NA,match,h,2.1,5,wug,2,high,wug,purple
1075,1860636,LF,conJudg,wug,1560,-19,image-slider-response,665,NA,match,h,2.1,5,wug,2,high,wug,purple
1075,1826990,FL,conJudg,wug,1953.71999999043,100,image-slider-response,657,NA,match,h,2.1,5,wug,2,high,wug,purple
1075,1803023,LF,conJudg,wug,1956.89999999013,25,image-slider-response,661,NA,match,h,2.1,5,wug,2,high,wug,purple
1075,1839500,LF,conJudg,wug,3107.04000014812,92,image-slider-response,629,NA,match,h,2.1,5,wug,2,high,wug,purple
1075,1845981,LF,conJudg,wug,2335.46000000206,100,image-slider-response,609,NA,match,h,2.1,5,wug,2,high,wug,purple
1075,1827347,FL,conJudg,wug,3460.54999995977,92,image-slider-response,641,NA,match,h,2.1,5,wug,2,high,wug,purple
1075,1826932,FL,conJudg,wug,2827.88499999885,79,image-slider-response,685,NA,match,h,2.1,5,wug,2,high,wug,purple
1075,1807538,FL,conJudg,wug,7908.72999979183,49,image-slider-response,695,NA,match,h,2.1,5,wug,2,high,wug,purple
1075,1800335,LF,conJudg,wug,2781.92499998841,100,image-slider-response,701,NA,match,h,2.1,5,wug,2,high,wug,purple
1075,1851422,FL,conJudg,wug,2222.49000007287,100,image-slider-response,673,NA,match,h,2.1,5,wug,2,high,wug,purple
1075,1846372,FL,conJudg,wug,1769.69999999716,-97,image-slider-response,689,NA,match,h,2.1,5,wug,2,high,wug,purple
1075,1803472,FL,conJudg,wug,1782.76000000187,39,image-slider-response,697,NA,match,h,2.1,5,wug,2,high,wug,purple
1075,1823763,FL,conJudg,wug,3035.52999999374,98,image-slider-response,659,NA,match,h,2.1,5,wug,2,high,wug,purple
1075,1800340,LF,conJudg,wug,4159.06500001438,-68,image-slider-response,715,NA,match,h,2.1,5,wug,2,high,wug,purple
1075,1802993,LF,conJudg,wug,3694.05499999993,100,image-slider-response,603,NA,match,h,2.1,5,wug,2,high,wug,purple
1075,1825229,FL,conJudg,wug,2227,100,image-slider-response,685,NA,match,h,2.1,5,wug,2,high,wug,purple
1075,1823743,LF,conJudg,wug,1603.68000000017,66,image-slider-response,649,NA,match,h,2.1,5,wug,2,high,wug,purple
1075,1803490,FL,conJudg,wug,2662.61499997927,-100,image-slider-response,619,NA,match,h,2.1,5,wug,2,high,wug,purple
1075,1802988,LF,conJudg,wug,2516.4550000336,100,image-slider-response,659,NA,match,h,2.1,5,wug,2,high,wug,purple
1075,1826962,FL,conJudg,wug,3162.28499999992,90,image-slider-response,675,NA,match,h,2.1,5,wug,2,high,wug,purple
1075,1846376,FL,conJudg,wug,NA,NA,image-slider-response,599,NA,match,h,2.1,5,wug,2,high,wug,purple
1075,1826984,FL,conJudg,wug,3156.78499999922,100,image-slider-response,615,NA,match,h,2.1,5,wug,2,high,wug,purple
1075,1828953,FL,conJudg,wug,2911,30,image-slider-response,603,NA,match,h,2.1,5,wug,2,high,wug,purple
1075,1846365,FL,conJudg,wug,1994.16500000004,100,image-slider-response,665,NA,match,h,2.1,5,wug,2,high,wug,purple
1075,1826550,FL,conJudg,wug,4603.32500000007,-48,image-slider-response,635,NA,match,h,2.1,5,wug,2,high,wug,purple
1075,1807583,LF,conJudg,wug,3656.63999994285,39,image-slider-response,661,NA,match,h,2.1,5,wug,2,high,wug,purple
1075,1802164,LF,conJudg,wug,2226.09999999986,20,image-slider-response,715,NA,match,h,2.1,5,wug,2,high,wug,purple
1075,1805817,FL,conJudg,wug,2562.98499999684,64,image-slider-response,627,NA,match,h,2.1,5,wug,2,high,wug,purple
1075,1807532,FL,conJudg,wug,2070.99999999988,51,image-slider-response,667,NA,match,h,2.1,5,wug,2,high,wug,purple
1075,1828972,LF,conJudg,wug,NA,NA,image-slider-response,619,NA,match,h,2.1,5,wug,2,high,wug,purple
1075,1803000,FL,conJudg,wug,1957.75999999745,36,image-slider-response,637,NA,match,h,2.1,5,wug,2,high,wug,purple
1075,1858044,LF,conJudg,wug,2414,100,image-slider-response,633,NA,match,h,2.1,5,wug,2,high,wug,purple
1075,1860901,LF,conJudg,wug,2347.31499999901,77,image-slider-response,695,NA,match,h,2.1,5,wug,2,high,wug,purple
1075,1851493,FL,conJudg,wug,4544.66000000003,75,image-slider-response,635,NA,match,h,2.1,5,wug,2,high,wug,purple
1075,1803488,LF,conJudg,wug,2856.85999999987,-17,image-slider-response,699,NA,match,h,2.1,5,wug,2,high,wug,purple
1075,1799781,LF,conJudg,wug,2491,-89,image-slider-response,617,NA,match,h,2.1,5,wug,2,high,wug,purple
1075,1839502,LF,conJudg,wug,2985.52500000002,97,image-slider-response,665,NA,match,h,2.1,5,wug,2,high,wug,purple
1075,1803477,LF,conJudg,wug,1983.88499999419,69,image-slider-response,635,NA,match,h,2.1,5,wug,2,high,wug,purple
1075,1860600,LF,conJudg,wug,2826.91999999993,100,image-slider-response,629,NA,match,h,2.1,5,wug,2,high,wug,purple
1075,1826945,LF,conJudg,wug,2631.53499993496,98,image-slider-response,631,NA,match,h,2.1,5,wug,2,high,wug,purple
1075,1800478,FL,conJudg,wug,NA,NA,image-slider-response,671,NA,match,h,2.1,5,wug,2,high,wug,purple
1075,1846352,FL,conJudg,wug,2478.31499995664,55,image-slider-response,711,NA,match,h,2.1,5,wug,2,high,wug,purple
1075,1800331,FL,conJudg,wug,1596,100,image-slider-response,695,NA,match,h,2.1,5,wug,2,high,wug,purple
1075,1828952,FL,conJudg,wug,3336.76500000001,93,image-slider-response,615,NA,match,h,2.1,5,wug,2,high,wug,purple
1075,1825230,FL,conJudg,wug,2232.42499999469,100,image-slider-response,649,NA,match,h,2.1,5,wug,2,high,wug,purple
1075,1860602,LF,conJudg,wug,3270.75999998488,100,image-slider-response,709,NA,match,h,2.1,5,wug,2,high,wug,purple
1075,1823786,FL,conJudg,wug,2796.51500000001,100,image-slider-response,687,NA,match,h,2.1,5,wug,2,high,wug,purple
1075,1845205,FL,conJudg,wug,3501.73000001814,-27,image-slider-response,651,NA,match,h,2.1,5,wug,2,high,wug,purple
1075,1826940,LF,conJudg,wug,2381.83999992907,72,image-slider-response,601,NA,match,h,2.1,5,wug,2,high,wug,purple
1075,1802216,LF,conJudg,wug,2572,-30,image-slider-response,677,NA,match,h,2.1,5,wug,2,high,wug,purple
1075,1802992,LF,conJudg,wug,2815.30000001658,100,image-slider-response,601,NA,match,h,2.1,5,wug,2,high,wug,purple
1075,1826532,FL,conJudg,wug,2578.14500003587,59,image-slider-response,693,NA,match,h,2.1,5,wug,2,high,wug,purple
1075,1846268,FL,conJudg,wug,2462.58000005037,-100,image-slider-response,609,NA,match,h,2.1,5,wug,2,high,wug,purple
1075,1803482,LF,conJudg,wug,3101.93000012077,35,image-slider-response,645,NA,match,h,2.1,5,wug,2,high,wug,purple
1075,1825235,LF,conJudg,wug,2912,100,image-slider-response,607,NA,match,h,2.1,5,wug,2,high,wug,purple
1075,1826934,FL,conJudg,wug,2141.45499999914,100,image-slider-response,679,NA,match,h,2.1,5,wug,2,high,wug,purple
1075,1826969,FL,conJudg,wug,2802.47500026599,75,image-slider-response,689,NA,match,h,2.1,5,wug,2,high,wug,purple
1075,1826948,FL,conJudg,wug,3072.0100000035,-32,image-slider-response,699,NA,match,h,2.1,5,wug,2,high,wug,purple
1075,1826536,FL,conJudg,wug,1965.52999998676,29,image-slider-response,689,NA,match,h,2.1,5,wug,2,high,wug,purple
1075,1851568,LF,conJudg,wug,381.119999998133,0,image-slider-response,707,NA,match,h,2.1,5,wug,2,high,wug,purple
1075,1802102,LF,conJudg,wug,3272.74500000023,95,image-slider-response,675,NA,match,h,2.1,5,wug,2,high,wug,purple
1075,1860895,LF,conJudg,wug,2957.1200000064,100,image-slider-response,639,NA,match,h,2.1,5,wug,2,high,wug,purple
1075,1800337,FL,conJudg,wug,1912,100,image-slider-response,611,NA,match,h,2.1,5,wug,2,high,wug,purple
1075,1802088,FL,conJudg,wug,2839.85000000021,100,image-slider-response,639,NA,match,h,2.1,5,wug,2,high,wug,purple
1075,1845209,LF,conJudg,wug,6031.50000000466,100,image-slider-response,603,NA,match,h,2.1,5,wug,2,high,wug,purple
1075,1846093,LF,conJudg,wug,2296.89999995753,97,image-slider-response,651,NA,match,h,2.1,5,wug,2,high,wug,purple
1075,1846243,LF,conJudg,wug,881.699999999953,0,image-slider-response,669,NA,match,h,2.1,5,wug,2,high,wug,purple
1075,1826943,FL,conJudg,wug,NA,NA,image-slider-response,607,NA,match,h,2.1,5,wug,2,high,wug,purple
1075,1824292,FL,conJudg,wug,2033.94999999728,42,image-slider-response,683,NA,match,h,2.1,5,wug,2,high,wug,purple
1075,1803474,LF,conJudg,wug,5211.59999999998,65,image-slider-response,623,NA,match,h,2.1,5,wug,2,high,wug,purple
1075,1802985,FL,conJudg,wug,1652.24000000046,100,image-slider-response,613,NA,match,h,2.1,5,wug,2,high,wug,purple
1075,1826954,LF,conJudg,wug,2146,100,image-slider-response,621,NA,match,h,2.1,5,wug,2,high,wug,purple
1075,1803026,FL,conJudg,wug,4244.74500003271,100,image-slider-response,675,NA,match,h,2.1,5,wug,2,high,wug,purple
1075,1799963,FL,conJudg,wug,3489.25499996403,76,image-slider-response,649,NA,match,h,2.1,5,wug,2,high,wug,purple
1075,1839497,LF,conJudg,wug,2698.71000002604,48,image-slider-response,705,NA,match,h,2.1,5,wug,2,high,wug,purple
1075,1810084,LF,conJudg,wug,3279.82499999786,-33,image-slider-response,603,NA,match,h,2.1,5,wug,2,high,wug,purple
1075,1803470,LF,conJudg,wug,2484.19499999727,100,image-slider-response,609,NA,match,h,2.1,5,wug,2,high,wug,purple
1075,1802114,LF,conJudg,wug,4200,0,image-slider-response,637,NA,match,h,2.1,5,wug,2,high,wug,purple
1075,1845195,LF,conJudg,wug,1676.22999998275,100,image-slider-response,607,NA,match,h,2.1,5,wug,2,high,wug,purple
1075,1828957,LF,conJudg,wug,3057.48000001768,55,image-slider-response,661,NA,match,h,2.1,5,wug,2,high,wug,purple
1075,1839496,FL,conJudg,wug,NA,NA,image-slider-response,703,NA,match,h,2.1,5,wug,2,high,wug,purple
1075,1828959,LF,conJudg,wug,3126.51500001084,100,image-slider-response,695,NA,match,h,2.1,5,wug,2,high,wug,purple
1075,1845993,FL,conJudg,wug,2269.91000003181,60,image-slider-response,661,NA,match,h,2.1,5,wug,2,high,wug,purple
1075,1824290,FL,conJudg,wug,3427.22500005038,96,image-slider-response,663,NA,match,h,2.1,5,wug,2,high,wug,purple
1075,1802990,FL,conJudg,wug,3993.53999999585,99,image-slider-response,673,NA,match,h,2.1,5,wug,2,high,wug,purple
1075,1852272,LF,conJudg,wug,4284.50500000326,100,image-slider-response,621,NA,match,h,2.1,5,wug,2,high,wug,purple
1075,1800341,FL,conJudg,wug,1695.73999999557,100,image-slider-response,643,NA,match,h,2.1,5,wug,2,high,wug,purple
1075,1823789,LF,conJudg,wug,3924.25000001094,100,image-slider-response,599,NA,match,h,2.1,5,wug,2,high,wug,purple
1075,1802104,FL,conJudg,wug,2277.28000003844,100,image-slider-response,711,NA,match,h,2.1,5,wug,2,high,wug,purple
1075,1827017,FL,conJudg,wug,1176.19999998715,-16,image-slider-response,709,NA,match,h,2.1,5,wug,2,high,wug,purple
1075,1824288,LF,conJudg,wug,1763,100,image-slider-response,685,NA,match,h,2.1,5,wug,2,high,wug,purple
1075,1851604,LF,conJudg,wug,2374.65500016697,24,image-slider-response,713,NA,match,h,2.1,5,wug,2,high,wug,purple
1075,1802118,FL,conJudg,wug,2049.52499999502,100,image-slider-response,697,NA,match,h,2.1,5,wug,2,high,wug,purple
1075,1851573,LF,conJudg,wug,2023.95000000251,100,image-slider-response,605,NA,match,h,2.1,5,wug,2,high,wug,purple
1075,1826947,FL,conJudg,wug,1164.76999991573,57,image-slider-response,687,NA,match,h,2.1,5,wug,2,high,wug,purple
1075,1800339,FL,conJudg,wug,2129.62000002153,16,image-slider-response,681,NA,match,h,2.1,5,wug,2,high,wug,purple
1075,1825290,FL,conJudg,wug,3592.47000000323,41,image-slider-response,695,NA,match,h,2.1,5,wug,2,high,wug,purple
1075,1846355,FL,conJudg,wug,2504.10499999998,100,image-slider-response,655,NA,match,h,2.1,5,wug,2,high,wug,purple
1075,1858026,LF,conJudg,wug,2925.81499999505,100,image-slider-response,695,NA,match,h,2.1,5,wug,2,high,wug,purple
1075,1802986,FL,conJudg,wug,1971,100,image-slider-response,639,NA,match,h,2.1,5,wug,2,high,wug,purple
1075,1826537,LF,conJudg,wug,2507.70999997621,100,image-slider-response,713,NA,match,h,2.1,5,wug,2,high,wug,purple
1075,1803489,FL,conJudg,wug,3355,100,image-slider-response,649,NA,match,h,2.1,5,wug,2,high,wug,purple
1075,1799599,FL,conJudg,wug,3661.50000000023,65,image-slider-response,705,NA,match,h,2.1,5,wug,2,high,wug,purple
1075,1851782,LF,conJudg,wug,2551.59499996807,7,image-slider-response,635,NA,match,h,2.1,5,wug,2,high,wug,purple
1075,1846250,FL,conJudg,wug,1963.20500000729,100,image-slider-response,665,NA,match,h,2.1,5,wug,2,high,wug,purple
1075,1829239,LF,conJudg,wug,490.084999997634,0,image-slider-response,707,NA,match,h,2.1,5,wug,2,high,wug,purple
1075,1845198,FL,conJudg,wug,2033.63000000035,36,image-slider-response,655,NA,match,h,2.1,5,wug,2,high,wug,purple
1075,1802987,LF,conJudg,wug,1908.95499999984,100,image-slider-response,713,NA,match,h,2.1,5,wug,2,high,wug,purple
1075,1827166,FL,conJudg,wug,3772,100,image-slider-response,621,NA,match,h,2.1,5,wug,2,high,wug,purple
1075,1802089,LF,conJudg,wug,4018.92500009853,0,image-slider-response,661,NA,match,h,2.1,5,wug,2,high,wug,purple
1075,1845203,LF,conJudg,wug,1791.3300000364,100,image-slider-response,627,NA,match,h,2.1,5,wug,2,high,wug,purple
1075,1845982,FL,conJudg,wug,3034.99999999988,92,image-slider-response,611,NA,match,h,2.1,5,wug,2,high,wug,purple
1075,1839495,LF,conJudg,wug,4658.44999999902,47,image-slider-response,643,NA,match,h,2.1,5,wug,2,high,wug,purple
1075,1802108,LF,conJudg,wug,2522,-100,image-slider-response,709,NA,match,h,2.1,5,wug,2,high,wug,purple
1075,1828954,FL,conJudg,wug,2501.91000000085,100,image-slider-response,637,NA,match,h,2.1,5,wug,2,high,wug,purple
1075,1803486,LF,conJudg,wug,3562.900000019,67,image-slider-response,695,NA,match,h,2.1,5,wug,2,high,wug,purple
1075,1826946,FL,conJudg,wug,2317.95499999996,-80,image-slider-response,681,NA,match,h,2.1,5,wug,2,high,wug,purple
1075,1824046,FL,conJudg,wug,2651.24999999534,11,image-slider-response,603,NA,match,h,2.1,5,wug,2,high,wug,purple
1075,1845201,FL,conJudg,wug,4164.3449999392,100,image-slider-response,645,NA,match,h,2.1,5,wug,2,high,wug,purple
1075,1826988,LF,conJudg,wug,2979.90500000026,84,image-slider-response,641,NA,match,h,2.1,5,wug,2,high,wug,purple
1075,1825233,FL,conJudg,wug,5761,-8,image-slider-response,617,NA,match,h,2.1,5,wug,2,high,wug,purple
1075,1807534,LF,conJudg,wug,2343.68000004906,65,image-slider-response,685,NA,match,h,2.1,5,wug,2,high,wug,purple
1075,1802093,LF,conJudg,wug,3100.62500002095,100,image-slider-response,615,NA,match,h,2.1,5,wug,2,high,wug,purple
1075,1803481,FL,conJudg,wug,2064.24999999581,100,image-slider-response,659,NA,match,h,2.1,5,wug,2,high,wug,purple
1075,1807535,FL,conJudg,wug,3468,-84,image-slider-response,605,NA,match,h,2.1,5,wug,2,high,wug,purple
1075,1828989,LF,conJudg,wug,5390.18000000028,57,image-slider-response,649,NA,match,h,2.1,5,wug,2,high,wug,purple
1075,1826928,LF,conJudg,wug,2888.78000003751,79,image-slider-response,605,NA,match,h,2.1,5,wug,2,high,wug,purple
1075,1803492,LF,conJudg,wug,2285.82499996992,0,image-slider-response,709,NA,match,h,2.1,5,wug,2,high,wug,purple
1075,1829020,FL,conJudg,wug,2675,100,image-slider-response,715,NA,match,h,2.1,5,wug,2,high,wug,purple
1075,1802100,LF,conJudg,wug,2779.22500000568,68,image-slider-response,623,NA,match,h,2.1,5,wug,2,high,wug,purple
1075,1823768,LF,conJudg,wug,2146.51500000036,25,image-slider-response,665,NA,match,h,2.1,5,wug,2,high,wug,purple
1075,1798877,LF,conJudg,wug,2397.89999998175,99,image-slider-response,605,NA,match,h,2.1,5,wug,2,high,wug,purple
1075,1826960,LF,conJudg,wug,3004.35499986634,97,image-slider-response,713,NA,match,h,2.1,5,wug,2,high,wug,purple
1075,1826535,LF,conJudg,wug,2790.45000008773,88,image-slider-response,697,NA,match,h,2.1,5,wug,2,high,wug,purple
1075,1810112,LF,conJudg,wug,2051.98999999999,100,image-slider-response,699,NA,match,h,2.1,5,wug,2,high,wug,purple
1075,1803475,LF,conJudg,wug,2413.32500000135,100,image-slider-response,673,NA,match,h,2.1,5,wug,2,high,wug,purple
1075,1827036,LF,conJudg,wug,2238,100,image-slider-response,683,NA,match,h,2.1,5,wug,2,high,wug,purple
1075,1826942,FL,conJudg,wug,3821.52499999932,94,image-slider-response,699,NA,match,h,2.1,5,wug,2,high,wug,purple
1075,1802161,LF,conJudg,wug,NA,NA,image-slider-response,717,NA,match,h,2.1,5,wug,2,high,wug,purple
1075,1800332,LF,conJudg,wug,2774.54000001308,28,image-slider-response,669,NA,match,h,2.1,5,wug,2,high,wug,purple
1075,1851428,FL,conJudg,wug,4498.65500000305,100,image-slider-response,701,NA,match,h,2.1,5,wug,2,high,wug,purple
1075,1827397,LF,conJudg,wug,2367.55500000075,-73,image-slider-response,691,NA,match,h,2.1,5,wug,2,high,wug,purple
1075,1798900,FL,conJudg,wug,2170.77500000596,100,image-slider-response,651,NA,match,h,2.1,5,wug,2,high,wug,purple
1075,1807564,LF,conJudg,wug,2508.91500001308,100,image-slider-response,653,NA,match,h,2.1,5,wug,2,high,wug,purple
1075,1810091,LF,conJudg,wug,2708,-17,image-slider-response,695,NA,match,h,2.1,5,wug,2,high,wug,purple
1075,1802098,FL,conJudg,wug,2632.05999997444,100,image-slider-response,631,NA,match,h,2.1,5,wug,2,high,wug,purple
1075,1852241,LF,conJudg,wug,1491.99999999988,100,image-slider-response,705,NA,match,h,2.1,5,wug,2,high,wug,purple
1075,1802092,LF,conJudg,wug,1891,29,image-slider-response,691,NA,match,h,2.1,5,wug,2,high,wug,purple
1075,1810315,LF,conJudg,wug,6194.00000013411,99,image-slider-response,615,NA,match,h,2.1,5,wug,2,high,wug,purple
1075,1826929,LF,conJudg,wug,2444,45,image-slider-response,649,NA,match,h,2.1,5,wug,2,high,wug,purple
1075,1805884,LF,conJudg,wug,1738.46000002231,100,image-slider-response,623,NA,match,h,2.1,5,wug,2,high,wug,purple
1075,1805816,LF,conJudg,wug,1765.02999999502,100,image-slider-response,683,NA,match,h,2.1,5,wug,2,high,wug,purple
1075,1823753,LF,conJudg,wug,1843.3349999832,100,image-slider-response,685,NA,match,h,2.1,5,wug,2,high,wug,purple
1075,1825240,LF,conJudg,wug,2399.48000002187,100,image-slider-response,625,NA,match,h,2.1,5,wug,2,high,wug,purple
1075,1802998,FL,conJudg,wug,1969.82499980368,100,image-slider-response,671,NA,match,h,2.1,5,wug,2,high,wug,purple
1075,1798885,LF,conJudg,wug,3202.19999999972,78,image-slider-response,621,NA,match,h,2.1,5,wug,2,high,wug,purple
1075,1800333,LF,conJudg,wug,2915.36500000069,96,image-slider-response,717,NA,match,h,2.1,5,wug,2,high,wug,purple
1075,1860936,LF,conJudg,wug,3265.69000000018,0,image-slider-response,643,NA,match,h,2.1,5,wug,2,high,wug,purple
1075,1826957,FL,conJudg,wug,NA,NA,image-slider-response,709,NA,match,h,2.1,5,wug,2,high,wug,purple
1125,1826534,FL,conJudg,dep,2590.06000001682,-50,image-slider-response,625,NA,match,l,3.2,1,dep,3,low,dep,red
1125,1845983,FL,conJudg,dep,3610,-100,image-slider-response,697,NA,match,l,3.2,1,dep,3,low,dep,red
1125,1826932,FL,conJudg,dep,2104.58500000089,83,image-slider-response,713,NA,match,l,3.2,1,dep,3,low,dep,red
1125,1802124,FL,conJudg,dep,1389.41000006162,-100,image-slider-response,683,NA,match,l,3.2,1,dep,3,low,dep,red
1125,1826957,FL,conJudg,dep,NA,NA,image-slider-response,665,NA,match,l,3.2,1,dep,3,low,dep,red
1125,1802993,LF,conJudg,dep,777.509999999893,0,image-slider-response,709,NA,match,l,3.2,1,dep,3,low,dep,red
1125,1825290,FL,conJudg,dep,2438.55000002077,57,image-slider-response,649,NA,match,l,3.2,1,dep,3,low,dep,red
1125,1828961,FL,conJudg,dep,5483.21000020951,59,image-slider-response,629,NA,match,l,3.2,1,dep,3,low,dep,red
1125,1802109,FL,conJudg,dep,6115.23499991745,-14,image-slider-response,613,NA,match,l,3.2,1,dep,3,low,dep,red
1125,1823741,FL,conJudg,dep,2457,46,image-slider-response,707,NA,match,l,3.2,1,dep,3,low,dep,red
1125,1825235,LF,conJudg,dep,4834,-57,image-slider-response,637,NA,match,l,3.2,1,dep,3,low,dep,red
1125,1846268,FL,conJudg,dep,2700.74499980547,37,image-slider-response,697,NA,match,l,3.2,1,dep,3,low,dep,red
1125,1799783,LF,conJudg,dep,1721.73999994993,51,image-slider-response,695,NA,match,l,3.2,1,dep,3,low,dep,red
1125,1839499,FL,conJudg,dep,1827.36499999743,-100,image-slider-response,703,NA,match,l,3.2,1,dep,3,low,dep,red
1125,1826532,FL,conJudg,dep,3458.69499992114,0,image-slider-response,707,NA,match,l,3.2,1,dep,3,low,dep,red
1125,1826943,FL,conJudg,dep,2146.23000007123,81,image-slider-response,621,NA,match,l,3.2,1,dep,3,low,dep,red
1125,1803000,FL,conJudg,dep,2020.85999999684,43,image-slider-response,691,NA,match,l,3.2,1,dep,3,low,dep,red
1125,1825254,LF,conJudg,dep,6897,43,image-slider-response,599,NA,match,l,3.2,1,dep,3,low,dep,red
1125,1846262,LF,conJudg,dep,5076.82499988005,-1,image-slider-response,651,NA,match,l,3.2,1,dep,3,low,dep,red
1125,1803481,FL,conJudg,dep,2783.98000000021,-100,image-slider-response,633,NA,match,l,3.2,1,dep,3,low,dep,red
1125,1826934,FL,conJudg,dep,2716.30499999982,-100,image-slider-response,627,NA,match,l,3.2,1,dep,3,low,dep,red
1125,1803473,FL,conJudg,dep,1959.93499999889,-50,image-slider-response,703,NA,match,l,3.2,1,dep,3,low,dep,red
1125,1802098,FL,conJudg,dep,4539.11500005051,81,image-slider-response,657,NA,match,l,3.2,1,dep,3,low,dep,red
1125,1823744,FL,conJudg,dep,4388.65999993868,35,image-slider-response,677,NA,match,l,3.2,1,dep,3,low,dep,red
1125,1825232,FL,conJudg,dep,669.289999990724,0,image-slider-response,663,NA,match,l,3.2,1,dep,3,low,dep,red
1125,1828956,LF,conJudg,dep,3036.18999998434,91,image-slider-response,675,NA,match,l,3.2,1,dep,3,low,dep,red
1125,1803471,FL,conJudg,dep,3934,100,image-slider-response,711,NA,match,l,3.2,1,dep,3,low,dep,red
1125,1845205,FL,conJudg,dep,1588.45999999903,74,image-slider-response,717,NA,match,l,3.2,1,dep,3,low,dep,red
1125,1827166,FL,conJudg,dep,4038,100,image-slider-response,679,NA,match,l,3.2,1,dep,3,low,dep,red
1125,1802094,FL,conJudg,dep,2294.9499999996,97,image-slider-response,663,NA,match,l,3.2,1,dep,3,low,dep,red
1125,1800337,FL,conJudg,dep,1789,-100,image-slider-response,711,NA,match,l,3.2,1,dep,3,low,dep,red
1125,1807535,FL,conJudg,dep,6755,61,image-slider-response,633,NA,match,l,3.2,1,dep,3,low,dep,red
1125,1798890,FL,conJudg,dep,3026.8550000001,100,image-slider-response,599,NA,match,l,3.2,1,dep,3,low,dep,red
1125,1826963,LF,conJudg,dep,2281.27499995753,-13,image-slider-response,709,NA,match,l,3.2,1,dep,3,low,dep,red
1125,1845196,LF,conJudg,dep,3850.52500000165,32,image-slider-response,687,NA,match,l,3.2,1,dep,3,low,dep,red
1125,1803483,FL,conJudg,dep,2499.26499975845,37,image-slider-response,641,NA,match,l,3.2,1,dep,3,low,dep,red
1125,1826940,LF,conJudg,dep,2104.46500009857,-66,image-slider-response,647,NA,match,l,3.2,1,dep,3,low,dep,red
1125,1846355,FL,conJudg,dep,5205.31499999925,100,image-slider-response,677,NA,match,l,3.2,1,dep,3,low,dep,red
1125,1826947,FL,conJudg,dep,2020.94499999657,32,image-slider-response,607,NA,match,l,3.2,1,dep,3,low,dep,red
1125,1851575,LF,conJudg,dep,5080.96499999985,100,image-slider-response,649,NA,match,l,3.2,1,dep,3,low,dep,red
1125,1829030,FL,conJudg,dep,2599.31000000145,21,image-slider-response,639,NA,match,l,3.2,1,dep,3,low,dep,red
1125,1802184,FL,conJudg,dep,NA,NA,image-slider-response,645,NA,match,l,3.2,1,dep,3,low,dep,red
1125,1800478,FL,conJudg,dep,NA,NA,image-slider-response,655,NA,match,l,3.2,1,dep,3,low,dep,red
1125,1823763,FL,conJudg,dep,4589.09000002313,29,image-slider-response,599,NA,match,l,3.2,1,dep,3,low,dep,red
1125,1825245,FL,conJudg,dep,6394.49999993667,84,image-slider-response,601,NA,match,l,3.2,1,dep,3,low,dep,red
1125,1807583,LF,conJudg,dep,4004.48000011966,18,image-slider-response,701,NA,match,l,3.2,1,dep,3,low,dep,red
1125,1803490,FL,conJudg,dep,1726.7400000128,-100,image-slider-response,695,NA,match,l,3.2,1,dep,3,low,dep,red
1125,1851571,LF,conJudg,dep,2833.60000001267,-100,image-slider-response,669,NA,match,l,3.2,1,dep,3,low,dep,red
1125,1827347,FL,conJudg,dep,1590.85000003688,-37,image-slider-response,661,NA,match,l,3.2,1,dep,3,low,dep,red
1125,1802984,LF,conJudg,dep,3184.95999998413,2,image-slider-response,619,NA,match,l,3.2,1,dep,3,low,dep,red
1125,1800338,FL,conJudg,dep,2853.84499997599,100,image-slider-response,661,NA,match,l,3.2,1,dep,3,low,dep,red
1125,1828965,LF,conJudg,dep,2865.89500000991,-92,image-slider-response,691,NA,match,l,3.2,1,dep,3,low,dep,red
1125,1802093,LF,conJudg,dep,3058.78500000108,-77,image-slider-response,653,NA,match,l,3.2,1,dep,3,low,dep,red
1125,1839496,FL,conJudg,dep,2304.90999994799,49,image-slider-response,633,NA,match,l,3.2,1,dep,3,low,dep,red
1125,1828946,FL,conJudg,dep,5723.56500005117,50,image-slider-response,619,NA,match,l,3.2,1,dep,3,low,dep,red
1125,1825226,LF,conJudg,dep,4528.59000000171,-15,image-slider-response,673,NA,match,l,3.2,1,dep,3,low,dep,red
1125,1825257,FL,conJudg,dep,494.494999998948,0,image-slider-response,701,NA,match,l,3.2,1,dep,3,low,dep,red
1125,1803485,FL,conJudg,dep,2637.83999998122,-94,image-slider-response,717,NA,match,l,3.2,1,dep,3,low,dep,red
1125,1826954,LF,conJudg,dep,3835,65,image-slider-response,601,NA,match,l,3.2,1,dep,3,low,dep,red
1125,1807534,LF,conJudg,dep,2016.10000000801,-67,image-slider-response,687,NA,match,l,3.2,1,dep,3,low,dep,red
1125,1826924,LF,conJudg,dep,2536.90499998629,21,image-slider-response,609,NA,match,l,3.2,1,dep,3,low,dep,red
1125,1860901,LF,conJudg,dep,3012.99500000104,-79,image-slider-response,667,NA,match,l,3.2,1,dep,3,low,dep,red
1125,1803489,FL,conJudg,dep,3231,-100,image-slider-response,665,NA,match,l,3.2,1,dep,3,low,dep,red
1125,1852720,LF,conJudg,dep,3979.06500002136,45,image-slider-response,637,NA,match,l,3.2,1,dep,3,low,dep,red
1125,1845993,FL,conJudg,dep,2875.69000001531,0,image-slider-response,645,NA,match,l,3.2,1,dep,3,low,dep,red
1125,1800331,FL,conJudg,dep,1792,-100,image-slider-response,657,NA,match,l,3.2,1,dep,3,low,dep,red
1125,1807532,FL,conJudg,dep,2623.99999999977,62,image-slider-response,703,NA,match,l,3.2,1,dep,3,low,dep,red
1125,1802995,LF,conJudg,dep,3081.10999999917,-100,image-slider-response,659,NA,match,l,3.2,1,dep,3,low,dep,red
1125,1852721,LF,conJudg,dep,2048,48,image-slider-response,671,NA,match,l,3.2,1,dep,3,low,dep,red
1125,1828947,FL,conJudg,dep,2437.09500000114,-81,image-slider-response,617,NA,match,l,3.2,1,dep,3,low,dep,red
1125,1810315,LF,conJudg,dep,7364.0000000596,-89,image-slider-response,661,NA,match,l,3.2,1,dep,3,low,dep,red
1125,1846376,FL,conJudg,dep,6137.00000000256,-87,image-slider-response,687,NA,match,l,3.2,1,dep,3,low,dep,red
1125,1845201,FL,conJudg,dep,3291.5450000437,32,image-slider-response,673,NA,match,l,3.2,1,dep,3,low,dep,red
1125,1810094,LF,conJudg,dep,7248.07500001043,-48,image-slider-response,609,NA,match,l,3.2,1,dep,3,low,dep,red
1125,1803470,LF,conJudg,dep,2241.9799999916,57,image-slider-response,685,NA,match,l,3.2,1,dep,3,low,dep,red
1125,1802982,FL,conJudg,dep,2033.84000000008,24,image-slider-response,695,NA,match,l,3.2,1,dep,3,low,dep,red
1125,1805884,LF,conJudg,dep,2576.53999998001,-100,image-slider-response,707,NA,match,l,3.2,1,dep,3,low,dep,red
1125,1803039,LF,conJudg,dep,3196.25500007533,60,image-slider-response,705,NA,match,l,3.2,1,dep,3,low,dep,red
1125,1803558,LF,conJudg,dep,2660.08000000147,36,image-slider-response,645,NA,match,l,3.2,1,dep,3,low,dep,red
1125,1807547,FL,conJudg,dep,2758.2199999888,-100,image-slider-response,619,NA,match,l,3.2,1,dep,3,low,dep,red
1125,1800336,LF,conJudg,dep,2450.05499996478,34,image-slider-response,629,NA,match,l,3.2,1,dep,3,low,dep,red
1125,1826945,LF,conJudg,dep,1141.81499998085,-30,image-slider-response,693,NA,match,l,3.2,1,dep,3,low,dep,red
1125,1824290,FL,conJudg,dep,3884.89499996649,-5,image-slider-response,625,NA,match,l,3.2,1,dep,3,low,dep,red
1125,1802117,LF,conJudg,dep,2441,-100,image-slider-response,679,NA,match,l,3.2,1,dep,3,low,dep,red
1125,1858029,LF,conJudg,dep,2285.42499989271,-38,image-slider-response,695,NA,match,l,3.2,1,dep,3,low,dep,red
1125,1824289,LF,conJudg,dep,6820.40000008419,-20,image-slider-response,637,NA,match,l,3.2,1,dep,3,low,dep,red
1125,1802990,FL,conJudg,dep,3702.39500000025,-100,image-slider-response,667,NA,match,l,3.2,1,dep,3,low,dep,red
1125,1826960,LF,conJudg,dep,3099.87500007264,-98,image-slider-response,687,NA,match,l,3.2,1,dep,3,low,dep,red
1125,1802986,FL,conJudg,dep,2480.00000000012,-100,image-slider-response,631,NA,match,l,3.2,1,dep,3,low,dep,red
1125,1799963,FL,conJudg,dep,4692.86499998998,-47,image-slider-response,617,NA,match,l,3.2,1,dep,3,low,dep,red
1125,1827631,FL,conJudg,dep,2635.19999998971,-8,image-slider-response,637,NA,match,l,3.2,1,dep,3,low,dep,red
1125,1825248,FL,conJudg,dep,5012.99999999173,-99,image-slider-response,667,NA,match,l,3.2,1,dep,3,low,dep,red
1125,1845984,LF,conJudg,dep,NA,NA,image-slider-response,615,NA,match,l,3.2,1,dep,3,low,dep,red
1125,1828954,FL,conJudg,dep,2857.70500000042,52,image-slider-response,605,NA,match,l,3.2,1,dep,3,low,dep,red
1125,1800341,FL,conJudg,dep,3717.97500000685,-80,image-slider-response,625,NA,match,l,3.2,1,dep,3,low,dep,red
1125,1803486,LF,conJudg,dep,3112.20999993384,45,image-slider-response,717,NA,match,l,3.2,1,dep,3,low,dep,red
1125,1825243,LF,conJudg,dep,2896.35999999882,-86,image-slider-response,671,NA,match,l,3.2,1,dep,3,low,dep,red
1125,1825231,LF,conJudg,dep,3220.05500000517,-88,image-slider-response,679,NA,match,l,3.2,1,dep,3,low,dep,red
1125,1802100,LF,conJudg,dep,2863.78999997396,-38,image-slider-response,615,NA,match,l,3.2,1,dep,3,low,dep,red
1125,1825240,LF,conJudg,dep,2595.74000001885,48,image-slider-response,647,NA,match,l,3.2,1,dep,3,low,dep,red
1125,1805816,LF,conJudg,dep,4613.42999999761,-81,image-slider-response,695,NA,match,l,3.2,1,dep,3,low,dep,red
1125,1826537,LF,conJudg,dep,3635.27000002796,-85,image-slider-response,671,NA,match,l,3.2,1,dep,3,low,dep,red
1125,1826949,FL,conJudg,dep,4061.61500001326,-54,image-slider-response,643,NA,match,l,3.2,1,dep,3,low,dep,red
1125,1860949,LF,conJudg,dep,2744,-42,image-slider-response,663,NA,match,l,3.2,1,dep,3,low,dep,red
1125,1845195,LF,conJudg,dep,2034.08499999205,-17,image-slider-response,699,NA,match,l,3.2,1,dep,3,low,dep,red
1125,1799781,LF,conJudg,dep,2577,58,image-slider-response,679,NA,match,l,3.2,1,dep,3,low,dep,red
1125,1851604,LF,conJudg,dep,3669.03500002809,-40,image-slider-response,621,NA,match,l,3.2,1,dep,3,low,dep,red
1125,1823745,LF,conJudg,dep,869.189999997616,-59,image-slider-response,631,NA,match,l,3.2,1,dep,3,low,dep,red
1125,1824300,FL,conJudg,dep,6475.81500001252,-100,image-slider-response,619,NA,match,l,3.2,1,dep,3,low,dep,red
1125,1827017,FL,conJudg,dep,1552.80000000494,37,image-slider-response,609,NA,match,l,3.2,1,dep,3,low,dep,red
1125,1800340,LF,conJudg,dep,3228.37999998592,-64,image-slider-response,631,NA,match,l,3.2,1,dep,3,low,dep,red
1125,1826931,LF,conJudg,dep,3413,15,image-slider-response,681,NA,match,l,3.2,1,dep,3,low,dep,red
1125,1851568,LF,conJudg,dep,685.525000000838,39,image-slider-response,653,NA,match,l,3.2,1,dep,3,low,dep,red
1125,1839506,FL,conJudg,dep,3094.56499997759,18,image-slider-response,667,NA,match,l,3.2,1,dep,3,low,dep,red
1125,1845228,FL,conJudg,dep,6983.05000000261,99,image-slider-response,645,NA,match,l,3.2,1,dep,3,low,dep,red
1125,1845198,FL,conJudg,dep,6885.5149999999,26,image-slider-response,641,NA,match,l,3.2,1,dep,3,low,dep,red
1125,1828958,LF,conJudg,dep,3757.73500000022,-55,image-slider-response,633,NA,match,l,3.2,1,dep,3,low,dep,red
1125,1846359,FL,conJudg,dep,3212,-100,image-slider-response,667,NA,match,l,3.2,1,dep,3,low,dep,red
1125,1860953,LF,conJudg,dep,3850,-100,image-slider-response,611,NA,match,l,3.2,1,dep,3,low,dep,red
1125,1852272,LF,conJudg,dep,2408.02000000258,-100,image-slider-response,615,NA,match,l,3.2,1,dep,3,low,dep,red
1125,1839495,LF,conJudg,dep,3768.24000000127,41,image-slider-response,633,NA,match,l,3.2,1,dep,3,low,dep,red
1125,1802102,LF,conJudg,dep,2330.58999999962,-98,image-slider-response,643,NA,match,l,3.2,1,dep,3,low,dep,red
1125,1827354,LF,conJudg,dep,3489.87000000116,25,image-slider-response,663,NA,match,l,3.2,1,dep,3,low,dep,red
1125,1803488,LF,conJudg,dep,2866.87500000698,0,image-slider-response,679,NA,match,l,3.2,1,dep,3,low,dep,red
1125,1799599,FL,conJudg,dep,3782.45999999857,51,image-slider-response,633,NA,match,l,3.2,1,dep,3,low,dep,red
1125,1845200,LF,conJudg,dep,3424.09500014037,-92,image-slider-response,637,NA,match,l,3.2,1,dep,3,low,dep,red
1125,1846243,LF,conJudg,dep,985.459999999846,0,image-slider-response,623,NA,match,l,3.2,1,dep,3,low,dep,red
1125,1851782,LF,conJudg,dep,1149.58999998635,0,image-slider-response,615,NA,match,l,3.2,1,dep,3,low,dep,red
1125,1803465,FL,conJudg,dep,2927.12500004563,100,image-slider-response,603,NA,match,l,3.2,1,dep,3,low,dep,red
1125,1851422,FL,conJudg,dep,3274.91500007454,-94,image-slider-response,623,NA,match,l,3.2,1,dep,3,low,dep,red
1125,1802090,FL,conJudg,dep,956.499999971129,22,image-slider-response,663,NA,match,l,3.2,1,dep,3,low,dep,red
1125,1802989,FL,conJudg,dep,2438.98499999347,100,image-slider-response,709,NA,match,l,3.2,1,dep,3,low,dep,red
1125,1839507,FL,conJudg,dep,6468.76999997767,-100,image-slider-response,621,NA,match,l,3.2,1,dep,3,low,dep,red
1125,1802118,FL,conJudg,dep,1887.3499999973,-64,image-slider-response,705,NA,match,l,3.2,1,dep,3,low,dep,red
1125,1807562,FL,conJudg,dep,2681.13499996252,-38,image-slider-response,653,NA,match,l,3.2,1,dep,3,low,dep,red
1125,1803482,LF,conJudg,dep,1724.34499999508,-34,image-slider-response,711,NA,match,l,3.2,1,dep,3,low,dep,red
1125,1825233,FL,conJudg,dep,2153,-39,image-slider-response,701,NA,match,l,3.2,1,dep,3,low,dep,red
1125,1826539,LF,conJudg,dep,4995.56999991182,-43,image-slider-response,603,NA,match,l,3.2,1,dep,3,low,dep,red
1125,1810086,LF,conJudg,dep,4294.36500009615,-100,image-slider-response,655,NA,match,l,3.2,1,dep,3,low,dep,red
1125,1860936,LF,conJudg,dep,1441.02499999281,0,image-slider-response,663,NA,match,l,3.2,1,dep,3,low,dep,red
1125,1827397,LF,conJudg,dep,5004.47000000172,-93,image-slider-response,683,NA,match,l,3.2,1,dep,3,low,dep,red
1125,1805817,FL,conJudg,dep,3245.89999997988,-65,image-slider-response,695,NA,match,l,3.2,1,dep,3,low,dep,red
1125,1810097,LF,conJudg,dep,3598.01500011235,-28,image-slider-response,607,NA,match,l,3.2,1,dep,3,low,dep,red
1125,1825238,LF,conJudg,dep,2053.01500000129,-66,image-slider-response,643,NA,match,l,3.2,1,dep,3,low,dep,red
1125,1823753,LF,conJudg,dep,3083.28499994241,-93,image-slider-response,643,NA,match,l,3.2,1,dep,3,low,dep,red
1125,1826536,FL,conJudg,dep,2315.73499999649,-100,image-slider-response,713,NA,match,l,3.2,1,dep,3,low,dep,red
1125,1800346,LF,conJudg,dep,5876,-49,image-slider-response,599,NA,match,l,3.2,1,dep,3,low,dep,red
1125,1824292,FL,conJudg,dep,4342.62000001036,-58,image-slider-response,613,NA,match,l,3.2,1,dep,3,low,dep,red
1125,1825250,LF,conJudg,dep,2409.2002874146,-88,image-slider-response,623,NA,match,l,3.2,1,dep,3,low,dep,red
1125,1824046,FL,conJudg,dep,2571.70000002952,13,image-slider-response,659,NA,match,l,3.2,1,dep,3,low,dep,red
1125,1803469,FL,conJudg,dep,2522.27499999572,26,image-slider-response,657,NA,match,l,3.2,1,dep,3,low,dep,red
1125,1826946,FL,conJudg,dep,3566.43999999959,-84,image-slider-response,609,NA,match,l,3.2,1,dep,3,low,dep,red
1125,1810080,LF,conJudg,dep,1684.3499999959,26,image-slider-response,685,NA,match,l,3.2,1,dep,3,low,dep,red
1125,1846353,FL,conJudg,dep,3762,-10,image-slider-response,625,NA,match,l,3.2,1,dep,3,low,dep,red
1125,1846354,FL,conJudg,dep,3659.26000000036,-100,image-slider-response,667,NA,match,l,3.2,1,dep,3,low,dep,red
1125,1823743,LF,conJudg,dep,2729.66999997152,50,image-slider-response,647,NA,match,l,3.2,1,dep,3,low,dep,red
1125,1803017,LF,conJudg,dep,3450.12499997392,-69,image-slider-response,687,NA,match,l,3.2,1,dep,3,low,dep,red
1125,1826929,LF,conJudg,dep,3104,-69,image-slider-response,601,NA,match,l,3.2,1,dep,3,low,dep,red
1125,1845982,FL,conJudg,dep,2618,-87,image-slider-response,679,NA,match,l,3.2,1,dep,3,low,dep,red
1125,1826939,LF,conJudg,dep,2384.06000006944,-67,image-slider-response,675,NA,match,l,3.2,1,dep,3,low,dep,red
1125,1825241,LF,conJudg,dep,2081.48500008974,-100,image-slider-response,649,NA,match,l,3.2,1,dep,3,low,dep,red
1125,1803023,LF,conJudg,dep,1905.87999997661,9,image-slider-response,649,NA,match,l,3.2,1,dep,3,low,dep,red
1125,1810084,LF,conJudg,dep,2178.46499999729,33,image-slider-response,653,NA,match,l,3.2,1,dep,3,low,dep,red
1125,1858044,LF,conJudg,dep,5414,6,image-slider-response,641,NA,match,l,3.2,1,dep,3,low,dep,red
1125,1803466,LF,conJudg,dep,3027.84500003327,-67,image-slider-response,649,NA,match,l,3.2,1,dep,3,low,dep,red
1125,1800330,LF,conJudg,dep,2476.27500025555,-100,image-slider-response,645,NA,match,l,3.2,1,dep,3,low,dep,red
1125,1802104,FL,conJudg,dep,2213.51999999024,0,image-slider-response,619,NA,match,l,3.2,1,dep,3,low,dep,red
1125,1823789,LF,conJudg,dep,3849.8949999921,-100,image-slider-response,625,NA,match,l,3.2,1,dep,3,low,dep,red
1125,1828953,FL,conJudg,dep,3373.59999999905,-81,image-slider-response,599,NA,match,l,3.2,1,dep,3,low,dep,red
1125,1826938,LF,conJudg,dep,1832.64999999665,-100,image-slider-response,677,NA,match,l,3.2,1,dep,3,low,dep,red
1125,1826988,LF,conJudg,dep,3498.47499999846,-97,image-slider-response,697,NA,match,l,3.2,1,dep,3,low,dep,red
1125,1845209,LF,conJudg,dep,3453.20000000356,-63,image-slider-response,715,NA,match,l,3.2,1,dep,3,low,dep,red
1125,1860895,LF,conJudg,dep,2148.57499999925,38,image-slider-response,643,NA,match,l,3.2,1,dep,3,low,dep,red
1125,1826533,FL,conJudg,dep,4706.69499994256,-66,image-slider-response,633,NA,match,l,3.2,1,dep,3,low,dep,red
1125,1803026,FL,conJudg,dep,4440.19500003196,98,image-slider-response,689,NA,match,l,3.2,1,dep,3,low,dep,red
1125,1826962,FL,conJudg,dep,2329.63000000012,7,image-slider-response,625,NA,match,l,3.2,1,dep,3,low,dep,red
1125,1803492,LF,conJudg,dep,2764.78999998653,12,image-slider-response,623,NA,match,l,3.2,1,dep,3,low,dep,red
1125,1846352,FL,conJudg,dep,3181.66500004008,58,image-slider-response,663,NA,match,l,3.2,1,dep,3,low,dep,red
1125,1799788,FL,conJudg,dep,2564.06999999948,-16,image-slider-response,711,NA,match,l,3.2,1,dep,3,low,dep,red
1125,1824288,LF,conJudg,dep,4182,-100,image-slider-response,627,NA,match,l,3.2,1,dep,3,low,dep,red
1125,1802985,FL,conJudg,dep,1307.63499999931,0,image-slider-response,687,NA,match,l,3.2,1,dep,3,low,dep,red
1125,1825230,FL,conJudg,dep,3500.82500002463,62,image-slider-response,659,NA,match,l,3.2,1,dep,3,low,dep,red
1125,1807564,LF,conJudg,dep,2013.23000004049,29,image-slider-response,665,NA,match,l,3.2,1,dep,3,low,dep,red
1125,1802092,LF,conJudg,dep,3220,-67,image-slider-response,619,NA,match,l,3.2,1,dep,3,low,dep,red
1125,1826535,LF,conJudg,dep,2983.21500001475,18,image-slider-response,635,NA,match,l,3.2,1,dep,3,low,dep,red
1125,1802089,LF,conJudg,dep,4474.51500000898,-59,image-slider-response,709,NA,match,l,3.2,1,dep,3,low,dep,red
1125,1827024,LF,conJudg,dep,3396.71499998076,60,image-slider-response,689,NA,match,l,3.2,1,dep,3,low,dep,red
1125,1825225,LF,conJudg,dep,2861.45500000566,-38,image-slider-response,661,NA,match,l,3.2,1,dep,3,low,dep,red
1125,1803487,FL,conJudg,dep,2499.49000001652,71,image-slider-response,645,NA,match,l,3.2,1,dep,3,low,dep,red
1125,1807533,LF,conJudg,dep,3746.04499991983,-100,image-slider-response,627,NA,match,l,3.2,1,dep,3,low,dep,red
1125,1860600,LF,conJudg,dep,3284.43000000017,-100,image-slider-response,603,NA,match,l,3.2,1,dep,3,low,dep,red
1125,1800333,LF,conJudg,dep,2741.93500000006,-24,image-slider-response,659,NA,match,l,3.2,1,dep,3,low,dep,red
1125,1828951,LF,conJudg,dep,2446.85499998741,0,image-slider-response,627,NA,match,l,3.2,1,dep,3,low,dep,red
1125,1800334,LF,conJudg,dep,1394,-56,image-slider-response,673,NA,match,l,3.2,1,dep,3,low,dep,red
1125,1826951,FL,conJudg,dep,3335.14000003925,-98,image-slider-response,675,NA,match,l,3.2,1,dep,3,low,dep,red
1125,1802987,LF,conJudg,dep,2500.79499999993,-100,image-slider-response,641,NA,match,l,3.2,1,dep,3,low,dep,red
1125,1810091,LF,conJudg,dep,3053,18,image-slider-response,637,NA,match,l,3.2,1,dep,3,low,dep,red
1125,1827042,LF,conJudg,dep,2699.06999997329,35,image-slider-response,625,NA,match,l,3.2,1,dep,3,low,dep,red
1125,1845981,LF,conJudg,dep,4705.35499998368,100,image-slider-response,601,NA,match,l,3.2,1,dep,3,low,dep,red
1125,1846250,FL,conJudg,dep,4189.15000002016,-100,image-slider-response,675,NA,match,l,3.2,1,dep,3,low,dep,red
1125,1851569,FL,conJudg,dep,3500,-100,image-slider-response,703,NA,match,l,3.2,1,dep,3,low,dep,red
1125,1851423,FL,conJudg,dep,3745.13999999908,-3,image-slider-response,643,NA,match,l,3.2,1,dep,3,low,dep,red
1125,1823786,FL,conJudg,dep,2614.26000000036,-66,image-slider-response,683,NA,match,l,3.2,1,dep,3,low,dep,red
1125,1851570,LF,conJudg,dep,1430.22500000009,-40,image-slider-response,711,NA,match,l,3.2,1,dep,3,low,dep,red
1125,1800348,FL,conJudg,dep,2379.16499999119,0,image-slider-response,657,NA,match,l,3.2,1,dep,3,low,dep,red
1125,1826928,LF,conJudg,dep,2317.72499997169,-28,image-slider-response,607,NA,match,l,3.2,1,dep,3,low,dep,red
1125,1851573,LF,conJudg,dep,2043.06000000366,-100,image-slider-response,637,NA,match,l,3.2,1,dep,3,low,dep,red
1125,1803474,LF,conJudg,dep,4271.09999999998,-64,image-slider-response,713,NA,match,l,3.2,1,dep,3,low,dep,red
1125,1826937,LF,conJudg,dep,3390,30,image-slider-response,659,NA,match,l,3.2,1,dep,3,low,dep,red
1125,1823768,LF,conJudg,dep,2930.90499999921,77,image-slider-response,629,NA,match,l,3.2,1,dep,3,low,dep,red
1125,1798877,LF,conJudg,dep,1916.10000003129,49,image-slider-response,607,NA,match,l,3.2,1,dep,3,low,dep,red
1125,1839497,LF,conJudg,dep,2452.03499996569,-35,image-slider-response,687,NA,match,l,3.2,1,dep,3,low,dep,red
1125,1826942,FL,conJudg,dep,3279.7550000014,20,image-slider-response,631,NA,match,l,3.2,1,dep,3,low,dep,red
1125,1851428,FL,conJudg,dep,3971.07999998843,28,image-slider-response,673,NA,match,l,3.2,1,dep,3,low,dep,red
1125,1800339,FL,conJudg,dep,2205.2450000192,-15,image-slider-response,677,NA,match,l,3.2,1,dep,3,low,dep,red
1125,1826538,LF,conJudg,dep,5706.33000001544,100,image-slider-response,703,NA,match,l,3.2,1,dep,3,low,dep,red
1125,1845203,LF,conJudg,dep,5624.53000003006,100,image-slider-response,681,NA,match,l,3.2,1,dep,3,low,dep,red
1125,1803484,FL,conJudg,dep,2264.14999994449,47,image-slider-response,637,NA,match,l,3.2,1,dep,3,low,dep,red
1125,1846093,LF,conJudg,dep,NA,NA,image-slider-response,683,NA,match,l,3.2,1,dep,3,low,dep,red
1125,1807538,FL,conJudg,dep,2609.39999995753,43,image-slider-response,625,NA,match,l,3.2,1,dep,3,low,dep,red
1125,1828989,LF,conJudg,dep,6775.46999999962,-19,image-slider-response,685,NA,match,l,3.2,1,dep,3,low,dep,red
1125,1828968,LF,conJudg,dep,3767.66500016674,-88,image-slider-response,673,NA,match,l,3.2,1,dep,3,low,dep,red
1125,1802360,FL,conJudg,dep,3026.85999999999,-52,image-slider-response,635,NA,match,l,3.2,1,dep,3,low,dep,red
1125,1824285,LF,conJudg,dep,2425.32500000019,0,image-slider-response,607,NA,match,l,3.2,1,dep,3,low,dep,red
1125,1824294,LF,conJudg,dep,3945,30,image-slider-response,653,NA,match,l,3.2,1,dep,3,low,dep,red
1125,1803475,LF,conJudg,dep,4267.4299999926,-92,image-slider-response,647,NA,match,l,3.2,1,dep,3,low,dep,red
1125,1802992,LF,conJudg,dep,3184.86999999732,100,image-slider-response,631,NA,match,l,3.2,1,dep,3,low,dep,red
1125,1827036,LF,conJudg,dep,2100.00000000012,-100,image-slider-response,661,NA,match,l,3.2,1,dep,3,low,dep,red
1125,1810079,LF,conJudg,dep,2003.04500001948,47,image-slider-response,697,NA,match,l,3.2,1,dep,3,low,dep,red
1125,1852241,LF,conJudg,dep,2355,100,image-slider-response,607,NA,match,l,3.2,1,dep,3,low,dep,red
1125,1802107,FL,conJudg,dep,2211.02499985136,47,image-slider-response,693,NA,match,l,3.2,1,dep,3,low,dep,red
1125,1824287,LF,conJudg,dep,2670,50,image-slider-response,695,NA,match,l,3.2,1,dep,3,low,dep,red
1125,1805848,LF,conJudg,dep,1930.29000000004,0,image-slider-response,663,NA,match,l,3.2,1,dep,3,low,dep,red
1125,1802988,LF,conJudg,dep,4589.73000000697,-50,image-slider-response,671,NA,match,l,3.2,1,dep,3,low,dep,red
1125,1852243,LF,conJudg,dep,1530.55500000482,0,image-slider-response,689,NA,match,l,3.2,1,dep,3,low,dep,red
1125,1839564,LF,conJudg,dep,3590,-76,image-slider-response,657,NA,match,l,3.2,1,dep,3,low,dep,red
1125,1803476,FL,conJudg,dep,1776.87000000151,0,image-slider-response,659,NA,match,l,3.2,1,dep,3,low,dep,red
1125,1860605,LF,conJudg,dep,1907.3100000096,-19,image-slider-response,653,NA,match,l,3.2,1,dep,3,low,dep,red
1125,1803478,LF,conJudg,dep,2744.76999999944,-100,image-slider-response,717,NA,match,l,3.2,1,dep,3,low,dep,red
1125,1828964,FL,conJudg,dep,3876.95000000531,-100,image-slider-response,605,NA,match,l,3.2,1,dep,3,low,dep,red
1125,1858026,LF,conJudg,dep,3311.17000000086,-100,image-slider-response,607,NA,match,l,3.2,1,dep,3,low,dep,red
1125,1800335,LF,conJudg,dep,NA,NA,image-slider-response,627,NA,match,l,3.2,1,dep,3,low,dep,red
1125,1851574,LF,conJudg,dep,1716.09999999055,-65,image-slider-response,717,NA,match,l,3.2,1,dep,3,low,dep,red
1125,1802091,LF,conJudg,dep,2853.04499999993,-100,image-slider-response,665,NA,match,l,3.2,1,dep,3,low,dep,red
1125,1828972,LF,conJudg,dep,NA,NA,image-slider-response,633,NA,match,l,3.2,1,dep,3,low,dep,red
1125,1824284,FL,conJudg,dep,2009.08500002697,-39,image-slider-response,701,NA,match,l,3.2,1,dep,3,low,dep,red
1125,1802164,LF,conJudg,dep,2149.30000000005,71,image-slider-response,643,NA,match,l,3.2,1,dep,3,low,dep,red
1125,1823770,FL,conJudg,dep,3930,91,image-slider-response,693,NA,match,l,3.2,1,dep,3,low,dep,red
1125,1826984,FL,conJudg,dep,2448.75999999931,-100,image-slider-response,623,NA,match,l,3.2,1,dep,3,low,dep,red
1125,1802429,LF,conJudg,dep,6320.40000000049,100,image-slider-response,633,NA,match,l,3.2,1,dep,3,low,dep,red
1125,1826983,LF,conJudg,dep,3124.60999999894,42,image-slider-response,615,NA,match,l,3.2,1,dep,3,low,dep,red
1125,1826969,FL,conJudg,dep,3589.29000003263,-51,image-slider-response,623,NA,match,l,3.2,1,dep,3,low,dep,red
1125,1846365,FL,conJudg,dep,5461.72500000009,-100,image-slider-response,601,NA,match,l,3.2,1,dep,3,low,dep,red
1125,1825229,FL,conJudg,dep,3984,23,image-slider-response,653,NA,match,l,3.2,1,dep,3,low,dep,red
1125,1807546,LF,conJudg,dep,3281.57999995165,-38,image-slider-response,603,NA,match,l,3.2,1,dep,3,low,dep,red
1125,1860636,LF,conJudg,dep,1648,-46,image-slider-response,709,NA,match,l,3.2,1,dep,3,low,dep,red
1125,1851493,FL,conJudg,dep,1639.42499999993,-72,image-slider-response,661,NA,match,l,3.2,1,dep,3,low,dep,red
1125,1839503,FL,conJudg,dep,1457,-22,image-slider-response,669,NA,match,l,3.2,1,dep,3,low,dep,red
1125,1829239,LF,conJudg,dep,442.099999985658,0,image-slider-response,623,NA,match,l,3.2,1,dep,3,low,dep,red
1125,1846363,FL,conJudg,dep,3507.22500000114,-100,image-slider-response,703,NA,match,l,3.2,1,dep,3,low,dep,red
1125,1826930,LF,conJudg,dep,3062.92000017129,-100,image-slider-response,605,NA,match,l,3.2,1,dep,3,low,dep,red
1125,1828957,LF,conJudg,dep,2570.88499999372,0,image-slider-response,617,NA,match,l,3.2,1,dep,3,low,dep,red
1125,1802998,FL,conJudg,dep,2574.16499988176,-64,image-slider-response,609,NA,match,l,3.2,1,dep,3,low,dep,red
1125,1800351,FL,conJudg,dep,3498.72000003234,-94,image-slider-response,689,NA,match,l,3.2,1,dep,3,low,dep,red
1125,1845206,FL,conJudg,dep,3300,-30,image-slider-response,713,NA,match,l,3.2,1,dep,3,low,dep,red
1125,1826550,FL,conJudg,dep,6055.30500000156,0,image-slider-response,607,NA,match,l,3.2,1,dep,3,low,dep,red
1125,1803468,LF,conJudg,dep,4930.5849999655,-1,image-slider-response,607,NA,match,l,3.2,1,dep,3,low,dep,red
1125,1805815,FL,conJudg,dep,3171.08499980532,65,image-slider-response,717,NA,match,l,3.2,1,dep,3,low,dep,red
1125,1802095,FL,conJudg,dep,4552.55500000203,-35,image-slider-response,667,NA,match,l,3.2,1,dep,3,low,dep,red
1125,1852726,LF,conJudg,dep,2565.01999998,-83,image-slider-response,687,NA,match,l,3.2,1,dep,3,low,dep,red
1125,1802108,LF,conJudg,dep,5796,-15,image-slider-response,619,NA,match,l,3.2,1,dep,3,low,dep,red
1125,1828971,FL,conJudg,dep,7132,0,image-slider-response,707,NA,match,l,3.2,1,dep,3,low,dep,red
1125,1802991,FL,conJudg,dep,973.55500003323,-7,image-slider-response,639,NA,match,l,3.2,1,dep,3,low,dep,red
1125,1798900,FL,conJudg,dep,2251.87000000733,100,image-slider-response,645,NA,match,l,3.2,1,dep,3,low,dep,red
1125,1825237,FL,conJudg,dep,1234.00000000012,0,image-slider-response,701,NA,match,l,3.2,1,dep,3,low,dep,red
1125,1846372,FL,conJudg,dep,2794.10000000638,-87,image-slider-response,611,NA,match,l,3.2,1,dep,3,low,dep,red
1125,1826948,FL,conJudg,dep,3564.45000000531,-34,image-slider-response,621,NA,match,l,3.2,1,dep,3,low,dep,red
1125,1828952,FL,conJudg,dep,2971.90499999863,-9,image-slider-response,693,NA,match,l,3.2,1,dep,3,low,dep,red
1125,1803477,LF,conJudg,dep,1797.14999999851,54,image-slider-response,685,NA,match,l,3.2,1,dep,3,low,dep,red
1125,1798885,LF,conJudg,dep,3690.99999999162,13,image-slider-response,623,NA,match,l,3.2,1,dep,3,low,dep,red
1125,1826990,FL,conJudg,dep,3369.79999998584,-93,image-slider-response,677,NA,match,l,3.2,1,dep,3,low,dep,red
1125,1803472,FL,conJudg,dep,3969.8300000017,-9,image-slider-response,615,NA,match,l,3.2,1,dep,3,low,dep,red
1125,1860602,LF,conJudg,dep,1698.9299999841,78,image-slider-response,711,NA,match,l,3.2,1,dep,3,low,dep,red
1125,1802088,FL,conJudg,dep,5461.81999999855,48,image-slider-response,623,NA,match,l,3.2,1,dep,3,low,dep,red
1125,1802161,LF,conJudg,dep,6422.70000000112,-100,image-slider-response,711,NA,match,l,3.2,1,dep,3,low,dep,red
1125,1810112,LF,conJudg,dep,2454.57499999984,0,image-slider-response,625,NA,match,l,3.2,1,dep,3,low,dep,red
1125,1828959,LF,conJudg,dep,2585.39500000188,-100,image-slider-response,683,NA,match,l,3.2,1,dep,3,low,dep,red
1125,1802216,LF,conJudg,dep,3392,-46,image-slider-response,603,NA,match,l,3.2,1,dep,3,low,dep,red
1125,1802114,LF,conJudg,dep,5912,32,image-slider-response,609,NA,match,l,3.2,1,dep,3,low,dep,red
1125,1839502,LF,conJudg,dep,3051.27499999979,43,image-slider-response,629,NA,match,l,3.2,1,dep,3,low,dep,red
1125,1825234,FL,conJudg,dep,2052,-33,image-slider-response,637,NA,match,l,3.2,1,dep,3,low,dep,red
1125,1839500,LF,conJudg,dep,3601.9999999553,-100,image-slider-response,639,NA,match,l,3.2,1,dep,3,low,dep,red
1125,1800332,LF,conJudg,dep,3277.50500000548,-99,image-slider-response,689,NA,match,l,3.2,1,dep,3,low,dep,red
1125,1829020,FL,conJudg,dep,3303,100,image-slider-response,709,NA,match,l,3.2,1,dep,3,low,dep,red
1125,1852242,LF,conJudg,dep,3332.91999998619,75,image-slider-response,681,NA,match,l,3.2,1,dep,3,low,dep,red
1125,1851567,LF,conJudg,dep,1491.15000000165,0,image-slider-response,675,NA,match,l,3.2,1,dep,3,low,dep,red
1125,1826935,FL,conJudg,dep,2355,-41,image-slider-response,707,NA,match,l,3.2,1,dep,3,low,dep,red
1125,1851566,LF,conJudg,dep,3345,-69,image-slider-response,673,NA,match,l,3.2,1,dep,3,low,dep,red
1125,1826950,LF,conJudg,dep,2679.12999994587,25,image-slider-response,633,NA,match,l,3.2,1,dep,3,low,dep,red
1175,1823763,FL,conJudg,dep,3579.00499994867,55,image-slider-response,615,NA,match,h,3.1,1,dep,3,high,dep,blue
1175,1823789,LF,conJudg,dep,2640.5950000044,100,image-slider-response,703,NA,match,h,3.1,1,dep,3,high,dep,blue
1175,1851782,LF,conJudg,dep,2080.19500004593,11,image-slider-response,647,NA,match,h,3.1,1,dep,3,high,dep,blue
1175,1826930,LF,conJudg,dep,1523.51500000805,100,image-slider-response,679,NA,match,h,3.1,1,dep,3,high,dep,blue
1175,1826928,LF,conJudg,dep,1378.84500005748,0,image-slider-response,715,NA,match,h,3.1,1,dep,3,high,dep,blue
1175,1803471,FL,conJudg,dep,2464,79,image-slider-response,615,NA,match,h,3.1,1,dep,3,high,dep,blue
1175,1803490,FL,conJudg,dep,2715.90000000969,98,image-slider-response,637,NA,match,h,3.1,1,dep,3,high,dep,blue
1175,1807546,LF,conJudg,dep,2107.62999998406,48,image-slider-response,637,NA,match,h,3.1,1,dep,3,high,dep,blue
1175,1798877,LF,conJudg,dep,3116.30000011064,-12,image-slider-response,665,NA,match,h,3.1,1,dep,3,high,dep,blue
1175,1826951,FL,conJudg,dep,3595.25000001304,-90,image-slider-response,691,NA,match,h,3.1,1,dep,3,high,dep,blue
