resp,subjID,learning,task,fribbleID,label,rt,plugin,trialIndex,acc,fribbleFeatures,correctCategory,correctFrequency,correctLabel,body,trialType
1,1846268,FL,labelPictures,1_2_3_7_,bim,1105.61500000767,html-button-response,536,0,10375,3,high,dep,blue,exp
1,1825245,FL,labelPictures,1_2_3_7_,bim,2435.90000004042,html-button-response,488,0,10375,3,high,dep,blue,exp
1,1845200,LF,labelPictures,1_2_3_7_,bim,2186.42500019632,html-button-response,560,0,10375,3,high,dep,blue,exp
1,1826924,LF,labelPictures,1_2_3_7_,bim,1640.86000001407,html-button-response,520,0,10375,3,high,dep,blue,exp
1,1839564,LF,labelPictures,1_2_3_7_,bim,2162,html-button-response,492,0,10375,3,high,dep,blue,exp
1,1823745,LF,labelPictures,1_2_3_7_,bim,529.279999987921,html-button-response,568,0,10375,3,high,dep,blue,exp
1,1805884,LF,labelPictures,1_2_3_7_,bim,2495.66499999491,html-button-response,574,0,10375,3,high,dep,blue,exp
1,1823768,LF,labelPictures,1_2_3_7_,bim,595.080000000889,html-button-response,562,0,10375,3,high,dep,blue,exp
1,1824285,LF,labelPictures,1_2_3_7_,bim,2740.25500000059,html-button-response,546,0,10375,3,high,dep,blue,exp
1,1823743,LF,labelPictures,1_2_3_7_,bim,290.090000024065,html-button-response,496,0,10375,3,high,dep,blue,exp
10,1800333,LF,labelPictures,14_53_10_37_,wug,1560.70499999984,html-button-response,496,1,100275,2,high,wug,purple,exp
10,1827631,FL,labelPictures,14_53_10_37_,wug,1300.59999998775,html-button-response,490,1,100275,2,high,wug,purple,exp
10,1803026,FL,labelPictures,14_53_10_37_,wug,1847.92500000913,html-button-response,554,1,100275,2,high,wug,purple,exp
10,1823770,FL,labelPictures,14_53_10_37_,wug,1492,html-button-response,496,1,100275,2,high,wug,purple,exp
10,1851604,LF,labelPictures,14_53_10_37_,wug,1277.82999980263,html-button-response,536,1,100275,2,high,wug,purple,exp
10,1803558,LF,labelPictures,14_53_10_37_,wug,2439.40999999177,html-button-response,538,1,100275,2,high,wug,purple,exp
10,1827036,LF,labelPictures,14_53_10_37_,wug,1053,html-button-response,506,1,100275,2,high,wug,purple,exp
10,1826960,LF,labelPictures,14_53_10_37_,wug,1499.83999994583,html-button-response,518,1,100275,2,high,wug,purple,exp
10,1823770,FL,labelPictures,14_53_10_37_,wug,1569,html-button-response,506,1,100275,2,high,wug,purple,exp
10,1824285,LF,labelPictures,14_53_10_37_,wug,905.249999999767,html-button-response,586,1,100275,2,high,wug,purple,exp
10,1851573,LF,labelPictures,14_53_10_37_,wug,1478.17499999655,html-button-response,590,1,100275,2,high,wug,purple,exp
10,1807564,LF,labelPictures,14_53_10_37_,wug,1088.44999998109,html-button-response,578,1,100275,2,high,wug,purple,exp
10,1826942,FL,labelPictures,14_53_10_37_,wug,2069.17500000051,html-button-response,512,1,100275,2,high,wug,purple,exp
10,1826948,FL,labelPictures,14_53_10_37_,wug,1460.46499998192,html-button-response,510,1,100275,2,high,wug,purple,exp
10,1825245,FL,labelPictures,14_53_10_37_,wug,2929.70000009518,html-button-response,582,1,100275,2,high,wug,purple,exp
10,1800346,LF,labelPictures,14_53_10_37_,wug,1545,html-button-response,576,1,100275,2,high,wug,purple,exp
10,1839499,FL,labelPictures,14_53_10_37_,wug,952.834999999963,html-button-response,576,1,100275,2,high,wug,purple,exp
10,1828968,LF,labelPictures,14_53_10_37_,wug,2384.09499987029,html-button-response,576,1,100275,2,high,wug,purple,exp
10,1807533,LF,labelPictures,14_53_10_37_,wug,1183.39000013657,html-button-response,506,1,100275,2,high,wug,purple,exp
10,1851569,FL,labelPictures,14_53_10_37_,wug,986.999999999884,html-button-response,574,1,100275,2,high,wug,purple,exp
10,1826947,FL,labelPictures,14_53_10_37_,wug,1068.70999990497,html-button-response,492,1,100275,2,high,wug,purple,exp
10,1826939,LF,labelPictures,14_53_10_37_,wug,1687.74500000291,html-button-response,536,1,100275,2,high,wug,purple,exp
10,1828971,FL,labelPictures,14_53_10_37_,wug,1758,html-button-response,570,1,100275,2,high,wug,purple,exp
10,1851604,LF,labelPictures,14_10_6_12_,bim,985.249999910593,html-button-response,578,0,100275,2,high,wug,purple,exp
10,1826533,FL,labelPictures,14_53_10_37_,wug,991.159999975935,html-button-response,554,1,100275,2,high,wug,purple,exp
10,1805848,LF,labelPictures,14_53_10_37_,wug,2017.96500000008,html-button-response,594,1,100275,2,high,wug,purple,exp
10,1803466,LF,labelPictures,14_53_10_37_,wug,2506.16500002798,html-button-response,496,1,100275,2,high,wug,purple,exp
10,1802093,LF,labelPictures,14_53_10_37_,wug,1204.07499998691,html-button-response,500,1,100275,2,high,wug,purple,exp
10,1802184,FL,labelPictures,14_53_10_37_,wug,2519.99999998952,html-button-response,514,1,100275,2,high,wug,purple,exp
10,1826934,FL,labelPictures,14_53_10_37_,wug,810.540000000386,html-button-response,514,1,100275,2,high,wug,purple,exp
10,1823768,LF,labelPictures,14_53_10_37_,wug,1793.89000000083,html-button-response,532,1,100275,2,high,wug,purple,exp
10,1827631,FL,labelPictures,14_10_6_12_,bim,1311.50000001071,html-button-response,588,0,100275,2,high,wug,purple,exp
10,1825231,LF,labelPictures,14_53_10_37_,wug,1639.09499999863,html-button-response,508,1,100275,2,high,wug,purple,exp
10,1824289,LF,labelPictures,14_53_10_37_,wug,1763.45500000753,html-button-response,592,1,100275,2,high,wug,purple,exp
10,1845984,LF,labelPictures,14_53_10_37_,wug,1185.66000000283,html-button-response,546,1,100275,2,high,wug,purple,exp
10,1802117,LF,labelPictures,14_53_10_37_,wug,1728,html-button-response,496,1,100275,2,high,wug,purple,exp
10,1802360,FL,labelPictures,14_53_10_37_,wug,914.099999999977,html-button-response,512,1,100275,2,high,wug,purple,exp
10,1802088,FL,labelPictures,14_53_10_37_,wug,1241.56500000024,html-button-response,508,1,100275,2,high,wug,purple,exp
10,1802164,LF,labelPictures,14_53_10_37_,wug,1607.19999999984,html-button-response,566,1,100275,2,high,wug,purple,exp
10,1805884,LF,labelPictures,14_53_10_37_,wug,1057.88999999641,html-button-response,516,1,100275,2,high,wug,purple,exp
10,1845983,FL,labelPictures,14_53_10_37_,wug,1120,html-button-response,590,1,100275,2,high,wug,purple,exp
10,1826946,FL,labelPictures,14_10_6_12_,bim,1530.60999999975,html-button-response,514,0,100275,2,high,wug,purple,exp
10,1826934,FL,labelPictures,14_53_10_37_,wug,1212.28000000154,html-button-response,500,1,100275,2,high,wug,purple,exp
10,1845993,FL,labelPictures,14_53_10_37_,wug,1119.39999996684,html-button-response,594,1,100275,2,high,wug,purple,exp
10,1798885,LF,labelPictures,14_53_10_37_,wug,2256.90000003669,html-button-response,562,1,100275,2,high,wug,purple,exp
10,1845984,LF,labelPictures,14_53_10_37_,wug,1372.10500000219,html-button-response,550,1,100275,2,high,wug,purple,exp
10,1826950,LF,labelPictures,14_53_10_37_,wug,1979.77499989793,html-button-response,528,1,100275,2,high,wug,purple,exp
10,1828957,LF,labelPictures,14_53_10_37_,wug,1516.54499996221,html-button-response,586,1,100275,2,high,wug,purple,exp
10,1851574,LF,labelPictures,14_53_10_37_,wug,860.845000017434,html-button-response,510,1,100275,2,high,wug,purple,exp
10,1852241,LF,labelPictures,14_53_10_37_,wug,867,html-button-response,508,1,100275,2,high,wug,purple,exp
10,1826932,FL,labelPictures,14_53_10_37_,wug,2357.08999999764,html-button-response,490,1,100275,2,high,wug,purple,exp
10,1846268,FL,labelPictures,14_53_10_37_,wug,2083.86000012979,html-button-response,488,1,100275,2,high,wug,purple,exp
10,1805817,FL,labelPictures,14_53_10_37_,wug,1793.85000001639,html-button-response,562,1,100275,2,high,wug,purple,exp
10,1839503,FL,labelPictures,14_53_10_37_,wug,1216,html-button-response,588,1,100275,2,high,wug,purple,exp
10,1825229,FL,labelPictures,14_53_10_37_,wug,753,html-button-response,544,1,100275,2,high,wug,purple,exp
10,1823763,FL,labelPictures,14_53_10_37_,wug,1735.12500000652,html-button-response,534,1,100275,2,high,wug,purple,exp
10,1828971,FL,labelPictures,14_53_10_37_,wug,1092,html-button-response,500,1,100275,2,high,wug,purple,exp
10,1839503,FL,labelPictures,14_53_10_37_,wug,1157,html-button-response,548,1,100275,2,high,wug,purple,exp
10,1845205,FL,labelPictures,14_53_10_37_,wug,2262.2450000199,html-button-response,532,1,100275,2,high,wug,purple,exp
10,1803482,LF,labelPictures,14_53_10_37_,wug,938.524999888614,html-button-response,550,1,100275,2,high,wug,purple,exp
10,1803026,FL,labelPictures,14_53_10_37_,wug,2655.84000002127,html-button-response,552,1,100275,2,high,wug,purple,exp
10,1845198,FL,labelPictures,14_53_10_37_,wug,2350.59500000038,html-button-response,504,1,100275,2,high,wug,purple,exp
10,1839502,LF,labelPictures,14_53_10_37_,wug,1230.45000000088,html-button-response,506,1,100275,2,high,wug,purple,exp
10,1851569,FL,labelPictures,14_53_10_37_,wug,1732,html-button-response,486,1,100275,2,high,wug,purple,exp
10,1802090,FL,labelPictures,14_53_10_37_,wug,2054.29000000004,html-button-response,492,1,100275,2,high,wug,purple,exp
10,1807562,FL,labelPictures,14_53_10_37_,wug,1573.73500009999,html-button-response,546,1,100275,2,high,wug,purple,exp
10,1823770,FL,labelPictures,14_53_10_37_,wug,1663,html-button-response,532,1,100275,2,high,wug,purple,exp
10,1826932,FL,labelPictures,14_53_10_37_,wug,1875.57000000379,html-button-response,574,1,100275,2,high,wug,purple,exp
10,1824046,FL,labelPictures,14_53_10_37_,wug,1419.83999998774,html-button-response,558,1,100275,2,high,wug,purple,exp
10,1823789,LF,labelPictures,14_53_10_37_,wug,1977.62499999953,html-button-response,530,1,100275,2,high,wug,purple,exp
10,1826938,LF,labelPictures,14_53_10_37_,wug,2971.54499997851,html-button-response,560,1,100275,2,high,wug,purple,exp
10,1852726,LF,labelPictures,14_53_10_37_,wug,1865.55000001681,html-button-response,560,1,100275,2,high,wug,purple,exp
10,1802984,LF,labelPictures,14_53_10_37_,wug,1056.14499998046,html-button-response,520,1,100275,2,high,wug,purple,exp
10,1802118,FL,labelPictures,14_53_10_37_,wug,1774.14500000305,html-button-response,488,1,100275,2,high,wug,purple,exp
10,1852721,LF,labelPictures,14_53_10_37_,wug,3296,html-button-response,564,1,100275,2,high,wug,purple,exp
10,1826942,FL,labelPictures,14_53_10_37_,wug,1053.26000000059,html-button-response,518,1,100275,2,high,wug,purple,exp
10,1826957,FL,labelPictures,14_53_10_37_,wug,1922.67499997979,html-button-response,532,1,100275,2,high,wug,purple,exp
10,1803478,LF,labelPictures,14_53_10_37_,wug,1225.68999999936,html-button-response,592,1,100275,2,high,wug,purple,exp
10,1823789,LF,labelPictures,14_53_10_37_,wug,935.854999988806,html-button-response,534,1,100275,2,high,wug,purple,exp
10,1803486,LF,labelPictures,14_53_10_37_,wug,1796.93000018597,html-button-response,522,1,100275,2,high,wug,purple,exp
10,1846093,LF,labelPictures,14_53_10_37_,wug,833.475000225008,html-button-response,570,1,100275,2,high,wug,purple,exp
10,1852242,LF,labelPictures,14_53_10_37_,wug,2393.23000001605,html-button-response,564,1,100275,2,high,wug,purple,exp
10,1800333,LF,labelPictures,14_53_10_37_,wug,1085.69999999966,html-button-response,530,1,100275,2,high,wug,purple,exp
10,1828952,FL,labelPictures,14_53_10_37_,wug,1294.87499999953,html-button-response,562,1,100275,2,high,wug,purple,exp
10,1828952,FL,labelPictures,14_53_10_37_,wug,2561.20999999985,html-button-response,490,1,100275,2,high,wug,purple,exp
10,1803482,LF,labelPictures,14_53_10_37_,wug,838.529999833554,html-button-response,554,1,100275,2,high,wug,purple,exp
10,1826990,FL,labelPictures,14_53_10_37_,wug,1215.62499995343,html-button-response,594,1,100275,2,high,wug,purple,exp
10,1826963,LF,labelPictures,14_53_10_37_,wug,1441.43000000622,html-button-response,576,1,100275,2,high,wug,purple,exp
10,1800351,FL,labelPictures,14_53_10_37_,wug,1319.72999998834,html-button-response,594,1,100275,2,high,wug,purple,exp
10,1802360,FL,labelPictures,14_53_10_37_,wug,1478.89000000036,html-button-response,586,1,100275,2,high,wug,purple,exp
10,1803466,LF,labelPictures,14_53_10_37_,wug,2851.7550000106,html-button-response,564,1,100275,2,high,wug,purple,exp
10,1807564,LF,labelPictures,14_53_10_37_,wug,1018.26500002062,html-button-response,488,1,100275,2,high,wug,purple,exp
10,1800346,LF,labelPictures,14_53_10_37_,wug,1397,html-button-response,570,1,100275,2,high,wug,purple,exp
10,1825225,LF,labelPictures,14_53_10_37_,wug,1979.33999999077,html-button-response,488,1,100275,2,high,wug,purple,exp
10,1852272,LF,labelPictures,14_53_10_37_,wug,2218.68499999982,html-button-response,544,1,100275,2,high,wug,purple,exp
10,1826536,FL,labelPictures,14_53_10_37_,wug,1266.73000000301,html-button-response,564,1,100275,2,high,wug,purple,exp
10,1800338,FL,labelPictures,14_53_10_37_,wug,1079.12499998929,html-button-response,546,1,100275,2,high,wug,purple,exp
10,1824290,FL,labelPictures,14_53_10_37_,wug,2101.28999996232,html-button-response,584,1,100275,2,high,wug,purple,exp
10,1802118,FL,labelPictures,14_53_10_37_,wug,1394.22999999812,html-button-response,516,1,100275,2,high,wug,purple,exp
10,1803000,FL,labelPictures,14_53_10_37_,wug,1590.41000000434,html-button-response,488,1,100275,2,high,wug,purple,exp
10,1798877,LF,labelPictures,14_53_10_37_,wug,2434.20000001788,html-button-response,520,1,100275,2,high,wug,purple,exp
10,1802987,LF,labelPictures,14_53_10_37_,wug,964.605000000156,html-button-response,526,1,100275,2,high,wug,purple,exp
10,1852720,LF,labelPictures,14_53_10_37_,wug,1295.45000000508,html-button-response,494,1,100275,2,high,wug,purple,exp
10,1824290,FL,labelPictures,14_53_10_37_,wug,1292.53500001505,html-button-response,540,1,100275,2,high,wug,purple,exp
10,1800330,LF,labelPictures,14_53_10_37_,wug,1946.88499998301,html-button-response,520,1,100275,2,high,wug,purple,exp
10,1824289,LF,labelPictures,14_53_10_37_,wug,2419.22499984503,html-button-response,540,1,100275,2,high,wug,purple,exp
10,1851574,LF,labelPictures,14_53_10_37_,wug,1442.90500000352,html-button-response,536,1,100275,2,high,wug,purple,exp
10,1802100,LF,labelPictures,14_53_10_37_,wug,966.229999961797,html-button-response,564,1,100275,2,high,wug,purple,exp
10,1851575,LF,labelPictures,14_53_10_37_,wug,1556.45999999996,html-button-response,534,1,100275,2,high,wug,purple,exp
10,1826984,FL,labelPictures,14_53_10_37_,wug,3098.25499998988,html-button-response,504,1,100275,2,high,wug,purple,exp
10,1851567,LF,labelPictures,14_53_10_37_,wug,237.935000004654,html-button-response,570,1,100275,2,high,wug,purple,exp
10,1803465,FL,labelPictures,14_53_10_37_,wug,1238.33500000183,html-button-response,556,1,100275,2,high,wug,purple,exp
10,1852242,LF,labelPictures,14_53_10_37_,wug,2185.70999999065,html-button-response,516,1,100275,2,high,wug,purple,exp
10,1851570,LF,labelPictures,14_53_10_37_,wug,1428.74000000302,html-button-response,502,1,100275,2,high,wug,purple,exp
10,1826938,LF,labelPictures,14_53_10_37_,wug,1416.97999997996,html-button-response,532,1,100275,2,high,wug,purple,exp
10,1823743,LF,labelPictures,14_53_10_37_,wug,242.449999961536,html-button-response,528,1,100275,2,high,wug,purple,exp
10,1825237,FL,labelPictures,14_53_10_37_,wug,1130.99999999994,html-button-response,534,1,100275,2,high,wug,purple,exp
10,1825230,FL,labelPictures,14_53_10_37_,wug,2228.39999999269,html-button-response,494,1,100275,2,high,wug,purple,exp
10,1807534,LF,labelPictures,14_53_10_37_,wug,1222.12000004947,html-button-response,562,1,100275,2,high,wug,purple,exp
10,1807562,FL,labelPictures,14_53_10_37_,wug,1010.80999989063,html-button-response,574,1,100275,2,high,wug,purple,exp
10,1825225,LF,labelPictures,14_53_10_37_,wug,1521.77500000107,html-button-response,542,1,100275,2,high,wug,purple,exp
10,1839500,LF,labelPictures,14_53_10_37_,wug,1061.97500019334,html-button-response,532,1,100275,2,high,wug,purple,exp
10,1826962,FL,labelPictures,14_53_10_37_,wug,990.809999999765,html-button-response,508,1,100275,2,high,wug,purple,exp
10,1803484,FL,labelPictures,14_53_10_37_,wug,1640.77499997802,html-button-response,516,1,100275,2,high,wug,purple,exp
10,1805815,FL,labelPictures,14_53_10_37_,wug,1580.34499990754,html-button-response,488,1,100275,2,high,wug,purple,exp
10,1824294,LF,labelPictures,14_53_10_37_,wug,2294,html-button-response,536,1,100275,2,high,wug,purple,exp
10,1839564,LF,labelPictures,14_53_10_37_,wug,1303,html-button-response,498,1,100275,2,high,wug,purple,exp
10,1851573,LF,labelPictures,14_53_10_37_,wug,1234.4399999929,html-button-response,486,1,100275,2,high,wug,purple,exp
10,1802117,LF,labelPictures,14_53_10_37_,wug,2173,html-button-response,518,1,100275,2,high,wug,purple,exp
10,1828989,LF,labelPictures,14_10_6_12_,bim,2762.8450000002,html-button-response,582,0,100275,2,high,wug,purple,exp
10,1800339,FL,labelPictures,14_53_10_37_,wug,918.070000014268,html-button-response,566,1,100275,2,high,wug,purple,exp
10,1826963,LF,labelPictures,14_53_10_37_,wug,1954.81999998447,html-button-response,550,1,100275,2,high,wug,purple,exp
10,1798885,LF,labelPictures,14_53_10_37_,wug,2465.70000000065,html-button-response,544,1,100275,2,high,wug,purple,exp
10,1803017,LF,labelPictures,14_53_10_37_,wug,1275.26000002399,html-button-response,568,1,100275,2,high,wug,purple,exp
10,1826533,FL,labelPictures,14_53_10_37_,wug,962.219999870285,html-button-response,562,1,100275,2,high,wug,purple,exp
10,1851782,LF,labelPictures,14_53_10_37_,wug,1488.13999997219,html-button-response,540,1,100275,2,high,wug,purple,exp
10,1803465,FL,labelPictures,14_53_10_37_,wug,1158.22500002105,html-button-response,532,1,100275,2,high,wug,purple,exp
10,1826962,FL,labelPictures,14_53_10_37_,wug,866.710000000254,html-button-response,538,1,100275,2,high,wug,purple,exp
10,1845209,LF,labelPictures,14_53_10_37_,wug,3387.80000000406,html-button-response,510,1,100275,2,high,wug,purple,exp
10,1807532,FL,labelPictures,14_53_10_37_,wug,2061.00000000151,html-button-response,550,1,100275,2,high,wug,purple,exp
10,1827347,FL,labelPictures,14_53_10_37_,wug,1561.92499981262,html-button-response,558,1,100275,2,high,wug,purple,exp
10,1803000,FL,labelPictures,14_10_6_12_,bim,1070.1950000003,html-button-response,560,0,100275,2,high,wug,purple,exp
10,1851566,LF,labelPictures,14_53_10_37_,wug,1032,html-button-response,526,1,100275,2,high,wug,purple,exp
10,1807583,LF,labelPictures,14_53_10_37_,wug,2713.47999991849,html-button-response,508,1,100275,2,high,wug,purple,exp
10,1839500,LF,labelPictures,14_53_10_37_,wug,1178.01000014879,html-button-response,522,1,100275,2,high,wug,purple,exp
10,1800337,FL,labelPictures,14_53_10_37_,wug,1783,html-button-response,530,1,100275,2,high,wug,purple,exp
10,1807533,LF,labelPictures,14_53_10_37_,wug,863.565000006929,html-button-response,582,1,100275,2,high,wug,purple,exp
10,1802995,LF,labelPictures,14_53_10_37_,wug,912.195000000764,html-button-response,574,1,100275,2,high,wug,purple,exp
10,1845200,LF,labelPictures,14_53_10_37_,wug,799.619999947026,html-button-response,518,1,100275,2,high,wug,purple,exp
10,1803488,LF,labelPictures,14_10_6_12_,bim,1293.24000002816,html-button-response,546,0,100275,2,high,wug,purple,exp
10,1828959,LF,labelPictures,14_53_10_37_,wug,2114.20999999973,html-button-response,516,1,100275,2,high,wug,purple,exp
10,1802090,FL,labelPictures,14_10_6_12_,bim,857.199999969453,html-button-response,518,0,100275,2,high,wug,purple,exp
10,1826939,LF,labelPictures,14_53_10_37_,wug,1022.27500011213,html-button-response,540,1,100275,2,high,wug,purple,exp
10,1807547,FL,labelPictures,14_53_10_37_,wug,1664.48000000673,html-button-response,540,1,100275,2,high,wug,purple,exp
10,1826534,FL,labelPictures,14_53_10_37_,wug,958.359999989625,html-button-response,560,1,100275,2,high,wug,purple,exp
10,1826536,FL,labelPictures,14_53_10_37_,wug,1228.24499999115,html-button-response,534,1,100275,2,high,wug,purple,exp
10,1851604,LF,labelPictures,14_53_10_37_,wug,1224.94499990717,html-button-response,586,1,100275,2,high,wug,purple,exp
10,1802098,FL,labelPictures,14_53_10_37_,wug,1148.19500013255,html-button-response,594,1,100275,2,high,wug,purple,exp
10,1803492,LF,labelPictures,14_53_10_37_,wug,3071.46000000648,html-button-response,486,1,100275,2,high,wug,purple,exp
10,1826950,LF,labelPictures,14_53_10_37_,wug,1180.82999996841,html-button-response,572,1,100275,2,high,wug,purple,exp
10,1800337,FL,labelPictures,14_53_10_37_,wug,1316,html-button-response,502,1,100275,2,high,wug,purple,exp
10,1825257,FL,labelPictures,14_53_10_37_,wug,1565.90500000317,html-button-response,488,1,100275,2,high,wug,purple,exp
10,1802088,FL,labelPictures,14_53_10_37_,wug,1067.50000000093,html-button-response,558,1,100275,2,high,wug,purple,exp
10,1803492,LF,labelPictures,14_53_10_37_,wug,2265.14500001213,html-button-response,552,1,100275,2,high,wug,purple,exp
10,1825230,FL,labelPictures,14_53_10_37_,wug,1754.65999997687,html-button-response,500,1,100275,2,high,wug,purple,exp
10,1828957,LF,labelPictures,14_53_10_37_,wug,1812.5149999978,html-button-response,510,1,100275,2,high,wug,purple,exp
10,1851570,LF,labelPictures,14_53_10_37_,wug,2050.22999999707,html-button-response,576,1,100275,2,high,wug,purple,exp
10,1807534,LF,labelPictures,14_53_10_37_,wug,1801.69500003103,html-button-response,574,1,100275,2,high,wug,purple,exp
10,1839506,FL,labelPictures,14_53_10_37_,wug,1171.39499995392,html-button-response,488,1,100275,2,high,wug,purple,exp
10,1802100,LF,labelPictures,14_53_10_37_,wug,2071.57500000903,html-button-response,582,1,100275,2,high,wug,purple,exp
10,1826957,FL,labelPictures,14_53_10_37_,wug,1694.25499998033,html-button-response,548,1,100275,2,high,wug,purple,exp
10,1845983,FL,labelPictures,14_53_10_37_,wug,1330,html-button-response,492,1,100275,2,high,wug,purple,exp
10,1802093,LF,labelPictures,14_53_10_37_,wug,1119.56000002101,html-button-response,560,1,100275,2,high,wug,purple,exp
10,1845198,FL,labelPictures,14_53_10_37_,wug,1237.14000000019,html-button-response,512,1,100275,2,high,wug,purple,exp
10,1845993,FL,labelPictures,14_53_10_37_,wug,1535.29000002891,html-button-response,582,1,100275,2,high,wug,purple,exp
10,1828968,LF,labelPictures,14_53_10_37_,wug,2026.27499983646,html-button-response,522,1,100275,2,high,wug,purple,exp
10,1800330,LF,labelPictures,14_53_10_37_,wug,1527.10000006482,html-button-response,528,1,100275,2,high,wug,purple,exp
10,1802164,LF,labelPictures,14_10_6_12_,bim,1273.49999999988,html-button-response,510,0,100275,2,high,wug,purple,exp
10,1851566,LF,labelPictures,14_53_10_37_,wug,1100,html-button-response,574,1,100275,2,high,wug,purple,exp
10,1828989,LF,labelPictures,14_53_10_37_,wug,3385.23499999975,html-button-response,586,1,100275,2,high,wug,purple,exp
10,1802985,FL,labelPictures,14_53_10_37_,wug,2233.74500000046,html-button-response,550,1,100275,2,high,wug,purple,exp
10,1800338,FL,labelPictures,14_53_10_37_,wug,1178.96500002826,html-button-response,580,1,100275,2,high,wug,purple,exp
10,1823770,FL,labelPictures,14_53_10_37_,wug,1896,html-button-response,534,1,100275,2,high,wug,purple,exp
10,1807547,FL,labelPictures,14_53_10_37_,wug,1432.79500000062,html-button-response,516,1,100275,2,high,wug,purple,exp
10,1826924,LF,labelPictures,14_53_10_37_,wug,1137.89499999257,html-button-response,522,1,100275,2,high,wug,purple,exp
10,1824294,LF,labelPictures,14_53_10_37_,wug,2707,html-button-response,488,1,100275,2,high,wug,purple,exp
10,1826984,FL,labelPictures,14_53_10_37_,wug,1862.93000000296,html-button-response,518,1,100275,2,high,wug,purple,exp
10,1839499,FL,labelPictures,14_53_10_37_,wug,1157.84500000149,html-button-response,538,1,100275,2,high,wug,purple,exp
10,1852720,LF,labelPictures,14_53_10_37_,wug,1045.51000002539,html-button-response,562,1,100275,2,high,wug,purple,exp
10,1802094,FL,labelPictures,14_53_10_37_,wug,1984.52000000176,html-button-response,490,1,100275,2,high,wug,purple,exp
10,1803017,LF,labelPictures,14_53_10_37_,wug,1060.24000002071,html-button-response,522,1,100275,2,high,wug,purple,exp
10,1800339,FL,labelPictures,14_53_10_37_,wug,1364.99500001082,html-button-response,526,1,100275,2,high,wug,purple,exp
10,1802984,LF,labelPictures,14_53_10_37_,wug,1551.44499999005,html-button-response,508,1,100275,2,high,wug,purple,exp
10,1802987,LF,labelPictures,14_53_10_37_,wug,1404.16499999992,html-button-response,520,1,100275,2,high,wug,purple,exp
10,1800331,FL,labelPictures,14_53_10_37_,wug,1274,html-button-response,562,1,100275,2,high,wug,purple,exp
10,1852726,LF,labelPictures,14_53_10_37_,wug,1355.84499998367,html-button-response,586,1,100275,2,high,wug,purple,exp
10,1802164,LF,labelPictures,14_53_10_37_,wug,1633.69999999995,html-button-response,544,1,100275,2,high,wug,purple,exp
10,1805816,LF,labelPictures,14_53_10_37_,wug,1209.96500000183,html-button-response,596,1,100275,2,high,wug,purple,exp
10,1851575,LF,labelPictures,14_53_10_37_,wug,1051.56999999983,html-button-response,546,1,100275,2,high,wug,purple,exp
10,1825237,FL,labelPictures,14_10_6_12_,bim,1802,html-button-response,488,0,100275,2,high,wug,purple,exp
10,1807583,LF,labelPictures,14_53_10_37_,wug,2566.60000002012,html-button-response,584,1,100275,2,high,wug,purple,exp
10,1845200,LF,labelPictures,14_53_10_37_,wug,1665.46000004746,html-button-response,490,1,100275,2,high,wug,purple,exp
10,1839502,LF,labelPictures,14_53_10_37_,wug,1277.40999999875,html-button-response,526,1,100275,2,high,wug,purple,exp
10,1827036,LF,labelPictures,14_53_10_37_,wug,1075,html-button-response,564,1,100275,2,high,wug,purple,exp
10,1802098,FL,labelPictures,14_53_10_37_,wug,727.955000009388,html-button-response,580,1,100275,2,high,wug,purple,exp
10,1826924,LF,labelPictures,14_53_10_37_,wug,1028.23500000522,html-button-response,538,1,100275,2,high,wug,purple,exp
10,1800351,FL,labelPictures,14_53_10_37_,wug,2463.92999996897,html-button-response,522,1,100275,2,high,wug,purple,exp
10,1846093,LF,labelPictures,14_53_10_37_,wug,903.509999625385,html-button-response,532,1,100275,2,high,wug,purple,exp
10,1805816,LF,labelPictures,14_53_10_37_,wug,1286.37499999604,html-button-response,546,1,100275,2,high,wug,purple,exp
10,1825243,LF,labelPictures,14_53_10_37_,wug,2676.93999999028,html-button-response,490,1,100275,2,high,wug,purple,exp
10,1805848,LF,labelPictures,14_53_10_37_,wug,3468.75999999995,html-button-response,496,1,100275,2,high,wug,purple,exp
10,1805884,LF,labelPictures,14_53_10_37_,wug,960.580000013579,html-button-response,578,1,100275,2,high,wug,purple,exp
10,1823763,FL,labelPictures,14_53_10_37_,wug,1048.4249999281,html-button-response,566,1,100275,2,high,wug,purple,exp
10,1826990,FL,labelPictures,14_53_10_37_,wug,1021.93000004627,html-button-response,542,1,100275,2,high,wug,purple,exp
10,1845981,LF,labelPictures,14_53_10_37_,wug,1496.47500002175,html-button-response,590,1,100275,2,high,wug,purple,exp
10,1839496,FL,labelPictures,14_10_6_12_,bim,1869.39999996684,html-button-response,514,0,100275,2,high,wug,purple,exp
10,1852241,LF,labelPictures,14_53_10_37_,wug,707,html-button-response,518,1,100275,2,high,wug,purple,exp
10,1823743,LF,labelPictures,14_53_10_37_,wug,198.410000011791,html-button-response,498,1,100275,2,high,wug,purple,exp
10,1828965,LF,labelPictures,14_53_10_37_,wug,2163.00000000047,html-button-response,552,1,100275,2,high,wug,purple,exp
10,1828965,LF,labelPictures,14_53_10_37_,wug,1325.80000000598,html-button-response,564,1,100275,2,high,wug,purple,exp
10,1839564,LF,labelPictures,14_53_10_37_,wug,1288,html-button-response,552,1,100275,2,high,wug,purple,exp
10,1807532,FL,labelPictures,14_53_10_37_,wug,858.000000000116,html-button-response,596,1,100275,2,high,wug,purple,exp
10,1827347,FL,labelPictures,14_53_10_37_,wug,1563.21500008926,html-button-response,540,1,100275,2,high,wug,purple,exp
10,1805817,FL,labelPictures,14_53_10_37_,wug,825.229999987641,html-button-response,588,1,100275,2,high,wug,purple,exp
10,1839506,FL,labelPictures,14_53_10_37_,wug,1353.17000001669,html-button-response,538,1,100275,2,high,wug,purple,exp
10,1803484,FL,labelPictures,14_53_10_37_,wug,1002.72500002757,html-button-response,588,1,100275,2,high,wug,purple,exp
10,1852721,LF,labelPictures,14_53_10_37_,wug,1886,html-button-response,572,1,100275,2,high,wug,purple,exp
10,1805815,FL,labelPictures,14_53_10_37_,wug,2033.46499986947,html-button-response,540,1,100275,2,high,wug,purple,exp
10,1802995,LF,labelPictures,14_53_10_37_,wug,907.97499999823,html-button-response,564,1,100275,2,high,wug,purple,exp
10,1826534,FL,labelPictures,14_53_10_37_,wug,1201.59000001149,html-button-response,550,1,100275,2,high,wug,purple,exp
11,1846268,FL,labelPictures,52_12_6_11_,dep,2290.40500009432,html-button-response,496,0,110400,4,control,bim,lightblue,control
11,1851570,LF,labelPictures,52_12_6_11_,dep,2967.65500000038,html-button-response,572,0,110400,4,control,bim,lightblue,control
11,1825245,FL,labelPictures,11_9_5_16_,bim,2808.30000003334,html-button-response,500,1,110400,4,control,bim,lightblue,control
11,1839506,FL,labelPictures,11_9_5_16_,bim,1291.58000001917,html-button-response,500,1,110400,4,control,bim,lightblue,control
11,1839500,LF,labelPictures,11_9_5_16_,bim,1258.33499990404,html-button-response,572,1,110400,4,control,bim,lightblue,control
11,1827036,LF,labelPictures,11_9_5_16_,bim,1472,html-button-response,528,1,110400,4,control,bim,lightblue,control
11,1845228,FL,labelPictures,11_9_5_16_,bim,2503.69999999751,html-button-response,534,1,110400,4,control,bim,lightblue,control
11,1828965,LF,labelPictures,11_9_5_16_,bim,1300.63499999233,html-button-response,510,1,110400,4,control,bim,lightblue,control
11,1802093,LF,labelPictures,11_9_5_16_,bim,1510.45000000158,html-button-response,504,1,110400,4,control,bim,lightblue,control
11,1823770,FL,labelPictures,11_9_5_16_,bim,2100,html-button-response,574,1,110400,4,control,bim,lightblue,control
11,1852726,LF,labelPictures,11_9_5_16_,bim,1351.95499999099,html-button-response,544,1,110400,4,control,bim,lightblue,control
11,1852272,LF,labelPictures,11_9_5_16_,bim,1976.18499999947,html-button-response,554,1,110400,4,control,bim,lightblue,control
11,1803558,LF,labelPictures,11_9_5_16_,bim,1156.0499999905,html-button-response,512,1,110400,4,control,bim,lightblue,control
11,1824046,FL,labelPictures,29_11_30_39_,tob,732.799999997951,html-button-response,574,0,110400,4,control,bim,lightblue,control
11,1845993,FL,labelPictures,11_9_5_16_,bim,1271.74500003457,html-button-response,586,1,110400,4,control,bim,lightblue,control
11,1839496,FL,labelPictures,52_12_6_11_,dep,1772.34500000486,html-button-response,488,0,110400,4,control,bim,lightblue,control
11,1839503,FL,labelPictures,11_9_5_16_,bim,1775,html-button-response,526,1,110400,4,control,bim,lightblue,control
11,1851568,LF,labelPictures,52_12_6_11_,dep,1226.62000000128,html-button-response,492,0,110400,4,control,bim,lightblue,control
11,1800351,FL,labelPictures,11_9_5_16_,bim,2391.18000003509,html-button-response,554,1,110400,4,control,bim,lightblue,control
11,1828989,LF,labelPictures,29_11_30_39_,tob,2432.92999999993,html-button-response,534,0,110400,4,control,bim,lightblue,control
11,1825229,FL,labelPictures,29_11_30_39_,tob,1582.00000000006,html-button-response,506,0,110400,4,control,bim,lightblue,control
11,1851604,LF,labelPictures,11_9_5_16_,bim,1510.41999994777,html-button-response,510,1,110400,4,control,bim,lightblue,control
11,1803000,FL,labelPictures,29_11_30_39_,tob,2446.19499999681,html-button-response,486,0,110400,4,control,bim,lightblue,control
11,1805815,FL,labelPictures,11_9_5_16_,bim,2237.78000008315,html-button-response,570,1,110400,4,control,bim,lightblue,control
11,1805816,LF,labelPictures,11_9_5_16_,bim,1082.65499999828,html-button-response,578,1,110400,4,control,bim,lightblue,control
11,1802098,FL,labelPictures,11_9_5_16_,bim,726.544999983162,html-button-response,544,1,110400,4,control,bim,lightblue,control
11,1802164,LF,labelPictures,29_11_30_39_,tob,1821.09999999974,html-button-response,592,0,110400,4,control,bim,lightblue,control
11,1803484,FL,labelPictures,11_9_5_16_,bim,1141.29499997944,html-button-response,562,1,110400,4,control,bim,lightblue,control
11,1803026,FL,labelPictures,11_9_5_16_,bim,2545.61499995179,html-button-response,534,1,110400,4,control,bim,lightblue,control
11,1827631,FL,labelPictures,29_11_30_39_,tob,1916.10000000219,html-button-response,508,0,110400,4,control,bim,lightblue,control
11,1852720,LF,labelPictures,29_11_30_39_,tob,1385.7699999935,html-button-response,592,0,110400,4,control,bim,lightblue,control
11,1826938,LF,labelPictures,11_9_5_16_,bim,1571.38500001747,html-button-response,558,1,110400,4,control,bim,lightblue,control
11,1802117,LF,labelPictures,11_9_5_16_,bim,1734,html-button-response,576,1,110400,4,control,bim,lightblue,control
11,1851570,LF,labelPictures,11_9_5_16_,bim,1897.43499999901,html-button-response,544,1,110400,4,control,bim,lightblue,control
11,1807547,FL,labelPictures,11_9_5_16_,bim,1231.10500001349,html-button-response,500,1,110400,4,control,bim,lightblue,control
11,1805817,FL,labelPictures,11_9_5_16_,bim,1224.86999997636,html-button-response,520,1,110400,4,control,bim,lightblue,control
11,1823745,LF,labelPictures,29_11_30_39_,tob,286.605000001146,html-button-response,560,0,110400,4,control,bim,lightblue,control
11,1851782,LF,labelPictures,52_12_6_11_,dep,2038.83499995572,html-button-response,596,0,110400,4,control,bim,lightblue,control
11,1839564,LF,labelPictures,52_12_6_11_,dep,1707,html-button-response,536,0,110400,4,control,bim,lightblue,control
11,1803486,LF,labelPictures,11_9_5_16_,bim,1211.17000002414,html-button-response,518,1,110400,4,control,bim,lightblue,control
11,1825230,FL,labelPictures,11_9_5_16_,bim,1044.94500000146,html-button-response,572,1,110400,4,control,bim,lightblue,control
11,1828952,FL,labelPictures,11_9_5_16_,bim,1647.92000000307,html-button-response,498,1,110400,4,control,bim,lightblue,control
11,1802995,LF,labelPictures,11_9_5_16_,bim,1651.88499999931,html-button-response,512,1,110400,4,control,bim,lightblue,control
11,1826533,FL,labelPictures,11_9_5_16_,bim,1455.24500007741,html-button-response,502,1,110400,4,control,bim,lightblue,control
11,1803477,LF,labelPictures,29_11_30_39_,tob,889.895000029355,html-button-response,578,0,110400,4,control,bim,lightblue,control
11,1845209,LF,labelPictures,11_9_5_16_,bim,2785.10000000097,html-button-response,512,1,110400,4,control,bim,lightblue,control
11,1826962,FL,labelPictures,11_9_5_16_,bim,895.495000000228,html-button-response,548,1,110400,4,control,bim,lightblue,control
11,1839496,FL,labelPictures,52_12_6_11_,dep,2106.27499996917,html-button-response,568,0,110400,4,control,bim,lightblue,control
11,1827347,FL,labelPictures,11_9_5_16_,bim,1711.14500006661,html-button-response,590,1,110400,4,control,bim,lightblue,control
11,1823745,LF,labelPictures,52_12_6_11_,dep,221.795000004931,html-button-response,586,0,110400,4,control,bim,lightblue,control
11,1852720,LF,labelPictures,29_11_30_39_,tob,2932.06000002101,html-button-response,496,0,110400,4,control,bim,lightblue,control
11,1826939,LF,labelPictures,29_11_30_39_,tob,2555.77500001527,html-button-response,496,0,110400,4,control,bim,lightblue,control
11,1807534,LF,labelPictures,11_9_5_16_,bim,1544.79499999434,html-button-response,494,1,110400,4,control,bim,lightblue,control
11,1826942,FL,labelPictures,11_9_5_16_,bim,1546.80000000005,html-button-response,576,1,110400,4,control,bim,lightblue,control
11,1851575,LF,labelPictures,29_11_30_39_,tob,1579.33000000007,html-button-response,490,0,110400,4,control,bim,lightblue,control
11,1800339,FL,labelPictures,52_12_6_11_,dep,1441.74999999814,html-button-response,542,0,110400,4,control,bim,lightblue,control
11,1802107,FL,labelPictures,52_12_6_11_,dep,2092.05000009388,html-button-response,592,0,110400,4,control,bim,lightblue,control
11,1826533,FL,labelPictures,29_11_30_39_,tob,1364.54500001855,html-button-response,556,0,110400,4,control,bim,lightblue,control
11,1851567,LF,labelPictures,29_11_30_39_,tob,200.799999998708,html-button-response,556,0,110400,4,control,bim,lightblue,control
11,1807564,LF,labelPictures,11_9_5_16_,bim,1532.5249999878,html-button-response,494,1,110400,4,control,bim,lightblue,control
11,1800338,FL,labelPictures,11_9_5_16_,bim,1135.04000002285,html-button-response,520,1,110400,4,control,bim,lightblue,control
11,1845205,FL,labelPictures,11_9_5_16_,bim,2038.30999997444,html-button-response,510,1,110400,4,control,bim,lightblue,control
11,1826963,LF,labelPictures,11_9_5_16_,bim,1515.8550000051,html-button-response,512,1,110400,4,control,bim,lightblue,control
11,1839564,LF,labelPictures,52_12_6_11_,dep,1950,html-button-response,546,0,110400,4,control,bim,lightblue,control
11,1802100,LF,labelPictures,11_9_5_16_,bim,1448.33000004292,html-button-response,524,1,110400,4,control,bim,lightblue,control
11,1828964,FL,labelPictures,11_9_5_16_,bim,1245.154999997,html-button-response,572,1,110400,4,control,bim,lightblue,control
11,1805884,LF,labelPictures,52_12_6_11_,dep,1849.25000002841,html-button-response,558,0,110400,4,control,bim,lightblue,control
11,1802987,LF,labelPictures,11_9_5_16_,bim,2708.31499999989,html-button-response,540,1,110400,4,control,bim,lightblue,control
11,1826957,FL,labelPictures,11_9_5_16_,bim,1718.38999999454,html-button-response,490,1,110400,4,control,bim,lightblue,control
11,1851574,LF,labelPictures,11_9_5_16_,bim,965.109999990091,html-button-response,562,1,110400,4,control,bim,lightblue,control
11,1807535,FL,labelPictures,11_9_5_16_,bim,1335,html-button-response,582,1,110400,4,control,bim,lightblue,control
11,1800331,FL,labelPictures,11_9_5_16_,bim,967,html-button-response,530,1,110400,4,control,bim,lightblue,control
11,1802985,FL,labelPictures,11_9_5_16_,bim,1579.82499999984,html-button-response,496,1,110400,4,control,bim,lightblue,control
11,1803477,LF,labelPictures,29_11_30_39_,tob,2891.76999998745,html-button-response,524,0,110400,4,control,bim,lightblue,control
11,1851575,LF,labelPictures,11_9_5_16_,bim,2892.78000000003,html-button-response,506,1,110400,4,control,bim,lightblue,control
11,1826960,LF,labelPictures,11_9_5_16_,bim,1773.13000010327,html-button-response,568,1,110400,4,control,bim,lightblue,control
11,1803475,LF,labelPictures,11_9_5_16_,bim,2897.13500000653,html-button-response,506,1,110400,4,control,bim,lightblue,control
11,1803466,LF,labelPictures,11_9_5_16_,bim,2035.07500002161,html-button-response,504,1,110400,4,control,bim,lightblue,control
11,1800333,LF,labelPictures,52_12_6_11_,dep,2005.13999999932,html-button-response,514,0,110400,4,control,bim,lightblue,control
11,1845981,LF,labelPictures,11_9_5_16_,bim,2433.95000000601,html-button-response,528,1,110400,4,control,bim,lightblue,control
11,1807546,LF,labelPictures,29_11_30_39_,tob,1504.89500002004,html-button-response,544,0,110400,4,control,bim,lightblue,control
11,1825232,FL,labelPictures,52_12_6_11_,dep,1716.92500001518,html-button-response,572,0,110400,4,control,bim,lightblue,control
11,1807546,LF,labelPictures,52_12_6_11_,dep,1033.35500007961,html-button-response,542,0,110400,4,control,bim,lightblue,control
11,1825237,FL,labelPictures,29_11_30_39_,tob,1445,html-button-response,556,0,110400,4,control,bim,lightblue,control
11,1824285,LF,labelPictures,52_12_6_11_,dep,2189.98999999894,html-button-response,522,0,110400,4,control,bim,lightblue,control
11,1845983,FL,labelPictures,11_9_5_16_,bim,1177,html-button-response,554,1,110400,4,control,bim,lightblue,control
11,1845196,LF,labelPictures,11_9_5_16_,bim,893.810000001395,html-button-response,490,1,110400,4,control,bim,lightblue,control
11,1826948,FL,labelPictures,11_9_5_16_,bim,2286.40000001178,html-button-response,546,1,110400,4,control,bim,lightblue,control
11,1826939,LF,labelPictures,11_9_5_16_,bim,1846.45000007004,html-button-response,518,1,110400,4,control,bim,lightblue,control
11,1825257,FL,labelPictures,52_12_6_11_,dep,737.489999999525,html-button-response,564,0,110400,4,control,bim,lightblue,control
11,1803488,LF,labelPictures,11_9_5_16_,bim,1235.88500003098,html-button-response,492,1,110400,4,control,bim,lightblue,control
11,1823768,LF,labelPictures,11_9_5_16_,bim,1353.80999999872,html-button-response,506,1,110400,4,control,bim,lightblue,control
11,1823763,FL,labelPictures,11_9_5_16_,bim,2264.00500000454,html-button-response,520,1,110400,4,control,bim,lightblue,control
11,1802088,FL,labelPictures,11_9_5_16_,bim,1263.28999999899,html-button-response,490,1,110400,4,control,bim,lightblue,control
11,1851573,LF,labelPictures,11_9_5_16_,bim,1920.46000000119,html-button-response,492,1,110400,4,control,bim,lightblue,control
11,1803017,LF,labelPictures,11_9_5_16_,bim,1382.88499996997,html-button-response,590,1,110400,4,control,bim,lightblue,control
11,1826932,FL,labelPictures,11_9_5_16_,bim,1430.71500000218,html-button-response,504,1,110400,4,control,bim,lightblue,control
11,1823743,LF,labelPictures,52_12_6_11_,dep,489.504999946803,html-button-response,588,0,110400,4,control,bim,lightblue,control
11,1825225,LF,labelPictures,11_9_5_16_,bim,1515.52499999525,html-button-response,574,1,110400,4,control,bim,lightblue,control
11,1826934,FL,labelPictures,11_9_5_16_,bim,1350.95999999973,html-button-response,526,1,110400,4,control,bim,lightblue,control
11,1824290,FL,labelPictures,11_9_5_16_,bim,1986.18500004523,html-button-response,548,1,110400,4,control,bim,lightblue,control
11,1800330,LF,labelPictures,11_9_5_16_,bim,1244.09499997273,html-button-response,508,1,110400,4,control,bim,lightblue,control
11,1852242,LF,labelPictures,11_9_5_16_,bim,1424.57499998272,html-button-response,488,1,110400,4,control,bim,lightblue,control
11,1839499,FL,labelPictures,11_9_5_16_,bim,1240.41000000219,html-button-response,564,1,110400,4,control,bim,lightblue,control
11,1803477,LF,labelPictures,11_9_5_16_,bim,1401.5500000678,html-button-response,544,1,110400,4,control,bim,lightblue,control
11,1826947,FL,labelPictures,29_11_30_39_,tob,725.35500000231,html-button-response,524,0,110400,4,control,bim,lightblue,control
11,1823789,LF,labelPictures,11_9_5_16_,bim,1767.57500000531,html-button-response,494,1,110400,4,control,bim,lightblue,control
11,1825243,LF,labelPictures,52_12_6_11_,dep,1054.61000000651,html-button-response,596,0,110400,4,control,bim,lightblue,control
11,1826947,FL,labelPictures,52_12_6_11_,dep,813.100000028498,html-button-response,576,0,110400,4,control,bim,lightblue,control
11,1823770,FL,labelPictures,11_9_5_16_,bim,1665,html-button-response,584,1,110400,4,control,bim,lightblue,control
11,1802164,LF,labelPictures,52_12_6_11_,dep,1251.09999999998,html-button-response,508,0,110400,4,control,bim,lightblue,control
11,1839502,LF,labelPictures,11_9_5_16_,bim,1056.73999999999,html-button-response,592,1,110400,4,control,bim,lightblue,control
11,1802108,LF,labelPictures,11_9_5_16_,bim,1573,html-button-response,556,1,110400,4,control,bim,lightblue,control
11,1852721,LF,labelPictures,11_9_5_16_,bim,1787,html-button-response,490,1,110400,4,control,bim,lightblue,control
11,1826984,FL,labelPictures,11_9_5_16_,bim,1411.41499998048,html-button-response,540,1,110400,4,control,bim,lightblue,control
11,1828957,LF,labelPictures,11_9_5_16_,bim,2895.97999997204,html-button-response,542,1,110400,4,control,bim,lightblue,control
11,1803465,FL,labelPictures,11_9_5_16_,bim,1517.344999942,html-button-response,496,1,110400,4,control,bim,lightblue,control
11,1851782,LF,labelPictures,29_11_30_39_,tob,1308.66999999853,html-button-response,548,0,110400,4,control,bim,lightblue,control
11,1802118,FL,labelPictures,11_9_5_16_,bim,1987.2400000022,html-button-response,550,1,110400,4,control,bim,lightblue,control
11,1798885,LF,labelPictures,11_9_5_16_,bim,2405.90000001248,html-button-response,572,1,110400,4,control,bim,lightblue,control
11,1845984,LF,labelPictures,11_9_5_16_,bim,1389.71499999752,html-button-response,488,1,110400,4,control,bim,lightblue,control
11,1828959,LF,labelPictures,11_9_5_16_,bim,2046.89999998664,html-button-response,526,1,110400,4,control,bim,lightblue,control
11,1825231,LF,labelPictures,11_9_5_16_,bim,1548.99000000296,html-button-response,492,1,110400,4,control,bim,lightblue,control
11,1807562,FL,labelPictures,11_9_5_16_,bim,1313.21000005119,html-button-response,558,1,110400,4,control,bim,lightblue,control
11,1800333,LF,labelPictures,11_9_5_16_,bim,1742.67999999941,html-button-response,526,1,110400,4,control,bim,lightblue,control
11,1827631,FL,labelPictures,52_12_6_11_,dep,556.400000001304,html-button-response,574,0,110400,4,control,bim,lightblue,control
11,1802360,FL,labelPictures,11_9_5_16_,bim,1495.93499999901,html-button-response,498,1,110400,4,control,bim,lightblue,control
11,1852241,LF,labelPictures,11_9_5_16_,bim,1442,html-button-response,590,1,110400,4,control,bim,lightblue,control
11,1805815,FL,labelPictures,52_12_6_11_,dep,1496.58500007354,html-button-response,576,0,110400,4,control,bim,lightblue,control
11,1803478,LF,labelPictures,11_9_5_16_,bim,1021.35499999893,html-button-response,522,1,110400,4,control,bim,lightblue,control
11,1803492,LF,labelPictures,52_12_6_11_,dep,1673.10999997426,html-button-response,560,0,110400,4,control,bim,lightblue,control
11,1807538,FL,labelPictures,11_9_5_16_,bim,1271.89500024542,html-button-response,580,1,110400,4,control,bim,lightblue,control
11,1800339,FL,labelPictures,11_9_5_16_,bim,1110.85499997716,html-button-response,558,1,110400,4,control,bim,lightblue,control
11,1807583,LF,labelPictures,29_11_30_39_,tob,2883.26500006951,html-button-response,498,0,110400,4,control,bim,lightblue,control
11,1829030,FL,labelPictures,11_9_5_16_,bim,1224.44499999983,html-button-response,546,1,110400,4,control,bim,lightblue,control
11,1851569,FL,labelPictures,11_9_5_16_,bim,1500,html-button-response,502,1,110400,4,control,bim,lightblue,control
11,1802164,LF,labelPictures,29_11_30_39_,tob,1560.5,html-button-response,542,0,110400,4,control,bim,lightblue,control
11,1851570,LF,labelPictures,29_11_30_39_,tob,1073.85000000068,html-button-response,530,0,110400,4,control,bim,lightblue,control
11,1845981,LF,labelPictures,29_11_30_39_,tob,1784.11000000779,html-button-response,586,0,110400,4,control,bim,lightblue,control
11,1800337,FL,labelPictures,11_9_5_16_,bim,2300,html-button-response,542,1,110400,4,control,bim,lightblue,control
11,1851566,LF,labelPictures,29_11_30_39_,tob,1524,html-button-response,518,0,110400,4,control,bim,lightblue,control
11,1845198,FL,labelPictures,11_9_5_16_,bim,936.610000000161,html-button-response,524,1,110400,4,control,bim,lightblue,control
11,1826534,FL,labelPictures,11_9_5_16_,bim,1486.01500003133,html-button-response,492,1,110400,4,control,bim,lightblue,control
11,1828961,FL,labelPictures,11_9_5_16_,bim,2064.32499992661,html-button-response,580,1,110400,4,control,bim,lightblue,control
11,1845200,LF,labelPictures,52_12_6_11_,dep,1544.39499997534,html-button-response,582,0,110400,4,control,bim,lightblue,control
11,1800346,LF,labelPictures,11_9_5_16_,bim,1283,html-button-response,560,1,110400,4,control,bim,lightblue,control
11,1800340,LF,labelPictures,11_9_5_16_,bim,1617.2099999967,html-button-response,502,1,110400,4,control,bim,lightblue,control
11,1802984,LF,labelPictures,11_9_5_16_,bim,1189.13499999326,html-button-response,542,1,110400,4,control,bim,lightblue,control
11,1802094,FL,labelPictures,11_9_5_16_,bim,1484.10499999963,html-button-response,580,1,110400,4,control,bim,lightblue,control
11,1828971,FL,labelPictures,11_9_5_16_,bim,1498,html-button-response,520,1,110400,4,control,bim,lightblue,control
11,1824294,LF,labelPictures,11_9_5_16_,bim,2292,html-button-response,502,1,110400,4,control,bim,lightblue,control
11,1826536,FL,labelPictures,11_9_5_16_,bim,1163.00000000047,html-button-response,596,1,110400,4,control,bim,lightblue,control
11,1807533,LF,labelPictures,11_9_5_16_,bim,1010.25999989361,html-button-response,588,1,110400,4,control,bim,lightblue,control
12,1851604,LF,labelPictures,52_13_12_36_,wug,917.940000072122,html-button-response,518,0,120175,1,high,tob,red,exp
12,1826942,FL,labelPictures,52_47_51_12_,dep,2012.66000000038,html-button-response,580,0,120175,1,high,tob,red,exp
12,1807583,LF,labelPictures,52_12_6_11_,dep,2607.91999986395,html-button-response,550,0,120175,1,high,tob,red,exp
12,1851571,LF,labelPictures,52_13_12_36_,wug,2955.29499999247,html-button-response,548,0,120175,1,high,tob,red,exp
12,1800339,FL,labelPictures,52_12_6_11_,dep,1931.24999996508,html-button-response,570,0,120175,1,high,tob,red,exp
12,1807546,LF,labelPictures,52_13_12_36_,wug,1722.27499994915,html-button-response,584,0,120175,1,high,tob,red,exp
12,1823770,FL,labelPictures,52_12_6_11_,dep,1354,html-button-response,498,0,120175,1,high,tob,red,exp
12,1807534,LF,labelPictures,52_12_6_11_,dep,1673.91000001226,html-button-response,582,0,120175,1,high,tob,red,exp
12,1851568,LF,labelPictures,52_47_51_12_,dep,372.189999994589,html-button-response,526,0,120175,1,high,tob,red,exp
12,1823770,FL,labelPictures,52_12_6_11_,dep,1816,html-button-response,502,0,120175,1,high,tob,red,exp
12,1845981,LF,labelPictures,52_47_51_12_,dep,2842.58999998565,html-button-response,512,0,120175,1,high,tob,red,exp
12,1845198,FL,labelPictures,52_47_51_12_,dep,2436.49000000005,html-button-response,488,0,120175,1,high,tob,red,exp
12,1845981,LF,labelPictures,52_12_6_11_,dep,1337.83999999287,html-button-response,584,0,120175,1,high,tob,red,exp
12,1826932,FL,labelPictures,52_12_6_11_,dep,3251.05999999517,html-button-response,520,0,120175,1,high,tob,red,exp
12,1807564,LF,labelPictures,52_47_51_12_,dep,2180.94500002917,html-button-response,570,0,120175,1,high,tob,red,exp
12,1803475,LF,labelPictures,51_52_13_12_,wug,1143.37000000523,html-button-response,504,0,120175,1,high,tob,red,exp
12,1807564,LF,labelPictures,52_12_6_11_,dep,1722.51499997219,html-button-response,588,0,120175,1,high,tob,red,exp
12,1825257,FL,labelPictures,51_52_13_12_,wug,337.05500000366,html-button-response,546,0,120175,1,high,tob,red,exp
12,1824046,FL,labelPictures,52_12_6_11_,dep,3308.41499997769,html-button-response,498,0,120175,1,high,tob,red,exp
12,1851570,LF,labelPictures,52_12_6_11_,dep,1432.025000002,html-button-response,574,0,120175,1,high,tob,red,exp
12,1805848,LF,labelPictures,52_47_51_12_,dep,2907.8899999999,html-button-response,586,0,120175,1,high,tob,red,exp
12,1802164,LF,labelPictures,52_12_6_11_,dep,1413.2999999997,html-button-response,576,0,120175,1,high,tob,red,exp
12,1825225,LF,labelPictures,52_12_6_11_,dep,1848.56000001309,html-button-response,486,0,120175,1,high,tob,red,exp
12,1825243,LF,labelPictures,51_52_13_12_,wug,1220.91999999247,html-button-response,592,0,120175,1,high,tob,red,exp
12,1826947,FL,labelPictures,52_12_6_11_,dep,1293.46000007354,html-button-response,554,0,120175,1,high,tob,red,exp
12,1825257,FL,labelPictures,52_47_51_12_,dep,558.919999995851,html-button-response,518,0,120175,1,high,tob,red,exp
12,1824289,LF,labelPictures,14_10_6_12_,bim,2377.16500018723,html-button-response,538,0,120175,1,high,tob,red,exp
12,1828961,FL,labelPictures,52_47_51_12_,dep,2779.42999987863,html-button-response,540,0,120175,1,high,tob,red,exp
12,1825237,FL,labelPictures,52_13_12_36_,wug,1348,html-button-response,540,0,120175,1,high,tob,red,exp
12,1851568,LF,labelPictures,51_52_13_12_,wug,364.090000002761,html-button-response,510,0,120175,1,high,tob,red,exp
12,1845981,LF,labelPictures,52_13_12_36_,wug,2544.38999999547,html-button-response,504,0,120175,1,high,tob,red,exp
12,1825237,FL,labelPictures,52_47_51_12_,dep,1510,html-button-response,564,0,120175,1,high,tob,red,exp
12,1825243,LF,labelPictures,52_13_12_36_,wug,1142.79500000703,html-button-response,526,0,120175,1,high,tob,red,exp
12,1845196,LF,labelPictures,52_13_12_36_,wug,2735.2900000005,html-button-response,562,0,120175,1,high,tob,red,exp
12,1825243,LF,labelPictures,52_47_51_12_,dep,2292.28999999759,html-button-response,554,0,120175,1,high,tob,red,exp
12,1807535,FL,labelPictures,51_52_13_12_,wug,1127,html-button-response,550,0,120175,1,high,tob,red,exp
12,1823745,LF,labelPictures,52_13_12_36_,wug,352.700000003097,html-button-response,504,0,120175,1,high,tob,red,exp
12,1807538,FL,labelPictures,52_13_12_36_,wug,2443.67500022054,html-button-response,524,0,120175,1,high,tob,red,exp
12,1846268,FL,labelPictures,14_10_6_12_,bim,2202.34999991953,html-button-response,582,0,120175,1,high,tob,red,exp
12,1807583,LF,labelPictures,52_47_51_12_,dep,2041.05499992147,html-button-response,546,0,120175,1,high,tob,red,exp
12,1826942,FL,labelPictures,51_52_13_12_,wug,2089.93000000011,html-button-response,516,0,120175,1,high,tob,red,exp
12,1802982,FL,labelPictures,52_47_51_12_,dep,1103.68500000192,html-button-response,568,0,120175,1,high,tob,red,exp
12,1805848,LF,labelPictures,52_13_12_36_,wug,1595.43499999994,html-button-response,590,0,120175,1,high,tob,red,exp
12,1828957,LF,labelPictures,52_13_12_36_,wug,1774.08000000287,html-button-response,518,0,120175,1,high,tob,red,exp
12,1826942,FL,labelPictures,52_12_6_11_,dep,1347.32500000065,html-button-response,494,0,120175,1,high,tob,red,exp
12,1823743,LF,labelPictures,14_10_6_12_,bim,591.524999996182,html-button-response,564,0,120175,1,high,tob,red,exp
12,1803000,FL,labelPictures,52_13_12_36_,wug,2648.02499999502,html-button-response,562,0,120175,1,high,tob,red,exp
12,1851568,LF,labelPictures,52_12_6_11_,dep,134.270000002231,html-button-response,576,0,120175,1,high,tob,red,exp
12,1803488,LF,labelPictures,52_13_12_36_,wug,981.425000005402,html-button-response,510,0,120175,1,high,tob,red,exp
12,1807583,LF,labelPictures,52_12_6_11_,dep,2991.38999986462,html-button-response,534,0,120175,1,high,tob,red,exp
12,1823745,LF,labelPictures,52_12_6_11_,dep,105.82000001159,html-button-response,502,0,120175,1,high,tob,red,exp
12,1851568,LF,labelPictures,52_47_51_12_,dep,148.79999999539,html-button-response,556,0,120175,1,high,tob,red,exp
12,1803000,FL,labelPictures,52_12_6_11_,dep,806.690000004834,html-button-response,584,0,120175,1,high,tob,red,exp
12,1803017,LF,labelPictures,52_12_6_11_,dep,1310.86000008509,html-button-response,500,0,120175,1,high,tob,red,exp
12,1826932,FL,labelPictures,52_12_6_11_,dep,1320.8650000015,html-button-response,582,0,120175,1,high,tob,red,exp
12,1826932,FL,labelPictures,52_47_51_12_,dep,3326.26999999769,html-button-response,516,0,120175,1,high,tob,red,exp
12,1803558,LF,labelPictures,52_13_12_36_,wug,2643.38000002317,html-button-response,528,0,120175,1,high,tob,red,exp
12,1802090,FL,labelPictures,52_47_51_12_,dep,1849.8499999987,html-button-response,488,0,120175,1,high,tob,red,exp
12,1800333,LF,labelPictures,52_12_6_11_,dep,2437.79499999981,html-button-response,596,0,120175,1,high,tob,red,exp
12,1825243,LF,labelPictures,52_47_51_12_,dep,3196.97499999893,html-button-response,550,0,120175,1,high,tob,red,exp
12,1824289,LF,labelPictures,52_13_12_36_,wug,2029.15499988012,html-button-response,554,0,120175,1,high,tob,red,exp
12,1852272,LF,labelPictures,52_13_12_36_,wug,1977.22500000242,html-button-response,518,0,120175,1,high,tob,red,exp
12,1823770,FL,labelPictures,52_47_51_12_,dep,1999,html-button-response,520,0,120175,1,high,tob,red,exp
12,1845228,FL,labelPictures,52_13_12_36_,wug,2318.25000000023,html-button-response,562,0,120175,1,high,tob,red,exp
12,1803026,FL,labelPictures,51_52_13_12_,wug,2671.83999996632,html-button-response,500,0,120175,1,high,tob,red,exp
12,1851568,LF,labelPictures,52_13_12_36_,wug,421.79000000027,html-button-response,582,0,120175,1,high,tob,red,exp
12,1828964,FL,labelPictures,51_52_13_12_,wug,1701.92500000121,html-button-response,564,0,120175,1,high,tob,red,exp
12,1803558,LF,labelPictures,52_47_51_12_,dep,3036.76000004634,html-button-response,544,0,120175,1,high,tob,red,exp
12,1826924,LF,labelPictures,14_10_6_12_,bim,2374.36499999603,html-button-response,580,0,120175,1,high,tob,red,exp
12,1824285,LF,labelPictures,52_13_12_36_,wug,543.564999999944,html-button-response,518,0,120175,1,high,tob,red,exp
12,1825229,FL,labelPictures,52_12_6_11_,dep,1669,html-button-response,570,0,120175,1,high,tob,red,exp
12,1803026,FL,labelPictures,52_13_12_36_,wug,2785.04499990959,html-button-response,520,0,120175,1,high,tob,red,exp
12,1828946,FL,labelPictures,52_12_6_11_,dep,983.345000015106,html-button-response,580,0,120175,1,high,tob,red,exp
12,1852242,LF,labelPictures,52_13_12_36_,wug,1412.48500000802,html-button-response,542,0,120175,1,high,tob,red,exp
12,1807546,LF,labelPictures,52_13_12_36_,wug,1137.45499996003,html-button-response,540,0,120175,1,high,tob,red,exp
12,1803558,LF,labelPictures,52_12_6_11_,dep,1517.83499994781,html-button-response,554,0,120175,1,high,tob,red,exp
12,1824046,FL,labelPictures,52_47_51_12_,dep,1475.08500004187,html-button-response,564,0,120175,1,high,tob,red,exp
12,1825232,FL,labelPictures,52_13_12_36_,wug,2254.88999998197,html-button-response,556,0,120175,1,high,tob,red,exp
12,1823743,LF,labelPictures,51_52_13_12_,wug,391.055000014603,html-button-response,566,0,120175,1,high,tob,red,exp
12,1803482,LF,labelPictures,52_47_51_12_,dep,1260.52499981597,html-button-response,562,0,120175,1,high,tob,red,exp
12,1807535,FL,labelPictures,52_13_12_36_,wug,1481,html-button-response,594,0,120175,1,high,tob,red,exp
12,1826947,FL,labelPictures,52_13_12_36_,wug,998.434999957681,html-button-response,548,0,120175,1,high,tob,red,exp
12,1845205,FL,labelPictures,52_12_6_11_,dep,1808.51500001154,html-button-response,502,0,120175,1,high,tob,red,exp
12,1826533,FL,labelPictures,52_47_51_12_,dep,1489.74999994971,html-button-response,522,0,120175,1,high,tob,red,exp
12,1851575,LF,labelPictures,52_12_6_11_,dep,1819.30499999999,html-button-response,516,0,120175,1,high,tob,red,exp
12,1807538,FL,labelPictures,52_13_12_36_,wug,2813.16999997944,html-button-response,570,0,120175,1,high,tob,red,exp
12,1826932,FL,labelPictures,52_47_51_12_,dep,1618.15999999805,html-button-response,552,0,120175,1,high,tob,red,exp
12,1852272,LF,labelPictures,52_12_6_11_,dep,3329.79000000353,html-button-response,592,0,120175,1,high,tob,red,exp
12,1805848,LF,labelPictures,52_12_6_11_,dep,1542.85499999998,html-button-response,550,0,120175,1,high,tob,red,exp
12,1828947,FL,labelPictures,52_12_6_11_,dep,1249.03499998618,html-button-response,588,0,120175,1,high,tob,red,exp
12,1802164,LF,labelPictures,51_52_13_12_,wug,1464.10000000009,html-button-response,538,0,120175,1,high,tob,red,exp
12,1800337,FL,labelPictures,52_12_6_11_,dep,2909,html-button-response,566,0,120175,1,high,tob,red,exp
12,1826947,FL,labelPictures,14_10_6_12_,bim,1110.05999997724,html-button-response,504,0,120175,1,high,tob,red,exp
12,1823770,FL,labelPictures,52_47_51_12_,dep,2242,html-button-response,554,0,120175,1,high,tob,red,exp
12,1851575,LF,labelPictures,52_47_51_12_,dep,1939.60999999987,html-button-response,582,0,120175,1,high,tob,red,exp
12,1803558,LF,labelPictures,52_12_6_11_,dep,2027.46000001207,html-button-response,542,0,120175,1,high,tob,red,exp
12,1807535,FL,labelPictures,52_13_12_36_,wug,1584,html-button-response,544,0,120175,1,high,tob,red,exp
12,1825229,FL,labelPictures,52_12_6_11_,dep,1229.99999999988,html-button-response,596,0,120175,1,high,tob,red,exp
12,1851570,LF,labelPictures,52_13_12_36_,wug,869.889999998035,html-button-response,582,0,120175,1,high,tob,red,exp
12,1824285,LF,labelPictures,52_13_12_36_,wug,2730.03999999852,html-button-response,506,0,120175,1,high,tob,red,exp
12,1851567,LF,labelPictures,52_13_12_36_,wug,226.345000002766,html-button-response,558,0,120175,1,high,tob,red,exp
12,1828947,FL,labelPictures,51_52_13_12_,wug,2699.68499999959,html-button-response,494,0,120175,1,high,tob,red,exp
12,1829030,FL,labelPictures,52_12_6_11_,dep,1449.45000000007,html-button-response,596,0,120175,1,high,tob,red,exp
12,1846093,LF,labelPictures,52_47_51_12_,dep,1426.51499994099,html-button-response,504,0,120175,1,high,tob,red,exp
12,1803000,FL,labelPictures,52_47_51_12_,dep,1088.17000000272,html-button-response,538,0,120175,1,high,tob,red,exp
12,1802094,FL,labelPictures,52_12_6_11_,dep,769.589999999851,html-button-response,578,0,120175,1,high,tob,red,exp
12,1824046,FL,labelPictures,52_47_51_12_,dep,2019.89500003401,html-button-response,584,0,120175,1,high,tob,red,exp
12,1845200,LF,labelPictures,51_52_13_12_,wug,1105.68000003695,html-button-response,496,0,120175,1,high,tob,red,exp
12,1825225,LF,labelPictures,52_47_51_12_,dep,2201.25000001281,html-button-response,526,0,120175,1,high,tob,red,exp
12,1846093,LF,labelPictures,52_12_6_11_,dep,2165.24499980733,html-button-response,488,0,120175,1,high,tob,red,exp
12,1828947,FL,labelPictures,52_13_12_36_,wug,1329.24000005005,html-button-response,594,0,120175,1,high,tob,red,exp
12,1839502,LF,labelPictures,52_12_6_11_,dep,1552.77500000002,html-button-response,536,0,120175,1,high,tob,red,exp
12,1823743,LF,labelPictures,52_47_51_12_,dep,245.680000050925,html-button-response,570,0,120175,1,high,tob,red,exp
12,1802164,LF,labelPictures,52_13_12_36_,wug,1224.20000000019,html-button-response,540,0,120175,1,high,tob,red,exp
12,1803026,FL,labelPictures,52_13_12_36_,wug,3297.96500003431,html-button-response,528,0,120175,1,high,tob,red,exp
12,1803486,LF,labelPictures,51_52_13_12_,wug,1747.20500013791,html-button-response,550,0,120175,1,high,tob,red,exp
12,1827631,FL,labelPictures,52_12_6_11_,dep,767.400000011548,html-button-response,548,0,120175,1,high,tob,red,exp
12,1826948,FL,labelPictures,52_47_51_12_,dep,2326.0350000055,html-button-response,516,0,120175,1,high,tob,red,exp
12,1825257,FL,labelPictures,52_13_12_36_,wug,648.440000004484,html-button-response,584,0,120175,1,high,tob,red,exp
12,1829030,FL,labelPictures,52_47_51_12_,dep,2392.85499999824,html-button-response,550,0,120175,1,high,tob,red,exp
12,1829030,FL,labelPictures,52_12_6_11_,dep,1568.18500000006,html-button-response,576,0,120175,1,high,tob,red,exp
12,1798885,LF,labelPictures,14_10_6_12_,bim,2734.69999997178,html-button-response,522,0,120175,1,high,tob,red,exp
12,1846093,LF,labelPictures,52_12_6_11_,dep,1139.2349996604,html-button-response,510,0,120175,1,high,tob,red,exp
12,1827631,FL,labelPictures,52_47_51_12_,dep,1379.60000001476,html-button-response,512,0,120175,1,high,tob,red,exp
12,1805848,LF,labelPictures,52_13_12_36_,wug,2823.81499999994,html-button-response,552,0,120175,1,high,tob,red,exp
12,1807564,LF,labelPictures,52_47_51_12_,dep,3405.27500002645,html-button-response,498,0,120175,1,high,tob,red,exp
12,1845981,LF,labelPictures,52_47_51_12_,dep,663.185000012163,html-button-response,522,0,120175,1,high,tob,red,exp
12,1803486,LF,labelPictures,52_13_12_36_,wug,1403.39000010863,html-button-response,530,0,120175,1,high,tob,red,exp
12,1807532,FL,labelPictures,52_12_6_11_,dep,1199.99999999709,html-button-response,514,0,120175,1,high,tob,red,exp
12,1803488,LF,labelPictures,52_12_6_11_,dep,1432.68499994883,html-button-response,534,0,120175,1,high,tob,red,exp
12,1803486,LF,labelPictures,52_12_6_11_,dep,836.46500017494,html-button-response,578,0,120175,1,high,tob,red,exp
12,1828989,LF,labelPictures,52_13_12_36_,wug,1680.30500000075,html-button-response,488,0,120175,1,high,tob,red,exp
12,1825257,FL,labelPictures,52_13_12_36_,wug,259.16500000318,html-button-response,534,0,120175,1,high,tob,red,exp
12,1845981,LF,labelPictures,52_12_6_11_,dep,1136.31499998155,html-button-response,588,0,120175,1,high,tob,red,exp
13,1803466,LF,labelPictures,51_52_13_12_,wug,2312.76500003878,html-button-response,576,0,130375,3,high,dep,blue,exp
13,1802090,FL,labelPictures,17_18_7_13_,tob,780.930000008084,html-button-response,558,0,130375,3,high,dep,blue,exp
13,1798877,LF,labelPictures,17_18_7_13_,tob,2022.69999997225,html-button-response,532,0,130375,3,high,dep,blue,exp
13,1826947,FL,labelPictures,52_13_12_36_,wug,830.345000023954,html-button-response,562,0,130375,3,high,dep,blue,exp
13,1851568,LF,labelPictures,51_52_13_12_,wug,777.204999998561,html-button-response,566,0,130375,3,high,dep,blue,exp
13,1802094,FL,labelPictures,52_13_12_36_,wug,1357.86499999987,html-button-response,554,0,130375,3,high,dep,blue,exp
13,1846268,FL,labelPictures,17_18_7_13_,tob,2221.63000004366,html-button-response,510,0,130375,3,high,dep,blue,exp
13,1828957,LF,labelPictures,17_18_7_13_,tob,3090.74000001419,html-button-response,594,0,130375,3,high,dep,blue,exp
13,1828961,FL,labelPictures,51_52_13_12_,wug,1580.58999991044,html-button-response,530,0,130375,3,high,dep,blue,exp
13,1827631,FL,labelPictures,52_13_12_36_,wug,1504.99999997555,html-button-response,486,0,130375,3,high,dep,blue,exp
13,1802107,FL,labelPictures,51_52_13_12_,wug,2300.16499990597,html-button-response,486,0,130375,3,high,dep,blue,exp
13,1828961,FL,labelPictures,51_52_13_12_,wug,3451.49999996647,html-button-response,524,0,130375,3,high,dep,blue,exp
13,1826990,FL,labelPictures,51_52_13_12_,wug,2208.63000000827,html-button-response,578,0,130375,3,high,dep,blue,exp
13,1802982,FL,labelPictures,52_13_12_36_,wug,1011.8450000009,html-button-response,520,0,130375,3,high,dep,blue,exp
13,1803492,LF,labelPictures,51_52_13_12_,wug,3401.88000001945,html-button-response,578,0,130375,3,high,dep,blue,exp
13,1828947,FL,labelPictures,51_52_13_12_,wug,1225.05499998806,html-button-response,574,0,130375,3,high,dep,blue,exp
13,1807532,FL,labelPictures,17_18_7_13_,tob,1494.99999999895,html-button-response,520,0,130375,3,high,dep,blue,exp
13,1825232,FL,labelPictures,17_18_7_13_,tob,2429.60999999195,html-button-response,594,0,130375,3,high,dep,blue,exp
13,1824285,LF,labelPictures,51_52_13_12_,wug,1735.37500000023,html-button-response,584,0,130375,3,high,dep,blue,exp
13,1825229,FL,labelPictures,52_13_12_36_,wug,1114,html-button-response,554,0,130375,3,high,dep,blue,exp
13,1824046,FL,labelPictures,17_18_7_13_,tob,2050.96000002231,html-button-response,520,0,130375,3,high,dep,blue,exp
13,1845200,LF,labelPictures,17_18_7_13_,tob,2820.41499996558,html-button-response,540,0,130375,3,high,dep,blue,exp
13,1828959,LF,labelPictures,51_52_13_12_,wug,1878.01000001491,html-button-response,510,0,130375,3,high,dep,blue,exp
13,1807538,FL,labelPictures,51_52_13_12_,wug,2230.19000003114,html-button-response,520,0,130375,3,high,dep,blue,exp
13,1846268,FL,labelPictures,51_52_13_12_,wug,2000.50000008196,html-button-response,596,0,130375,3,high,dep,blue,exp
13,1803478,LF,labelPictures,52_13_12_36_,wug,1343.04500000144,html-button-response,492,0,130375,3,high,dep,blue,exp
13,1800331,FL,labelPictures,52_13_12_36_,wug,858,html-button-response,552,0,130375,3,high,dep,blue,exp
13,1826950,LF,labelPictures,17_18_7_13_,tob,3010.7400000561,html-button-response,590,0,130375,3,high,dep,blue,exp
13,1825232,FL,labelPictures,52_13_12_36_,wug,2198.12499999534,html-button-response,588,0,130375,3,high,dep,blue,exp
13,1802090,FL,labelPictures,52_13_12_36_,wug,562.629999942146,html-button-response,542,0,130375,3,high,dep,blue,exp
13,1826947,FL,labelPictures,17_18_7_13_,tob,1853.29499992076,html-button-response,546,0,130375,3,high,dep,blue,exp
13,1839496,FL,labelPictures,51_52_13_12_,wug,1485.96499999985,html-button-response,574,0,130375,3,high,dep,blue,exp
13,1826957,FL,labelPictures,52_13_12_36_,wug,1931.88500002725,html-button-response,488,0,130375,3,high,dep,blue,exp
13,1839499,FL,labelPictures,52_13_12_36_,wug,1664.19499999756,html-button-response,550,0,130375,3,high,dep,blue,exp
13,1826950,LF,labelPictures,52_13_12_36_,wug,2135.63000003342,html-button-response,490,0,130375,3,high,dep,blue,exp
13,1851575,LF,labelPictures,17_18_7_13_,tob,1962.37000000011,html-button-response,552,0,130375,3,high,dep,blue,exp
13,1825237,FL,labelPictures,52_13_12_36_,wug,2951,html-button-response,588,0,130375,3,high,dep,blue,exp
13,1798877,LF,labelPictures,52_13_12_36_,wug,1838.80000002682,html-button-response,586,0,130375,3,high,dep,blue,exp
13,1826942,FL,labelPictures,17_18_7_13_,tob,2961.92500000144,html-button-response,560,0,130375,3,high,dep,blue,exp
13,1807538,FL,labelPictures,51_52_13_12_,wug,1848.11000013724,html-button-response,534,0,130375,3,high,dep,blue,exp
13,1802090,FL,labelPictures,52_13_12_36_,wug,447.295000078157,html-button-response,550,0,130375,3,high,dep,blue,exp
13,1845981,LF,labelPictures,51_52_13_12_,wug,155.384999990929,html-button-response,544,0,130375,3,high,dep,blue,exp
13,1802108,LF,labelPictures,52_13_12_36_,wug,2236,html-button-response,504,0,130375,3,high,dep,blue,exp
13,1802164,LF,labelPictures,52_13_12_36_,wug,2119.20000000007,html-button-response,580,0,130375,3,high,dep,blue,exp
13,1802184,FL,labelPictures,51_52_13_12_,wug,3198.99999999325,html-button-response,562,0,130375,3,high,dep,blue,exp
13,1828964,FL,labelPictures,52_13_12_36_,wug,1604.81000000448,html-button-response,554,0,130375,3,high,dep,blue,exp
13,1826932,FL,labelPictures,17_18_7_13_,tob,3113.1549999991,html-button-response,566,0,130375,3,high,dep,blue,exp
13,1825257,FL,labelPictures,17_18_7_13_,tob,806.525000000023,html-button-response,570,0,130375,3,high,dep,blue,exp
13,1823770,FL,labelPictures,17_18_7_13_,tob,2046,html-button-response,494,0,130375,3,high,dep,blue,exp
13,1826932,FL,labelPictures,52_13_12_36_,wug,2738.4149999998,html-button-response,518,0,130375,3,high,dep,blue,exp
13,1803488,LF,labelPictures,52_13_12_36_,wug,1176.19500000728,html-button-response,520,0,130375,3,high,dep,blue,exp
13,1826948,FL,labelPictures,52_13_12_36_,wug,1640.44499999727,html-button-response,558,0,130375,3,high,dep,blue,exp
13,1800340,LF,labelPictures,51_52_13_12_,wug,1281.00499999709,html-button-response,576,0,130375,3,high,dep,blue,exp
13,1826950,LF,labelPictures,17_18_7_13_,tob,1324.15000000037,html-button-response,504,0,130375,3,high,dep,blue,exp
13,1802108,LF,labelPictures,51_52_13_12_,wug,1807,html-button-response,596,0,130375,3,high,dep,blue,exp
13,1803488,LF,labelPictures,51_52_13_12_,wug,2398.43499998096,html-button-response,560,0,130375,3,high,dep,blue,exp
13,1823745,LF,labelPictures,17_18_7_13_,tob,230.184999993071,html-button-response,592,0,130375,3,high,dep,blue,exp
13,1826932,FL,labelPictures,17_18_7_13_,tob,3276.70499999658,html-button-response,560,0,130375,3,high,dep,blue,exp
13,1823743,LF,labelPictures,51_52_13_12_,wug,302.415000041947,html-button-response,538,0,130375,3,high,dep,blue,exp
13,1846268,FL,labelPictures,52_13_12_36_,wug,1256.68999995105,html-button-response,566,0,130375,3,high,dep,blue,exp
13,1807535,FL,labelPictures,17_18_7_13_,tob,1653,html-button-response,588,0,130375,3,high,dep,blue,exp
13,1851782,LF,labelPictures,52_13_12_36_,wug,922.480000008363,html-button-response,532,0,130375,3,high,dep,blue,exp
13,1827631,FL,labelPictures,17_18_7_13_,tob,834.200000012061,html-button-response,546,0,130375,3,high,dep,blue,exp
13,1823770,FL,labelPictures,17_18_7_13_,tob,2473,html-button-response,524,0,130375,3,high,dep,blue,exp
13,1826946,FL,labelPictures,51_52_13_12_,wug,1709.495,html-button-response,560,0,130375,3,high,dep,blue,exp
13,1803026,FL,labelPictures,51_52_13_12_,wug,2461.03999996558,html-button-response,576,0,130375,3,high,dep,blue,exp
13,1803482,LF,labelPictures,52_13_12_36_,wug,1040.03500007093,html-button-response,580,0,130375,3,high,dep,blue,exp
13,1851782,LF,labelPictures,17_18_7_13_,tob,1044.56499998923,html-button-response,582,0,130375,3,high,dep,blue,exp
13,1802108,LF,labelPictures,52_13_12_36_,wug,1778,html-button-response,592,0,130375,3,high,dep,blue,exp
13,1802094,FL,labelPictures,52_13_12_36_,wug,1161.11000000092,html-button-response,582,0,130375,3,high,dep,blue,exp
13,1824285,LF,labelPictures,17_18_7_13_,tob,1083.18000000145,html-button-response,572,0,130375,3,high,dep,blue,exp
13,1807564,LF,labelPictures,17_18_7_13_,tob,1875.69999997504,html-button-response,572,0,130375,3,high,dep,blue,exp
13,1845205,FL,labelPictures,51_52_13_12_,wug,2741.16500001401,html-button-response,542,0,130375,3,high,dep,blue,exp
13,1802090,FL,labelPictures,17_18_7_13_,tob,992.450000019744,html-button-response,514,0,130375,3,high,dep,blue,exp
13,1826934,FL,labelPictures,17_18_7_13_,tob,2081.46999999916,html-button-response,492,0,130375,3,high,dep,blue,exp
13,1829030,FL,labelPictures,52_13_12_36_,wug,2064.73999999801,html-button-response,530,0,130375,3,high,dep,blue,exp
13,1800331,FL,labelPictures,51_52_13_12_,wug,2194,html-button-response,586,0,130375,3,high,dep,blue,exp
13,1802093,LF,labelPictures,17_18_7_13_,tob,2100.18499998841,html-button-response,494,0,130375,3,high,dep,blue,exp
13,1802098,FL,labelPictures,17_18_7_13_,tob,2545.12499994598,html-button-response,570,0,130375,3,high,dep,blue,exp
13,1851782,LF,labelPictures,17_18_7_13_,tob,1278.5299999523,html-button-response,536,0,130375,3,high,dep,blue,exp
13,1824046,FL,labelPictures,17_18_7_13_,tob,1882.95999995898,html-button-response,510,0,130375,3,high,dep,blue,exp
13,1828961,FL,labelPictures,52_13_12_36_,wug,1995.71000016294,html-button-response,502,0,130375,3,high,dep,blue,exp
13,1845228,FL,labelPictures,51_52_13_12_,wug,1637.38000000012,html-button-response,548,0,130375,3,high,dep,blue,exp
13,1851782,LF,labelPictures,51_52_13_12_,wug,1187.47499998426,html-button-response,570,0,130375,3,high,dep,blue,exp
13,1802982,FL,labelPictures,52_13_12_36_,wug,947.294999998063,html-button-response,572,0,130375,3,high,dep,blue,exp
13,1807535,FL,labelPictures,51_52_13_12_,wug,1714,html-button-response,492,0,130375,3,high,dep,blue,exp
13,1823763,FL,labelPictures,17_18_7_13_,tob,2266.53000002261,html-button-response,568,0,130375,3,high,dep,blue,exp
13,1803477,LF,labelPictures,51_52_13_12_,wug,1607.59000002872,html-button-response,574,0,130375,3,high,dep,blue,exp
13,1803477,LF,labelPictures,51_52_13_12_,wug,3142.94000004884,html-button-response,500,0,130375,3,high,dep,blue,exp
13,1828989,LF,labelPictures,51_52_13_12_,wug,2818.89999999932,html-button-response,510,0,130375,3,high,dep,blue,exp
13,1802108,LF,labelPictures,51_52_13_12_,wug,1741,html-button-response,568,0,130375,3,high,dep,blue,exp
13,1826942,FL,labelPictures,17_18_7_13_,tob,1562.31499999919,html-button-response,538,0,130375,3,high,dep,blue,exp
13,1826533,FL,labelPictures,17_18_7_13_,tob,2033.24500005692,html-button-response,586,0,130375,3,high,dep,blue,exp
13,1803488,LF,labelPictures,17_18_7_13_,tob,714.269999996759,html-button-response,506,0,130375,3,high,dep,blue,exp
13,1851570,LF,labelPictures,17_18_7_13_,tob,1624.24000000098,html-button-response,526,0,130375,3,high,dep,blue,exp
13,1800333,LF,labelPictures,17_18_7_13_,tob,2261.33499999921,html-button-response,534,0,130375,3,high,dep,blue,exp
13,1803000,FL,labelPictures,51_52_13_12_,wug,951.464999998221,html-button-response,588,0,130375,3,high,dep,blue,exp
13,1826946,FL,labelPictures,52_13_12_36_,wug,891.514999999781,html-button-response,588,0,130375,3,high,dep,blue,exp
13,1803482,LF,labelPictures,17_18_7_13_,tob,2014.32499988005,html-button-response,574,0,130375,3,high,dep,blue,exp
13,1845198,FL,labelPictures,52_13_12_36_,wug,2558.63,html-button-response,526,0,130375,3,high,dep,blue,exp
13,1823763,FL,labelPictures,17_18_7_13_,tob,2788.46499999054,html-button-response,560,0,130375,3,high,dep,blue,exp
13,1846093,LF,labelPictures,17_18_7_13_,tob,2612.41000005975,html-button-response,534,0,130375,3,high,dep,blue,exp
13,1825229,FL,labelPictures,51_52_13_12_,wug,805.999999999942,html-button-response,502,0,130375,3,high,dep,blue,exp
13,1807564,LF,labelPictures,17_18_7_13_,tob,2252.67499999609,html-button-response,596,0,130375,3,high,dep,blue,exp
13,1825225,LF,labelPictures,17_18_7_13_,tob,1715.36000000197,html-button-response,568,0,130375,3,high,dep,blue,exp
13,1800340,LF,labelPictures,52_13_12_36_,wug,1699.9899999937,html-button-response,560,0,130375,3,high,dep,blue,exp
13,1807546,LF,labelPictures,51_52_13_12_,wug,1627.85000004806,html-button-response,554,0,130375,3,high,dep,blue,exp
13,1826934,FL,labelPictures,17_18_7_13_,tob,1966.91999999894,html-button-response,508,0,130375,3,high,dep,blue,exp
13,1845982,FL,labelPictures,52_13_12_36_,wug,2055.99999999988,html-button-response,578,0,130375,3,high,dep,blue,exp
13,1829030,FL,labelPictures,52_13_12_36_,wug,2329.55500000028,html-button-response,520,0,130375,3,high,dep,blue,exp
13,1823745,LF,labelPictures,52_13_12_36_,wug,635.060000000522,html-button-response,572,0,130375,3,high,dep,blue,exp
13,1845196,LF,labelPictures,17_18_7_13_,tob,2722.2449999972,html-button-response,558,0,130375,3,high,dep,blue,exp
13,1802164,LF,labelPictures,17_18_7_13_,tob,1702.80000000005,html-button-response,554,0,130375,3,high,dep,blue,exp
13,1845205,FL,labelPictures,52_13_12_36_,wug,3370.25500001619,html-button-response,546,0,130375,3,high,dep,blue,exp
13,1802982,FL,labelPictures,17_18_7_13_,tob,2370.17499999999,html-button-response,502,0,130375,3,high,dep,blue,exp
13,1846093,LF,labelPictures,52_13_12_36_,wug,1263.50000035018,html-button-response,552,0,130375,3,high,dep,blue,exp
13,1802184,FL,labelPictures,52_13_12_36_,wug,3069.99999997788,html-button-response,496,0,130375,3,high,dep,blue,exp
13,1826946,FL,labelPictures,51_52_13_12_,wug,3233.42000000004,html-button-response,548,0,130375,3,high,dep,blue,exp
13,1846268,FL,labelPictures,52_13_12_36_,wug,2676.27499997616,html-button-response,556,0,130375,3,high,dep,blue,exp
13,1851782,LF,labelPictures,52_13_12_36_,wug,991.40499997884,html-button-response,534,0,130375,3,high,dep,blue,exp
13,1825225,LF,labelPictures,17_18_7_13_,tob,2365.85499998182,html-button-response,530,0,130375,3,high,dep,blue,exp
13,1802982,FL,labelPictures,17_18_7_13_,tob,2643.72999999975,html-button-response,574,0,130375,3,high,dep,blue,exp
13,1851574,LF,labelPictures,52_13_12_36_,wug,3023.61999999266,html-button-response,552,0,130375,3,high,dep,blue,exp
13,1805848,LF,labelPictures,17_18_7_13_,tob,1569.25499999989,html-button-response,548,0,130375,3,high,dep,blue,exp
13,1845982,FL,labelPictures,52_13_12_36_,wug,1212,html-button-response,590,0,130375,3,high,dep,blue,exp
13,1845982,FL,labelPictures,51_52_13_12_,wug,1257,html-button-response,488,0,130375,3,high,dep,blue,exp
13,1828959,LF,labelPictures,51_52_13_12_,wug,1164.80500000762,html-button-response,576,0,130375,3,high,dep,blue,exp
13,1828946,FL,labelPictures,52_13_12_36_,wug,2562.33499996597,html-button-response,490,0,130375,3,high,dep,blue,exp
13,1826990,FL,labelPictures,17_18_7_13_,tob,807.400000048801,html-button-response,532,0,130375,3,high,dep,blue,exp
13,1851573,LF,labelPictures,52_13_12_36_,wug,765.035000003991,html-button-response,592,0,130375,3,high,dep,blue,exp
13,1851782,LF,labelPictures,51_52_13_12_,wug,1641.28999999957,html-button-response,488,0,130375,3,high,dep,blue,exp
13,1845982,FL,labelPictures,51_52_13_12_,wug,760.999999999884,html-button-response,588,0,130375,3,high,dep,blue,exp
13,1825257,FL,labelPictures,51_52_13_12_,wug,1424.92499999935,html-button-response,596,0,130375,3,high,dep,blue,exp
13,1803477,LF,labelPictures,52_13_12_36_,wug,2081.08499995433,html-button-response,560,0,130375,3,high,dep,blue,exp
13,1825243,LF,labelPictures,17_18_7_13_,tob,1363.88499999885,html-button-response,574,0,130375,3,high,dep,blue,exp
14,1803466,LF,labelPictures,14_54_29_21_,dep,1886.36000000406,html-button-response,512,0,140400,4,control,bim,lightblue,control
14,1852242,LF,labelPictures,14_10_6_12_,bim,807.394999981625,html-button-response,560,1,140400,4,control,bim,lightblue,control
14,1825232,FL,labelPictures,14_54_29_21_,dep,1167.14000003412,html-button-response,592,0,140400,4,control,bim,lightblue,control
14,1807564,LF,labelPictures,14_10_6_12_,bim,1511.31500001065,html-button-response,500,1,140400,4,control,bim,lightblue,control
14,1839564,LF,labelPictures,14_54_29_21_,dep,1779,html-button-response,494,0,140400,4,control,bim,lightblue,control
14,1826924,LF,labelPictures,41_14_54_50_,tob,1621.35999999009,html-button-response,566,0,140400,4,control,bim,lightblue,control
14,1803477,LF,labelPictures,41_14_54_50_,tob,1477.82000002917,html-button-response,534,0,140400,4,control,bim,lightblue,control
14,1802360,FL,labelPictures,14_10_6_12_,bim,1072.15499999985,html-button-response,494,1,140400,4,control,bim,lightblue,control
14,1828946,FL,labelPictures,41_14_54_50_,tob,1532.7549999929,html-button-response,510,0,140400,4,control,bim,lightblue,control
14,1851604,LF,labelPictures,41_14_54_50_,tob,1050.5650001578,html-button-response,516,0,140400,4,control,bim,lightblue,control
14,1845205,FL,labelPictures,14_10_6_12_,bim,1218.48999999929,html-button-response,594,1,140400,4,control,bim,lightblue,control
14,1846093,LF,labelPictures,41_14_54_50_,tob,1007.90499988943,html-button-response,556,0,140400,4,control,bim,lightblue,control
14,1846093,LF,labelPictures,14_10_6_12_,bim,1107.22499992698,html-button-response,576,1,140400,4,control,bim,lightblue,control
14,1824294,LF,labelPictures,14_10_6_12_,bim,1343,html-button-response,546,1,140400,4,control,bim,lightblue,control
14,1807533,LF,labelPictures,14_10_6_12_,bim,1750.41000009514,html-button-response,502,1,140400,4,control,bim,lightblue,control
14,1845209,LF,labelPictures,41_14_54_50_,tob,2175.19999999786,html-button-response,580,0,140400,4,control,bim,lightblue,control
14,1828989,LF,labelPictures,14_53_10_37_,wug,1787.95999999961,html-button-response,548,0,140400,4,control,bim,lightblue,control
14,1807547,FL,labelPictures,14_10_6_12_,bim,1367.96000000322,html-button-response,492,1,140400,4,control,bim,lightblue,control
14,1845209,LF,labelPictures,14_10_6_12_,bim,2714.50000000186,html-button-response,520,1,140400,4,control,bim,lightblue,control
14,1803558,LF,labelPictures,14_10_6_12_,bim,1674.92000001948,html-button-response,506,1,140400,4,control,bim,lightblue,control
14,1845209,LF,labelPictures,14_53_10_37_,wug,1753.09999999451,html-button-response,564,0,140400,4,control,bim,lightblue,control
14,1852272,LF,labelPictures,14_10_6_12_,bim,2311.22500000487,html-button-response,524,1,140400,4,control,bim,lightblue,control
14,1851575,LF,labelPictures,14_10_6_12_,bim,1391.86500000011,html-button-response,588,1,140400,4,control,bim,lightblue,control
14,1825243,LF,labelPictures,41_14_54_50_,tob,1469.26999998686,html-button-response,546,0,140400,4,control,bim,lightblue,control
14,1839503,FL,labelPictures,14_54_29_21_,dep,2076,html-button-response,582,0,140400,4,control,bim,lightblue,control
14,1839496,FL,labelPictures,41_14_54_50_,tob,1864.11999998381,html-button-response,492,0,140400,4,control,bim,lightblue,control
14,1803486,LF,labelPictures,14_10_6_12_,bim,910.910000093281,html-button-response,520,1,140400,4,control,bim,lightblue,control
14,1828971,FL,labelPictures,14_10_6_12_,bim,2066,html-button-response,486,1,140400,4,control,bim,lightblue,control
14,1800337,FL,labelPictures,14_10_6_12_,bim,999,html-button-response,508,1,140400,4,control,bim,lightblue,control
14,1802093,LF,labelPictures,14_10_6_12_,bim,1769.2049999896,html-button-response,566,1,140400,4,control,bim,lightblue,control
14,1828964,FL,labelPictures,14_10_6_12_,bim,1805.99000000081,html-button-response,558,1,140400,4,control,bim,lightblue,control
14,1807583,LF,labelPictures,14_54_29_21_,dep,3139.63499991223,html-button-response,596,0,140400,4,control,bim,lightblue,control
14,1825230,FL,labelPictures,14_10_6_12_,bim,1047.42000001715,html-button-response,502,1,140400,4,control,bim,lightblue,control
14,1826533,FL,labelPictures,14_10_6_12_,bim,1281.12000017427,html-button-response,532,1,140400,4,control,bim,lightblue,control
14,1825243,LF,labelPictures,14_54_29_21_,dep,3316.66500000574,html-button-response,502,0,140400,4,control,bim,lightblue,control
14,1851568,LF,labelPictures,41_14_54_50_,tob,467.944999996689,html-button-response,522,0,140400,4,control,bim,lightblue,control
14,1823789,LF,labelPictures,14_10_6_12_,bim,2407.40999998525,html-button-response,490,1,140400,4,control,bim,lightblue,control
14,1805884,LF,labelPictures,14_54_29_21_,dep,1424.47000002721,html-button-response,562,0,140400,4,control,bim,lightblue,control
14,1851570,LF,labelPictures,14_10_6_12_,bim,1677.49999999796,html-button-response,512,1,140400,4,control,bim,lightblue,control
14,1802107,FL,labelPictures,14_53_10_37_,wug,2281.53000003658,html-button-response,514,0,140400,4,control,bim,lightblue,control
14,1823745,LF,labelPictures,14_54_29_21_,dep,377.854999998817,html-button-response,548,0,140400,4,control,bim,lightblue,control
14,1800333,LF,labelPictures,14_10_6_12_,bim,1542.52500000072,html-button-response,556,1,140400,4,control,bim,lightblue,control
14,1803477,LF,labelPictures,41_14_54_50_,tob,1410.70500004571,html-button-response,526,0,140400,4,control,bim,lightblue,control
14,1826536,FL,labelPictures,14_10_6_12_,bim,1250.2000000095,html-button-response,578,1,140400,4,control,bim,lightblue,control
14,1798877,LF,labelPictures,14_10_6_12_,bim,970.399999991059,html-button-response,534,1,140400,4,control,bim,lightblue,control
14,1802164,LF,labelPictures,41_14_54_50_,tob,1777.59999999998,html-button-response,586,0,140400,4,control,bim,lightblue,control
14,1803000,FL,labelPictures,41_14_54_50_,tob,973.024999999208,html-button-response,490,0,140400,4,control,bim,lightblue,control
14,1828959,LF,labelPictures,14_10_6_12_,bim,1264.22000001185,html-button-response,556,1,140400,4,control,bim,lightblue,control
14,1845200,LF,labelPictures,14_54_29_21_,dep,1449.30500001647,html-button-response,566,0,140400,4,control,bim,lightblue,control
14,1828947,FL,labelPictures,14_10_6_12_,bim,1106.11499997322,html-button-response,506,1,140400,4,control,bim,lightblue,control
14,1828946,FL,labelPictures,14_54_29_21_,dep,706.405000004452,html-button-response,496,0,140400,4,control,bim,lightblue,control
14,1826962,FL,labelPictures,14_10_6_12_,bim,1030.90000000026,html-button-response,500,1,140400,4,control,bim,lightblue,control
14,1826990,FL,labelPictures,14_10_6_12_,bim,1202.55499996711,html-button-response,550,1,140400,4,control,bim,lightblue,control
14,1827347,FL,labelPictures,14_10_6_12_,bim,1318.09499999508,html-button-response,574,1,140400,4,control,bim,lightblue,control
14,1851566,LF,labelPictures,14_10_6_12_,bim,1550,html-button-response,592,1,140400,4,control,bim,lightblue,control
14,1802985,FL,labelPictures,14_10_6_12_,bim,1838.49999999977,html-button-response,544,1,140400,4,control,bim,lightblue,control
14,1845198,FL,labelPictures,14_10_6_12_,bim,1587.28500000003,html-button-response,584,1,140400,4,control,bim,lightblue,control
14,1802107,FL,labelPictures,14_53_10_37_,wug,1831.51000016369,html-button-response,566,0,140400,4,control,bim,lightblue,control
14,1805815,FL,labelPictures,14_10_6_12_,bim,1134.22999996692,html-button-response,586,1,140400,4,control,bim,lightblue,control
14,1800339,FL,labelPictures,14_54_29_21_,dep,1932.18000000343,html-button-response,538,0,140400,4,control,bim,lightblue,control
14,1826957,FL,labelPictures,14_10_6_12_,bim,2288.39000000153,html-button-response,524,1,140400,4,control,bim,lightblue,control
14,1825237,FL,labelPictures,41_14_54_50_,tob,2327,html-button-response,504,0,140400,4,control,bim,lightblue,control
14,1800351,FL,labelPictures,14_10_6_12_,bim,2834.73499992397,html-button-response,514,1,140400,4,control,bim,lightblue,control
14,1802098,FL,labelPictures,14_10_6_12_,bim,1398.86999991722,html-button-response,542,1,140400,4,control,bim,lightblue,control
14,1852721,LF,labelPictures,14_10_6_12_,bim,1700,html-button-response,510,1,140400,4,control,bim,lightblue,control
14,1826942,FL,labelPictures,14_10_6_12_,bim,1254.28000000108,html-button-response,578,1,140400,4,control,bim,lightblue,control
14,1807546,LF,labelPictures,41_14_54_50_,tob,1138.16500001121,html-button-response,522,0,140400,4,control,bim,lightblue,control
14,1845993,FL,labelPictures,14_10_6_12_,bim,2158.84999994887,html-button-response,526,1,140400,4,control,bim,lightblue,control
14,1805817,FL,labelPictures,14_10_6_12_,bim,1410.83500001696,html-button-response,524,1,140400,4,control,bim,lightblue,control
14,1826939,LF,labelPictures,41_14_54_50_,tob,1818.47500009462,html-button-response,538,0,140400,4,control,bim,lightblue,control
14,1826934,FL,labelPictures,14_10_6_12_,bim,1150.75500000053,html-button-response,516,1,140400,4,control,bim,lightblue,control
14,1828961,FL,labelPictures,14_10_6_12_,bim,1283.99500017986,html-button-response,490,1,140400,4,control,bim,lightblue,control
14,1825232,FL,labelPictures,41_14_54_50_,tob,1711.75000001676,html-button-response,498,0,140400,4,control,bim,lightblue,control
14,1800331,FL,labelPictures,14_10_6_12_,bim,835,html-button-response,544,1,140400,4,control,bim,lightblue,control
14,1852241,LF,labelPictures,14_54_29_21_,dep,1412.00000000006,html-button-response,550,0,140400,4,control,bim,lightblue,control
14,1852241,LF,labelPictures,14_10_6_12_,bim,2075.00000000006,html-button-response,500,1,140400,4,control,bim,lightblue,control
14,1803488,LF,labelPictures,14_54_29_21_,dep,1811.96500000078,html-button-response,518,0,140400,4,control,bim,lightblue,control
14,1851566,LF,labelPictures,41_14_54_50_,tob,972,html-button-response,584,0,140400,4,control,bim,lightblue,control
14,1803475,LF,labelPictures,14_10_6_12_,bim,1457.3650000093,html-button-response,532,1,140400,4,control,bim,lightblue,control
14,1800346,LF,labelPictures,14_10_6_12_,bim,1361,html-button-response,516,1,140400,4,control,bim,lightblue,control
14,1802184,FL,labelPictures,14_54_29_21_,dep,2423.99999999907,html-button-response,518,0,140400,4,control,bim,lightblue,control
14,1845984,LF,labelPictures,14_10_6_12_,bim,1615.10500000441,html-button-response,504,1,140400,4,control,bim,lightblue,control
14,1828989,LF,labelPictures,41_14_54_50_,tob,934.720000000205,html-button-response,536,0,140400,4,control,bim,lightblue,control
14,1802107,FL,labelPictures,14_10_6_12_,bim,2514.20000009239,html-button-response,502,1,140400,4,control,bim,lightblue,control
14,1807535,FL,labelPictures,14_10_6_12_,bim,1345,html-button-response,494,1,140400,4,control,bim,lightblue,control
14,1802984,LF,labelPictures,14_10_6_12_,bim,1217.63500000816,html-button-response,546,1,140400,4,control,bim,lightblue,control
14,1828965,LF,labelPictures,14_10_6_12_,bim,2558.02500000573,html-button-response,534,1,140400,4,control,bim,lightblue,control
14,1803482,LF,labelPictures,14_54_29_21_,dep,2414.29500002414,html-button-response,520,0,140400,4,control,bim,lightblue,control
14,1802108,LF,labelPictures,14_10_6_12_,bim,1402,html-button-response,564,1,140400,4,control,bim,lightblue,control
14,1826950,LF,labelPictures,14_10_6_12_,bim,2132.95999995898,html-button-response,556,1,140400,4,control,bim,lightblue,control
14,1800338,FL,labelPictures,14_10_6_12_,bim,1272.35000004293,html-button-response,530,1,140400,4,control,bim,lightblue,control
14,1826947,FL,labelPictures,14_53_10_37_,wug,749.529999913648,html-button-response,522,0,140400,4,control,bim,lightblue,control
14,1824046,FL,labelPictures,14_54_29_21_,dep,1364.21999998856,html-button-response,570,0,140400,4,control,bim,lightblue,control
14,1851574,LF,labelPictures,14_10_6_12_,bim,2193.6449999921,html-button-response,560,1,140400,4,control,bim,lightblue,control
14,1802982,FL,labelPictures,14_10_6_12_,bim,1542.13000000163,html-button-response,546,1,140400,4,control,bim,lightblue,control
14,1824285,LF,labelPictures,14_54_29_21_,dep,1539.1399999971,html-button-response,578,0,140400,4,control,bim,lightblue,control
14,1825229,FL,labelPictures,41_14_54_50_,tob,1615,html-button-response,566,0,140400,4,control,bim,lightblue,control
14,1800339,FL,labelPictures,14_10_6_12_,bim,1909.76999996928,html-button-response,580,1,140400,4,control,bim,lightblue,control
14,1803466,LF,labelPictures,14_10_6_12_,bim,2551.85500002699,html-button-response,556,1,140400,4,control,bim,lightblue,control
14,1852720,LF,labelPictures,41_14_54_50_,tob,1710.52000002237,html-button-response,564,0,140400,4,control,bim,lightblue,control
14,1802094,FL,labelPictures,14_10_6_12_,bim,1190.3249999996,html-button-response,586,1,140400,4,control,bim,lightblue,control
14,1827036,LF,labelPictures,14_10_6_12_,bim,1020,html-button-response,516,1,140400,4,control,bim,lightblue,control
14,1803017,LF,labelPictures,14_10_6_12_,bim,1150.54500009865,html-button-response,560,1,140400,4,control,bim,lightblue,control
14,1807538,FL,labelPictures,14_10_6_12_,bim,1408.5750002414,html-button-response,514,1,140400,4,control,bim,lightblue,control
14,1802100,LF,labelPictures,14_10_6_12_,bim,1492.40499996813,html-button-response,492,1,140400,4,control,bim,lightblue,control
14,1800330,LF,labelPictures,14_10_6_12_,bim,1562.01499979943,html-button-response,572,1,140400,4,control,bim,lightblue,control
14,1823763,FL,labelPictures,14_10_6_12_,bim,1720.24000005331,html-button-response,530,1,140400,4,control,bim,lightblue,control
14,1802118,FL,labelPictures,14_10_6_12_,bim,3095.63499999791,html-button-response,528,1,140400,4,control,bim,lightblue,control
14,1802987,LF,labelPictures,14_10_6_12_,bim,1021.8949999999,html-button-response,502,1,140400,4,control,bim,lightblue,control
14,1851567,LF,labelPictures,41_14_54_50_,tob,519.545000002836,html-button-response,528,0,140400,4,control,bim,lightblue,control
14,1825225,LF,labelPictures,14_10_6_12_,bim,1414.5000000135,html-button-response,578,1,140400,4,control,bim,lightblue,control
14,1824046,FL,labelPictures,14_10_6_12_,bim,2779.98500003014,html-button-response,566,1,140400,4,control,bim,lightblue,control
14,1839503,FL,labelPictures,14_10_6_12_,bim,2664,html-button-response,508,1,140400,4,control,bim,lightblue,control
14,1823768,LF,labelPictures,14_10_6_12_,bim,1353.56500000122,html-button-response,520,1,140400,4,control,bim,lightblue,control
14,1803486,LF,labelPictures,14_53_10_37_,wug,1263.26999999583,html-button-response,570,0,140400,4,control,bim,lightblue,control
14,1823770,FL,labelPictures,14_10_6_12_,bim,1421,html-button-response,518,1,140400,4,control,bim,lightblue,control
14,1826947,FL,labelPictures,41_14_54_50_,tob,836.730000097305,html-button-response,592,0,140400,4,control,bim,lightblue,control
14,1802117,LF,labelPictures,14_10_6_12_,bim,1281,html-button-response,592,1,140400,4,control,bim,lightblue,control
14,1851782,LF,labelPictures,14_53_10_37_,wug,1244.78000000818,html-button-response,530,0,140400,4,control,bim,lightblue,control
14,1852272,LF,labelPictures,14_53_10_37_,wug,3181.64500000421,html-button-response,492,0,140400,4,control,bim,lightblue,control
14,1852726,LF,labelPictures,14_10_6_12_,bim,1054.77000001702,html-button-response,506,1,140400,4,control,bim,lightblue,control
14,1807534,LF,labelPictures,14_10_6_12_,bim,1576.73500000965,html-button-response,558,1,140400,4,control,bim,lightblue,control
14,1828957,LF,labelPictures,14_10_6_12_,bim,998.964999977034,html-button-response,580,1,140400,4,control,bim,lightblue,control
14,1845981,LF,labelPictures,41_14_54_50_,tob,645.170000003418,html-button-response,570,0,140400,4,control,bim,lightblue,control
14,1839506,FL,labelPictures,14_10_6_12_,bim,1021.56499994453,html-button-response,566,1,140400,4,control,bim,lightblue,control
14,1825232,FL,labelPictures,14_53_10_37_,wug,1874.59500000114,html-button-response,512,0,140400,4,control,bim,lightblue,control
14,1839564,LF,labelPictures,41_14_54_50_,tob,1995,html-button-response,572,0,140400,4,control,bim,lightblue,control
14,1826960,LF,labelPictures,14_10_6_12_,bim,1881.69499998912,html-button-response,540,1,140400,4,control,bim,lightblue,control
14,1800339,FL,labelPictures,14_54_29_21_,dep,2129.59999998566,html-button-response,532,0,140400,4,control,bim,lightblue,control
14,1803484,FL,labelPictures,41_14_54_50_,tob,1286.31999995559,html-button-response,542,0,140400,4,control,bim,lightblue,control
14,1803465,FL,labelPictures,14_10_6_12_,bim,2511.24000002164,html-button-response,572,1,140400,4,control,bim,lightblue,control
14,1803558,LF,labelPictures,41_14_54_50_,tob,1209.86000000266,html-button-response,584,0,140400,4,control,bim,lightblue,control
14,1826984,FL,labelPictures,14_10_6_12_,bim,1424.43000001367,html-button-response,596,1,140400,4,control,bim,lightblue,control
14,1803478,LF,labelPictures,14_10_6_12_,bim,1597.71999999974,html-button-response,538,1,140400,4,control,bim,lightblue,control
14,1805816,LF,labelPictures,14_10_6_12_,bim,1044.59000000497,html-button-response,560,1,140400,4,control,bim,lightblue,control
14,1852720,LF,labelPictures,14_10_6_12_,bim,3298.95500000566,html-button-response,522,1,140400,4,control,bim,lightblue,control
14,1823745,LF,labelPictures,14_53_10_37_,wug,169.309999997495,html-button-response,562,0,140400,4,control,bim,lightblue,control
14,1828952,FL,labelPictures,14_10_6_12_,bim,2000.44499999785,html-button-response,594,1,140400,4,control,bim,lightblue,control
14,1823770,FL,labelPictures,14_10_6_12_,bim,1461,html-button-response,546,1,140400,4,control,bim,lightblue,control
14,1805884,LF,labelPictures,14_10_6_12_,bim,2875.31500001205,html-button-response,524,1,140400,4,control,bim,lightblue,control
14,1826534,FL,labelPictures,14_10_6_12_,bim,1868.0549999699,html-button-response,580,1,140400,4,control,bim,lightblue,control
14,1824285,LF,labelPictures,14_54_29_21_,dep,1141.88500000094,html-button-response,564,0,140400,4,control,bim,lightblue,control
14,1807562,FL,labelPictures,14_10_6_12_,bim,1073.85499984957,html-button-response,556,1,140400,4,control,bim,lightblue,control
14,1839500,LF,labelPictures,14_10_6_12_,bim,1149.96000006795,html-button-response,518,1,140400,4,control,bim,lightblue,control
14,1802164,LF,labelPictures,41_14_54_50_,tob,1733.00000000023,html-button-response,572,0,140400,4,control,bim,lightblue,control
14,1851570,LF,labelPictures,14_54_29_21_,dep,2394.01999999973,html-button-response,522,0,140400,4,control,bim,lightblue,control
14,1845983,FL,labelPictures,14_10_6_12_,bim,1526,html-button-response,594,1,140400,4,control,bim,lightblue,control
14,1845981,LF,labelPictures,14_10_6_12_,bim,2679.81499998132,html-button-response,502,1,140400,4,control,bim,lightblue,control
14,1824290,FL,labelPictures,14_10_6_12_,bim,1608.41499996604,html-button-response,496,1,140400,4,control,bim,lightblue,control
14,1802088,FL,labelPictures,14_10_6_12_,bim,1705.01500000129,html-button-response,532,1,140400,4,control,bim,lightblue,control
14,1803558,LF,labelPictures,14_53_10_37_,wug,1741.38500000117,html-button-response,548,0,140400,4,control,bim,lightblue,control
14,1807532,FL,labelPictures,41_14_54_50_,tob,806.999999996973,html-button-response,566,0,140400,4,control,bim,lightblue,control
14,1845196,LF,labelPictures,14_10_6_12_,bim,918.559999998193,html-button-response,550,1,140400,4,control,bim,lightblue,control
14,1851573,LF,labelPictures,14_10_6_12_,bim,782.240000000456,html-button-response,516,1,140400,4,control,bim,lightblue,control
14,1802995,LF,labelPictures,14_10_6_12_,bim,2402.31499999925,html-button-response,502,1,140400,4,control,bim,lightblue,control
14,1845982,FL,labelPictures,41_14_54_50_,tob,863.999999999942,html-button-response,544,0,140400,4,control,bim,lightblue,control
14,1826948,FL,labelPictures,14_10_6_12_,bim,1083.53000000352,html-button-response,490,1,140400,4,control,bim,lightblue,control
14,1807535,FL,labelPictures,41_14_54_50_,tob,1317,html-button-response,570,0,140400,4,control,bim,lightblue,control
14,1803026,FL,labelPictures,14_10_6_12_,bim,3153.00499997102,html-button-response,568,1,140400,4,control,bim,lightblue,control
14,1828946,FL,labelPictures,41_14_54_50_,tob,793.754999991506,html-button-response,564,0,140400,4,control,bim,lightblue,control
14,1826939,LF,labelPictures,41_14_54_50_,tob,2428.76500007696,html-button-response,564,0,140400,4,control,bim,lightblue,control
14,1807583,LF,labelPictures,14_10_6_12_,bim,2155.31999990344,html-button-response,500,1,140400,4,control,bim,lightblue,control
14,1829030,FL,labelPictures,14_10_6_12_,bim,1369.52500000189,html-button-response,568,1,140400,4,control,bim,lightblue,control
14,1826938,LF,labelPictures,14_10_6_12_,bim,1683.30000003334,html-button-response,502,1,140400,4,control,bim,lightblue,control
14,1802107,FL,labelPictures,14_54_29_21_,dep,2676.37500003912,html-button-response,552,0,140400,4,control,bim,lightblue,control
14,1798885,LF,labelPictures,41_14_54_50_,tob,3044.7999999742,html-button-response,524,0,140400,4,control,bim,lightblue,control
14,1839499,FL,labelPictures,14_10_6_12_,bim,1140.71999999945,html-button-response,500,1,140400,4,control,bim,lightblue,control
14,1803000,FL,labelPictures,14_53_10_37_,wug,3326.39499999641,html-button-response,578,0,140400,4,control,bim,lightblue,control
14,1845228,FL,labelPictures,14_10_6_12_,bim,2288.21500000049,html-button-response,488,1,140400,4,control,bim,lightblue,control
14,1805884,LF,labelPictures,41_14_54_50_,tob,1672.675000038,html-button-response,570,0,140400,4,control,bim,lightblue,control
