fribbleID,subjID,learning,task,label,rt,resp,plugin,trialIndex,acc,fribbleFeatures,correctCategory,correctFrequency,correctLabel,body,trialType
1,1798900,FL,pictureLabels,tobdepwugbim,3443.10000000405,dep,image-button-response,486,1,10375,3,high,dep,blue,exp
1,1803472,FL,pictureLabels,tobdepwugbim,1762.83999999589,dep,image-button-response,486,1,10375,3,high,dep,blue,exp
1,1826954,LF,pictureLabels,tobdepwugbim,1910,dep,image-button-response,486,1,10375,3,high,dep,blue,exp
1,1829020,FL,pictureLabels,tobdepwugbim,2555,dep,image-button-response,486,1,10375,3,high,dep,blue,exp
1,1846359,FL,pictureLabels,tobdepwugbim,NA,NA,image-button-response,486,NA,10375,3,high,dep,blue,exp
1,1826937,LF,pictureLabels,tobdepwugbim,1720,dep,image-button-response,486,1,10375,3,high,dep,blue,exp
1,1825226,LF,pictureLabels,tobdepwugbim,2934.40999998711,dep,image-button-response,486,1,10375,3,high,dep,blue,exp
1,1824300,FL,pictureLabels,tobdepwugbim,1875.03499997547,dep,image-button-response,486,1,10375,3,high,dep,blue,exp
1,1810084,LF,pictureLabels,tobdepwugbim,1353.81000000052,tob,image-button-response,486,0,10375,3,high,dep,blue,exp
1,1799963,FL,pictureLabels,tobdepwugbim,1551.7300000065,dep,image-button-response,486,1,10375,3,high,dep,blue,exp
1,1803469,FL,pictureLabels,tobdepwugbim,3497.04000000202,wug,image-button-response,486,0,10375,3,high,dep,blue,exp
1,1826930,LF,pictureLabels,tobdepwugbim,1317.93999997899,dep,image-button-response,486,1,10375,3,high,dep,blue,exp
1,1828953,FL,pictureLabels,tobdepwugbim,2278.78000000055,dep,image-button-response,486,1,10375,3,high,dep,blue,exp
1,1846353,FL,pictureLabels,tobdepwugbim,1984,dep,image-button-response,486,1,10375,3,high,dep,blue,exp
1,1826929,LF,pictureLabels,tobdepwugbim,2103,dep,image-button-response,486,1,10375,3,high,dep,blue,exp
1,1824287,LF,pictureLabels,tobdepwugbim,NA,NA,image-button-response,486,NA,10375,3,high,dep,blue,exp
1,1823786,FL,pictureLabels,tobdepwugbim,1749.1750000008,dep,image-button-response,486,1,10375,3,high,dep,blue,exp
1,1800335,LF,pictureLabels,tobdepwugbim,3067.48500000685,dep,image-button-response,486,1,10375,3,high,dep,blue,exp
1,1800348,FL,pictureLabels,tobdepwugbim,2024.32500000577,bim,image-button-response,486,0,10375,3,high,dep,blue,exp
1,1803489,FL,pictureLabels,tobdepwugbim,1753,dep,image-button-response,486,1,10375,3,high,dep,blue,exp
1,1846355,FL,pictureLabels,tobdepwugbim,NA,NA,image-button-response,486,NA,10375,3,high,dep,blue,exp
1,1851493,FL,pictureLabels,tobdepwugbim,NA,NA,image-button-response,486,NA,10375,3,high,dep,blue,exp
1,1846262,LF,pictureLabels,tobdepwugbim,1592.75499987416,dep,image-button-response,486,1,10375,3,high,dep,blue,exp
1,1826538,LF,pictureLabels,tobdepwugbim,1790.53499997826,dep,image-button-response,486,1,10375,3,high,dep,blue,exp
1,1846250,FL,pictureLabels,tobdepwugbim,1433.99499999941,dep,image-button-response,486,1,10375,3,high,dep,blue,exp
1,1823744,FL,pictureLabels,tobdepwugbim,1549.04499999247,wug,image-button-response,486,0,10375,3,high,dep,blue,exp
1,1802216,LF,pictureLabels,tobdepwugbim,2714,dep,image-button-response,486,1,10375,3,high,dep,blue,exp
1,1802104,FL,pictureLabels,tobdepwugbim,2412.09499980323,dep,image-button-response,486,1,10375,3,high,dep,blue,exp
1,1803490,FL,pictureLabels,tobdepwugbim,2339.24500001012,dep,image-button-response,486,1,10375,3,high,dep,blue,exp
1,1846354,FL,pictureLabels,tobdepwugbim,NA,NA,image-button-response,486,NA,10375,3,high,dep,blue,exp
1,1826928,LF,pictureLabels,tobdepwugbim,NA,NA,image-button-response,486,NA,10375,3,high,dep,blue,exp
1,1824288,LF,pictureLabels,tobdepwugbim,2088,dep,image-button-response,486,1,10375,3,high,dep,blue,exp
1,1845195,LF,pictureLabels,tobdepwugbim,2267.56000000751,dep,image-button-response,486,1,10375,3,high,dep,blue,exp
1,1826988,LF,pictureLabels,tobdepwugbim,1892.47000000067,dep,image-button-response,486,1,10375,3,high,dep,blue,exp
1,1845201,FL,pictureLabels,tobdepwugbim,2091.54000005219,dep,image-button-response,486,1,10375,3,high,dep,blue,exp
1,1826532,FL,pictureLabels,tobdepwugbim,NA,NA,image-button-response,486,NA,10375,3,high,dep,blue,exp
1,1803468,LF,pictureLabels,tobdepwugbim,1243.04500001017,dep,image-button-response,486,1,10375,3,high,dep,blue,exp
1,1800334,LF,pictureLabels,tobdepwugbim,1743,wug,image-button-response,486,0,10375,3,high,dep,blue,exp
1,1803487,FL,pictureLabels,tobdepwugbim,3367.08999995608,dep,image-button-response,486,1,10375,3,high,dep,blue,exp
1,1802991,FL,pictureLabels,tobdepwugbim,1310.27000001632,dep,image-button-response,486,1,10375,3,high,dep,blue,exp
1,1823753,LF,pictureLabels,tobdepwugbim,1775.5500000203,dep,image-button-response,486,1,10375,3,high,dep,blue,exp
1,1839497,LF,pictureLabels,tobdepwugbim,1670.84500007331,dep,image-button-response,486,1,10375,3,high,dep,blue,exp
1,1802161,LF,pictureLabels,tobdepwugbim,2200.29999999865,dep,image-button-response,486,1,10375,3,high,dep,blue,exp
1,1802095,FL,pictureLabels,tobdepwugbim,2183.77000000328,tob,image-button-response,486,0,10375,3,high,dep,blue,exp
1,1825290,FL,pictureLabels,tobdepwugbim,2575.19499998307,wug,image-button-response,486,0,10375,3,high,dep,blue,exp
1,1803474,LF,pictureLabels,tobdepwugbim,2348.09999999998,bim,image-button-response,486,0,10375,3,high,dep,blue,exp
1,1800336,LF,pictureLabels,tobdepwugbim,1926.22500000289,bim,image-button-response,486,0,10375,3,high,dep,blue,exp
1,1803473,FL,pictureLabels,tobdepwugbim,NA,NA,image-button-response,486,NA,10375,3,high,dep,blue,exp
1,1802986,FL,pictureLabels,tobdepwugbim,1414,dep,image-button-response,486,1,10375,3,high,dep,blue,exp
1,1827024,LF,pictureLabels,tobdepwugbim,NA,NA,image-button-response,486,NA,10375,3,high,dep,blue,exp
1,1829239,LF,pictureLabels,tobdepwugbim,2992.6100000157,wug,image-button-response,486,0,10375,3,high,dep,blue,exp
1,1826935,FL,pictureLabels,tobdepwugbim,1968,wug,image-button-response,486,0,10375,3,high,dep,blue,exp
1,1802429,LF,pictureLabels,tobdepwugbim,2318.299999999,dep,image-button-response,486,1,10375,3,high,dep,blue,exp
1,1825233,FL,pictureLabels,tobdepwugbim,NA,NA,image-button-response,486,NA,10375,3,high,dep,blue,exp
1,1803023,LF,pictureLabels,tobdepwugbim,1714.23499996308,wug,image-button-response,486,0,10375,3,high,dep,blue,exp
1,1798890,FL,pictureLabels,tobdepwugbim,1507.48000000021,dep,image-button-response,486,1,10375,3,high,dep,blue,exp
1,1800478,FL,pictureLabels,tobdepwugbim,2977.75499999989,wug,image-button-response,486,0,10375,3,high,dep,blue,exp
1,1802998,FL,pictureLabels,tobdepwugbim,1275.27499990538,dep,image-button-response,486,1,10375,3,high,dep,blue,exp
1,1826983,LF,pictureLabels,tobdepwugbim,2349.38500000862,wug,image-button-response,486,0,10375,3,high,dep,blue,exp
1,1839507,FL,pictureLabels,tobdepwugbim,NA,NA,image-button-response,486,NA,10375,3,high,dep,blue,exp
1,1826550,FL,pictureLabels,tobdepwugbim,3052.82500000251,dep,image-button-response,486,1,10375,3,high,dep,blue,exp
1,1826940,LF,pictureLabels,tobdepwugbim,2546.84999980964,wug,image-button-response,486,0,10375,3,high,dep,blue,exp
1,1825240,LF,pictureLabels,tobdepwugbim,2255.73500001337,dep,image-button-response,486,1,10375,3,high,dep,blue,exp
1,1824292,FL,pictureLabels,tobdepwugbim,1678.46500000451,dep,image-button-response,486,1,10375,3,high,dep,blue,exp
1,1810091,LF,pictureLabels,tobdepwugbim,NA,NA,image-button-response,486,NA,10375,3,high,dep,blue,exp
1,1799788,FL,pictureLabels,tobdepwugbim,2492.86000000034,dep,image-button-response,486,1,10375,3,high,dep,blue,exp
1,1803471,FL,pictureLabels,tobdepwugbim,2016.00000000047,dep,image-button-response,486,1,10375,3,high,dep,blue,exp
1,1826945,LF,pictureLabels,tobdepwugbim,3460.00500000082,bim,image-button-response,486,0,10375,3,high,dep,blue,exp
1,1828954,FL,pictureLabels,tobdepwugbim,3174.75999999989,dep,image-button-response,486,1,10375,3,high,dep,blue,exp
1,1825248,FL,pictureLabels,tobdepwugbim,2339.13999999641,dep,image-button-response,486,1,10375,3,high,dep,blue,exp
1,1803039,LF,pictureLabels,tobdepwugbim,2287.80499997083,bim,image-button-response,486,0,10375,3,high,dep,blue,exp
1,1799783,LF,pictureLabels,tobdepwugbim,2113.20500005968,wug,image-button-response,486,0,10375,3,high,dep,blue,exp
1,1824284,FL,pictureLabels,tobdepwugbim,1009.56499995664,wug,image-button-response,486,0,10375,3,high,dep,blue,exp
1,1799781,LF,pictureLabels,tobdepwugbim,1196,tob,image-button-response,486,0,10375,3,high,dep,blue,exp
1,1800341,FL,pictureLabels,tobdepwugbim,1630.95000000612,dep,image-button-response,486,1,10375,3,high,dep,blue,exp
1,1803485,FL,pictureLabels,tobdepwugbim,2549.31999999098,dep,image-button-response,486,1,10375,3,high,dep,blue,exp
1,1846365,FL,pictureLabels,tobdepwugbim,2276.38500000001,wug,image-button-response,486,0,10375,3,high,dep,blue,exp
1,1826931,LF,pictureLabels,tobdepwugbim,1665,bim,image-button-response,486,0,10375,3,high,dep,blue,exp
1,1846352,FL,pictureLabels,tobdepwugbim,1554.48500020429,wug,image-button-response,486,0,10375,3,high,dep,blue,exp
1,1826535,LF,pictureLabels,tobdepwugbim,2046.49499990046,wug,image-button-response,486,0,10375,3,high,dep,blue,exp
1,1810086,LF,pictureLabels,tobdepwugbim,2632.15499999933,dep,image-button-response,486,1,10375,3,high,dep,blue,exp
1,1823741,FL,pictureLabels,tobdepwugbim,1792,tob,image-button-response,486,0,10375,3,high,dep,blue,exp
1,1802993,LF,pictureLabels,tobdepwugbim,1500.10000000475,wug,image-button-response,486,0,10375,3,high,dep,blue,exp
1,1846376,FL,pictureLabels,tobdepwugbim,2603.00000000279,dep,image-button-response,486,1,10375,3,high,dep,blue,exp
1,1803483,FL,pictureLabels,tobdepwugbim,1587.91999984533,dep,image-button-response,486,1,10375,3,high,dep,blue,exp
1,1825250,LF,pictureLabels,tobdepwugbim,2083.59981105849,dep,image-button-response,486,1,10375,3,high,dep,blue,exp
1,1851422,FL,pictureLabels,tobdepwugbim,1669.58500002511,dep,image-button-response,486,1,10375,3,high,dep,blue,exp
1,1828951,LF,pictureLabels,tobdepwugbim,2573.66999983788,dep,image-button-response,486,1,10375,3,high,dep,blue,exp
1,1846243,LF,pictureLabels,tobdepwugbim,1488.89500000048,wug,image-button-response,486,0,10375,3,high,dep,blue,exp
1,1827017,FL,pictureLabels,tobdepwugbim,3106.39999998966,dep,image-button-response,486,1,10375,3,high,dep,blue,exp
1,1845206,FL,pictureLabels,tobdepwugbim,2865,wug,image-button-response,486,0,10375,3,high,dep,blue,exp
1,1802988,LF,pictureLabels,tobdepwugbim,1564.78999997489,dep,image-button-response,486,1,10375,3,high,dep,blue,exp
1,1846372,FL,pictureLabels,tobdepwugbim,3441.5000000007,dep,image-button-response,486,1,10375,3,high,dep,blue,exp
1,1802092,LF,pictureLabels,tobdepwugbim,983,dep,image-button-response,486,1,10375,3,high,dep,blue,exp
1,1803481,FL,pictureLabels,tobdepwugbim,1155.17499999987,dep,image-button-response,486,1,10375,3,high,dep,blue,exp
1,1802124,FL,pictureLabels,tobdepwugbim,3245.83999998868,dep,image-button-response,486,1,10375,3,high,dep,blue,exp
1,1827397,LF,pictureLabels,tobdepwugbim,NA,NA,image-button-response,486,NA,10375,3,high,dep,blue,exp
1,1845203,LF,pictureLabels,tobdepwugbim,2409.58000003593,dep,image-button-response,486,1,10375,3,high,dep,blue,exp
1,1826951,FL,pictureLabels,tobdepwugbim,NA,NA,image-button-response,486,NA,10375,3,high,dep,blue,exp
1,1802109,FL,pictureLabels,tobdepwugbim,2474.0949999541,dep,image-button-response,486,1,10375,3,high,dep,blue,exp
1,1802089,LF,pictureLabels,tobdepwugbim,1691.31999998353,wug,image-button-response,486,0,10375,3,high,dep,blue,exp
1,1803470,LF,pictureLabels,tobdepwugbim,1186.09000000288,dep,image-button-response,486,1,10375,3,high,dep,blue,exp
1,1800332,LF,pictureLabels,tobdepwugbim,3001.25000000116,dep,image-button-response,486,1,10375,3,high,dep,blue,exp
1,1803476,FL,pictureLabels,tobdepwugbim,2429.97000000102,tob,image-button-response,486,0,10375,3,high,dep,blue,exp
1,1802990,FL,pictureLabels,tobdepwugbim,3146.79999999498,tob,image-button-response,486,0,10375,3,high,dep,blue,exp
1,1827042,LF,pictureLabels,tobdepwugbim,2282.03000000212,dep,image-button-response,486,1,10375,3,high,dep,blue,exp
1,1839495,LF,pictureLabels,tobdepwugbim,2151.06000000011,dep,image-button-response,486,1,10375,3,high,dep,blue,exp
1,1826943,FL,pictureLabels,tobdepwugbim,1738.51000005379,dep,image-button-response,486,1,10375,3,high,dep,blue,exp
1,1846363,FL,pictureLabels,tobdepwugbim,2327.33499999449,dep,image-button-response,486,1,10375,3,high,dep,blue,exp
1,1802091,LF,pictureLabels,tobdepwugbim,1939.46000000049,dep,image-button-response,486,1,10375,3,high,dep,blue,exp
1,1825241,LF,pictureLabels,tobdepwugbim,3347.36000001431,dep,image-button-response,486,1,10375,3,high,dep,blue,exp
1,1825254,LF,pictureLabels,tobdepwugbim,NA,NA,image-button-response,486,NA,10375,3,high,dep,blue,exp
1,1802102,LF,pictureLabels,tobdepwugbim,NA,NA,image-button-response,486,NA,10375,3,high,dep,blue,exp
1,1802989,FL,pictureLabels,tobdepwugbim,1653.16999999777,tob,image-button-response,486,0,10375,3,high,dep,blue,exp
1,1851423,FL,pictureLabels,tobdepwugbim,2995.09000000037,wug,image-button-response,486,0,10375,3,high,dep,blue,exp
1,1825234,FL,pictureLabels,tobdepwugbim,3400,wug,image-button-response,486,0,10375,3,high,dep,blue,exp
1,1826537,LF,pictureLabels,tobdepwugbim,2741.73000000883,wug,image-button-response,486,0,10375,3,high,dep,blue,exp
1,1851428,FL,pictureLabels,tobdepwugbim,3277.06999999646,tob,image-button-response,486,0,10375,3,high,dep,blue,exp
1,1825235,LF,pictureLabels,tobdepwugbim,2284,wug,image-button-response,486,0,10375,3,high,dep,blue,exp
1,1826949,FL,pictureLabels,tobdepwugbim,NA,NA,image-button-response,486,NA,10375,3,high,dep,blue,exp
1,1828972,LF,pictureLabels,tobdepwugbim,1477.90000000165,tob,image-button-response,486,0,10375,3,high,dep,blue,exp
1,1799599,FL,pictureLabels,tobdepwugbim,3116.07000000007,dep,image-button-response,486,1,10375,3,high,dep,blue,exp
1,1827354,LF,pictureLabels,tobdepwugbim,NA,NA,image-button-response,486,NA,10375,3,high,dep,blue,exp
1,1810315,LF,pictureLabels,tobdepwugbim,NA,NA,image-button-response,486,NA,10375,3,high,dep,blue,exp
1,1826969,FL,pictureLabels,tobdepwugbim,1317.61500006542,dep,image-button-response,486,1,10375,3,high,dep,blue,exp
1,1827017,FL,pictureLabels,tobdepwugbim,NA,NA,image-button-response,486,NA,10375,3,high,dep,blue,exp
1,1828956,LF,pictureLabels,tobdepwugbim,1618.0400000012,wug,image-button-response,486,0,10375,3,high,dep,blue,exp
1,1810094,LF,pictureLabels,tobdepwugbim,2201.66000002064,dep,image-button-response,486,1,10375,3,high,dep,blue,exp
1,1826539,LF,pictureLabels,tobdepwugbim,1844.10500002559,wug,image-button-response,486,0,10375,3,high,dep,blue,exp
1,1827166,FL,pictureLabels,tobdepwugbim,2851,dep,image-button-response,486,1,10375,3,high,dep,blue,exp
1,1828958,LF,pictureLabels,tobdepwugbim,3291.06499999948,dep,image-button-response,486,1,10375,3,high,dep,blue,exp
1,1810097,LF,pictureLabels,tobdepwugbim,1619.3899998907,wug,image-button-response,486,0,10375,3,high,dep,blue,exp
1,1810079,LF,pictureLabels,tobdepwugbim,2616.36500002351,dep,image-button-response,486,1,10375,3,high,dep,blue,exp
1,1825238,LF,pictureLabels,tobdepwugbim,1790.94500000065,wug,image-button-response,486,0,10375,3,high,dep,blue,exp
1,1802114,LF,pictureLabels,tobdepwugbim,2093,dep,image-button-response,486,1,10375,3,high,dep,blue,exp
1,1810080,LF,pictureLabels,tobdepwugbim,2743.33500000648,wug,image-button-response,486,0,10375,3,high,dep,blue,exp
1,1810112,LF,pictureLabels,tobdepwugbim,2321.724999998,dep,image-button-response,486,1,10375,3,high,dep,blue,exp
1,1802992,LF,pictureLabels,tobdepwugbim,2338.67000002647,dep,image-button-response,486,1,10375,3,high,dep,blue,exp
10,1803039,LF,pictureLabels,tobdepwugbim,860.104999970645,wug,image-button-response,504,1,100275,2,high,wug,purple,exp
10,1851493,FL,pictureLabels,tobdepwugbim,1342.85000000003,wug,image-button-response,504,1,100275,2,high,wug,purple,exp
10,1846352,FL,pictureLabels,tobdepwugbim,953.575000166893,wug,image-button-response,504,1,100275,2,high,wug,purple,exp
10,1803474,LF,pictureLabels,tobdepwugbim,2415.09999999998,tob,image-button-response,504,0,100275,2,high,wug,purple,exp
10,1826949,FL,pictureLabels,tobdepwugbim,3113.42000006698,wug,image-button-response,504,1,100275,2,high,wug,purple,exp
10,1825250,LF,pictureLabels,tobdepwugbim,1471.10014616157,wug,image-button-response,504,1,100275,2,high,wug,purple,exp
10,1826943,FL,pictureLabels,tobdepwugbim,1261.07499992941,tob,image-button-response,504,0,100275,2,high,wug,purple,exp
10,1828972,LF,pictureLabels,tobdepwugbim,2479.10000000044,bim,image-button-response,504,0,100275,2,high,wug,purple,exp
10,1802161,LF,pictureLabels,tobdepwugbim,1787.39999999921,wug,image-button-response,504,1,100275,2,high,wug,purple,exp
10,1810086,LF,pictureLabels,tobdepwugbim,1053.25999995694,wug,image-button-response,504,1,100275,2,high,wug,purple,exp
10,1823753,LF,pictureLabels,tobdepwugbim,1217.09000004921,wug,image-button-response,504,1,100275,2,high,wug,purple,exp
10,1829239,LF,pictureLabels,tobdepwugbim,1974.32999999728,wug,image-button-response,504,1,100275,2,high,wug,purple,exp
10,1824287,LF,pictureLabels,tobdepwugbim,1100,tob,image-button-response,504,0,100275,2,high,wug,purple,exp
10,1846262,LF,pictureLabels,tobdepwugbim,1384.98999993317,wug,image-button-response,504,1,100275,2,high,wug,purple,exp
10,1839495,LF,pictureLabels,tobdepwugbim,532.715000001132,wug,image-button-response,504,1,100275,2,high,wug,purple,exp
10,1824288,LF,pictureLabels,tobdepwugbim,1057,wug,image-button-response,504,1,100275,2,high,wug,purple,exp
10,1846354,FL,pictureLabels,tobdepwugbim,1230.66000000108,wug,image-button-response,504,1,100275,2,high,wug,purple,exp
10,1799781,LF,pictureLabels,tobdepwugbim,1115,tob,image-button-response,504,0,100275,2,high,wug,purple,exp
10,1803490,FL,pictureLabels,tobdepwugbim,1778.34999997867,tob,image-button-response,504,0,100275,2,high,wug,purple,exp
10,1825240,LF,pictureLabels,tobdepwugbim,1222.45000000112,wug,image-button-response,504,1,100275,2,high,wug,purple,exp
10,1803023,LF,pictureLabels,tobdepwugbim,1934.76000003284,tob,image-button-response,504,0,100275,2,high,wug,purple,exp
10,1825235,LF,pictureLabels,tobdepwugbim,1241,wug,image-button-response,504,1,100275,2,high,wug,purple,exp
10,1826931,LF,pictureLabels,tobdepwugbim,991,dep,image-button-response,504,0,100275,2,high,wug,purple,exp
10,1827042,LF,pictureLabels,tobdepwugbim,1570.73999999557,wug,image-button-response,504,1,100275,2,high,wug,purple,exp
10,1810080,LF,pictureLabels,tobdepwugbim,1290.96499999287,dep,image-button-response,504,0,100275,2,high,wug,purple,exp
10,1827354,LF,pictureLabels,tobdepwugbim,1128.22000000055,tob,image-button-response,504,0,100275,2,high,wug,purple,exp
10,1802986,FL,pictureLabels,tobdepwugbim,1061.99999999994,wug,image-button-response,504,1,100275,2,high,wug,purple,exp
10,1810315,LF,pictureLabels,tobdepwugbim,2696.99999992736,wug,image-button-response,504,1,100275,2,high,wug,purple,exp
10,1802988,LF,pictureLabels,tobdepwugbim,1496.20000005234,wug,image-button-response,504,1,100275,2,high,wug,purple,exp
10,1810084,LF,pictureLabels,tobdepwugbim,1051.00500000117,bim,image-button-response,504,0,100275,2,high,wug,purple,exp
10,1810091,LF,pictureLabels,tobdepwugbim,1655,dep,image-button-response,504,0,100275,2,high,wug,purple,exp
10,1828951,LF,pictureLabels,tobdepwugbim,901.790000032634,wug,image-button-response,504,1,100275,2,high,wug,purple,exp
10,1802993,LF,pictureLabels,tobdepwugbim,1226.83499999403,wug,image-button-response,504,1,100275,2,high,wug,purple,exp
10,1828958,LF,pictureLabels,tobdepwugbim,NA,NA,image-button-response,504,NA,100275,2,high,wug,purple,exp
10,1802998,FL,pictureLabels,tobdepwugbim,1204.45500011556,wug,image-button-response,504,1,100275,2,high,wug,purple,exp
10,1810079,LF,pictureLabels,tobdepwugbim,1352.45000000577,wug,image-button-response,504,1,100275,2,high,wug,purple,exp
10,1823741,FL,pictureLabels,tobdepwugbim,869,wug,image-button-response,504,1,100275,2,high,wug,purple,exp
10,1846365,FL,pictureLabels,tobdepwugbim,1896.24000000005,tob,image-button-response,504,0,100275,2,high,wug,purple,exp
10,1823786,FL,pictureLabels,tobdepwugbim,1362.62999999966,wug,image-button-response,504,1,100275,2,high,wug,purple,exp
10,1826951,FL,pictureLabels,tobdepwugbim,1008.63999995636,wug,image-button-response,504,1,100275,2,high,wug,purple,exp
10,1826929,LF,pictureLabels,tobdepwugbim,785,wug,image-button-response,504,1,100275,2,high,wug,purple,exp
10,1846353,FL,pictureLabels,tobdepwugbim,1277,wug,image-button-response,504,1,100275,2,high,wug,purple,exp
10,1803470,LF,pictureLabels,tobdepwugbim,957.540000003064,wug,image-button-response,504,1,100275,2,high,wug,purple,exp
10,1803468,LF,pictureLabels,tobdepwugbim,1721.15499997744,wug,image-button-response,504,1,100275,2,high,wug,purple,exp
10,1825254,LF,pictureLabels,tobdepwugbim,2336,wug,image-button-response,504,1,100275,2,high,wug,purple,exp
10,1824292,FL,pictureLabels,tobdepwugbim,3214.87499999057,wug,image-button-response,504,1,100275,2,high,wug,purple,exp
10,1846359,FL,pictureLabels,tobdepwugbim,821,wug,image-button-response,504,1,100275,2,high,wug,purple,exp
10,1802216,LF,pictureLabels,tobdepwugbim,1368,bim,image-button-response,504,0,100275,2,high,wug,purple,exp
10,1823744,FL,pictureLabels,tobdepwugbim,1244.30499994196,wug,image-button-response,504,1,100275,2,high,wug,purple,exp
10,1846250,FL,pictureLabels,tobdepwugbim,1303.3750000177,wug,image-button-response,504,1,100275,2,high,wug,purple,exp
10,1800335,LF,pictureLabels,tobdepwugbim,758.379999984754,wug,image-button-response,504,1,100275,2,high,wug,purple,exp
10,1799783,LF,pictureLabels,tobdepwugbim,1501.3649999164,wug,image-button-response,504,1,100275,2,high,wug,purple,exp
10,1825248,FL,pictureLabels,tobdepwugbim,2618.49999999686,dep,image-button-response,504,0,100275,2,high,wug,purple,exp
10,1825241,LF,pictureLabels,tobdepwugbim,1336.17999998387,wug,image-button-response,504,1,100275,2,high,wug,purple,exp
10,1824284,FL,pictureLabels,tobdepwugbim,798.385000089183,dep,image-button-response,504,0,100275,2,high,wug,purple,exp
10,1826969,FL,pictureLabels,tobdepwugbim,1242.18000005931,wug,image-button-response,504,1,100275,2,high,wug,purple,exp
10,1828956,LF,pictureLabels,tobdepwugbim,927.70999998902,tob,image-button-response,504,0,100275,2,high,wug,purple,exp
10,1802991,FL,pictureLabels,tobdepwugbim,940.919999964535,dep,image-button-response,504,0,100275,2,high,wug,purple,exp
10,1798900,FL,pictureLabels,tobdepwugbim,1331.78500001668,wug,image-button-response,504,1,100275,2,high,wug,purple,exp
10,1802091,LF,pictureLabels,tobdepwugbim,1988.36000000028,wug,image-button-response,504,1,100275,2,high,wug,purple,exp
10,1825234,FL,pictureLabels,tobdepwugbim,1329,tob,image-button-response,504,0,100275,2,high,wug,purple,exp
10,1803483,FL,pictureLabels,tobdepwugbim,962.369999848306,wug,image-button-response,504,1,100275,2,high,wug,purple,exp
10,1802102,LF,pictureLabels,tobdepwugbim,464.135000000184,wug,image-button-response,504,1,100275,2,high,wug,purple,exp
10,1802989,FL,pictureLabels,tobdepwugbim,1170.00499999995,dep,image-button-response,504,0,100275,2,high,wug,purple,exp
10,1825238,LF,pictureLabels,tobdepwugbim,939.179999997548,wug,image-button-response,504,1,100275,2,high,wug,purple,exp
10,1826535,LF,pictureLabels,tobdepwugbim,1848.6349999439,wug,image-button-response,504,1,100275,2,high,wug,purple,exp
10,1803473,FL,pictureLabels,tobdepwugbim,895.094999999856,wug,image-button-response,504,1,100275,2,high,wug,purple,exp
10,1800336,LF,pictureLabels,tobdepwugbim,1061.4100000239,wug,image-button-response,504,1,100275,2,high,wug,purple,exp
10,1803469,FL,pictureLabels,tobdepwugbim,2730.65500000666,wug,image-button-response,504,1,100275,2,high,wug,purple,exp
10,1826954,LF,pictureLabels,tobdepwugbim,970,wug,image-button-response,504,1,100275,2,high,wug,purple,exp
10,1839497,LF,pictureLabels,tobdepwugbim,1435.54500001483,wug,image-button-response,504,1,100275,2,high,wug,purple,exp
10,1825226,LF,pictureLabels,tobdepwugbim,1762.63499999186,wug,image-button-response,504,1,100275,2,high,wug,purple,exp
10,1803472,FL,pictureLabels,tobdepwugbim,1447.43999999645,tob,image-button-response,504,0,100275,2,high,wug,purple,exp
10,1802429,LF,pictureLabels,tobdepwugbim,NA,NA,image-button-response,504,NA,100275,2,high,wug,purple,exp
10,1800478,FL,pictureLabels,tobdepwugbim,3264.35000007041,wug,image-button-response,504,1,100275,2,high,wug,purple,exp
10,1798890,FL,pictureLabels,tobdepwugbim,729.224999999162,wug,image-button-response,504,1,100275,2,high,wug,purple,exp
10,1851423,FL,pictureLabels,tobdepwugbim,884.805000001565,wug,image-button-response,504,1,100275,2,high,wug,purple,exp
10,1826538,LF,pictureLabels,tobdepwugbim,1388.09500000207,wug,image-button-response,504,1,100275,2,high,wug,purple,exp
10,1826930,LF,pictureLabels,tobdepwugbim,1591.04999992996,wug,image-button-response,504,1,100275,2,high,wug,purple,exp
10,1851428,FL,pictureLabels,tobdepwugbim,1416.28000000492,wug,image-button-response,504,1,100275,2,high,wug,purple,exp
10,1846372,FL,pictureLabels,tobdepwugbim,2635.29999999446,bim,image-button-response,504,0,100275,2,high,wug,purple,exp
10,1827397,LF,pictureLabels,tobdepwugbim,1804.75500000094,tob,image-button-response,504,0,100275,2,high,wug,purple,exp
10,1802990,FL,pictureLabels,tobdepwugbim,928.855000005569,wug,image-button-response,504,1,100275,2,high,wug,purple,exp
10,1810094,LF,pictureLabels,tobdepwugbim,1248.96499997703,wug,image-button-response,504,1,100275,2,high,wug,purple,exp
10,1802992,LF,pictureLabels,tobdepwugbim,1133.96499998635,wug,image-button-response,504,1,100275,2,high,wug,purple,exp
10,1826983,LF,pictureLabels,tobdepwugbim,891.690000004019,wug,image-button-response,504,1,100275,2,high,wug,purple,exp
10,1845203,LF,pictureLabels,tobdepwugbim,1911.51499998523,wug,image-button-response,504,1,100275,2,high,wug,purple,exp
10,1826940,LF,pictureLabels,tobdepwugbim,784.224999835715,wug,image-button-response,504,1,100275,2,high,wug,purple,exp
10,1851422,FL,pictureLabels,tobdepwugbim,940.65500004217,wug,image-button-response,504,1,100275,2,high,wug,purple,exp
10,1846355,FL,pictureLabels,tobdepwugbim,1210.05499999592,wug,image-button-response,504,1,100275,2,high,wug,purple,exp
10,1825233,FL,pictureLabels,tobdepwugbim,1512,tob,image-button-response,504,0,100275,2,high,wug,purple,exp
10,1803489,FL,pictureLabels,tobdepwugbim,1740,wug,image-button-response,504,1,100275,2,high,wug,purple,exp
10,1802089,LF,pictureLabels,tobdepwugbim,1785.82500002813,dep,image-button-response,504,0,100275,2,high,wug,purple,exp
10,1802114,LF,pictureLabels,tobdepwugbim,2778,wug,image-button-response,504,1,100275,2,high,wug,purple,exp
10,1826945,LF,pictureLabels,tobdepwugbim,1634.32000007015,wug,image-button-response,504,1,100275,2,high,wug,purple,exp
10,1825290,FL,pictureLabels,tobdepwugbim,1517.61999999871,dep,image-button-response,504,0,100275,2,high,wug,purple,exp
10,1826928,LF,pictureLabels,tobdepwugbim,1454.97999992222,dep,image-button-response,504,0,100275,2,high,wug,purple,exp
10,1803487,FL,pictureLabels,tobdepwugbim,1178.33500000415,wug,image-button-response,504,1,100275,2,high,wug,purple,exp
10,1800334,LF,pictureLabels,tobdepwugbim,1071,wug,image-button-response,504,1,100275,2,high,wug,purple,exp
10,1810112,LF,pictureLabels,tobdepwugbim,744.610000001616,wug,image-button-response,504,1,100275,2,high,wug,purple,exp
10,1826537,LF,pictureLabels,tobdepwugbim,1284.00999994483,wug,image-button-response,504,1,100275,2,high,wug,purple,exp
10,1826988,LF,pictureLabels,tobdepwugbim,1111.89500000002,wug,image-button-response,504,1,100275,2,high,wug,purple,exp
10,1827166,FL,pictureLabels,tobdepwugbim,1299,tob,image-button-response,504,0,100275,2,high,wug,purple,exp
10,1845195,LF,pictureLabels,tobdepwugbim,1091.93500003312,wug,image-button-response,504,1,100275,2,high,wug,purple,exp
10,1802109,FL,pictureLabels,tobdepwugbim,1484.93000003509,dep,image-button-response,504,0,100275,2,high,wug,purple,exp
10,1827024,LF,pictureLabels,tobdepwugbim,1714.09000002313,tob,image-button-response,504,0,100275,2,high,wug,purple,exp
10,1828953,FL,pictureLabels,tobdepwugbim,1421.13000000064,wug,image-button-response,504,1,100275,2,high,wug,purple,exp
10,1803485,FL,pictureLabels,tobdepwugbim,1499.34000009671,wug,image-button-response,504,1,100275,2,high,wug,purple,exp
10,1828954,FL,pictureLabels,tobdepwugbim,867.444999999891,wug,image-button-response,504,1,100275,2,high,wug,purple,exp
10,1829020,FL,pictureLabels,tobdepwugbim,852,wug,image-button-response,504,1,100275,2,high,wug,purple,exp
10,1824300,FL,pictureLabels,tobdepwugbim,566.999999980908,wug,image-button-response,504,1,100275,2,high,wug,purple,exp
10,1827017,FL,pictureLabels,tobdepwugbim,1353.29999995884,tob,image-button-response,504,0,100275,2,high,wug,purple,exp
10,1826937,LF,pictureLabels,tobdepwugbim,1405,wug,image-button-response,504,1,100275,2,high,wug,purple,exp
10,1802124,FL,pictureLabels,tobdepwugbim,2881.55499985442,wug,image-button-response,504,1,100275,2,high,wug,purple,exp
10,1802092,LF,pictureLabels,tobdepwugbim,1571,dep,image-button-response,504,0,100275,2,high,wug,purple,exp
10,1810097,LF,pictureLabels,tobdepwugbim,1160.96500004642,wug,image-button-response,504,1,100275,2,high,wug,purple,exp
10,1846243,LF,pictureLabels,tobdepwugbim,1157.42499999946,wug,image-button-response,504,1,100275,2,high,wug,purple,exp
10,1826539,LF,pictureLabels,tobdepwugbim,1814.64500003494,wug,image-button-response,504,1,100275,2,high,wug,purple,exp
10,1826935,FL,pictureLabels,tobdepwugbim,665,dep,image-button-response,504,0,100275,2,high,wug,purple,exp
10,1845206,FL,pictureLabels,tobdepwugbim,1059,wug,image-button-response,504,1,100275,2,high,wug,purple,exp
10,1803471,FL,pictureLabels,tobdepwugbim,695,wug,image-button-response,504,1,100275,2,high,wug,purple,exp
10,1800348,FL,pictureLabels,tobdepwugbim,779.899999994086,wug,image-button-response,504,1,100275,2,high,wug,purple,exp
10,1803476,FL,pictureLabels,tobdepwugbim,1224.79500000179,wug,image-button-response,504,1,100275,2,high,wug,purple,exp
10,1800332,LF,pictureLabels,tobdepwugbim,1131.06000001426,wug,image-button-response,504,1,100275,2,high,wug,purple,exp
10,1845201,FL,pictureLabels,tobdepwugbim,2150.13999992516,wug,image-button-response,504,1,100275,2,high,wug,purple,exp
10,1839507,FL,pictureLabels,tobdepwugbim,2160.00500001246,bim,image-button-response,504,0,100275,2,high,wug,purple,exp
10,1802104,FL,pictureLabels,tobdepwugbim,1022.91499986313,wug,image-button-response,504,1,100275,2,high,wug,purple,exp
10,1827017,FL,pictureLabels,tobdepwugbim,1201.89999998547,wug,image-button-response,504,1,100275,2,high,wug,purple,exp
10,1846363,FL,pictureLabels,tobdepwugbim,1323.90000000305,wug,image-button-response,504,1,100275,2,high,wug,purple,exp
10,1826532,FL,pictureLabels,tobdepwugbim,837.42999995593,wug,image-button-response,504,1,100275,2,high,wug,purple,exp
10,1802095,FL,pictureLabels,tobdepwugbim,1278.14499999658,wug,image-button-response,504,1,100275,2,high,wug,purple,exp
10,1800341,FL,pictureLabels,tobdepwugbim,1737.72000000463,wug,image-button-response,504,1,100275,2,high,wug,purple,exp
10,1799599,FL,pictureLabels,tobdepwugbim,2023.59500000055,wug,image-button-response,504,1,100275,2,high,wug,purple,exp
10,1799963,FL,pictureLabels,tobdepwugbim,1024.41000001272,wug,image-button-response,504,1,100275,2,high,wug,purple,exp
10,1826550,FL,pictureLabels,tobdepwugbim,1536.4350000018,wug,image-button-response,504,1,100275,2,high,wug,purple,exp
10,1846376,FL,pictureLabels,tobdepwugbim,1641.99999999983,wug,image-button-response,504,1,100275,2,high,wug,purple,exp
10,1799788,FL,pictureLabels,tobdepwugbim,1405.57999999961,wug,image-button-response,504,1,100275,2,high,wug,purple,exp
10,1803481,FL,pictureLabels,tobdepwugbim,1257.99499999994,wug,image-button-response,504,1,100275,2,high,wug,purple,exp
11,1825241,LF,pictureLabels,tobdepwugbim,1189.63500007521,bim,image-button-response,506,1,110400,4,control,bim,lightblue,control
11,1846262,LF,pictureLabels,tobdepwugbim,2239.27499982528,bim,image-button-response,506,1,110400,4,control,bim,lightblue,control
11,1802161,LF,pictureLabels,tobdepwugbim,1535.39999999874,bim,image-button-response,506,1,110400,4,control,bim,lightblue,control
11,1825235,LF,pictureLabels,tobdepwugbim,1093,bim,image-button-response,506,1,110400,4,control,bim,lightblue,control
11,1823744,FL,pictureLabels,tobdepwugbim,837.530000018887,bim,image-button-response,506,1,110400,4,control,bim,lightblue,control
11,1827042,LF,pictureLabels,tobdepwugbim,1235.77999998815,bim,image-button-response,506,1,110400,4,control,bim,lightblue,control
11,1827354,LF,pictureLabels,tobdepwugbim,1069.41499999992,bim,image-button-response,506,1,110400,4,control,bim,lightblue,control
11,1802986,FL,pictureLabels,tobdepwugbim,985.999999999942,bim,image-button-response,506,1,110400,4,control,bim,lightblue,control
11,1800335,LF,pictureLabels,tobdepwugbim,1148.35999999195,bim,image-button-response,506,1,110400,4,control,bim,lightblue,control
11,1846372,FL,pictureLabels,tobdepwugbim,2952.30000000447,dep,image-button-response,506,0,110400,4,control,bim,lightblue,control
11,1846365,FL,pictureLabels,tobdepwugbim,1240.87,bim,image-button-response,506,1,110400,4,control,bim,lightblue,control
11,1824288,LF,pictureLabels,tobdepwugbim,910,bim,image-button-response,506,1,110400,4,control,bim,lightblue,control
11,1829020,FL,pictureLabels,tobdepwugbim,1375,bim,image-button-response,506,1,110400,4,control,bim,lightblue,control
11,1828956,LF,pictureLabels,tobdepwugbim,1289.42499999539,bim,image-button-response,506,1,110400,4,control,bim,lightblue,control
11,1802114,LF,pictureLabels,tobdepwugbim,1331,bim,image-button-response,506,1,110400,4,control,bim,lightblue,control
11,1825238,LF,pictureLabels,tobdepwugbim,834.600000001956,bim,image-button-response,506,1,110400,4,control,bim,lightblue,control
11,1802216,LF,pictureLabels,tobdepwugbim,1578,tob,image-button-response,506,0,110400,4,control,bim,lightblue,control
11,1802998,FL,pictureLabels,tobdepwugbim,1246.86500011012,bim,image-button-response,506,1,110400,4,control,bim,lightblue,control
11,1826931,LF,pictureLabels,tobdepwugbim,1310,dep,image-button-response,506,0,110400,4,control,bim,lightblue,control
11,1802989,FL,pictureLabels,tobdepwugbim,1248.53000000439,bim,image-button-response,506,1,110400,4,control,bim,lightblue,control
11,1799783,LF,pictureLabels,tobdepwugbim,1000.84000010975,tob,image-button-response,506,0,110400,4,control,bim,lightblue,control
11,1823753,LF,pictureLabels,tobdepwugbim,1088.82499998435,bim,image-button-response,506,1,110400,4,control,bim,lightblue,control
11,1826535,LF,pictureLabels,tobdepwugbim,951.695000054315,bim,image-button-response,506,1,110400,4,control,bim,lightblue,control
11,1846352,FL,pictureLabels,tobdepwugbim,1394.21499986202,bim,image-button-response,506,1,110400,4,control,bim,lightblue,control
11,1827397,LF,pictureLabels,tobdepwugbim,1106.56000000017,wug,image-button-response,506,0,110400,4,control,bim,lightblue,control
11,1802990,FL,pictureLabels,tobdepwugbim,1382.64499999786,bim,image-button-response,506,1,110400,4,control,bim,lightblue,control
11,1825250,LF,pictureLabels,tobdepwugbim,1920.00004530966,tob,image-button-response,506,0,110400,4,control,bim,lightblue,control
11,1846354,FL,pictureLabels,tobdepwugbim,1077.39000000036,bim,image-button-response,506,1,110400,4,control,bim,lightblue,control
11,1802992,LF,pictureLabels,tobdepwugbim,1030.4050000268,bim,image-button-response,506,1,110400,4,control,bim,lightblue,control
11,1846359,FL,pictureLabels,tobdepwugbim,1445.00000000006,bim,image-button-response,506,1,110400,4,control,bim,lightblue,control
11,1825240,LF,pictureLabels,tobdepwugbim,1176.9150000182,bim,image-button-response,506,1,110400,4,control,bim,lightblue,control
11,1827166,FL,pictureLabels,tobdepwugbim,1480,bim,image-button-response,506,1,110400,4,control,bim,lightblue,control
11,1851423,FL,pictureLabels,tobdepwugbim,1170.53499999928,bim,image-button-response,506,1,110400,4,control,bim,lightblue,control
11,1828972,LF,pictureLabels,tobdepwugbim,1713.59999999916,dep,image-button-response,506,0,110400,4,control,bim,lightblue,control
11,1802089,LF,pictureLabels,tobdepwugbim,1150.90499992948,bim,image-button-response,506,1,110400,4,control,bim,lightblue,control
11,1826930,LF,pictureLabels,tobdepwugbim,888.150000013411,bim,image-button-response,506,1,110400,4,control,bim,lightblue,control
11,1826951,FL,pictureLabels,tobdepwugbim,1387.2300000512,bim,image-button-response,506,1,110400,4,control,bim,lightblue,control
11,1828954,FL,pictureLabels,tobdepwugbim,1342.06500000076,bim,image-button-response,506,1,110400,4,control,bim,lightblue,control
11,1799781,LF,pictureLabels,tobdepwugbim,1013,bim,image-button-response,506,1,110400,4,control,bim,lightblue,control
11,1846363,FL,pictureLabels,tobdepwugbim,982.340000002179,bim,image-button-response,506,1,110400,4,control,bim,lightblue,control
11,1802991,FL,pictureLabels,tobdepwugbim,2863.1250000326,bim,image-button-response,506,1,110400,4,control,bim,lightblue,control
11,1800334,LF,pictureLabels,tobdepwugbim,1201,tob,image-button-response,506,0,110400,4,control,bim,lightblue,control
11,1803490,FL,pictureLabels,tobdepwugbim,1644.25499999197,bim,image-button-response,506,1,110400,4,control,bim,lightblue,control
11,1802993,LF,pictureLabels,tobdepwugbim,1549.66499999864,bim,image-button-response,506,1,110400,4,control,bim,lightblue,control
11,1826940,LF,pictureLabels,tobdepwugbim,984.709999989718,bim,image-button-response,506,1,110400,4,control,bim,lightblue,control
11,1846355,FL,pictureLabels,tobdepwugbim,1319.24000000436,bim,image-button-response,506,1,110400,4,control,bim,lightblue,control
11,1846250,FL,pictureLabels,tobdepwugbim,925.550000014482,bim,image-button-response,506,1,110400,4,control,bim,lightblue,control
11,1826538,LF,pictureLabels,tobdepwugbim,1205.92999999644,bim,image-button-response,506,1,110400,4,control,bim,lightblue,control
11,1851493,FL,pictureLabels,tobdepwugbim,1138.31499999971,bim,image-button-response,506,1,110400,4,control,bim,lightblue,control
11,1851428,FL,pictureLabels,tobdepwugbim,2534.31499999715,dep,image-button-response,506,0,110400,4,control,bim,lightblue,control
11,1800336,LF,pictureLabels,tobdepwugbim,1638.14500003355,tob,image-button-response,506,0,110400,4,control,bim,lightblue,control
11,1803469,FL,pictureLabels,tobdepwugbim,870.639999993728,bim,image-button-response,506,1,110400,4,control,bim,lightblue,control
11,1799963,FL,pictureLabels,tobdepwugbim,988.829999987502,bim,image-button-response,506,1,110400,4,control,bim,lightblue,control
11,1802988,LF,pictureLabels,tobdepwugbim,844.419999979436,bim,image-button-response,506,1,110400,4,control,bim,lightblue,control
11,1825226,LF,pictureLabels,tobdepwugbim,1035.31000000658,bim,image-button-response,506,1,110400,4,control,bim,lightblue,control
11,1826937,LF,pictureLabels,tobdepwugbim,1066,bim,image-button-response,506,1,110400,4,control,bim,lightblue,control
11,1828951,LF,pictureLabels,tobdepwugbim,1366.16000020877,bim,image-button-response,506,1,110400,4,control,bim,lightblue,control
11,1802092,LF,pictureLabels,tobdepwugbim,1321,wug,image-button-response,506,0,110400,4,control,bim,lightblue,control
11,1803483,FL,pictureLabels,tobdepwugbim,1025.63500031829,bim,image-button-response,506,1,110400,4,control,bim,lightblue,control
11,1802102,LF,pictureLabels,tobdepwugbim,895.415000000852,bim,image-button-response,506,1,110400,4,control,bim,lightblue,control
11,1823741,FL,pictureLabels,tobdepwugbim,1130,bim,image-button-response,506,1,110400,4,control,bim,lightblue,control
11,1826949,FL,pictureLabels,tobdepwugbim,1579.38999996986,bim,image-button-response,506,1,110400,4,control,bim,lightblue,control
11,1803039,LF,pictureLabels,tobdepwugbim,1363.81500004791,bim,image-button-response,506,1,110400,4,control,bim,lightblue,control
11,1829239,LF,pictureLabels,tobdepwugbim,1310.30500004999,bim,image-button-response,506,1,110400,4,control,bim,lightblue,control
11,1824287,LF,pictureLabels,tobdepwugbim,1244,bim,image-button-response,506,1,110400,4,control,bim,lightblue,control
11,1826929,LF,pictureLabels,tobdepwugbim,1002,bim,image-button-response,506,1,110400,4,control,bim,lightblue,control
11,1846353,FL,pictureLabels,tobdepwugbim,1489,bim,image-button-response,506,1,110400,4,control,bim,lightblue,control
11,1803471,FL,pictureLabels,tobdepwugbim,845,bim,image-button-response,506,1,110400,4,control,bim,lightblue,control
11,1839507,FL,pictureLabels,tobdepwugbim,1035.22499999963,bim,image-button-response,506,1,110400,4,control,bim,lightblue,control
11,1825254,LF,pictureLabels,tobdepwugbim,1674,bim,image-button-response,506,1,110400,4,control,bim,lightblue,control
11,1827017,FL,pictureLabels,tobdepwugbim,2734.90000003949,wug,image-button-response,506,0,110400,4,control,bim,lightblue,control
11,1851422,FL,pictureLabels,tobdepwugbim,1096.37499996461,bim,image-button-response,506,1,110400,4,control,bim,lightblue,control
11,1828958,LF,pictureLabels,tobdepwugbim,1068.80999999982,bim,image-button-response,506,1,110400,4,control,bim,lightblue,control
11,1826943,FL,pictureLabels,tobdepwugbim,980.519999982789,bim,image-button-response,506,1,110400,4,control,bim,lightblue,control
11,1828953,FL,pictureLabels,tobdepwugbim,2660.35000000009,tob,image-button-response,506,0,110400,4,control,bim,lightblue,control
11,1803489,FL,pictureLabels,tobdepwugbim,1732,bim,image-button-response,506,1,110400,4,control,bim,lightblue,control
11,1803485,FL,pictureLabels,tobdepwugbim,1150.215000147,bim,image-button-response,506,1,110400,4,control,bim,lightblue,control
11,1800341,FL,pictureLabels,tobdepwugbim,1088.11500000593,bim,image-button-response,506,1,110400,4,control,bim,lightblue,control
11,1826945,LF,pictureLabels,tobdepwugbim,2620.87000010069,bim,image-button-response,506,1,110400,4,control,bim,lightblue,control
11,1826969,FL,pictureLabels,tobdepwugbim,889.84000030905,bim,image-button-response,506,1,110400,4,control,bim,lightblue,control
11,1826928,LF,pictureLabels,tobdepwugbim,2984.82999997213,bim,image-button-response,506,1,110400,4,control,bim,lightblue,control
11,1803487,FL,pictureLabels,tobdepwugbim,1211.94999996806,bim,image-button-response,506,1,110400,4,control,bim,lightblue,control
11,1803472,FL,pictureLabels,tobdepwugbim,1337.41000000015,bim,image-button-response,506,1,110400,4,control,bim,lightblue,control
11,1799599,FL,pictureLabels,tobdepwugbim,1563.61999999988,bim,image-button-response,506,1,110400,4,control,bim,lightblue,control
11,1845201,FL,pictureLabels,tobdepwugbim,1377.34000000637,bim,image-button-response,506,1,110400,4,control,bim,lightblue,control
11,1810086,LF,pictureLabels,tobdepwugbim,1403.33999996074,bim,image-button-response,506,1,110400,4,control,bim,lightblue,control
11,1845195,LF,pictureLabels,tobdepwugbim,1004.78000001749,bim,image-button-response,506,1,110400,4,control,bim,lightblue,control
11,1802109,FL,pictureLabels,tobdepwugbim,1951.94000005722,tob,image-button-response,506,0,110400,4,control,bim,lightblue,control
11,1845206,FL,pictureLabels,tobdepwugbim,2272,bim,image-button-response,506,1,110400,4,control,bim,lightblue,control
11,1846243,LF,pictureLabels,tobdepwugbim,995.815000000177,bim,image-button-response,506,1,110400,4,control,bim,lightblue,control
11,1803473,FL,pictureLabels,tobdepwugbim,1000.56499999482,bim,image-button-response,506,1,110400,4,control,bim,lightblue,control
11,1803474,LF,pictureLabels,tobdepwugbim,1435.70000000001,dep,image-button-response,506,0,110400,4,control,bim,lightblue,control
11,1810315,LF,pictureLabels,tobdepwugbim,3314.99999994412,bim,image-button-response,506,1,110400,4,control,bim,lightblue,control
11,1825290,FL,pictureLabels,tobdepwugbim,499.199999991106,dep,image-button-response,506,0,110400,4,control,bim,lightblue,control
11,1810084,LF,pictureLabels,tobdepwugbim,846.295000002952,tob,image-button-response,506,0,110400,4,control,bim,lightblue,control
11,1846376,FL,pictureLabels,tobdepwugbim,1600.99999999511,bim,image-button-response,506,1,110400,4,control,bim,lightblue,control
11,1802124,FL,pictureLabels,tobdepwugbim,1086.85999992304,bim,image-button-response,506,1,110400,4,control,bim,lightblue,control
11,1803481,FL,pictureLabels,tobdepwugbim,973.630000000412,bim,image-button-response,506,1,110400,4,control,bim,lightblue,control
11,1798890,FL,pictureLabels,tobdepwugbim,1038.45000000007,bim,image-button-response,506,1,110400,4,control,bim,lightblue,control
11,1803023,LF,pictureLabels,tobdepwugbim,790.344999986701,tob,image-button-response,506,0,110400,4,control,bim,lightblue,control
11,1802095,FL,pictureLabels,tobdepwugbim,1368.54500000481,bim,image-button-response,506,1,110400,4,control,bim,lightblue,control
11,1825234,FL,pictureLabels,tobdepwugbim,3016,bim,image-button-response,506,1,110400,4,control,bim,lightblue,control
11,1810079,LF,pictureLabels,tobdepwugbim,989.859999972396,bim,image-button-response,506,1,110400,4,control,bim,lightblue,control
11,1823786,FL,pictureLabels,tobdepwugbim,1311.96499999892,bim,image-button-response,506,1,110400,4,control,bim,lightblue,control
11,1810080,LF,pictureLabels,tobdepwugbim,1828.10500002233,wug,image-button-response,506,0,110400,4,control,bim,lightblue,control
11,1825248,FL,pictureLabels,tobdepwugbim,1211.52499999152,bim,image-button-response,506,1,110400,4,control,bim,lightblue,control
11,1800332,LF,pictureLabels,tobdepwugbim,1469.08499998972,bim,image-button-response,506,1,110400,4,control,bim,lightblue,control
11,1803470,LF,pictureLabels,tobdepwugbim,1042.97500001849,bim,image-button-response,506,1,110400,4,control,bim,lightblue,control
11,1799788,FL,pictureLabels,tobdepwugbim,1632.85499999986,bim,image-button-response,506,1,110400,4,control,bim,lightblue,control
11,1826550,FL,pictureLabels,tobdepwugbim,1130.92500000127,bim,image-button-response,506,1,110400,4,control,bim,lightblue,control
11,1802104,FL,pictureLabels,tobdepwugbim,1190.04000001587,bim,image-button-response,506,1,110400,4,control,bim,lightblue,control
11,1802091,LF,pictureLabels,tobdepwugbim,1914.97499999974,bim,image-button-response,506,1,110400,4,control,bim,lightblue,control
11,1826537,LF,pictureLabels,tobdepwugbim,960.399999981746,bim,image-button-response,506,1,110400,4,control,bim,lightblue,control
11,1802429,LF,pictureLabels,tobdepwugbim,3065.59999999806,bim,image-button-response,506,1,110400,4,control,bim,lightblue,control
11,1827024,LF,pictureLabels,tobdepwugbim,2832.83500000834,wug,image-button-response,506,0,110400,4,control,bim,lightblue,control
11,1810097,LF,pictureLabels,tobdepwugbim,1168.06500009261,bim,image-button-response,506,1,110400,4,control,bim,lightblue,control
11,1800348,FL,pictureLabels,tobdepwugbim,1287.8399999754,dep,image-button-response,506,0,110400,4,control,bim,lightblue,control
11,1825233,FL,pictureLabels,tobdepwugbim,1264,bim,image-button-response,506,1,110400,4,control,bim,lightblue,control
11,1827017,FL,pictureLabels,tobdepwugbim,1421.80000001099,tob,image-button-response,506,0,110400,4,control,bim,lightblue,control
11,1839495,LF,pictureLabels,tobdepwugbim,951.349999999336,bim,image-button-response,506,1,110400,4,control,bim,lightblue,control
11,1803476,FL,pictureLabels,tobdepwugbim,1090.87,bim,image-button-response,506,1,110400,4,control,bim,lightblue,control
11,1826954,LF,pictureLabels,tobdepwugbim,1007,bim,image-button-response,506,1,110400,4,control,bim,lightblue,control
11,1826532,FL,pictureLabels,tobdepwugbim,926.619999925606,bim,image-button-response,506,1,110400,4,control,bim,lightblue,control
11,1798900,FL,pictureLabels,tobdepwugbim,3419.24499999732,wug,image-button-response,506,0,110400,4,control,bim,lightblue,control
11,1810112,LF,pictureLabels,tobdepwugbim,856.839999996708,bim,image-button-response,506,1,110400,4,control,bim,lightblue,control
11,1800478,FL,pictureLabels,tobdepwugbim,2028.82499992847,bim,image-button-response,506,1,110400,4,control,bim,lightblue,control
11,1826935,FL,pictureLabels,tobdepwugbim,908,wug,image-button-response,506,0,110400,4,control,bim,lightblue,control
11,1810094,LF,pictureLabels,tobdepwugbim,1283.29499997199,bim,image-button-response,506,1,110400,4,control,bim,lightblue,control
11,1826988,LF,pictureLabels,tobdepwugbim,857.340000000433,bim,image-button-response,506,1,110400,4,control,bim,lightblue,control
11,1826539,LF,pictureLabels,tobdepwugbim,1146.71500003897,bim,image-button-response,506,1,110400,4,control,bim,lightblue,control
11,1845203,LF,pictureLabels,tobdepwugbim,1272.86500000628,bim,image-button-response,506,1,110400,4,control,bim,lightblue,control
11,1824292,FL,pictureLabels,tobdepwugbim,1462.31500001159,bim,image-button-response,506,1,110400,4,control,bim,lightblue,control
11,1839497,LF,pictureLabels,tobdepwugbim,1189.05000004452,bim,image-button-response,506,1,110400,4,control,bim,lightblue,control
11,1824284,FL,pictureLabels,tobdepwugbim,520.559999858961,tob,image-button-response,506,0,110400,4,control,bim,lightblue,control
11,1803468,LF,pictureLabels,tobdepwugbim,1880.83499995992,bim,image-button-response,506,1,110400,4,control,bim,lightblue,control
11,1826983,LF,pictureLabels,tobdepwugbim,1332.89999999397,tob,image-button-response,506,0,110400,4,control,bim,lightblue,control
11,1810091,LF,pictureLabels,tobdepwugbim,1504,bim,image-button-response,506,1,110400,4,control,bim,lightblue,control
11,1824300,FL,pictureLabels,tobdepwugbim,1245.72000000626,bim,image-button-response,506,1,110400,4,control,bim,lightblue,control
12,1846352,FL,pictureLabels,tobdepwugbim,1588.77999987453,tob,image-button-response,508,1,120175,1,high,tob,red,exp
12,1823753,LF,pictureLabels,tobdepwugbim,889.515000046231,tob,image-button-response,508,1,120175,1,high,tob,red,exp
12,1846250,FL,pictureLabels,tobdepwugbim,941.995000001043,tob,image-button-response,508,1,120175,1,high,tob,red,exp
12,1846365,FL,pictureLabels,tobdepwugbim,3463.3899999999,tob,image-button-response,508,1,120175,1,high,tob,red,exp
12,1824288,LF,pictureLabels,tobdepwugbim,947,tob,image-button-response,508,1,120175,1,high,tob,red,exp
12,1828972,LF,pictureLabels,tobdepwugbim,2902.59999999765,dep,image-button-response,508,0,120175,1,high,tob,red,exp
12,1827354,LF,pictureLabels,tobdepwugbim,1136.15500000014,wug,image-button-response,508,0,120175,1,high,tob,red,exp
12,1846372,FL,pictureLabels,tobdepwugbim,NA,NA,image-button-response,508,NA,120175,1,high,tob,red,exp
12,1846262,LF,pictureLabels,tobdepwugbim,1143.90500006266,tob,image-button-response,508,1,120175,1,high,tob,red,exp
12,1824287,LF,pictureLabels,tobdepwugbim,2926,dep,image-button-response,508,0,120175,1,high,tob,red,exp
12,1828956,LF,pictureLabels,tobdepwugbim,1163.77000001376,wug,image-button-response,508,0,120175,1,high,tob,red,exp
12,1827017,FL,pictureLabels,tobdepwugbim,737.099999969359,wug,image-button-response,508,0,120175,1,high,tob,red,exp
12,1839495,LF,pictureLabels,tobdepwugbim,804.824999999255,tob,image-button-response,508,1,120175,1,high,tob,red,exp
12,1829239,LF,pictureLabels,tobdepwugbim,1946.06499996735,dep,image-button-response,508,0,120175,1,high,tob,red,exp
12,1827166,FL,pictureLabels,tobdepwugbim,1341,dep,image-button-response,508,0,120175,1,high,tob,red,exp
12,1845195,LF,pictureLabels,tobdepwugbim,1379.0100000333,tob,image-button-response,508,1,120175,1,high,tob,red,exp
12,1826538,LF,pictureLabels,tobdepwugbim,1161.29499999806,tob,image-button-response,508,1,120175,1,high,tob,red,exp
12,1846353,FL,pictureLabels,tobdepwugbim,2313,dep,image-button-response,508,0,120175,1,high,tob,red,exp
12,1826535,LF,pictureLabels,tobdepwugbim,NA,NA,image-button-response,508,NA,120175,1,high,tob,red,exp
12,1800335,LF,pictureLabels,tobdepwugbim,2781.55999997398,dep,image-button-response,508,0,120175,1,high,tob,red,exp
12,1803485,FL,pictureLabels,tobdepwugbim,1932.15000000782,tob,image-button-response,508,1,120175,1,high,tob,red,exp
12,1802161,LF,pictureLabels,tobdepwugbim,NA,NA,image-button-response,508,NA,120175,1,high,tob,red,exp
12,1799781,LF,pictureLabels,tobdepwugbim,930,wug,image-button-response,508,0,120175,1,high,tob,red,exp
12,1846363,FL,pictureLabels,tobdepwugbim,1334.58999999857,tob,image-button-response,508,1,120175,1,high,tob,red,exp
12,1803471,FL,pictureLabels,tobdepwugbim,865,tob,image-button-response,508,1,120175,1,high,tob,red,exp
12,1810315,LF,pictureLabels,tobdepwugbim,2962.99999998882,tob,image-button-response,508,1,120175,1,high,tob,red,exp
12,1802091,LF,pictureLabels,tobdepwugbim,1668.84000000026,tob,image-button-response,508,1,120175,1,high,tob,red,exp
12,1828958,LF,pictureLabels,tobdepwugbim,2125.28000000026,tob,image-button-response,508,1,120175,1,high,tob,red,exp
12,1825240,LF,pictureLabels,tobdepwugbim,1383.0200000084,tob,image-button-response,508,1,120175,1,high,tob,red,exp
12,1825235,LF,pictureLabels,tobdepwugbim,1281,tob,image-button-response,508,1,120175,1,high,tob,red,exp
12,1802109,FL,pictureLabels,tobdepwugbim,1556.32000009064,wug,image-button-response,508,0,120175,1,high,tob,red,exp
12,1828953,FL,pictureLabels,tobdepwugbim,3044.39000000089,tob,image-button-response,508,1,120175,1,high,tob,red,exp
12,1851493,FL,pictureLabels,tobdepwugbim,1502.62999999995,tob,image-button-response,508,1,120175,1,high,tob,red,exp
12,1803473,FL,pictureLabels,tobdepwugbim,874.409999996715,tob,image-button-response,508,1,120175,1,high,tob,red,exp
12,1802986,FL,pictureLabels,tobdepwugbim,1070,tob,image-button-response,508,1,120175,1,high,tob,red,exp
12,1800336,LF,pictureLabels,tobdepwugbim,1403.86500000022,dep,image-button-response,508,0,120175,1,high,tob,red,exp
12,1803469,FL,pictureLabels,tobdepwugbim,1269.82499999576,tob,image-button-response,508,1,120175,1,high,tob,red,exp
12,1826928,LF,pictureLabels,tobdepwugbim,2195.88999997359,dep,image-button-response,508,0,120175,1,high,tob,red,exp
12,1828951,LF,pictureLabels,tobdepwugbim,1165.47999996692,tob,image-button-response,508,1,120175,1,high,tob,red,exp
12,1803472,FL,pictureLabels,tobdepwugbim,1812.48499999475,tob,image-button-response,508,1,120175,1,high,tob,red,exp
12,1827017,FL,pictureLabels,tobdepwugbim,686.70000002021,tob,image-button-response,508,1,120175,1,high,tob,red,exp
12,1846359,FL,pictureLabels,tobdepwugbim,2110.99999999994,tob,image-button-response,508,1,120175,1,high,tob,red,exp
12,1846355,FL,pictureLabels,tobdepwugbim,1543.83500000404,dep,image-button-response,508,0,120175,1,high,tob,red,exp
12,1802102,LF,pictureLabels,tobdepwugbim,1039.23500000016,tob,image-button-response,508,1,120175,1,high,tob,red,exp
12,1827042,LF,pictureLabels,tobdepwugbim,1395.80999989994,tob,image-button-response,508,1,120175,1,high,tob,red,exp
12,1826949,FL,pictureLabels,tobdepwugbim,2205.50000004005,tob,image-button-response,508,1,120175,1,high,tob,red,exp
12,1825238,LF,pictureLabels,tobdepwugbim,1450.74499999825,dep,image-button-response,508,0,120175,1,high,tob,red,exp
12,1823786,FL,pictureLabels,tobdepwugbim,1801.34499999986,tob,image-button-response,508,1,120175,1,high,tob,red,exp
12,1826929,LF,pictureLabels,tobdepwugbim,1082,tob,image-button-response,508,1,120175,1,high,tob,red,exp
12,1827397,LF,pictureLabels,tobdepwugbim,1040.9650000002,tob,image-button-response,508,1,120175,1,high,tob,red,exp
12,1802990,FL,pictureLabels,tobdepwugbim,1773.62500000163,tob,image-button-response,508,1,120175,1,high,tob,red,exp
12,1839497,LF,pictureLabels,tobdepwugbim,2439.84000000637,tob,image-button-response,508,1,120175,1,high,tob,red,exp
12,1825226,LF,pictureLabels,tobdepwugbim,996.609999972861,tob,image-button-response,508,1,120175,1,high,tob,red,exp
12,1826937,LF,pictureLabels,tobdepwugbim,1719,tob,image-button-response,508,1,120175,1,high,tob,red,exp
12,1845203,LF,pictureLabels,tobdepwugbim,1337.11000002222,tob,image-button-response,508,1,120175,1,high,tob,red,exp
12,1803483,FL,pictureLabels,tobdepwugbim,932.589999865741,tob,image-button-response,508,1,120175,1,high,tob,red,exp
12,1802216,LF,pictureLabels,tobdepwugbim,1384,dep,image-button-response,508,0,120175,1,high,tob,red,exp
12,1826931,LF,pictureLabels,tobdepwugbim,1024,wug,image-button-response,508,0,120175,1,high,tob,red,exp
12,1846243,LF,pictureLabels,tobdepwugbim,1098.37999999954,tob,image-button-response,508,1,120175,1,high,tob,red,exp
12,1799783,LF,pictureLabels,tobdepwugbim,961.600000038743,dep,image-button-response,508,0,120175,1,high,tob,red,exp
12,1810080,LF,pictureLabels,tobdepwugbim,1295.58999999426,bim,image-button-response,508,0,120175,1,high,tob,red,exp
12,1828954,FL,pictureLabels,tobdepwugbim,3436.17999999877,dep,image-button-response,508,0,120175,1,high,tob,red,exp
12,1825241,LF,pictureLabels,tobdepwugbim,1477.59000002407,tob,image-button-response,508,1,120175,1,high,tob,red,exp
12,1826969,FL,pictureLabels,tobdepwugbim,1086.54000004753,tob,image-button-response,508,1,120175,1,high,tob,red,exp
12,1810094,LF,pictureLabels,tobdepwugbim,1966.26000001561,tob,image-button-response,508,1,120175,1,high,tob,red,exp
12,1846354,FL,pictureLabels,tobdepwugbim,1681.07500000042,tob,image-button-response,508,1,120175,1,high,tob,red,exp
12,1798900,FL,pictureLabels,tobdepwugbim,1252.08000000566,tob,image-button-response,508,1,120175,1,high,tob,red,exp
12,1799599,FL,pictureLabels,tobdepwugbim,2229.22000000015,tob,image-button-response,508,1,120175,1,high,tob,red,exp
12,1851422,FL,pictureLabels,tobdepwugbim,1735.5249999091,tob,image-button-response,508,1,120175,1,high,tob,red,exp
12,1825234,FL,pictureLabels,tobdepwugbim,1671,dep,image-button-response,508,0,120175,1,high,tob,red,exp
12,1826943,FL,pictureLabels,tobdepwugbim,1955.13000001665,tob,image-button-response,508,1,120175,1,high,tob,red,exp
12,1802989,FL,pictureLabels,tobdepwugbim,1183.56499999936,tob,image-button-response,508,1,120175,1,high,tob,red,exp
12,1823741,FL,pictureLabels,tobdepwugbim,2026,tob,image-button-response,508,1,120175,1,high,tob,red,exp
12,1802089,LF,pictureLabels,tobdepwugbim,2492.32999992091,tob,image-button-response,508,1,120175,1,high,tob,red,exp
12,1826930,LF,pictureLabels,tobdepwugbim,1628.19999991916,tob,image-button-response,508,1,120175,1,high,tob,red,exp
12,1826951,FL,pictureLabels,tobdepwugbim,1529.99499998987,tob,image-button-response,508,1,120175,1,high,tob,red,exp
12,1825290,FL,pictureLabels,tobdepwugbim,1071.59999999567,wug,image-button-response,508,0,120175,1,high,tob,red,exp
12,1803487,FL,pictureLabels,tobdepwugbim,2386.88999996521,tob,image-button-response,508,1,120175,1,high,tob,red,exp
12,1810084,LF,pictureLabels,tobdepwugbim,1676.29999999912,dep,image-button-response,508,0,120175,1,high,tob,red,exp
12,1846376,FL,pictureLabels,tobdepwugbim,1915.99999999744,tob,image-button-response,508,1,120175,1,high,tob,red,exp
12,1803481,FL,pictureLabels,tobdepwugbim,1152.31000000495,tob,image-button-response,508,1,120175,1,high,tob,red,exp
12,1800478,FL,pictureLabels,tobdepwugbim,2728.34000003058,dep,image-button-response,508,0,120175,1,high,tob,red,exp
12,1802998,FL,pictureLabels,tobdepwugbim,1686.00500002503,tob,image-button-response,508,1,120175,1,high,tob,red,exp
12,1802095,FL,pictureLabels,tobdepwugbim,1854.98999999982,dep,image-button-response,508,0,120175,1,high,tob,red,exp
12,1851423,FL,pictureLabels,tobdepwugbim,1433.43500000087,tob,image-button-response,508,1,120175,1,high,tob,red,exp
12,1800348,FL,pictureLabels,tobdepwugbim,1161.21999997995,tob,image-button-response,508,1,120175,1,high,tob,red,exp
12,1825233,FL,pictureLabels,tobdepwugbim,1954,tob,image-button-response,508,1,120175,1,high,tob,red,exp
12,1827024,LF,pictureLabels,tobdepwugbim,2181.01499998011,bim,image-button-response,508,0,120175,1,high,tob,red,exp
12,1800341,FL,pictureLabels,tobdepwugbim,1158.82000001147,tob,image-button-response,508,1,120175,1,high,tob,red,exp
12,1803476,FL,pictureLabels,tobdepwugbim,1330.27000000223,tob,image-button-response,508,1,120175,1,high,tob,red,exp
12,1824284,FL,pictureLabels,tobdepwugbim,678.885000059381,wug,image-button-response,508,0,120175,1,high,tob,red,exp
12,1800332,LF,pictureLabels,tobdepwugbim,2157.11499997997,tob,image-button-response,508,1,120175,1,high,tob,red,exp
12,1799788,FL,pictureLabels,tobdepwugbim,2483.96499999944,tob,image-button-response,508,1,120175,1,high,tob,red,exp
12,1810091,LF,pictureLabels,tobdepwugbim,2025,tob,image-button-response,508,1,120175,1,high,tob,red,exp
12,1803490,FL,pictureLabels,tobdepwugbim,2108.3000000217,dep,image-button-response,508,0,120175,1,high,tob,red,exp
12,1802104,FL,pictureLabels,tobdepwugbim,1319.09499992616,tob,image-button-response,508,1,120175,1,high,tob,red,exp
12,1826940,LF,pictureLabels,tobdepwugbim,2228.43999997713,dep,image-button-response,508,0,120175,1,high,tob,red,exp
12,1823744,FL,pictureLabels,tobdepwugbim,1939.6499999566,tob,image-button-response,508,1,120175,1,high,tob,red,exp
12,1803489,FL,pictureLabels,tobdepwugbim,1544,tob,image-button-response,508,1,120175,1,high,tob,red,exp
12,1810079,LF,pictureLabels,tobdepwugbim,1097.57999994326,tob,image-button-response,508,1,120175,1,high,tob,red,exp
12,1826539,LF,pictureLabels,tobdepwugbim,2824.64000000618,tob,image-button-response,508,1,120175,1,high,tob,red,exp
12,1851428,FL,pictureLabels,tobdepwugbim,2227.92000000481,bim,image-button-response,508,0,120175,1,high,tob,red,exp
12,1802114,LF,pictureLabels,tobdepwugbim,1833,tob,image-button-response,508,1,120175,1,high,tob,red,exp
12,1803474,LF,pictureLabels,tobdepwugbim,2951.10000000003,bim,image-button-response,508,0,120175,1,high,tob,red,exp
12,1829020,FL,pictureLabels,tobdepwugbim,1586,tob,image-button-response,508,1,120175,1,high,tob,red,exp
12,1825250,LF,pictureLabels,tobdepwugbim,1327.19990907854,tob,image-button-response,508,1,120175,1,high,tob,red,exp
12,1802991,FL,pictureLabels,tobdepwugbim,1869.49499999173,dep,image-button-response,508,0,120175,1,high,tob,red,exp
12,1810112,LF,pictureLabels,tobdepwugbim,1173.99999999907,tob,image-button-response,508,1,120175,1,high,tob,red,exp
12,1810086,LF,pictureLabels,tobdepwugbim,1729.74500001874,tob,image-button-response,508,1,120175,1,high,tob,red,exp
12,1826537,LF,pictureLabels,tobdepwugbim,1133.09000001755,tob,image-button-response,508,1,120175,1,high,tob,red,exp
12,1826988,LF,pictureLabels,tobdepwugbim,1198.73999999982,tob,image-button-response,508,1,120175,1,high,tob,red,exp
12,1810097,LF,pictureLabels,tobdepwugbim,1183.68000001647,tob,image-button-response,508,1,120175,1,high,tob,red,exp
12,1802092,LF,pictureLabels,tobdepwugbim,942,tob,image-button-response,508,1,120175,1,high,tob,red,exp
12,1826935,FL,pictureLabels,tobdepwugbim,2203,bim,image-button-response,508,0,120175,1,high,tob,red,exp
12,1803023,LF,pictureLabels,tobdepwugbim,1854.18000002392,wug,image-button-response,508,0,120175,1,high,tob,red,exp
12,1825248,FL,pictureLabels,tobdepwugbim,2916.2900000083,tob,image-button-response,508,1,120175,1,high,tob,red,exp
12,1803039,LF,pictureLabels,tobdepwugbim,1312.64000001829,tob,image-button-response,508,1,120175,1,high,tob,red,exp
12,1826945,LF,pictureLabels,tobdepwugbim,1391.13500004169,tob,image-button-response,508,1,120175,1,high,tob,red,exp
12,1799963,FL,pictureLabels,tobdepwugbim,2005.59000001522,tob,image-button-response,508,1,120175,1,high,tob,red,exp
12,1824300,FL,pictureLabels,tobdepwugbim,1234.59499998717,tob,image-button-response,508,1,120175,1,high,tob,red,exp
12,1839507,FL,pictureLabels,tobdepwugbim,NA,NA,image-button-response,508,NA,120175,1,high,tob,red,exp
12,1824292,FL,pictureLabels,tobdepwugbim,1430.79499999294,tob,image-button-response,508,1,120175,1,high,tob,red,exp
12,1802124,FL,pictureLabels,tobdepwugbim,1109.3450000044,tob,image-button-response,508,1,120175,1,high,tob,red,exp
12,1798890,FL,pictureLabels,tobdepwugbim,1341.07499999664,tob,image-button-response,508,1,120175,1,high,tob,red,exp
12,1845201,FL,pictureLabels,tobdepwugbim,1607.25000000093,tob,image-button-response,508,1,120175,1,high,tob,red,exp
12,1826954,LF,pictureLabels,tobdepwugbim,930,tob,image-button-response,508,1,120175,1,high,tob,red,exp
12,1800334,LF,pictureLabels,tobdepwugbim,610,wug,image-button-response,508,0,120175,1,high,tob,red,exp
12,1802429,LF,pictureLabels,tobdepwugbim,1839.59999999928,tob,image-button-response,508,1,120175,1,high,tob,red,exp
12,1845206,FL,pictureLabels,tobdepwugbim,1843,tob,image-button-response,508,1,120175,1,high,tob,red,exp
12,1802988,LF,pictureLabels,tobdepwugbim,1537.90500003379,dep,image-button-response,508,0,120175,1,high,tob,red,exp
12,1803470,LF,pictureLabels,tobdepwugbim,1060.57500001043,tob,image-button-response,508,1,120175,1,high,tob,red,exp
12,1826983,LF,pictureLabels,tobdepwugbim,1365.81000000297,bim,image-button-response,508,0,120175,1,high,tob,red,exp
12,1826550,FL,pictureLabels,tobdepwugbim,1175.2799999995,tob,image-button-response,508,1,120175,1,high,tob,red,exp
12,1803468,LF,pictureLabels,tobdepwugbim,2562.56500002928,tob,image-button-response,508,1,120175,1,high,tob,red,exp
12,1802992,LF,pictureLabels,tobdepwugbim,1105.45000003185,tob,image-button-response,508,1,120175,1,high,tob,red,exp
12,1802993,LF,pictureLabels,tobdepwugbim,2139.20999999391,dep,image-button-response,508,0,120175,1,high,tob,red,exp
12,1825254,LF,pictureLabels,tobdepwugbim,1546,tob,image-button-response,508,1,120175,1,high,tob,red,exp
12,1826532,FL,pictureLabels,tobdepwugbim,918.844999978319,dep,image-button-response,508,0,120175,1,high,tob,red,exp
13,1824288,LF,pictureLabels,tobdepwugbim,879,dep,image-button-response,510,1,130375,3,high,dep,blue,exp
13,1823753,LF,pictureLabels,tobdepwugbim,1070.50499995239,dep,image-button-response,510,1,130375,3,high,dep,blue,exp
13,1851493,FL,pictureLabels,tobdepwugbim,994.750000000291,dep,image-button-response,510,1,130375,3,high,dep,blue,exp
13,1826949,FL,pictureLabels,tobdepwugbim,1606.17000004277,dep,image-button-response,510,1,130375,3,high,dep,blue,exp
13,1839495,LF,pictureLabels,tobdepwugbim,1097.15000000142,wug,image-button-response,510,0,130375,3,high,dep,blue,exp
13,1824287,LF,pictureLabels,tobdepwugbim,1872,wug,image-button-response,510,0,130375,3,high,dep,blue,exp
13,1846352,FL,pictureLabels,tobdepwugbim,1791.49500001222,wug,image-button-response,510,0,130375,3,high,dep,blue,exp
13,1827397,LF,pictureLabels,tobdepwugbim,1466.27999999863,dep,image-button-response,510,1,130375,3,high,dep,blue,exp
13,1846262,LF,pictureLabels,tobdepwugbim,1755.91500010341,dep,image-button-response,510,1,130375,3,high,dep,blue,exp
13,1826937,LF,pictureLabels,tobdepwugbim,1054,dep,image-button-response,510,1,130375,3,high,dep,blue,exp
13,1846353,FL,pictureLabels,tobdepwugbim,2066,dep,image-button-response,510,1,130375,3,high,dep,blue,exp
13,1826943,FL,pictureLabels,tobdepwugbim,1388.00999999512,dep,image-button-response,510,1,130375,3,high,dep,blue,exp
13,1826951,FL,pictureLabels,tobdepwugbim,1498.78999998327,dep,image-button-response,510,1,130375,3,high,dep,blue,exp
13,1828972,LF,pictureLabels,tobdepwugbim,2022.49999999907,dep,image-button-response,510,1,130375,3,high,dep,blue,exp
13,1802161,LF,pictureLabels,tobdepwugbim,2318.00000000116,dep,image-button-response,510,1,130375,3,high,dep,blue,exp
13,1827354,LF,pictureLabels,tobdepwugbim,984.524999999849,dep,image-button-response,510,1,130375,3,high,dep,blue,exp
13,1825235,LF,pictureLabels,tobdepwugbim,1582,dep,image-button-response,510,1,130375,3,high,dep,blue,exp
13,1810080,LF,pictureLabels,tobdepwugbim,1383.57499998529,tob,image-button-response,510,0,130375,3,high,dep,blue,exp
13,1803473,FL,pictureLabels,tobdepwugbim,2194.38000000082,dep,image-button-response,510,1,130375,3,high,dep,blue,exp
13,1846365,FL,pictureLabels,tobdepwugbim,NA,NA,image-button-response,510,NA,130375,3,high,dep,blue,exp
13,1829239,LF,pictureLabels,tobdepwugbim,1850.54499999387,wug,image-button-response,510,0,130375,3,high,dep,blue,exp
13,1825226,LF,pictureLabels,tobdepwugbim,725.275000033434,dep,image-button-response,510,1,130375,3,high,dep,blue,exp
13,1839497,LF,pictureLabels,tobdepwugbim,2240.11000001337,dep,image-button-response,510,1,130375,3,high,dep,blue,exp
13,1799781,LF,pictureLabels,tobdepwugbim,749,dep,image-button-response,510,1,130375,3,high,dep,blue,exp
13,1826969,FL,pictureLabels,tobdepwugbim,971.594999544322,dep,image-button-response,510,1,130375,3,high,dep,blue,exp
13,1828958,LF,pictureLabels,tobdepwugbim,963.990000000107,dep,image-button-response,510,1,130375,3,high,dep,blue,exp
13,1802216,LF,pictureLabels,tobdepwugbim,1740,wug,image-button-response,510,0,130375,3,high,dep,blue,exp
13,1846250,FL,pictureLabels,tobdepwugbim,1638.12000001781,wug,image-button-response,510,0,130375,3,high,dep,blue,exp
13,1827042,LF,pictureLabels,tobdepwugbim,1435.65500003751,dep,image-button-response,510,1,130375,3,high,dep,blue,exp
13,1823741,FL,pictureLabels,tobdepwugbim,1297,dep,image-button-response,510,1,130375,3,high,dep,blue,exp
13,1826535,LF,pictureLabels,tobdepwugbim,2051.35000008158,wug,image-button-response,510,0,130375,3,high,dep,blue,exp
13,1800335,LF,pictureLabels,tobdepwugbim,1819.61500001489,dep,image-button-response,510,1,130375,3,high,dep,blue,exp
13,1846372,FL,pictureLabels,tobdepwugbim,2972.80000000307,bim,image-button-response,510,0,130375,3,high,dep,blue,exp
13,1826929,LF,pictureLabels,tobdepwugbim,1116,dep,image-button-response,510,1,130375,3,high,dep,blue,exp
13,1828956,LF,pictureLabels,tobdepwugbim,1241.82999998447,dep,image-button-response,510,1,130375,3,high,dep,blue,exp
13,1803470,LF,pictureLabels,tobdepwugbim,840.224999992643,dep,image-button-response,510,1,130375,3,high,dep,blue,exp
13,1846376,FL,pictureLabels,tobdepwugbim,1881.00000000122,dep,image-button-response,510,1,130375,3,high,dep,blue,exp
13,1825240,LF,pictureLabels,tobdepwugbim,1223.01000001607,dep,image-button-response,510,1,130375,3,high,dep,blue,exp
13,1810086,LF,pictureLabels,tobdepwugbim,1278.61499995925,dep,image-button-response,510,1,130375,3,high,dep,blue,exp
13,1803483,FL,pictureLabels,tobdepwugbim,1013.2450000383,wug,image-button-response,510,0,130375,3,high,dep,blue,exp
13,1826931,LF,pictureLabels,tobdepwugbim,885,bim,image-button-response,510,0,130375,3,high,dep,blue,exp
13,1851423,FL,pictureLabels,tobdepwugbim,1350.42500000057,tob,image-button-response,510,0,130375,3,high,dep,blue,exp
13,1825238,LF,pictureLabels,tobdepwugbim,1036.33499999705,wug,image-button-response,510,0,130375,3,high,dep,blue,exp
13,1826930,LF,pictureLabels,tobdepwugbim,1091.56500012614,dep,image-button-response,510,1,130375,3,high,dep,blue,exp
13,1803039,LF,pictureLabels,tobdepwugbim,1692.52000004053,dep,image-button-response,510,1,130375,3,high,dep,blue,exp
13,1825241,LF,pictureLabels,tobdepwugbim,1333.90499989036,dep,image-button-response,510,1,130375,3,high,dep,blue,exp
13,1826945,LF,pictureLabels,tobdepwugbim,1122.2200000193,dep,image-button-response,510,1,130375,3,high,dep,blue,exp
13,1824284,FL,pictureLabels,tobdepwugbim,598.63999998197,tob,image-button-response,510,0,130375,3,high,dep,blue,exp
13,1826928,LF,pictureLabels,tobdepwugbim,1370.84500002675,tob,image-button-response,510,0,130375,3,high,dep,blue,exp
13,1846354,FL,pictureLabels,tobdepwugbim,1452.54500000004,dep,image-button-response,510,1,130375,3,high,dep,blue,exp
13,1828951,LF,pictureLabels,tobdepwugbim,1007.31000001542,dep,image-button-response,510,1,130375,3,high,dep,blue,exp
13,1845203,LF,pictureLabels,tobdepwugbim,752.919999998994,dep,image-button-response,510,1,130375,3,high,dep,blue,exp
13,1826940,LF,pictureLabels,tobdepwugbim,1238.55499993078,tob,image-button-response,510,0,130375,3,high,dep,blue,exp
13,1802091,LF,pictureLabels,tobdepwugbim,1587.06499999971,dep,image-button-response,510,1,130375,3,high,dep,blue,exp
13,1810079,LF,pictureLabels,tobdepwugbim,1014.63500002865,dep,image-button-response,510,1,130375,3,high,dep,blue,exp
13,1826538,LF,pictureLabels,tobdepwugbim,1118.68000001414,dep,image-button-response,510,1,130375,3,high,dep,blue,exp
13,1803489,FL,pictureLabels,tobdepwugbim,1462,dep,image-button-response,510,1,130375,3,high,dep,blue,exp
13,1802089,LF,pictureLabels,tobdepwugbim,2156.8350000307,wug,image-button-response,510,0,130375,3,high,dep,blue,exp
13,1851428,FL,pictureLabels,tobdepwugbim,2650.77500000189,tob,image-button-response,510,0,130375,3,high,dep,blue,exp
13,1803474,LF,pictureLabels,tobdepwugbim,1749.89999999997,wug,image-button-response,510,0,130375,3,high,dep,blue,exp
13,1810315,LF,pictureLabels,tobdepwugbim,2152.00000000186,tob,image-button-response,510,0,130375,3,high,dep,blue,exp
13,1810084,LF,pictureLabels,tobdepwugbim,1947.55999999685,bim,image-button-response,510,0,130375,3,high,dep,blue,exp
13,1824300,FL,pictureLabels,tobdepwugbim,987.169999978505,dep,image-button-response,510,1,130375,3,high,dep,blue,exp
13,1803490,FL,pictureLabels,tobdepwugbim,1482.97500002082,dep,image-button-response,510,1,130375,3,high,dep,blue,exp
13,1810091,LF,pictureLabels,tobdepwugbim,2013,dep,image-button-response,510,1,130375,3,high,dep,blue,exp
13,1826537,LF,pictureLabels,tobdepwugbim,3307.12999997195,wug,image-button-response,510,0,130375,3,high,dep,blue,exp
13,1825234,FL,pictureLabels,tobdepwugbim,1375,wug,image-button-response,510,0,130375,3,high,dep,blue,exp
13,1846355,FL,pictureLabels,tobdepwugbim,3316.88500000018,tob,image-button-response,510,0,130375,3,high,dep,blue,exp
13,1802102,LF,pictureLabels,tobdepwugbim,849.205000000424,dep,image-button-response,510,1,130375,3,high,dep,blue,exp
13,1802109,FL,pictureLabels,tobdepwugbim,2029.72500002943,dep,image-button-response,510,1,130375,3,high,dep,blue,exp
13,1825233,FL,pictureLabels,tobdepwugbim,2146,wug,image-button-response,510,0,130375,3,high,dep,blue,exp
13,1802989,FL,pictureLabels,tobdepwugbim,1244.41999999544,wug,image-button-response,510,0,130375,3,high,dep,blue,exp
13,1823786,FL,pictureLabels,tobdepwugbim,1284.58499999938,dep,image-button-response,510,1,130375,3,high,dep,blue,exp
13,1802114,LF,pictureLabels,tobdepwugbim,1420,dep,image-button-response,510,1,130375,3,high,dep,blue,exp
13,1803476,FL,pictureLabels,tobdepwugbim,1281.43000000273,dep,image-button-response,510,1,130375,3,high,dep,blue,exp
13,1802990,FL,pictureLabels,tobdepwugbim,1333.23999999993,dep,image-button-response,510,1,130375,3,high,dep,blue,exp
13,1827017,FL,pictureLabels,tobdepwugbim,1265.49999997951,bim,image-button-response,510,0,130375,3,high,dep,blue,exp
13,1798900,FL,pictureLabels,tobdepwugbim,1435.48000001465,dep,image-button-response,510,1,130375,3,high,dep,blue,exp
13,1802104,FL,pictureLabels,tobdepwugbim,1078.59000004828,dep,image-button-response,510,1,130375,3,high,dep,blue,exp
13,1851422,FL,pictureLabels,tobdepwugbim,1051.28499993589,dep,image-button-response,510,1,130375,3,high,dep,blue,exp
13,1827166,FL,pictureLabels,tobdepwugbim,1939,tob,image-button-response,510,0,130375,3,high,dep,blue,exp
13,1826539,LF,pictureLabels,tobdepwugbim,2190.25999994483,dep,image-button-response,510,1,130375,3,high,dep,blue,exp
13,1803023,LF,pictureLabels,tobdepwugbim,1558.83999995422,bim,image-button-response,510,0,130375,3,high,dep,blue,exp
13,1802998,FL,pictureLabels,tobdepwugbim,784.985000034794,dep,image-button-response,510,1,130375,3,high,dep,blue,exp
13,1828953,FL,pictureLabels,tobdepwugbim,1811.12500000012,dep,image-button-response,510,1,130375,3,high,dep,blue,exp
13,1803485,FL,pictureLabels,tobdepwugbim,1130.70499990135,dep,image-button-response,510,1,130375,3,high,dep,blue,exp
13,1802986,FL,pictureLabels,tobdepwugbim,1151.99999999994,dep,image-button-response,510,1,130375,3,high,dep,blue,exp
13,1800336,LF,pictureLabels,tobdepwugbim,1257.32500001322,bim,image-button-response,510,0,130375,3,high,dep,blue,exp
13,1846363,FL,pictureLabels,tobdepwugbim,853.524999998743,dep,image-button-response,510,1,130375,3,high,dep,blue,exp
13,1826954,LF,pictureLabels,tobdepwugbim,1402,dep,image-button-response,510,1,130375,3,high,dep,blue,exp
13,1810094,LF,pictureLabels,tobdepwugbim,950.905000034254,dep,image-button-response,510,1,130375,3,high,dep,blue,exp
13,1803468,LF,pictureLabels,tobdepwugbim,1241.68999999529,dep,image-button-response,510,1,130375,3,high,dep,blue,exp
13,1802993,LF,pictureLabels,tobdepwugbim,1447.46500000474,tob,image-button-response,510,0,130375,3,high,dep,blue,exp
13,1826988,LF,pictureLabels,tobdepwugbim,778.290000000212,dep,image-button-response,510,1,130375,3,high,dep,blue,exp
13,1823744,FL,pictureLabels,tobdepwugbim,1776.61999990232,tob,image-button-response,510,0,130375,3,high,dep,blue,exp
13,1802095,FL,pictureLabels,tobdepwugbim,1839.29000000353,dep,image-button-response,510,1,130375,3,high,dep,blue,exp
13,1802124,FL,pictureLabels,tobdepwugbim,3258.55999998748,dep,image-button-response,510,1,130375,3,high,dep,blue,exp
13,1827024,LF,pictureLabels,tobdepwugbim,2357.71500004921,wug,image-button-response,510,0,130375,3,high,dep,blue,exp
13,1846243,LF,pictureLabels,tobdepwugbim,1710.64500000095,tob,image-button-response,510,0,130375,3,high,dep,blue,exp
13,1825248,FL,pictureLabels,tobdepwugbim,2418.99999999441,dep,image-button-response,510,1,130375,3,high,dep,blue,exp
13,1828954,FL,pictureLabels,tobdepwugbim,2099.27999999857,tob,image-button-response,510,0,130375,3,high,dep,blue,exp
13,1825250,LF,pictureLabels,tobdepwugbim,1642.20017904887,dep,image-button-response,510,1,130375,3,high,dep,blue,exp
13,1803469,FL,pictureLabels,tobdepwugbim,NA,NA,image-button-response,510,NA,130375,3,high,dep,blue,exp
13,1802988,LF,pictureLabels,tobdepwugbim,2075.3900000127,dep,image-button-response,510,1,130375,3,high,dep,blue,exp
13,1825254,LF,pictureLabels,tobdepwugbim,2336,dep,image-button-response,510,1,130375,3,high,dep,blue,exp
13,1846359,FL,pictureLabels,tobdepwugbim,2171,dep,image-button-response,510,1,130375,3,high,dep,blue,exp
13,1827017,FL,pictureLabels,tobdepwugbim,555.600000021514,dep,image-button-response,510,1,130375,3,high,dep,blue,exp
13,1845195,LF,pictureLabels,tobdepwugbim,1115.23500003386,dep,image-button-response,510,1,130375,3,high,dep,blue,exp
13,1802429,LF,pictureLabels,tobdepwugbim,1429.69999999693,dep,image-button-response,510,1,130375,3,high,dep,blue,exp
13,1826532,FL,pictureLabels,tobdepwugbim,2507.09000008646,wug,image-button-response,510,0,130375,3,high,dep,blue,exp
13,1810097,LF,pictureLabels,tobdepwugbim,1600.47499998473,dep,image-button-response,510,1,130375,3,high,dep,blue,exp
13,1845206,FL,pictureLabels,tobdepwugbim,NA,NA,image-button-response,510,NA,130375,3,high,dep,blue,exp
13,1800348,FL,pictureLabels,tobdepwugbim,1124.1699999955,wug,image-button-response,510,0,130375,3,high,dep,blue,exp
13,1799783,LF,pictureLabels,tobdepwugbim,974.944999907166,wug,image-button-response,510,0,130375,3,high,dep,blue,exp
13,1800341,FL,pictureLabels,tobdepwugbim,1099.09499999776,dep,image-button-response,510,1,130375,3,high,dep,blue,exp
13,1803472,FL,pictureLabels,tobdepwugbim,1970.20499999798,dep,image-button-response,510,1,130375,3,high,dep,blue,exp
13,1825290,FL,pictureLabels,tobdepwugbim,1019.4649999903,wug,image-button-response,510,0,130375,3,high,dep,blue,exp
13,1803487,FL,pictureLabels,tobdepwugbim,1575.8199999691,dep,image-button-response,510,1,130375,3,high,dep,blue,exp
13,1824292,FL,pictureLabels,tobdepwugbim,1394.8350000137,dep,image-button-response,510,1,130375,3,high,dep,blue,exp
13,1802991,FL,pictureLabels,tobdepwugbim,1939.67500003055,dep,image-button-response,510,1,130375,3,high,dep,blue,exp
13,1845201,FL,pictureLabels,tobdepwugbim,1153.32499996293,dep,image-button-response,510,1,130375,3,high,dep,blue,exp
13,1799599,FL,pictureLabels,tobdepwugbim,2071.45499999932,dep,image-button-response,510,1,130375,3,high,dep,blue,exp
13,1826935,FL,pictureLabels,tobdepwugbim,2268,tob,image-button-response,510,0,130375,3,high,dep,blue,exp
13,1829020,FL,pictureLabels,tobdepwugbim,2345,dep,image-button-response,510,1,130375,3,high,dep,blue,exp
13,1802092,LF,pictureLabels,tobdepwugbim,1015,dep,image-button-response,510,1,130375,3,high,dep,blue,exp
13,1798890,FL,pictureLabels,tobdepwugbim,1204.61000000068,dep,image-button-response,510,1,130375,3,high,dep,blue,exp
13,1800332,LF,pictureLabels,tobdepwugbim,2314.95999998879,dep,image-button-response,510,1,130375,3,high,dep,blue,exp
13,1800334,LF,pictureLabels,tobdepwugbim,1168,dep,image-button-response,510,1,130375,3,high,dep,blue,exp
13,1826983,LF,pictureLabels,tobdepwugbim,1507.19999999274,bim,image-button-response,510,0,130375,3,high,dep,blue,exp
13,1800478,FL,pictureLabels,tobdepwugbim,1863.82500000764,dep,image-button-response,510,1,130375,3,high,dep,blue,exp
13,1803481,FL,pictureLabels,tobdepwugbim,1004.50999999885,dep,image-button-response,510,1,130375,3,high,dep,blue,exp
13,1839507,FL,pictureLabels,tobdepwugbim,1764.69499996165,dep,image-button-response,510,1,130375,3,high,dep,blue,exp
13,1802992,LF,pictureLabels,tobdepwugbim,1098.74500002479,dep,image-button-response,510,1,130375,3,high,dep,blue,exp
13,1803471,FL,pictureLabels,tobdepwugbim,785,dep,image-button-response,510,1,130375,3,high,dep,blue,exp
13,1810112,LF,pictureLabels,tobdepwugbim,1146.75999999954,dep,image-button-response,510,1,130375,3,high,dep,blue,exp
13,1799788,FL,pictureLabels,tobdepwugbim,1304.51999999967,dep,image-button-response,510,1,130375,3,high,dep,blue,exp
13,1799963,FL,pictureLabels,tobdepwugbim,1122.20499996329,dep,image-button-response,510,1,130375,3,high,dep,blue,exp
13,1826550,FL,pictureLabels,tobdepwugbim,1595.76499999821,dep,image-button-response,510,1,130375,3,high,dep,blue,exp
14,1824288,LF,pictureLabels,tobdepwugbim,954,bim,image-button-response,512,1,140400,4,control,bim,lightblue,control
14,1846365,FL,pictureLabels,tobdepwugbim,817.755000000063,bim,image-button-response,512,1,140400,4,control,bim,lightblue,control
14,1827354,LF,pictureLabels,tobdepwugbim,1070.0400000005,bim,image-button-response,512,1,140400,4,control,bim,lightblue,control
14,1846376,FL,pictureLabels,tobdepwugbim,3347.00000000157,bim,image-button-response,512,1,140400,4,control,bim,lightblue,control
14,1824287,LF,pictureLabels,tobdepwugbim,1028,bim,image-button-response,512,1,140400,4,control,bim,lightblue,control
14,1827397,LF,pictureLabels,tobdepwugbim,1599.99500000046,bim,image-button-response,512,1,140400,4,control,bim,lightblue,control
14,1846353,FL,pictureLabels,tobdepwugbim,1045,bim,image-button-response,512,1,140400,4,control,bim,lightblue,control
14,1823753,LF,pictureLabels,tobdepwugbim,966.575000085868,bim,image-button-response,512,1,140400,4,control,bim,lightblue,control
14,1825250,LF,pictureLabels,tobdepwugbim,1928.59982804966,wug,image-button-response,512,0,140400,4,control,bim,lightblue,control
14,1827042,LF,pictureLabels,tobdepwugbim,987.559999921359,bim,image-button-response,512,1,140400,4,control,bim,lightblue,control
14,1828972,LF,pictureLabels,tobdepwugbim,1460.9999999993,tob,image-button-response,512,0,140400,4,control,bim,lightblue,control
14,1799781,LF,pictureLabels,tobdepwugbim,1260,wug,image-button-response,512,0,140400,4,control,bim,lightblue,control
14,1825238,LF,pictureLabels,tobdepwugbim,940.074999998615,bim,image-button-response,512,1,140400,4,control,bim,lightblue,control
14,1825241,LF,pictureLabels,tobdepwugbim,1370.05999998655,bim,image-button-response,512,1,140400,4,control,bim,lightblue,control
14,1828954,FL,pictureLabels,tobdepwugbim,1394.71000000049,bim,image-button-response,512,1,140400,4,control,bim,lightblue,control
14,1846250,FL,pictureLabels,tobdepwugbim,1789.50500002247,bim,image-button-response,512,1,140400,4,control,bim,lightblue,control
14,1826929,LF,pictureLabels,tobdepwugbim,1124,bim,image-button-response,512,1,140400,4,control,bim,lightblue,control
14,1800335,LF,pictureLabels,tobdepwugbim,1251.64999999106,bim,image-button-response,512,1,140400,4,control,bim,lightblue,control
14,1826931,LF,pictureLabels,tobdepwugbim,990,dep,image-button-response,512,0,140400,4,control,bim,lightblue,control
14,1846352,FL,pictureLabels,tobdepwugbim,1564.59499988705,bim,image-button-response,512,1,140400,4,control,bim,lightblue,control
14,1825240,LF,pictureLabels,tobdepwugbim,1217.56999997888,bim,image-button-response,512,1,140400,4,control,bim,lightblue,control
14,1846363,FL,pictureLabels,tobdepwugbim,1100.37000000011,bim,image-button-response,512,1,140400,4,control,bim,lightblue,control
14,1846372,FL,pictureLabels,tobdepwugbim,2656.39999999991,tob,image-button-response,512,0,140400,4,control,bim,lightblue,control
14,1846355,FL,pictureLabels,tobdepwugbim,1137.7100000027,bim,image-button-response,512,1,140400,4,control,bim,lightblue,control
14,1851423,FL,pictureLabels,tobdepwugbim,1293.40500000032,bim,image-button-response,512,1,140400,4,control,bim,lightblue,control
14,1846262,LF,pictureLabels,tobdepwugbim,1398.19999993779,bim,image-button-response,512,1,140400,4,control,bim,lightblue,control
14,1827017,FL,pictureLabels,tobdepwugbim,1282.20000001602,dep,image-button-response,512,0,140400,4,control,bim,lightblue,control
14,1826535,LF,pictureLabels,tobdepwugbim,1032.34999999404,bim,image-button-response,512,1,140400,4,control,bim,lightblue,control
14,1829239,LF,pictureLabels,tobdepwugbim,2528.57500000391,dep,image-button-response,512,0,140400,4,control,bim,lightblue,control
14,1803485,FL,pictureLabels,tobdepwugbim,1076.21499989182,bim,image-button-response,512,1,140400,4,control,bim,lightblue,control
14,1826949,FL,pictureLabels,tobdepwugbim,1747.7699998999,bim,image-button-response,512,1,140400,4,control,bim,lightblue,control
14,1802988,LF,pictureLabels,tobdepwugbim,1155.92000004835,bim,image-button-response,512,1,140400,4,control,bim,lightblue,control
14,1839497,LF,pictureLabels,tobdepwugbim,1052.52999998629,bim,image-button-response,512,1,140400,4,control,bim,lightblue,control
14,1825226,LF,pictureLabels,tobdepwugbim,996.48500001058,bim,image-button-response,512,1,140400,4,control,bim,lightblue,control
14,1826945,LF,pictureLabels,tobdepwugbim,1818.2149999775,bim,image-button-response,512,1,140400,4,control,bim,lightblue,control
14,1802161,LF,pictureLabels,tobdepwugbim,1315.4000000013,bim,image-button-response,512,1,140400,4,control,bim,lightblue,control
14,1827166,FL,pictureLabels,tobdepwugbim,1245,bim,image-button-response,512,1,140400,4,control,bim,lightblue,control
14,1828958,LF,pictureLabels,tobdepwugbim,925.344999999623,bim,image-button-response,512,1,140400,4,control,bim,lightblue,control
14,1823741,FL,pictureLabels,tobdepwugbim,1698,dep,image-button-response,512,0,140400,4,control,bim,lightblue,control
14,1828953,FL,pictureLabels,tobdepwugbim,2037.47500000102,bim,image-button-response,512,1,140400,4,control,bim,lightblue,control
14,1826930,LF,pictureLabels,tobdepwugbim,1071.29999995232,bim,image-button-response,512,1,140400,4,control,bim,lightblue,control
14,1851428,FL,pictureLabels,tobdepwugbim,1829.03000000806,dep,image-button-response,512,0,140400,4,control,bim,lightblue,control
14,1802986,FL,pictureLabels,tobdepwugbim,1030,bim,image-button-response,512,1,140400,4,control,bim,lightblue,control
14,1826951,FL,pictureLabels,tobdepwugbim,1462.8200000152,bim,image-button-response,512,1,140400,4,control,bim,lightblue,control
14,1826969,FL,pictureLabels,tobdepwugbim,965.17000021413,bim,image-button-response,512,1,140400,4,control,bim,lightblue,control
14,1828956,LF,pictureLabels,tobdepwugbim,775.324999995064,bim,image-button-response,512,1,140400,4,control,bim,lightblue,control
14,1846354,FL,pictureLabels,tobdepwugbim,1096.26500000013,bim,image-button-response,512,1,140400,4,control,bim,lightblue,control
14,1851422,FL,pictureLabels,tobdepwugbim,1075.22999995854,bim,image-button-response,512,1,140400,4,control,bim,lightblue,control
14,1825235,LF,pictureLabels,tobdepwugbim,1302,bim,image-button-response,512,1,140400,4,control,bim,lightblue,control
14,1826940,LF,pictureLabels,tobdepwugbim,1082.69500010647,bim,image-button-response,512,1,140400,4,control,bim,lightblue,control
14,1810086,LF,pictureLabels,tobdepwugbim,1689.04500000644,bim,image-button-response,512,1,140400,4,control,bim,lightblue,control
14,1826943,FL,pictureLabels,tobdepwugbim,1147.30499999132,bim,image-button-response,512,1,140400,4,control,bim,lightblue,control
14,1826538,LF,pictureLabels,tobdepwugbim,1038.74500002712,bim,image-button-response,512,1,140400,4,control,bim,lightblue,control
14,1803489,FL,pictureLabels,tobdepwugbim,1618,bim,image-button-response,512,1,140400,4,control,bim,lightblue,control
14,1851493,FL,pictureLabels,tobdepwugbim,1149.21000000002,bim,image-button-response,512,1,140400,4,control,bim,lightblue,control
14,1823786,FL,pictureLabels,tobdepwugbim,1392.23999999923,bim,image-button-response,512,1,140400,4,control,bim,lightblue,control
14,1810080,LF,pictureLabels,tobdepwugbim,1523.02000002237,dep,image-button-response,512,0,140400,4,control,bim,lightblue,control
14,1802114,LF,pictureLabels,tobdepwugbim,1410,bim,image-button-response,512,1,140400,4,control,bim,lightblue,control
14,1829020,FL,pictureLabels,tobdepwugbim,1397,bim,image-button-response,512,1,140400,4,control,bim,lightblue,control
14,1810084,LF,pictureLabels,tobdepwugbim,908.974999998463,tob,image-button-response,512,0,140400,4,control,bim,lightblue,control
14,1825254,LF,pictureLabels,tobdepwugbim,1297,bim,image-button-response,512,1,140400,4,control,bim,lightblue,control
14,1802216,LF,pictureLabels,tobdepwugbim,2689,tob,image-button-response,512,0,140400,4,control,bim,lightblue,control
14,1802993,LF,pictureLabels,tobdepwugbim,3137.06999999704,wug,image-button-response,512,0,140400,4,control,bim,lightblue,control
14,1803490,FL,pictureLabels,tobdepwugbim,1578.66500000819,bim,image-button-response,512,1,140400,4,control,bim,lightblue,control
14,1845195,LF,pictureLabels,tobdepwugbim,1028.99500000058,bim,image-button-response,512,1,140400,4,control,bim,lightblue,control
14,1802102,LF,pictureLabels,tobdepwugbim,1808.71500000102,bim,image-button-response,512,1,140400,4,control,bim,lightblue,control
14,1802095,FL,pictureLabels,tobdepwugbim,1727.66000000411,bim,image-button-response,512,1,140400,4,control,bim,lightblue,control
14,1810079,LF,pictureLabels,tobdepwugbim,1063.42999998014,bim,image-button-response,512,1,140400,4,control,bim,lightblue,control
14,1803039,LF,pictureLabels,tobdepwugbim,1675.50000001211,bim,image-button-response,512,1,140400,4,control,bim,lightblue,control
14,1802089,LF,pictureLabels,tobdepwugbim,1777.13000006042,bim,image-button-response,512,1,140400,4,control,bim,lightblue,control
14,1800336,LF,pictureLabels,tobdepwugbim,1957.48500002082,tob,image-button-response,512,0,140400,4,control,bim,lightblue,control
14,1802990,FL,pictureLabels,tobdepwugbim,1405.29999999853,bim,image-button-response,512,1,140400,4,control,bim,lightblue,control
14,1826928,LF,pictureLabels,tobdepwugbim,1612.06499999389,bim,image-button-response,512,1,140400,4,control,bim,lightblue,control
14,1824300,FL,pictureLabels,tobdepwugbim,1088.08499999577,bim,image-button-response,512,1,140400,4,control,bim,lightblue,control
14,1827017,FL,pictureLabels,tobdepwugbim,559.199999959674,bim,image-button-response,512,1,140400,4,control,bim,lightblue,control
14,1845203,LF,pictureLabels,tobdepwugbim,1049.78000000119,bim,image-button-response,512,1,140400,4,control,bim,lightblue,control
14,1845201,FL,pictureLabels,tobdepwugbim,1143.3749999851,bim,image-button-response,512,1,140400,4,control,bim,lightblue,control
14,1823744,FL,pictureLabels,tobdepwugbim,1194.50999994297,bim,image-button-response,512,1,140400,4,control,bim,lightblue,control
14,1803483,FL,pictureLabels,tobdepwugbim,1019.92499968037,bim,image-button-response,512,1,140400,4,control,bim,lightblue,control
14,1803023,LF,pictureLabels,tobdepwugbim,1587.04499999294,tob,image-button-response,512,0,140400,4,control,bim,lightblue,control
14,1845206,FL,pictureLabels,tobdepwugbim,2380,dep,image-button-response,512,0,140400,4,control,bim,lightblue,control
14,1846243,LF,pictureLabels,tobdepwugbim,1539.29500000051,bim,image-button-response,512,1,140400,4,control,bim,lightblue,control
14,1799783,LF,pictureLabels,tobdepwugbim,1130.08999987505,bim,image-button-response,512,1,140400,4,control,bim,lightblue,control
14,1802109,FL,pictureLabels,tobdepwugbim,2390.06500004325,wug,image-button-response,512,0,140400,4,control,bim,lightblue,control
14,1839495,LF,pictureLabels,tobdepwugbim,782.624999999767,bim,image-button-response,512,1,140400,4,control,bim,lightblue,control
14,1803469,FL,pictureLabels,tobdepwugbim,1368.89499999961,bim,image-button-response,512,1,140400,4,control,bim,lightblue,control
14,1826954,LF,pictureLabels,tobdepwugbim,1099,bim,image-button-response,512,1,140400,4,control,bim,lightblue,control
14,1802992,LF,pictureLabels,tobdepwugbim,1054.98000001535,bim,image-button-response,512,1,140400,4,control,bim,lightblue,control
14,1828951,LF,pictureLabels,tobdepwugbim,1435.1500000339,bim,image-button-response,512,1,140400,4,control,bim,lightblue,control
14,1846359,FL,pictureLabels,tobdepwugbim,1485,bim,image-button-response,512,1,140400,4,control,bim,lightblue,control
14,1826537,LF,pictureLabels,tobdepwugbim,1200.5750000244,bim,image-button-response,512,1,140400,4,control,bim,lightblue,control
14,1802091,LF,pictureLabels,tobdepwugbim,1730.24999999959,bim,image-button-response,512,1,140400,4,control,bim,lightblue,control
14,1825234,FL,pictureLabels,tobdepwugbim,1286,bim,image-button-response,512,1,140400,4,control,bim,lightblue,control
14,1826988,LF,pictureLabels,tobdepwugbim,1012.78499999898,bim,image-button-response,512,1,140400,4,control,bim,lightblue,control
14,1802989,FL,pictureLabels,tobdepwugbim,987.974999996368,bim,image-button-response,512,1,140400,4,control,bim,lightblue,control
14,1800348,FL,pictureLabels,tobdepwugbim,766.520000004675,bim,image-button-response,512,1,140400,4,control,bim,lightblue,control
14,1825233,FL,pictureLabels,tobdepwugbim,1272,bim,image-button-response,512,1,140400,4,control,bim,lightblue,control
14,1800341,FL,pictureLabels,tobdepwugbim,1082.97999999195,bim,image-button-response,512,1,140400,4,control,bim,lightblue,control
14,1824284,FL,pictureLabels,tobdepwugbim,839.599999831989,bim,image-button-response,512,1,140400,4,control,bim,lightblue,control
14,1810315,LF,pictureLabels,tobdepwugbim,2917.00000013225,bim,image-button-response,512,1,140400,4,control,bim,lightblue,control
14,1799963,FL,pictureLabels,tobdepwugbim,1156.10500000184,bim,image-button-response,512,1,140400,4,control,bim,lightblue,control
14,1839507,FL,pictureLabels,tobdepwugbim,NA,NA,image-button-response,512,NA,140400,4,control,bim,lightblue,control
14,1810091,LF,pictureLabels,tobdepwugbim,1448,bim,image-button-response,512,1,140400,4,control,bim,lightblue,control
14,1824292,FL,pictureLabels,tobdepwugbim,1095.83500000008,bim,image-button-response,512,1,140400,4,control,bim,lightblue,control
14,1826532,FL,pictureLabels,tobdepwugbim,950.949999969453,bim,image-button-response,512,1,140400,4,control,bim,lightblue,control
14,1802104,FL,pictureLabels,tobdepwugbim,979.645000072196,bim,image-button-response,512,1,140400,4,control,bim,lightblue,control
14,1802998,FL,pictureLabels,tobdepwugbim,1273.3199999202,bim,image-button-response,512,1,140400,4,control,bim,lightblue,control
14,1826539,LF,pictureLabels,tobdepwugbim,940.455000032671,bim,image-button-response,512,1,140400,4,control,bim,lightblue,control
14,1826935,FL,pictureLabels,tobdepwugbim,827,wug,image-button-response,512,0,140400,4,control,bim,lightblue,control
14,1800478,FL,pictureLabels,tobdepwugbim,2112.48999997042,bim,image-button-response,512,1,140400,4,control,bim,lightblue,control
14,1803473,FL,pictureLabels,tobdepwugbim,1105.67000000447,bim,image-button-response,512,1,140400,4,control,bim,lightblue,control
14,1803474,LF,pictureLabels,tobdepwugbim,1338.59999999998,dep,image-button-response,512,0,140400,4,control,bim,lightblue,control
14,1799599,FL,pictureLabels,tobdepwugbim,1190.57499999966,bim,image-button-response,512,1,140400,4,control,bim,lightblue,control
14,1800332,LF,pictureLabels,tobdepwugbim,1799.34500000672,bim,image-button-response,512,1,140400,4,control,bim,lightblue,control
14,1802991,FL,pictureLabels,tobdepwugbim,1472.09499997552,tob,image-button-response,512,0,140400,4,control,bim,lightblue,control
14,1803472,FL,pictureLabels,tobdepwugbim,1320.37000000128,bim,image-button-response,512,1,140400,4,control,bim,lightblue,control
14,1798890,FL,pictureLabels,tobdepwugbim,1219.81000000238,bim,image-button-response,512,1,140400,4,control,bim,lightblue,control
14,1802124,FL,pictureLabels,tobdepwugbim,1299.33000006713,bim,image-button-response,512,1,140400,4,control,bim,lightblue,control
14,1798900,FL,pictureLabels,tobdepwugbim,3372.33000001288,wug,image-button-response,512,0,140400,4,control,bim,lightblue,control
14,1803468,LF,pictureLabels,tobdepwugbim,910.875000001397,bim,image-button-response,512,1,140400,4,control,bim,lightblue,control
14,1825248,FL,pictureLabels,tobdepwugbim,1333.59000000928,bim,image-button-response,512,1,140400,4,control,bim,lightblue,control
14,1810097,LF,pictureLabels,tobdepwugbim,1176.07999988832,bim,image-button-response,512,1,140400,4,control,bim,lightblue,control
14,1810112,LF,pictureLabels,tobdepwugbim,783.954999999027,wug,image-button-response,512,0,140400,4,control,bim,lightblue,control
14,1827024,LF,pictureLabels,tobdepwugbim,2002.55000003381,wug,image-button-response,512,0,140400,4,control,bim,lightblue,control
14,1826937,LF,pictureLabels,tobdepwugbim,1263,bim,image-button-response,512,1,140400,4,control,bim,lightblue,control
14,1826983,LF,pictureLabels,tobdepwugbim,1828.01500000642,wug,image-button-response,512,0,140400,4,control,bim,lightblue,control
14,1803481,FL,pictureLabels,tobdepwugbim,1279.39999999944,bim,image-button-response,512,1,140400,4,control,bim,lightblue,control
14,1803471,FL,pictureLabels,tobdepwugbim,948,bim,image-button-response,512,1,140400,4,control,bim,lightblue,control
14,1802429,LF,pictureLabels,tobdepwugbim,1333.60000000172,bim,image-button-response,512,1,140400,4,control,bim,lightblue,control
14,1802092,LF,pictureLabels,tobdepwugbim,1257,wug,image-button-response,512,0,140400,4,control,bim,lightblue,control
14,1800334,LF,pictureLabels,tobdepwugbim,1159,bim,image-button-response,512,1,140400,4,control,bim,lightblue,control
14,1826550,FL,pictureLabels,tobdepwugbim,990.904999998747,bim,image-button-response,512,1,140400,4,control,bim,lightblue,control
14,1825290,FL,pictureLabels,tobdepwugbim,NA,NA,image-button-response,512,NA,140400,4,control,bim,lightblue,control
14,1799788,FL,pictureLabels,tobdepwugbim,1420.92500000034,bim,image-button-response,512,1,140400,4,control,bim,lightblue,control
14,1803470,LF,pictureLabels,tobdepwugbim,1038.34999998799,bim,image-button-response,512,1,140400,4,control,bim,lightblue,control
14,1810094,LF,pictureLabels,tobdepwugbim,1183.52500000037,bim,image-button-response,512,1,140400,4,control,bim,lightblue,control
14,1803487,FL,pictureLabels,tobdepwugbim,987.36500000814,bim,image-button-response,512,1,140400,4,control,bim,lightblue,control
14,1803476,FL,pictureLabels,tobdepwugbim,1045.12500000047,bim,image-button-response,512,1,140400,4,control,bim,lightblue,control
15,1846372,FL,pictureLabels,tobdepwugbim,1398.90000000014,bim,image-button-response,514,0,150125,1,low,tob,purple,exp
15,1828972,LF,pictureLabels,tobdepwugbim,1962.99999999965,wug,image-button-response,514,0,150125,1,low,tob,purple,exp
15,1824288,LF,pictureLabels,tobdepwugbim,2173,tob,image-button-response,514,1,150125,1,low,tob,purple,exp
15,1839495,LF,pictureLabels,tobdepwugbim,1928.89500000089,wug,image-button-response,514,0,150125,1,low,tob,purple,exp
15,1839497,LF,pictureLabels,tobdepwugbim,1452.2949999664,wug,image-button-response,514,0,150125,1,low,tob,purple,exp
15,1829239,LF,pictureLabels,tobdepwugbim,1235.13500002446,bim,image-button-response,514,0,150125,1,low,tob,purple,exp
15,1823753,LF,pictureLabels,tobdepwugbim,1052.49500006903,wug,image-button-response,514,0,150125,1,low,tob,purple,exp
15,1827397,LF,pictureLabels,tobdepwugbim,932.590000000433,wug,image-button-response,514,0,150125,1,low,tob,purple,exp
15,1826929,LF,pictureLabels,tobdepwugbim,984,wug,image-button-response,514,0,150125,1,low,tob,purple,exp
15,1846363,FL,pictureLabels,tobdepwugbim,1502.97499999567,wug,image-button-response,514,0,150125,1,low,tob,purple,exp
