"trial_type","trial_index","time_elapsed","internal_node_id","condition","subject","screen_width","screen_height","attention","distraction","conscientious","prolificID","success","rt","url","view_history","test_part","final_height_px","final_width_px","scale_factor","stimulus","key_press","learningType","presentedImage","presentedLabel","button_pressed","response","responses"
"pavlovia","0","30","0.0-0.0","LF","s0xp76sxy4","1280","800","0","1","0","5f68a907efe6b000080540be","","","","","","","","","","","","","","","",""
"fullscreen","1","13049","0.0-1.0","LF","s0xp76sxy4","1280","800","0","1","0","5f68a907efe6b000080540be","true","","","","","","","","","","","","","","",""
"external-html","2","19823","0.0-2.0-0.0","LF","s0xp76sxy4","1280","800","0","1","0","5f68a907efe6b000080540be","","6747.92500003241","text/information_english.html","","","","","","","","","","","","",""
"external-html","3","23679","0.0-2.0-1.0","LF","s0xp76sxy4","1280","800","0","1","0","5f68a907efe6b000080540be","","3828.7949999794364","text/consent_english.html","","","","","","","","","","","","",""
"instructions","4","33894","0.0-3.0","LF","s0xp76sxy4","1280","800","0","1","0","5f68a907efe6b000080540be","","NA","","[{""page_index"":0,""viewing_time"":1521.5149999130517},{""page_index"":1,""viewing_time"":8690.939999883994}]","instructions","","","","","","","","","","",""
"resize","5","130858","0.0-4.0","LF","s0xp76sxy4","1280","800","0","1","0","5f68a907efe6b000080540be","","","","","","","389","2.46984126984127","","","","","","","",""
"html-keyboard-response","6","131862","0.0-5.0-0.0","LF","s0xp76sxy4","1280","800","0","1","0","5f68a907efe6b000080540be","","null","","","learningBlock1","","","","This is a tob:","null","","","","","",""
"image-keyboard-response","7","132194","0.0-5.0-1.0","LF","s0xp76sxy4","1280","800","0","1","0","5f68a907efe6b000080540be","","null","","","","","","","learning/Slide1.JPG","null","","","","","",""
"html-keyboard-response","8","133198","0.0-5.0-2.0","LF","s0xp76sxy4","1280","800","0","1","0","5f68a907efe6b000080540be","","null","","","learningBlock1","","","","<div style=""font-size:60px;""> </div>","null","LF","learning/Slide1.JPG","This is a tob:","","",""
"html-keyboard-response","9","134203","0.0-5.0-0.1","LF","s0xp76sxy4","1280","800","0","1","0","5f68a907efe6b000080540be","","null","","","learningBlock1","","","","This is a wug:","null","","","","","",""
"image-keyboard-response","10","134533","0.0-5.0-1.1","LF","s0xp76sxy4","1280","800","0","1","0","5f68a907efe6b000080540be","","null","","","","","","","learning/Slide2.JPG","null","","","","","",""
"html-keyboard-response","11","135538","0.0-5.0-2.1","LF","s0xp76sxy4","1280","800","0","1","0","5f68a907efe6b000080540be","","null","","","learningBlock1","","","","<div style=""font-size:60px;""> </div>","null","LF","learning/Slide2.JPG","This is a wug:","","",""
"html-keyboard-response","12","136543","0.0-5.0-0.2","LF","s0xp76sxy4","1280","800","0","1","0","5f68a907efe6b000080540be","","null","","","learningBlock1","","","","This is a bim:","null","","","","","",""
"image-keyboard-response","13","136873","0.0-5.0-1.2","LF","s0xp76sxy4","1280","800","0","1","0","5f68a907efe6b000080540be","","null","","","","","","","learning/Slide3.JPG","null","","","","","",""
"html-keyboard-response","14","137877","0.0-5.0-2.2","LF","s0xp76sxy4","1280","800","0","1","0","5f68a907efe6b000080540be","","null","","","learningBlock1","","","","<div style=""font-size:60px;""> </div>","null","LF","learning/Slide3.JPG","This is a bim:","","",""
"html-keyboard-response","15","138878","0.0-5.0-0.3","LF","s0xp76sxy4","1280","800","0","1","0","5f68a907efe6b000080540be","","null","","","learningBlock1","","","","This is a dep:","null","","","","","",""
"image-keyboard-response","16","139212","0.0-5.0-1.3","LF","s0xp76sxy4","1280","800","0","1","0","5f68a907efe6b000080540be","","null","","","","","","","learning/Slide4.JPG","null","","","","","",""
"html-keyboard-response","17","140217","0.0-5.0-2.3","LF","s0xp76sxy4","1280","800","0","1","0","5f68a907efe6b000080540be","","null","","","learningBlock1","","","","<div style=""font-size:60px;""> </div>","null","LF","learning/Slide4.JPG","This is a dep:","","",""
"html-keyboard-response","18","141221","0.0-5.0-0.4","LF","s0xp76sxy4","1280","800","0","1","0","5f68a907efe6b000080540be","","null","","","learningBlock1","","","","This is a wug:","null","","","","","",""
"image-keyboard-response","19","141552","0.0-5.0-1.4","LF","s0xp76sxy4","1280","800","0","1","0","5f68a907efe6b000080540be","","null","","","","","","","learning/Slide5.JPG","null","","","","","",""
"html-keyboard-response","20","142556","0.0-5.0-2.4","LF","s0xp76sxy4","1280","800","0","1","0","5f68a907efe6b000080540be","","null","","","learningBlock1","","","","<div style=""font-size:60px;""> </div>","null","LF","learning/Slide5.JPG","This is a wug:","","",""
"html-keyboard-response","21","143560","0.0-5.0-0.5","LF","s0xp76sxy4","1280","800","0","1","0","5f68a907efe6b000080540be","","null","","","learningBlock1","","","","This is a dep:","null","","","","","",""
"image-keyboard-response","22","143894","0.0-5.0-1.5","LF","s0xp76sxy4","1280","800","0","1","0","5f68a907efe6b000080540be","","null","","","","","","","learning/Slide6.JPG","null","","","","","",""
"html-keyboard-response","23","144897","0.0-5.0-2.5","LF","s0xp76sxy4","1280","800","0","1","0","5f68a907efe6b000080540be","","null","","","learningBlock1","","","","<div style=""font-size:60px;""> </div>","null","LF","learning/Slide6.JPG","This is a dep:","","",""
"html-keyboard-response","24","145903","0.0-5.0-0.6","LF","s0xp76sxy4","1280","800","0","1","0","5f68a907efe6b000080540be","","null","","","learningBlock1","","","","This is a wug:","null","","","","","",""
"image-keyboard-response","25","146236","0.0-5.0-1.6","LF","s0xp76sxy4","1280","800","0","1","0","5f68a907efe6b000080540be","","null","","","","","","","learning/Slide7.JPG","null","","","","","",""
"html-keyboard-response","26","147241","0.0-5.0-2.6","LF","s0xp76sxy4","1280","800","0","1","0","5f68a907efe6b000080540be","","null","","","learningBlock1","","","","<div style=""font-size:60px;""> </div>","null","LF","learning/Slide7.JPG","This is a wug:","","",""
"html-keyboard-response","27","148242","0.0-5.0-0.7","LF","s0xp76sxy4","1280","800","0","1","0","5f68a907efe6b000080540be","","null","","","learningBlock1","","","","This is a bim:","null","","","","","",""
"image-keyboard-response","28","148576","0.0-5.0-1.7","LF","s0xp76sxy4","1280","800","0","1","0","5f68a907efe6b000080540be","","null","","","","","","","learning/Slide8.JPG","null","","","","","",""
"html-keyboard-response","29","149578","0.0-5.0-2.7","LF","s0xp76sxy4","1280","800","0","1","0","5f68a907efe6b000080540be","","null","","","learningBlock1","","","","<div style=""font-size:60px;""> </div>","null","LF","learning/Slide8.JPG","This is a bim:","","",""
"html-keyboard-response","30","150582","0.0-5.0-0.8","LF","s0xp76sxy4","1280","800","0","1","0","5f68a907efe6b000080540be","","null","","","learningBlock1","","","","This is a wug:","null","","","","","",""
"image-keyboard-response","31","150915","0.0-5.0-1.8","LF","s0xp76sxy4","1280","800","0","1","0","5f68a907efe6b000080540be","","null","","","","","","","learning/Slide9.JPG","null","","","","","",""
"html-keyboard-response","32","151919","0.0-5.0-2.8","LF","s0xp76sxy4","1280","800","0","1","0","5f68a907efe6b000080540be","","null","","","learningBlock1","","","","<div style=""font-size:60px;""> </div>","null","LF","learning/Slide9.JPG","This is a wug:","","",""
"html-keyboard-response","33","152923","0.0-5.0-0.9","LF","s0xp76sxy4","1280","800","0","1","0","5f68a907efe6b000080540be","","null","","","learningBlock1","","","","This is a dep:","null","","","","","",""
"image-keyboard-response","34","153254","0.0-5.0-1.9","LF","s0xp76sxy4","1280","800","0","1","0","5f68a907efe6b000080540be","","null","","","","","","","learning/Slide10.JPG","null","","","","","",""
"html-keyboard-response","35","154259","0.0-5.0-2.9","LF","s0xp76sxy4","1280","800","0","1","0","5f68a907efe6b000080540be","","null","","","learningBlock1","","","","<div style=""font-size:60px;""> </div>","null","LF","learning/Slide10.JPG","This is a dep:","","",""
"html-keyboard-response","36","155262","0.0-5.0-0.10","LF","s0xp76sxy4","1280","800","0","1","0","5f68a907efe6b000080540be","","null","","","learningBlock1","","","","This is a tob:","null","","","","","",""
"image-keyboard-response","37","155592","0.0-5.0-1.10","LF","s0xp76sxy4","1280","800","0","1","0","5f68a907efe6b000080540be","","null","","","","","","","learning/Slide11.JPG","null","","","","","",""
"html-keyboard-response","38","156599","0.0-5.0-2.10","LF","s0xp76sxy4","1280","800","0","1","0","5f68a907efe6b000080540be","","null","","","learningBlock1","","","","<div style=""font-size:60px;""> </div>","null","LF","learning/Slide11.JPG","This is a tob:","","",""
"html-keyboard-response","39","157603","0.0-5.0-0.11","LF","s0xp76sxy4","1280","800","0","1","0","5f68a907efe6b000080540be","","null","","","learningBlock1","","","","This is a dep:","null","","","","","",""
"image-keyboard-response","40","157935","0.0-5.0-1.11","LF","s0xp76sxy4","1280","800","0","1","0","5f68a907efe6b000080540be","","null","","","","","","","learning/Slide12.JPG","null","","","","","",""
"html-keyboard-response","41","158938","0.0-5.0-2.11","LF","s0xp76sxy4","1280","800","0","1","0","5f68a907efe6b000080540be","","null","","","learningBlock1","","","","<div style=""font-size:60px;""> </div>","null","LF","learning/Slide12.JPG","This is a dep:","","",""
"html-keyboard-response","42","159939","0.0-5.0-0.12","LF","s0xp76sxy4","1280","800","0","1","0","5f68a907efe6b000080540be","","null","","","learningBlock1","","","","This is a bim:","null","","","","","",""
"image-keyboard-response","43","160273","0.0-5.0-1.12","LF","s0xp76sxy4","1280","800","0","1","0","5f68a907efe6b000080540be","","null","","","","","","","learning/Slide13.JPG","null","","","","","",""
"html-keyboard-response","44","161277","0.0-5.0-2.12","LF","s0xp76sxy4","1280","800","0","1","0","5f68a907efe6b000080540be","","null","","","learningBlock1","","","","<div style=""font-size:60px;""> </div>","null","LF","learning/Slide13.JPG","This is a bim:","","",""
"html-keyboard-response","45","162282","0.0-5.0-0.13","LF","s0xp76sxy4","1280","800","0","1","0","5f68a907efe6b000080540be","","null","","","learningBlock1","","","","This is a wug:","null","","","","","",""
"image-keyboard-response","46","162612","0.0-5.0-1.13","LF","s0xp76sxy4","1280","800","0","1","0","5f68a907efe6b000080540be","","null","","","","","","","learning/Slide14.JPG","null","","","","","",""
"html-keyboard-response","47","163617","0.0-5.0-2.13","LF","s0xp76sxy4","1280","800","0","1","0","5f68a907efe6b000080540be","","null","","","learningBlock1","","","","<div style=""font-size:60px;""> </div>","null","LF","learning/Slide14.JPG","This is a wug:","","",""
"html-keyboard-response","48","164622","0.0-5.0-0.14","LF","s0xp76sxy4","1280","800","0","1","0","5f68a907efe6b000080540be","","null","","","learningBlock1","","","","This is a tob:","null","","","","","",""
"image-keyboard-response","49","164952","0.0-5.0-1.14","LF","s0xp76sxy4","1280","800","0","1","0","5f68a907efe6b000080540be","","null","","","","","","","learning/Slide15.JPG","null","","","","","",""
"html-keyboard-response","50","165956","0.0-5.0-2.14","LF","s0xp76sxy4","1280","800","0","1","0","5f68a907efe6b000080540be","","null","","","learningBlock1","","","","<div style=""font-size:60px;""> </div>","null","LF","learning/Slide15.JPG","This is a tob:","","",""
"html-keyboard-response","51","166960","0.0-5.0-0.15","LF","s0xp76sxy4","1280","800","0","1","0","5f68a907efe6b000080540be","","null","","","learningBlock1","","","","This is a dep:","null","","","","","",""
"image-keyboard-response","52","167292","0.0-5.0-1.15","LF","s0xp76sxy4","1280","800","0","1","0","5f68a907efe6b000080540be","","null","","","","","","","learning/Slide16.JPG","null","","","","","",""
"html-keyboard-response","53","168293","0.0-5.0-2.15","LF","s0xp76sxy4","1280","800","0","1","0","5f68a907efe6b000080540be","","null","","","learningBlock1","","","","<div style=""font-size:60px;""> </div>","null","LF","learning/Slide16.JPG","This is a dep:","","",""
"html-keyboard-response","54","169298","0.0-5.0-0.16","LF","s0xp76sxy4","1280","800","0","1","0","5f68a907efe6b000080540be","","null","","","learningBlock1","","","","This is a bim:","null","","","","","",""
"image-keyboard-response","55","169631","0.0-5.0-1.16","LF","s0xp76sxy4","1280","800","0","1","0","5f68a907efe6b000080540be","","null","","","","","","","learning/Slide17.JPG","null","","","","","",""
"html-keyboard-response","56","170635","0.0-5.0-2.16","LF","s0xp76sxy4","1280","800","0","1","0","5f68a907efe6b000080540be","","null","","","learningBlock1","","","","<div style=""font-size:60px;""> </div>","null","LF","learning/Slide17.JPG","This is a bim:","","",""
"html-keyboard-response","57","171640","0.0-5.0-0.17","LF","s0xp76sxy4","1280","800","0","1","0","5f68a907efe6b000080540be","","null","","","learningBlock1","","","","This is a tob:","null","","","","","",""
"image-keyboard-response","58","171970","0.0-5.0-1.17","LF","s0xp76sxy4","1280","800","0","1","0","5f68a907efe6b000080540be","","null","","","","","","","learning/Slide18.JPG","null","","","","","",""
"html-keyboard-response","59","172975","0.0-5.0-2.17","LF","s0xp76sxy4","1280","800","0","1","0","5f68a907efe6b000080540be","","null","","","learningBlock1","","","","<div style=""font-size:60px;""> </div>","null","LF","learning/Slide18.JPG","This is a tob:","","",""
"html-keyboard-response","60","173977","0.0-5.0-0.18","LF","s0xp76sxy4","1280","800","0","1","0","5f68a907efe6b000080540be","","null","","","learningBlock1","","","","This is a wug:","null","","","","","",""
"image-keyboard-response","61","174310","0.0-5.0-1.18","LF","s0xp76sxy4","1280","800","0","1","0","5f68a907efe6b000080540be","","null","","","","","","","learning/Slide19.JPG","null","","","","","",""
"html-keyboard-response","62","175314","0.0-5.0-2.18","LF","s0xp76sxy4","1280","800","0","1","0","5f68a907efe6b000080540be","","null","","","learningBlock1","","","","<div style=""font-size:60px;""> </div>","null","LF","learning/Slide19.JPG","This is a wug:","","",""
"html-keyboard-response","63","176316","0.0-5.0-0.19","LF","s0xp76sxy4","1280","800","0","1","0","5f68a907efe6b000080540be","","null","","","learningBlock1","","","","This is a bim:","null","","","","","",""
"image-keyboard-response","64","176649","0.0-5.0-1.19","LF","s0xp76sxy4","1280","800","0","1","0","5f68a907efe6b000080540be","","null","","","","","","","learning/Slide20.JPG","null","","","","","",""
"html-keyboard-response","65","177653","0.0-5.0-2.19","LF","s0xp76sxy4","1280","800","0","1","0","5f68a907efe6b000080540be","","null","","","learningBlock1","","","","<div style=""font-size:60px;""> </div>","null","LF","learning/Slide20.JPG","This is a bim:","","",""
"html-keyboard-response","66","178658","0.0-5.0-0.20","LF","s0xp76sxy4","1280","800","0","1","0","5f68a907efe6b000080540be","","null","","","learningBlock1","","","","This is a dep:","null","","","","","",""
"image-keyboard-response","67","178989","0.0-5.0-1.20","LF","s0xp76sxy4","1280","800","0","1","0","5f68a907efe6b000080540be","","null","","","","","","","learning/Slide21.JPG","null","","","","","",""
"html-keyboard-response","68","179993","0.0-5.0-2.20","LF","s0xp76sxy4","1280","800","0","1","0","5f68a907efe6b000080540be","","null","","","learningBlock1","","","","<div style=""font-size:60px;""> </div>","null","LF","learning/Slide21.JPG","This is a dep:","","",""
"html-keyboard-response","69","180997","0.0-5.0-0.21","LF","s0xp76sxy4","1280","800","0","1","0","5f68a907efe6b000080540be","","null","","","learningBlock1","","","","This is a bim:","null","","","","","",""
"image-keyboard-response","70","181330","0.0-5.0-1.21","LF","s0xp76sxy4","1280","800","0","1","0","5f68a907efe6b000080540be","","null","","","","","","","learning/Slide22.JPG","null","","","","","",""
"html-keyboard-response","71","182333","0.0-5.0-2.21","LF","s0xp76sxy4","1280","800","0","1","0","5f68a907efe6b000080540be","","null","","","learningBlock1","","","","<div style=""font-size:60px;""> </div>","null","LF","learning/Slide22.JPG","This is a bim:","","",""
"html-keyboard-response","72","183337","0.0-5.0-0.22","LF","s0xp76sxy4","1280","800","0","1","0","5f68a907efe6b000080540be","","null","","","learningBlock1","","","","This is a tob:","null","","","","","",""
"image-keyboard-response","73","183664","0.0-5.0-1.22","LF","s0xp76sxy4","1280","800","0","1","0","5f68a907efe6b000080540be","","null","","","","","","","learning/Slide23.JPG","null","","","","","",""
"html-keyboard-response","74","184669","0.0-5.0-2.22","LF","s0xp76sxy4","1280","800","0","1","0","5f68a907efe6b000080540be","","null","","","learningBlock1","","","","<div style=""font-size:60px;""> </div>","null","LF","learning/Slide23.JPG","This is a tob:","","",""
"html-keyboard-response","75","185674","0.0-5.0-0.23","LF","s0xp76sxy4","1280","800","0","1","0","5f68a907efe6b000080540be","","null","","","learningBlock1","","","","This is a wug:","null","","","","","",""
"image-keyboard-response","76","186007","0.0-5.0-1.23","LF","s0xp76sxy4","1280","800","0","1","0","5f68a907efe6b000080540be","","null","","","","","","","learning/Slide24.JPG","null","","","","","",""
"html-keyboard-response","77","187013","0.0-5.0-2.23","LF","s0xp76sxy4","1280","800","0","1","0","5f68a907efe6b000080540be","","null","","","learningBlock1","","","","<div style=""font-size:60px;""> </div>","null","LF","learning/Slide24.JPG","This is a wug:","","",""
"html-keyboard-response","78","188015","0.0-5.0-0.24","LF","s0xp76sxy4","1280","800","0","1","0","5f68a907efe6b000080540be","","null","","","learningBlock1","","","","This is a dep:","null","","","","","",""
"image-keyboard-response","79","188344","0.0-5.0-1.24","LF","s0xp76sxy4","1280","800","0","1","0","5f68a907efe6b000080540be","","null","","","","","","","learning/Slide25.JPG","null","","","","","",""
"html-keyboard-response","80","189345","0.0-5.0-2.24","LF","s0xp76sxy4","1280","800","0","1","0","5f68a907efe6b000080540be","","null","","","learningBlock1","","","","<div style=""font-size:60px;""> </div>","null","LF","learning/Slide25.JPG","This is a dep:","","",""
"html-keyboard-response","81","190349","0.0-5.0-0.25","LF","s0xp76sxy4","1280","800","0","1","0","5f68a907efe6b000080540be","","null","","","learningBlock1","","","","This is a wug:","null","","","","","",""
"image-keyboard-response","82","190680","0.0-5.0-1.25","LF","s0xp76sxy4","1280","800","0","1","0","5f68a907efe6b000080540be","","null","","","","","","","learning/Slide26.JPG","null","","","","","",""
"html-keyboard-response","83","191685","0.0-5.0-2.25","LF","s0xp76sxy4","1280","800","0","1","0","5f68a907efe6b000080540be","","null","","","learningBlock1","","","","<div style=""font-size:60px;""> </div>","null","LF","learning/Slide26.JPG","This is a wug:","","",""
"html-keyboard-response","84","192689","0.0-5.0-0.26","LF","s0xp76sxy4","1280","800","0","1","0","5f68a907efe6b000080540be","","null","","","learningBlock1","","","","This is a bim:","null","","","","","",""
"image-keyboard-response","85","193019","0.0-5.0-1.26","LF","s0xp76sxy4","1280","800","0","1","0","5f68a907efe6b000080540be","","null","","","","","","","learning/Slide27.JPG","null","","","","","",""
"html-keyboard-response","86","194022","0.0-5.0-2.26","LF","s0xp76sxy4","1280","800","0","1","0","5f68a907efe6b000080540be","","null","","","learningBlock1","","","","<div style=""font-size:60px;""> </div>","null","LF","learning/Slide27.JPG","This is a bim:","","",""
"html-keyboard-response","87","195028","0.0-5.0-0.27","LF","s0xp76sxy4","1280","800","0","1","0","5f68a907efe6b000080540be","","null","","","learningBlock1","","","","This is a dep:","null","","","","","",""
"image-keyboard-response","88","195356","0.0-5.0-1.27","LF","s0xp76sxy4","1280","800","0","1","0","5f68a907efe6b000080540be","","null","","","","","","","learning/Slide28.JPG","null","","","","","",""
"html-keyboard-response","89","196361","0.0-5.0-2.27","LF","s0xp76sxy4","1280","800","0","1","0","5f68a907efe6b000080540be","","null","","","learningBlock1","","","","<div style=""font-size:60px;""> </div>","null","LF","learning/Slide28.JPG","This is a dep:","","",""
"html-keyboard-response","90","197365","0.0-5.0-0.28","LF","s0xp76sxy4","1280","800","0","1","0","5f68a907efe6b000080540be","","null","","","learningBlock1","","","","This is a tob:","null","","","","","",""
"image-keyboard-response","91","197699","0.0-5.0-1.28","LF","s0xp76sxy4","1280","800","0","1","0","5f68a907efe6b000080540be","","null","","","","","","","learning/Slide29.JPG","null","","","","","",""
"html-keyboard-response","92","198702","0.0-5.0-2.28","LF","s0xp76sxy4","1280","800","0","1","0","5f68a907efe6b000080540be","","null","","","learningBlock1","","","","<div style=""font-size:60px;""> </div>","null","LF","learning/Slide29.JPG","This is a tob:","","",""
"html-keyboard-response","93","199707","0.0-5.0-0.29","LF","s0xp76sxy4","1280","800","0","1","0","5f68a907efe6b000080540be","","null","","","learningBlock1","","","","This is a dep:","null","","","","","",""
"image-keyboard-response","94","200038","0.0-5.0-1.29","LF","s0xp76sxy4","1280","800","0","1","0","5f68a907efe6b000080540be","","null","","","","","","","learning/Slide30.JPG","null","","","","","",""
"html-keyboard-response","95","201042","0.0-5.0-2.29","LF","s0xp76sxy4","1280","800","0","1","0","5f68a907efe6b000080540be","","null","","","learningBlock1","","","","<div style=""font-size:60px;""> </div>","null","LF","learning/Slide30.JPG","This is a dep:","","",""
"html-keyboard-response","96","202047","0.0-5.0-0.30","LF","s0xp76sxy4","1280","800","0","1","0","5f68a907efe6b000080540be","","null","","","learningBlock1","","","","This is a wug:","null","","","","","",""
"image-keyboard-response","97","202375","0.0-5.0-1.30","LF","s0xp76sxy4","1280","800","0","1","0","5f68a907efe6b000080540be","","null","","","","","","","learning/Slide31.JPG","null","","","","","",""
"html-keyboard-response","98","203376","0.0-5.0-2.30","LF","s0xp76sxy4","1280","800","0","1","0","5f68a907efe6b000080540be","","null","","","learningBlock1","","","","<div style=""font-size:60px;""> </div>","null","LF","learning/Slide31.JPG","This is a wug:","","",""
"html-keyboard-response","99","204380","0.0-5.0-0.31","LF","s0xp76sxy4","1280","800","0","1","0","5f68a907efe6b000080540be","","null","","","learningBlock1","","","","This is a tob:","null","","","","","",""
"image-keyboard-response","100","204711","0.0-5.0-1.31","LF","s0xp76sxy4","1280","800","0","1","0","5f68a907efe6b000080540be","","null","","","","","","","learning/Slide32.JPG","null","","","","","",""
"html-keyboard-response","101","205713","0.0-5.0-2.31","LF","s0xp76sxy4","1280","800","0","1","0","5f68a907efe6b000080540be","","null","","","learningBlock1","","","","<div style=""font-size:60px;""> </div>","null","LF","learning/Slide32.JPG","This is a tob:","","",""
"html-keyboard-response","102","206719","0.0-5.0-0.32","LF","s0xp76sxy4","1280","800","0","1","0","5f68a907efe6b000080540be","","null","","","learningBlock1","","","","This is a bim:","null","","","","","",""
"image-keyboard-response","103","207050","0.0-5.0-1.32","LF","s0xp76sxy4","1280","800","0","1","0","5f68a907efe6b000080540be","","null","","","","","","","learning/Slide33.JPG","null","","","","","",""
"html-keyboard-response","104","208055","0.0-5.0-2.32","LF","s0xp76sxy4","1280","800","0","1","0","5f68a907efe6b000080540be","","null","","","learningBlock1","","","","<div style=""font-size:60px;""> </div>","null","LF","learning/Slide33.JPG","This is a bim:","","",""
"html-keyboard-response","105","209059","0.0-5.0-0.33","LF","s0xp76sxy4","1280","800","0","1","0","5f68a907efe6b000080540be","","null","","","learningBlock1","","","","This is a tob:","null","","","","","",""
"image-keyboard-response","106","209390","0.0-5.0-1.33","LF","s0xp76sxy4","1280","800","0","1","0","5f68a907efe6b000080540be","","null","","","","","","","learning/Slide34.JPG","null","","","","","",""
"html-keyboard-response","107","210394","0.0-5.0-2.33","LF","s0xp76sxy4","1280","800","0","1","0","5f68a907efe6b000080540be","","null","","","learningBlock1","","","","<div style=""font-size:60px;""> </div>","null","LF","learning/Slide34.JPG","This is a tob:","","",""
"html-keyboard-response","108","211399","0.0-5.0-0.34","LF","s0xp76sxy4","1280","800","0","1","0","5f68a907efe6b000080540be","","null","","","learningBlock1","","","","This is a bim:","null","","","","","",""
"image-keyboard-response","109","211733","0.0-5.0-1.34","LF","s0xp76sxy4","1280","800","0","1","0","5f68a907efe6b000080540be","","null","","","","","","","learning/Slide35.JPG","null","","","","","",""
"html-keyboard-response","110","212740","0.0-5.0-2.34","LF","s0xp76sxy4","1280","800","0","1","0","5f68a907efe6b000080540be","","null","","","learningBlock1","","","","<div style=""font-size:60px;""> </div>","null","LF","learning/Slide35.JPG","This is a bim:","","",""
"html-keyboard-response","111","213743","0.0-5.0-0.35","LF","s0xp76sxy4","1280","800","0","1","0","5f68a907efe6b000080540be","","null","","","learningBlock1","","","","This is a dep:","null","","","","","",""
"image-keyboard-response","112","214075","0.0-5.0-1.35","LF","s0xp76sxy4","1280","800","0","1","0","5f68a907efe6b000080540be","","null","","","","","","","learning/Slide36.JPG","null","","","","","",""
"html-keyboard-response","113","215079","0.0-5.0-2.35","LF","s0xp76sxy4","1280","800","0","1","0","5f68a907efe6b000080540be","","null","","","learningBlock1","","","","<div style=""font-size:60px;""> </div>","null","LF","learning/Slide36.JPG","This is a dep:","","",""
"html-keyboard-response","114","216083","0.0-5.0-0.36","LF","s0xp76sxy4","1280","800","0","1","0","5f68a907efe6b000080540be","","null","","","learningBlock1","","","","This is a tob:","null","","","","","",""
"image-keyboard-response","115","216416","0.0-5.0-1.36","LF","s0xp76sxy4","1280","800","0","1","0","5f68a907efe6b000080540be","","null","","","","","","","learning/Slide37.JPG","null","","","","","",""
"html-keyboard-response","116","217420","0.0-5.0-2.36","LF","s0xp76sxy4","1280","800","0","1","0","5f68a907efe6b000080540be","","null","","","learningBlock1","","","","<div style=""font-size:60px;""> </div>","null","LF","learning/Slide37.JPG","This is a tob:","","",""
"html-keyboard-response","117","218424","0.0-5.0-0.37","LF","s0xp76sxy4","1280","800","0","1","0","5f68a907efe6b000080540be","","null","","","learningBlock1","","","","This is a wug:","null","","","","","",""
"image-keyboard-response","118","218753","0.0-5.0-1.37","LF","s0xp76sxy4","1280","800","0","1","0","5f68a907efe6b000080540be","","null","","","","","","","learning/Slide38.JPG","null","","","","","",""
"html-keyboard-response","119","219758","0.0-5.0-2.37","LF","s0xp76sxy4","1280","800","0","1","0","5f68a907efe6b000080540be","","null","","","learningBlock1","","","","<div style=""font-size:60px;""> </div>","null","LF","learning/Slide38.JPG","This is a wug:","","",""
"html-keyboard-response","120","220763","0.0-5.0-0.38","LF","s0xp76sxy4","1280","800","0","1","0","5f68a907efe6b000080540be","","null","","","learningBlock1","","","","This is a bim:","null","","","","","",""
"image-keyboard-response","121","221099","0.0-5.0-1.38","LF","s0xp76sxy4","1280","800","0","1","0","5f68a907efe6b000080540be","","null","","","","","","","learning/Slide39.JPG","null","","","","","",""
"html-keyboard-response","122","222105","0.0-5.0-2.38","LF","s0xp76sxy4","1280","800","0","1","0","5f68a907efe6b000080540be","","null","","","learningBlock1","","","","<div style=""font-size:60px;""> </div>","null","LF","learning/Slide39.JPG","This is a bim:","","",""
"html-keyboard-response","123","223109","0.0-5.0-0.39","LF","s0xp76sxy4","1280","800","0","1","0","5f68a907efe6b000080540be","","null","","","learningBlock1","","","","This is a tob:","null","","","","","",""
"image-keyboard-response","124","223444","0.0-5.0-1.39","LF","s0xp76sxy4","1280","800","0","1","0","5f68a907efe6b000080540be","","null","","","","","","","learning/Slide40.JPG","null","","","","","",""
"html-keyboard-response","125","224448","0.0-5.0-2.39","LF","s0xp76sxy4","1280","800","0","1","0","5f68a907efe6b000080540be","","null","","","learningBlock1","","","","<div style=""font-size:60px;""> </div>","null","LF","learning/Slide40.JPG","This is a tob:","","",""
"html-keyboard-response","126","225453","0.0-5.0-0.40","LF","s0xp76sxy4","1280","800","0","1","0","5f68a907efe6b000080540be","","null","","","learningBlock1","","","","This is a bim:","null","","","","","",""
"image-keyboard-response","127","225782","0.0-5.0-1.40","LF","s0xp76sxy4","1280","800","0","1","0","5f68a907efe6b000080540be","","null","","","","","","","learning/Slide41.JPG","null","","","","","",""
"html-keyboard-response","128","226783","0.0-5.0-2.40","LF","s0xp76sxy4","1280","800","0","1","0","5f68a907efe6b000080540be","","null","","","learningBlock1","","","","<div style=""font-size:60px;""> </div>","null","LF","learning/Slide41.JPG","This is a bim:","","",""
"html-keyboard-response","129","227788","0.0-5.0-0.41","LF","s0xp76sxy4","1280","800","0","1","0","5f68a907efe6b000080540be","","null","","","learningBlock1","","","","This is a dep:","null","","","","","",""
"image-keyboard-response","130","228119","0.0-5.0-1.41","LF","s0xp76sxy4","1280","800","0","1","0","5f68a907efe6b000080540be","","null","","","","","","","learning/Slide42.JPG","null","","","","","",""
"html-keyboard-response","131","229125","0.0-5.0-2.41","LF","s0xp76sxy4","1280","800","0","1","0","5f68a907efe6b000080540be","","null","","","learningBlock1","","","","<div style=""font-size:60px;""> </div>","null","LF","learning/Slide42.JPG","This is a dep:","","",""
"html-keyboard-response","132","230129","0.0-5.0-0.42","LF","s0xp76sxy4","1280","800","0","1","0","5f68a907efe6b000080540be","","null","","","learningBlock1","","","","This is a wug:","null","","","","","",""
"image-keyboard-response","133","230463","0.0-5.0-1.42","LF","s0xp76sxy4","1280","800","0","1","0","5f68a907efe6b000080540be","","null","","","","","","","learning/Slide43.JPG","null","","","","","",""
"html-keyboard-response","134","231467","0.0-5.0-2.42","LF","s0xp76sxy4","1280","800","0","1","0","5f68a907efe6b000080540be","","null","","","learningBlock1","","","","<div style=""font-size:60px;""> </div>","null","LF","learning/Slide43.JPG","This is a wug:","","",""
"html-keyboard-response","135","232468","0.0-5.0-0.43","LF","s0xp76sxy4","1280","800","0","1","0","5f68a907efe6b000080540be","","null","","","learningBlock1","","","","This is a bim:","null","","","","","",""
"image-keyboard-response","136","232802","0.0-5.0-1.43","LF","s0xp76sxy4","1280","800","0","1","0","5f68a907efe6b000080540be","","null","","","","","","","learning/Slide44.JPG","null","","","","","",""
"html-keyboard-response","137","233806","0.0-5.0-2.43","LF","s0xp76sxy4","1280","800","0","1","0","5f68a907efe6b000080540be","","null","","","learningBlock1","","","","<div style=""font-size:60px;""> </div>","null","LF","learning/Slide44.JPG","This is a bim:","","",""
"html-keyboard-response","138","234809","0.0-5.0-0.44","LF","s0xp76sxy4","1280","800","0","1","0","5f68a907efe6b000080540be","","null","","","learningBlock1","","","","This is a wug:","null","","","","","",""
"image-keyboard-response","139","235141","0.0-5.0-1.44","LF","s0xp76sxy4","1280","800","0","1","0","5f68a907efe6b000080540be","","null","","","","","","","learning/Slide45.JPG","null","","","","","",""
"html-keyboard-response","140","236146","0.0-5.0-2.44","LF","s0xp76sxy4","1280","800","0","1","0","5f68a907efe6b000080540be","","null","","","learningBlock1","","","","<div style=""font-size:60px;""> </div>","null","LF","learning/Slide45.JPG","This is a wug:","","",""
"html-keyboard-response","141","237147","0.0-5.0-0.45","LF","s0xp76sxy4","1280","800","0","1","0","5f68a907efe6b000080540be","","null","","","learningBlock1","","","","This is a dep:","null","","","","","",""
"image-keyboard-response","142","237481","0.0-5.0-1.45","LF","s0xp76sxy4","1280","800","0","1","0","5f68a907efe6b000080540be","","null","","","","","","","learning/Slide46.JPG","null","","","","","",""
"html-keyboard-response","143","238485","0.0-5.0-2.45","LF","s0xp76sxy4","1280","800","0","1","0","5f68a907efe6b000080540be","","null","","","learningBlock1","","","","<div style=""font-size:60px;""> </div>","null","LF","learning/Slide46.JPG","This is a dep:","","",""
"html-keyboard-response","144","239489","0.0-5.0-0.46","LF","s0xp76sxy4","1280","800","0","1","0","5f68a907efe6b000080540be","","null","","","learningBlock1","","","","This is a tob:","null","","","","","",""
"image-keyboard-response","145","239820","0.0-5.0-1.46","LF","s0xp76sxy4","1280","800","0","1","0","5f68a907efe6b000080540be","","null","","","","","","","learning/Slide47.JPG","null","","","","","",""
"html-keyboard-response","146","240824","0.0-5.0-2.46","LF","s0xp76sxy4","1280","800","0","1","0","5f68a907efe6b000080540be","","null","","","learningBlock1","","","","<div style=""font-size:60px;""> </div>","null","LF","learning/Slide47.JPG","This is a tob:","","",""
"html-keyboard-response","147","241829","0.0-5.0-0.47","LF","s0xp76sxy4","1280","800","0","1","0","5f68a907efe6b000080540be","","null","","","learningBlock1","","","","This is a bim:","null","","","","","",""
"image-keyboard-response","148","242160","0.0-5.0-1.47","LF","s0xp76sxy4","1280","800","0","1","0","5f68a907efe6b000080540be","","null","","","","","","","learning/Slide48.JPG","null","","","","","",""
"html-keyboard-response","149","243163","0.0-5.0-2.47","LF","s0xp76sxy4","1280","800","0","1","0","5f68a907efe6b000080540be","","null","","","learningBlock1","","","","<div style=""font-size:60px;""> </div>","null","LF","learning/Slide48.JPG","This is a bim:","","",""
"html-keyboard-response","150","244165","0.0-5.0-0.48","LF","s0xp76sxy4","1280","800","0","1","0","5f68a907efe6b000080540be","","null","","","learningBlock1","","","","This is a dep:","null","","","","","",""
"image-keyboard-response","151","244499","0.0-5.0-1.48","LF","s0xp76sxy4","1280","800","0","1","0","5f68a907efe6b000080540be","","null","","","","","","","learning/Slide49.JPG","null","","","","","",""
"html-keyboard-response","152","245505","0.0-5.0-2.48","LF","s0xp76sxy4","1280","800","0","1","0","5f68a907efe6b000080540be","","null","","","learningBlock1","","","","<div style=""font-size:60px;""> </div>","null","LF","learning/Slide49.JPG","This is a dep:","","",""
"html-keyboard-response","153","246510","0.0-5.0-0.49","LF","s0xp76sxy4","1280","800","0","1","0","5f68a907efe6b000080540be","","null","","","learningBlock1","","","","This is a tob:","null","","","","","",""
"image-keyboard-response","154","246844","0.0-5.0-1.49","LF","s0xp76sxy4","1280","800","0","1","0","5f68a907efe6b000080540be","","null","","","","","","","learning/Slide50.JPG","null","","","","","",""
"html-keyboard-response","155","247850","0.0-5.0-2.49","LF","s0xp76sxy4","1280","800","0","1","0","5f68a907efe6b000080540be","","null","","","learningBlock1","","","","<div style=""font-size:60px;""> </div>","null","LF","learning/Slide50.JPG","This is a tob:","","",""
"html-keyboard-response","156","248854","0.0-5.0-0.50","LF","s0xp76sxy4","1280","800","0","1","0","5f68a907efe6b000080540be","","null","","","learningBlock1","","","","This is a bim:","null","","","","","",""
"image-keyboard-response","157","249184","0.0-5.0-1.50","LF","s0xp76sxy4","1280","800","0","1","0","5f68a907efe6b000080540be","","null","","","","","","","learning/Slide51.JPG","null","","","","","",""
"html-keyboard-response","158","250190","0.0-5.0-2.50","LF","s0xp76sxy4","1280","800","0","1","0","5f68a907efe6b000080540be","","null","","","learningBlock1","","","","<div style=""font-size:60px;""> </div>","null","LF","learning/Slide51.JPG","This is a bim:","","",""
"html-keyboard-response","159","251192","0.0-5.0-0.51","LF","s0xp76sxy4","1280","800","0","1","0","5f68a907efe6b000080540be","","null","","","learningBlock1","","","","This is a wug:","null","","","","","",""
"image-keyboard-response","160","251523","0.0-5.0-1.51","LF","s0xp76sxy4","1280","800","0","1","0","5f68a907efe6b000080540be","","null","","","","","","","learning/Slide52.JPG","null","","","","","",""
"html-keyboard-response","161","252528","0.0-5.0-2.51","LF","s0xp76sxy4","1280","800","0","1","0","5f68a907efe6b000080540be","","null","","","learningBlock1","","","","<div style=""font-size:60px;""> </div>","null","LF","learning/Slide52.JPG","This is a wug:","","",""
"html-keyboard-response","162","253531","0.0-5.0-0.52","LF","s0xp76sxy4","1280","800","0","1","0","5f68a907efe6b000080540be","","null","","","learningBlock1","","","","This is a tob:","null","","","","","",""
"image-keyboard-response","163","253859","0.0-5.0-1.52","LF","s0xp76sxy4","1280","800","0","1","0","5f68a907efe6b000080540be","","null","","","","","","","learning/Slide53.JPG","null","","","","","",""
"html-keyboard-response","164","254863","0.0-5.0-2.52","LF","s0xp76sxy4","1280","800","0","1","0","5f68a907efe6b000080540be","","null","","","learningBlock1","","","","<div style=""font-size:60px;""> </div>","null","LF","learning/Slide53.JPG","This is a tob:","","",""
"html-keyboard-response","165","255867","0.0-5.0-0.53","LF","s0xp76sxy4","1280","800","0","1","0","5f68a907efe6b000080540be","","null","","","learningBlock1","","","","This is a dep:","null","","","","","",""
"image-keyboard-response","166","256202","0.0-5.0-1.53","LF","s0xp76sxy4","1280","800","0","1","0","5f68a907efe6b000080540be","","null","","","","","","","learning/Slide54.JPG","null","","","","","",""
"html-keyboard-response","167","257206","0.0-5.0-2.53","LF","s0xp76sxy4","1280","800","0","1","0","5f68a907efe6b000080540be","","null","","","learningBlock1","","","","<div style=""font-size:60px;""> </div>","null","LF","learning/Slide54.JPG","This is a dep:","","",""
"html-keyboard-response","168","258210","0.0-5.0-0.54","LF","s0xp76sxy4","1280","800","0","1","0","5f68a907efe6b000080540be","","null","","","learningBlock1","","","","This is a bim:","null","","","","","",""
"image-keyboard-response","169","258543","0.0-5.0-1.54","LF","s0xp76sxy4","1280","800","0","1","0","5f68a907efe6b000080540be","","null","","","","","","","learning/Slide55.JPG","null","","","","","",""
"html-keyboard-response","170","259549","0.0-5.0-2.54","LF","s0xp76sxy4","1280","800","0","1","0","5f68a907efe6b000080540be","","null","","","learningBlock1","","","","<div style=""font-size:60px;""> </div>","null","LF","learning/Slide55.JPG","This is a bim:","","",""
"html-keyboard-response","171","260554","0.0-5.0-0.55","LF","s0xp76sxy4","1280","800","0","1","0","5f68a907efe6b000080540be","","null","","","learningBlock1","","","","This is a tob:","null","","","","","",""
"image-keyboard-response","172","260887","0.0-5.0-1.55","LF","s0xp76sxy4","1280","800","0","1","0","5f68a907efe6b000080540be","","null","","","","","","","learning/Slide56.JPG","null","","","","","",""
"html-keyboard-response","173","261892","0.0-5.0-2.55","LF","s0xp76sxy4","1280","800","0","1","0","5f68a907efe6b000080540be","","null","","","learningBlock1","","","","<div style=""font-size:60px;""> </div>","null","LF","learning/Slide56.JPG","This is a tob:","","",""
"html-keyboard-response","174","262896","0.0-5.0-0.56","LF","s0xp76sxy4","1280","800","0","1","0","5f68a907efe6b000080540be","","null","","","learningBlock1","","","","This is a dep:","null","","","","","",""
"image-keyboard-response","175","263226","0.0-5.0-1.56","LF","s0xp76sxy4","1280","800","0","1","0","5f68a907efe6b000080540be","","null","","","","","","","learning/Slide57.JPG","null","","","","","",""
"html-keyboard-response","176","264230","0.0-5.0-2.56","LF","s0xp76sxy4","1280","800","0","1","0","5f68a907efe6b000080540be","","null","","","learningBlock1","","","","<div style=""font-size:60px;""> </div>","null","LF","learning/Slide57.JPG","This is a dep:","","",""
"html-keyboard-response","177","265233","0.0-5.0-0.57","LF","s0xp76sxy4","1280","800","0","1","0","5f68a907efe6b000080540be","","null","","","learningBlock1","","","","This is a wug:","null","","","","","",""
"image-keyboard-response","178","265564","0.0-5.0-1.57","LF","s0xp76sxy4","1280","800","0","1","0","5f68a907efe6b000080540be","","null","","","","","","","learning/Slide58.JPG","null","","","","","",""
"html-keyboard-response","179","266570","0.0-5.0-2.57","LF","s0xp76sxy4","1280","800","0","1","0","5f68a907efe6b000080540be","","null","","","learningBlock1","","","","<div style=""font-size:60px;""> </div>","null","LF","learning/Slide58.JPG","This is a wug:","","",""
"html-keyboard-response","180","267574","0.0-5.0-0.58","LF","s0xp76sxy4","1280","800","0","1","0","5f68a907efe6b000080540be","","null","","","learningBlock1","","","","This is a dep:","null","","","","","",""
"image-keyboard-response","181","267905","0.0-5.0-1.58","LF","s0xp76sxy4","1280","800","0","1","0","5f68a907efe6b000080540be","","null","","","","","","","learning/Slide59.JPG","null","","","","","",""
"html-keyboard-response","182","268909","0.0-5.0-2.58","LF","s0xp76sxy4","1280","800","0","1","0","5f68a907efe6b000080540be","","null","","","learningBlock1","","","","<div style=""font-size:60px;""> </div>","null","LF","learning/Slide59.JPG","This is a dep:","","",""
"html-keyboard-response","183","269913","0.0-5.0-0.59","LF","s0xp76sxy4","1280","800","0","1","0","5f68a907efe6b000080540be","","null","","","learningBlock1","","","","This is a wug:","null","","","","","",""
"image-keyboard-response","184","270246","0.0-5.0-1.59","LF","s0xp76sxy4","1280","800","0","1","0","5f68a907efe6b000080540be","","null","","","","","","","learning/Slide60.JPG","null","","","","","",""
"html-keyboard-response","185","271252","0.0-5.0-2.59","LF","s0xp76sxy4","1280","800","0","1","0","5f68a907efe6b000080540be","","null","","","learningBlock1","","","","<div style=""font-size:60px;""> </div>","null","LF","learning/Slide60.JPG","This is a wug:","","",""
"html-keyboard-response","186","272256","0.0-5.0-0.60","LF","s0xp76sxy4","1280","800","0","1","0","5f68a907efe6b000080540be","","null","","","learningBlock1","","","","This is a bim:","null","","","","","",""
"image-keyboard-response","187","272590","0.0-5.0-1.60","LF","s0xp76sxy4","1280","800","0","1","0","5f68a907efe6b000080540be","","null","","","","","","","learning/Slide61.JPG","null","","","","","",""
"html-keyboard-response","188","273594","0.0-5.0-2.60","LF","s0xp76sxy4","1280","800","0","1","0","5f68a907efe6b000080540be","","null","","","learningBlock1","","","","<div style=""font-size:60px;""> </div>","null","LF","learning/Slide61.JPG","This is a bim:","","",""
"html-keyboard-response","189","274598","0.0-5.0-0.61","LF","s0xp76sxy4","1280","800","0","1","0","5f68a907efe6b000080540be","","null","","","learningBlock1","","","","This is a dep:","null","","","","","",""
"image-keyboard-response","190","274930","0.0-5.0-1.61","LF","s0xp76sxy4","1280","800","0","1","0","5f68a907efe6b000080540be","","null","","","","","","","learning/Slide62.JPG","null","","","","","",""
"html-keyboard-response","191","275936","0.0-5.0-2.61","LF","s0xp76sxy4","1280","800","0","1","0","5f68a907efe6b000080540be","","null","","","learningBlock1","","","","<div style=""font-size:60px;""> </div>","null","LF","learning/Slide62.JPG","This is a dep:","","",""
"html-keyboard-response","192","276940","0.0-5.0-0.62","LF","s0xp76sxy4","1280","800","0","1","0","5f68a907efe6b000080540be","","null","","","learningBlock1","","","","This is a bim:","null","","","","","",""
"image-keyboard-response","193","277275","0.0-5.0-1.62","LF","s0xp76sxy4","1280","800","0","1","0","5f68a907efe6b000080540be","","null","","","","","","","learning/Slide63.JPG","null","","","","","",""
"html-keyboard-response","194","278280","0.0-5.0-2.62","LF","s0xp76sxy4","1280","800","0","1","0","5f68a907efe6b000080540be","","null","","","learningBlock1","","","","<div style=""font-size:60px;""> </div>","null","LF","learning/Slide63.JPG","This is a bim:","","",""
"html-keyboard-response","195","279283","0.0-5.0-0.63","LF","s0xp76sxy4","1280","800","0","1","0","5f68a907efe6b000080540be","","null","","","learningBlock1","","","","This is a tob:","null","","","","","",""
"image-keyboard-response","196","279614","0.0-5.0-1.63","LF","s0xp76sxy4","1280","800","0","1","0","5f68a907efe6b000080540be","","null","","","","","","","learning/Slide64.JPG","null","","","","","",""
"html-keyboard-response","197","280618","0.0-5.0-2.63","LF","s0xp76sxy4","1280","800","0","1","0","5f68a907efe6b000080540be","","null","","","learningBlock1","","","","<div style=""font-size:60px;""> </div>","null","LF","learning/Slide64.JPG","This is a tob:","","",""
"html-keyboard-response","198","281624","0.0-5.0-0.64","LF","s0xp76sxy4","1280","800","0","1","0","5f68a907efe6b000080540be","","null","","","learningBlock1","","","","This is a wug:","null","","","","","",""
"image-keyboard-response","199","281960","0.0-5.0-1.64","LF","s0xp76sxy4","1280","800","0","1","0","5f68a907efe6b000080540be","","null","","","","","","","learning/Slide65.JPG","null","","","","","",""
"html-keyboard-response","200","282966","0.0-5.0-2.64","LF","s0xp76sxy4","1280","800","0","1","0","5f68a907efe6b000080540be","","null","","","learningBlock1","","","","<div style=""font-size:60px;""> </div>","null","LF","learning/Slide65.JPG","This is a wug:","","",""
"html-keyboard-response","201","283971","0.0-5.0-0.65","LF","s0xp76sxy4","1280","800","0","1","0","5f68a907efe6b000080540be","","null","","","learningBlock1","","","","This is a dep:","null","","","","","",""
"image-keyboard-response","202","284301","0.0-5.0-1.65","LF","s0xp76sxy4","1280","800","0","1","0","5f68a907efe6b000080540be","","null","","","","","","","learning/Slide66.JPG","null","","","","","",""
"html-keyboard-response","203","285303","0.0-5.0-2.65","LF","s0xp76sxy4","1280","800","0","1","0","5f68a907efe6b000080540be","","null","","","learningBlock1","","","","<div style=""font-size:60px;""> </div>","null","LF","learning/Slide66.JPG","This is a dep:","","",""
"html-keyboard-response","204","286307","0.0-5.0-0.66","LF","s0xp76sxy4","1280","800","0","1","0","5f68a907efe6b000080540be","","null","","","learningBlock1","","","","This is a tob:","null","","","","","",""
"image-keyboard-response","205","286638","0.0-5.0-1.66","LF","s0xp76sxy4","1280","800","0","1","0","5f68a907efe6b000080540be","","null","","","","","","","learning/Slide67.JPG","null","","","","","",""
"html-keyboard-response","206","287643","0.0-5.0-2.66","LF","s0xp76sxy4","1280","800","0","1","0","5f68a907efe6b000080540be","","null","","","learningBlock1","","","","<div style=""font-size:60px;""> </div>","null","LF","learning/Slide67.JPG","This is a tob:","","",""
"html-keyboard-response","207","288646","0.0-5.0-0.67","LF","s0xp76sxy4","1280","800","0","1","0","5f68a907efe6b000080540be","","null","","","learningBlock1","","","","This is a wug:","null","","","","","",""
"image-keyboard-response","208","288975","0.0-5.0-1.67","LF","s0xp76sxy4","1280","800","0","1","0","5f68a907efe6b000080540be","","null","","","","","","","learning/Slide68.JPG","null","","","","","",""
"html-keyboard-response","209","289980","0.0-5.0-2.67","LF","s0xp76sxy4","1280","800","0","1","0","5f68a907efe6b000080540be","","null","","","learningBlock1","","","","<div style=""font-size:60px;""> </div>","null","LF","learning/Slide68.JPG","This is a wug:","","",""
"html-keyboard-response","210","290984","0.0-5.0-0.68","LF","s0xp76sxy4","1280","800","0","1","0","5f68a907efe6b000080540be","","null","","","learningBlock1","","","","This is a tob:","null","","","","","",""
"image-keyboard-response","211","291312","0.0-5.0-1.68","LF","s0xp76sxy4","1280","800","0","1","0","5f68a907efe6b000080540be","","null","","","","","","","learning/Slide69.JPG","null","","","","","",""
"html-keyboard-response","212","292315","0.0-5.0-2.68","LF","s0xp76sxy4","1280","800","0","1","0","5f68a907efe6b000080540be","","null","","","learningBlock1","","","","<div style=""font-size:60px;""> </div>","null","LF","learning/Slide69.JPG","This is a tob:","","",""
"html-keyboard-response","213","293318","0.0-5.0-0.69","LF","s0xp76sxy4","1280","800","0","1","0","5f68a907efe6b000080540be","","null","","","learningBlock1","","","","This is a dep:","null","","","","","",""
"image-keyboard-response","214","293650","0.0-5.0-1.69","LF","s0xp76sxy4","1280","800","0","1","0","5f68a907efe6b000080540be","","null","","","","","","","learning/Slide70.JPG","null","","","","","",""
"html-keyboard-response","215","294655","0.0-5.0-2.69","LF","s0xp76sxy4","1280","800","0","1","0","5f68a907efe6b000080540be","","null","","","learningBlock1","","","","<div style=""font-size:60px;""> </div>","null","LF","learning/Slide70.JPG","This is a dep:","","",""
"html-keyboard-response","216","295659","0.0-5.0-0.70","LF","s0xp76sxy4","1280","800","0","1","0","5f68a907efe6b000080540be","","null","","","learningBlock1","","","","This is a wug:","null","","","","","",""
"image-keyboard-response","217","295990","0.0-5.0-1.70","LF","s0xp76sxy4","1280","800","0","1","0","5f68a907efe6b000080540be","","null","","","","","","","learning/Slide71.JPG","null","","","","","",""
"html-keyboard-response","218","296995","0.0-5.0-2.70","LF","s0xp76sxy4","1280","800","0","1","0","5f68a907efe6b000080540be","","null","","","learningBlock1","","","","<div style=""font-size:60px;""> </div>","null","LF","learning/Slide71.JPG","This is a wug:","","",""
"html-keyboard-response","219","297999","0.0-5.0-0.71","LF","s0xp76sxy4","1280","800","0","1","0","5f68a907efe6b000080540be","","null","","","learningBlock1","","","","This is a bim:","null","","","","","",""
"image-keyboard-response","220","298330","0.0-5.0-1.71","LF","s0xp76sxy4","1280","800","0","1","0","5f68a907efe6b000080540be","","null","","","","","","","learning/Slide72.JPG","null","","","","","",""
"html-keyboard-response","221","299331","0.0-5.0-2.71","LF","s0xp76sxy4","1280","800","0","1","0","5f68a907efe6b000080540be","","null","","","learningBlock1","","","","<div style=""font-size:60px;""> </div>","null","LF","learning/Slide72.JPG","This is a bim:","","",""
"html-keyboard-response","222","300335","0.0-5.0-0.72","LF","s0xp76sxy4","1280","800","0","1","0","5f68a907efe6b000080540be","","null","","","learningBlock1","","","","This is a wug:","null","","","","","",""
"image-keyboard-response","223","300668","0.0-5.0-1.72","LF","s0xp76sxy4","1280","800","0","1","0","5f68a907efe6b000080540be","","null","","","","","","","learning/Slide73.JPG","null","","","","","",""
"html-keyboard-response","224","301669","0.0-5.0-2.72","LF","s0xp76sxy4","1280","800","0","1","0","5f68a907efe6b000080540be","","null","","","learningBlock1","","","","<div style=""font-size:60px;""> </div>","null","LF","learning/Slide73.JPG","This is a wug:","","",""
"html-keyboard-response","225","302670","0.0-5.0-0.73","LF","s0xp76sxy4","1280","800","0","1","0","5f68a907efe6b000080540be","","null","","","learningBlock1","","","","This is a dep:","null","","","","","",""
"image-keyboard-response","226","303000","0.0-5.0-1.73","LF","s0xp76sxy4","1280","800","0","1","0","5f68a907efe6b000080540be","","null","","","","","","","learning/Slide74.JPG","null","","","","","",""
"html-keyboard-response","227","304003","0.0-5.0-2.73","LF","s0xp76sxy4","1280","800","0","1","0","5f68a907efe6b000080540be","","null","","","learningBlock1","","","","<div style=""font-size:60px;""> </div>","null","LF","learning/Slide74.JPG","This is a dep:","","",""
"html-keyboard-response","228","305005","0.0-5.0-0.74","LF","s0xp76sxy4","1280","800","0","1","0","5f68a907efe6b000080540be","","null","","","learningBlock1","","","","This is a tob:","null","","","","","",""
"image-keyboard-response","229","305337","0.0-5.0-1.74","LF","s0xp76sxy4","1280","800","0","1","0","5f68a907efe6b000080540be","","null","","","","","","","learning/Slide75.JPG","null","","","","","",""
"html-keyboard-response","230","306342","0.0-5.0-2.74","LF","s0xp76sxy4","1280","800","0","1","0","5f68a907efe6b000080540be","","null","","","learningBlock1","","","","<div style=""font-size:60px;""> </div>","null","LF","learning/Slide75.JPG","This is a tob:","","",""
"html-keyboard-response","231","307345","0.0-5.0-0.75","LF","s0xp76sxy4","1280","800","0","1","0","5f68a907efe6b000080540be","","null","","","learningBlock1","","","","This is a bim:","null","","","","","",""
"image-keyboard-response","232","307676","0.0-5.0-1.75","LF","s0xp76sxy4","1280","800","0","1","0","5f68a907efe6b000080540be","","null","","","","","","","learning/Slide76.JPG","null","","","","","",""
"html-keyboard-response","233","308678","0.0-5.0-2.75","LF","s0xp76sxy4","1280","800","0","1","0","5f68a907efe6b000080540be","","null","","","learningBlock1","","","","<div style=""font-size:60px;""> </div>","null","LF","learning/Slide76.JPG","This is a bim:","","",""
"html-keyboard-response","234","309679","0.0-5.0-0.76","LF","s0xp76sxy4","1280","800","0","1","0","5f68a907efe6b000080540be","","null","","","learningBlock1","","","","This is a tob:","null","","","","","",""
"image-keyboard-response","235","310015","0.0-5.0-1.76","LF","s0xp76sxy4","1280","800","0","1","0","5f68a907efe6b000080540be","","null","","","","","","","learning/Slide77.JPG","null","","","","","",""
"html-keyboard-response","236","311020","0.0-5.0-2.76","LF","s0xp76sxy4","1280","800","0","1","0","5f68a907efe6b000080540be","","null","","","learningBlock1","","","","<div style=""font-size:60px;""> </div>","null","LF","learning/Slide77.JPG","This is a tob:","","",""
"html-keyboard-response","237","312024","0.0-5.0-0.77","LF","s0xp76sxy4","1280","800","0","1","0","5f68a907efe6b000080540be","","null","","","learningBlock1","","","","This is a wug:","null","","","","","",""
"image-keyboard-response","238","312355","0.0-5.0-1.77","LF","s0xp76sxy4","1280","800","0","1","0","5f68a907efe6b000080540be","","null","","","","","","","learning/Slide78.JPG","null","","","","","",""
"html-keyboard-response","239","313359","0.0-5.0-2.77","LF","s0xp76sxy4","1280","800","0","1","0","5f68a907efe6b000080540be","","null","","","learningBlock1","","","","<div style=""font-size:60px;""> </div>","null","LF","learning/Slide78.JPG","This is a wug:","","",""
"html-keyboard-response","240","314363","0.0-5.0-0.78","LF","s0xp76sxy4","1280","800","0","1","0","5f68a907efe6b000080540be","","null","","","learningBlock1","","","","This is a bim:","null","","","","","",""
"image-keyboard-response","241","314694","0.0-5.0-1.78","LF","s0xp76sxy4","1280","800","0","1","0","5f68a907efe6b000080540be","","null","","","","","","","learning/Slide79.JPG","null","","","","","",""
"html-keyboard-response","242","315700","0.0-5.0-2.78","LF","s0xp76sxy4","1280","800","0","1","0","5f68a907efe6b000080540be","","null","","","learningBlock1","","","","<div style=""font-size:60px;""> </div>","null","LF","learning/Slide79.JPG","This is a bim:","","",""
"html-keyboard-response","243","316706","0.0-5.0-0.79","LF","s0xp76sxy4","1280","800","0","1","0","5f68a907efe6b000080540be","","null","","","learningBlock1","","","","This is a tob:","null","","","","","",""
"image-keyboard-response","244","317039","0.0-5.0-1.79","LF","s0xp76sxy4","1280","800","0","1","0","5f68a907efe6b000080540be","","null","","","","","","","learning/Slide80.JPG","null","","","","","",""
"html-keyboard-response","245","318042","0.0-5.0-2.79","LF","s0xp76sxy4","1280","800","0","1","0","5f68a907efe6b000080540be","","null","","","learningBlock1","","","","<div style=""font-size:60px;""> </div>","null","LF","learning/Slide80.JPG","This is a tob:","","",""
"instructions","246","319338","0.0-6.0","LF","s0xp76sxy4","1280","800","0","1","0","5f68a907efe6b000080540be","","NA","","[{""page_index"":0,""viewing_time"":1294.6599998977035}]","instructions","","","","","","","","","","",""
"html-keyboard-response","247","320343","0.0-7.0-0.0","LF","s0xp76sxy4","1280","800","0","1","0","5f68a907efe6b000080540be","","null","","","learningBlock2","","","","This is a wug:","null","","","","","",""
"image-keyboard-response","248","320673","0.0-7.0-1.0","LF","s0xp76sxy4","1280","800","0","1","0","5f68a907efe6b000080540be","","null","","","","","","","learning/Slide81.JPG","null","","","","","",""
"html-keyboard-response","249","321677","0.0-7.0-2.0","LF","s0xp76sxy4","1280","800","0","1","0","5f68a907efe6b000080540be","","null","","","learningBlock2","","","","<div style=""font-size:60px;""> </div>","null","LF","learning/Slide81.JPG","This is a wug:","","",""
"html-keyboard-response","250","322682","0.0-7.0-0.1","LF","s0xp76sxy4","1280","800","0","1","0","5f68a907efe6b000080540be","","null","","","learningBlock2","","","","This is a bim:","null","","","","","",""
"image-keyboard-response","251","323011","0.0-7.0-1.1","LF","s0xp76sxy4","1280","800","0","1","0","5f68a907efe6b000080540be","","null","","","","","","","learning/Slide82.JPG","null","","","","","",""
"html-keyboard-response","252","324015","0.0-7.0-2.1","LF","s0xp76sxy4","1280","800","0","1","0","5f68a907efe6b000080540be","","null","","","learningBlock2","","","","<div style=""font-size:60px;""> </div>","null","LF","learning/Slide82.JPG","This is a bim:","","",""
"html-keyboard-response","253","325019","0.0-7.0-0.2","LF","s0xp76sxy4","1280","800","0","1","0","5f68a907efe6b000080540be","","null","","","learningBlock2","","","","This is a wug:","null","","","","","",""
"image-keyboard-response","254","325349","0.0-7.0-1.2","LF","s0xp76sxy4","1280","800","0","1","0","5f68a907efe6b000080540be","","null","","","","","","","learning/Slide83.JPG","null","","","","","",""
"html-keyboard-response","255","326351","0.0-7.0-2.2","LF","s0xp76sxy4","1280","800","0","1","0","5f68a907efe6b000080540be","","null","","","learningBlock2","","","","<div style=""font-size:60px;""> </div>","null","LF","learning/Slide83.JPG","This is a wug:","","",""
"html-keyboard-response","256","327355","0.0-7.0-0.3","LF","s0xp76sxy4","1280","800","0","1","0","5f68a907efe6b000080540be","","null","","","learningBlock2","","","","This is a dep:","null","","","","","",""
"image-keyboard-response","257","327683","0.0-7.0-1.3","LF","s0xp76sxy4","1280","800","0","1","0","5f68a907efe6b000080540be","","null","","","","","","","learning/Slide84.JPG","null","","","","","",""
"html-keyboard-response","258","328688","0.0-7.0-2.3","LF","s0xp76sxy4","1280","800","0","1","0","5f68a907efe6b000080540be","","null","","","learningBlock2","","","","<div style=""font-size:60px;""> </div>","null","LF","learning/Slide84.JPG","This is a dep:","","",""
"html-keyboard-response","259","329692","0.0-7.0-0.4","LF","s0xp76sxy4","1280","800","0","1","0","5f68a907efe6b000080540be","","null","","","learningBlock2","","","","This is a bim:","null","","","","","",""
"image-keyboard-response","260","330025","0.0-7.0-1.4","LF","s0xp76sxy4","1280","800","0","1","0","5f68a907efe6b000080540be","","null","","","","","","","learning/Slide85.JPG","null","","","","","",""
"html-keyboard-response","261","331027","0.0-7.0-2.4","LF","s0xp76sxy4","1280","800","0","1","0","5f68a907efe6b000080540be","","null","","","learningBlock2","","","","<div style=""font-size:60px;""> </div>","null","LF","learning/Slide85.JPG","This is a bim:","","",""
"html-keyboard-response","262","332032","0.0-7.0-0.5","LF","s0xp76sxy4","1280","800","0","1","0","5f68a907efe6b000080540be","","null","","","learningBlock2","","","","This is a tob:","null","","","","","",""
"image-keyboard-response","263","332364","0.0-7.0-1.5","LF","s0xp76sxy4","1280","800","0","1","0","5f68a907efe6b000080540be","","null","","","","","","","learning/Slide86.JPG","null","","","","","",""
"html-keyboard-response","264","333369","0.0-7.0-2.5","LF","s0xp76sxy4","1280","800","0","1","0","5f68a907efe6b000080540be","","null","","","learningBlock2","","","","<div style=""font-size:60px;""> </div>","null","LF","learning/Slide86.JPG","This is a tob:","","",""
"html-keyboard-response","265","334375","0.0-7.0-0.6","LF","s0xp76sxy4","1280","800","0","1","0","5f68a907efe6b000080540be","","null","","","learningBlock2","","","","This is a wug:","null","","","","","",""
"image-keyboard-response","266","334709","0.0-7.0-1.6","LF","s0xp76sxy4","1280","800","0","1","0","5f68a907efe6b000080540be","","null","","","","","","","learning/Slide87.JPG","null","","","","","",""
"html-keyboard-response","267","335713","0.0-7.0-2.6","LF","s0xp76sxy4","1280","800","0","1","0","5f68a907efe6b000080540be","","null","","","learningBlock2","","","","<div style=""font-size:60px;""> </div>","null","LF","learning/Slide87.JPG","This is a wug:","","",""
"html-keyboard-response","268","336717","0.0-7.0-0.7","LF","s0xp76sxy4","1280","800","0","1","0","5f68a907efe6b000080540be","","null","","","learningBlock2","","","","This is a tob:","null","","","","","",""
"image-keyboard-response","269","337052","0.0-7.0-1.7","LF","s0xp76sxy4","1280","800","0","1","0","5f68a907efe6b000080540be","","null","","","","","","","learning/Slide88.JPG","null","","","","","",""
"html-keyboard-response","270","338054","0.0-7.0-2.7","LF","s0xp76sxy4","1280","800","0","1","0","5f68a907efe6b000080540be","","null","","","learningBlock2","","","","<div style=""font-size:60px;""> </div>","null","LF","learning/Slide88.JPG","This is a tob:","","",""
"html-keyboard-response","271","339057","0.0-7.0-0.8","LF","s0xp76sxy4","1280","800","0","1","0","5f68a907efe6b000080540be","","null","","","learningBlock2","","","","This is a bim:","null","","","","","",""
"image-keyboard-response","272","339388","0.0-7.0-1.8","LF","s0xp76sxy4","1280","800","0","1","0","5f68a907efe6b000080540be","","null","","","","","","","learning/Slide89.JPG","null","","","","","",""
"html-keyboard-response","273","340393","0.0-7.0-2.8","LF","s0xp76sxy4","1280","800","0","1","0","5f68a907efe6b000080540be","","null","","","learningBlock2","","","","<div style=""font-size:60px;""> </div>","null","LF","learning/Slide89.JPG","This is a bim:","","",""
"html-keyboard-response","274","341397","0.0-7.0-0.9","LF","s0xp76sxy4","1280","800","0","1","0","5f68a907efe6b000080540be","","null","","","learningBlock2","","","","This is a dep:","null","","","","","",""
"image-keyboard-response","275","341729","0.0-7.0-1.9","LF","s0xp76sxy4","1280","800","0","1","0","5f68a907efe6b000080540be","","null","","","","","","","learning/Slide90.JPG","null","","","","","",""
"html-keyboard-response","276","342733","0.0-7.0-2.9","LF","s0xp76sxy4","1280","800","0","1","0","5f68a907efe6b000080540be","","null","","","learningBlock2","","","","<div style=""font-size:60px;""> </div>","null","LF","learning/Slide90.JPG","This is a dep:","","",""
"html-keyboard-response","277","343737","0.0-7.0-0.10","LF","s0xp76sxy4","1280","800","0","1","0","5f68a907efe6b000080540be","","null","","","learningBlock2","","","","This is a wug:","null","","","","","",""
"image-keyboard-response","278","344068","0.0-7.0-1.10","LF","s0xp76sxy4","1280","800","0","1","0","5f68a907efe6b000080540be","","null","","","","","","","learning/Slide91.JPG","null","","","","","",""
"html-keyboard-response","279","345072","0.0-7.0-2.10","LF","s0xp76sxy4","1280","800","0","1","0","5f68a907efe6b000080540be","","null","","","learningBlock2","","","","<div style=""font-size:60px;""> </div>","null","LF","learning/Slide91.JPG","This is a wug:","","",""
"html-keyboard-response","280","346077","0.0-7.0-0.11","LF","s0xp76sxy4","1280","800","0","1","0","5f68a907efe6b000080540be","","null","","","learningBlock2","","","","This is a tob:","null","","","","","",""
"image-keyboard-response","281","346405","0.0-7.0-1.11","LF","s0xp76sxy4","1280","800","0","1","0","5f68a907efe6b000080540be","","null","","","","","","","learning/Slide92.JPG","null","","","","","",""
"html-keyboard-response","282","347407","0.0-7.0-2.11","LF","s0xp76sxy4","1280","800","0","1","0","5f68a907efe6b000080540be","","null","","","learningBlock2","","","","<div style=""font-size:60px;""> </div>","null","LF","learning/Slide92.JPG","This is a tob:","","",""
"html-keyboard-response","283","348413","0.0-7.0-0.12","LF","s0xp76sxy4","1280","800","0","1","0","5f68a907efe6b000080540be","","null","","","learningBlock2","","","","This is a bim:","null","","","","","",""
"image-keyboard-response","284","348748","0.0-7.0-1.12","LF","s0xp76sxy4","1280","800","0","1","0","5f68a907efe6b000080540be","","null","","","","","","","learning/Slide93.JPG","null","","","","","",""
"html-keyboard-response","285","349751","0.0-7.0-2.12","LF","s0xp76sxy4","1280","800","0","1","0","5f68a907efe6b000080540be","","null","","","learningBlock2","","","","<div style=""font-size:60px;""> </div>","null","LF","learning/Slide93.JPG","This is a bim:","","",""
"html-keyboard-response","286","350755","0.0-7.0-0.13","LF","s0xp76sxy4","1280","800","0","1","0","5f68a907efe6b000080540be","","null","","","learningBlock2","","","","This is a tob:","null","","","","","",""
"image-keyboard-response","287","351083","0.0-7.0-1.13","LF","s0xp76sxy4","1280","800","0","1","0","5f68a907efe6b000080540be","","null","","","","","","","learning/Slide94.JPG","null","","","","","",""
"html-keyboard-response","288","352085","0.0-7.0-2.13","LF","s0xp76sxy4","1280","800","0","1","0","5f68a907efe6b000080540be","","null","","","learningBlock2","","","","<div style=""font-size:60px;""> </div>","null","LF","learning/Slide94.JPG","This is a tob:","","",""
"html-keyboard-response","289","353089","0.0-7.0-0.14","LF","s0xp76sxy4","1280","800","0","1","0","5f68a907efe6b000080540be","","null","","","learningBlock2","","","","This is a wug:","null","","","","","",""
"image-keyboard-response","290","353418","0.0-7.0-1.14","LF","s0xp76sxy4","1280","800","0","1","0","5f68a907efe6b000080540be","","null","","","","","","","learning/Slide95.JPG","null","","","","","",""
"html-keyboard-response","291","354419","0.0-7.0-2.14","LF","s0xp76sxy4","1280","800","0","1","0","5f68a907efe6b000080540be","","null","","","learningBlock2","","","","<div style=""font-size:60px;""> </div>","null","LF","learning/Slide95.JPG","This is a wug:","","",""
"html-keyboard-response","292","355422","0.0-7.0-0.15","LF","s0xp76sxy4","1280","800","0","1","0","5f68a907efe6b000080540be","","null","","","learningBlock2","","","","This is a tob:","null","","","","","",""
"image-keyboard-response","293","355753","0.0-7.0-1.15","LF","s0xp76sxy4","1280","800","0","1","0","5f68a907efe6b000080540be","","null","","","","","","","learning/Slide96.JPG","null","","","","","",""
"html-keyboard-response","294","356758","0.0-7.0-2.15","LF","s0xp76sxy4","1280","800","0","1","0","5f68a907efe6b000080540be","","null","","","learningBlock2","","","","<div style=""font-size:60px;""> </div>","null","LF","learning/Slide96.JPG","This is a tob:","","",""
"html-keyboard-response","295","357760","0.0-7.0-0.16","LF","s0xp76sxy4","1280","800","0","1","0","5f68a907efe6b000080540be","","null","","","learningBlock2","","","","This is a dep:","null","","","","","",""
"image-keyboard-response","296","358093","0.0-7.0-1.16","LF","s0xp76sxy4","1280","800","0","1","0","5f68a907efe6b000080540be","","null","","","","","","","learning/Slide97.JPG","null","","","","","",""
"html-keyboard-response","297","359097","0.0-7.0-2.16","LF","s0xp76sxy4","1280","800","0","1","0","5f68a907efe6b000080540be","","null","","","learningBlock2","","","","<div style=""font-size:60px;""> </div>","null","LF","learning/Slide97.JPG","This is a dep:","","",""
"html-keyboard-response","298","360102","0.0-7.0-0.17","LF","s0xp76sxy4","1280","800","0","1","0","5f68a907efe6b000080540be","","null","","","learningBlock2","","","","This is a bim:","null","","","","","",""
"image-keyboard-response","299","360432","0.0-7.0-1.17","LF","s0xp76sxy4","1280","800","0","1","0","5f68a907efe6b000080540be","","null","","","","","","","learning/Slide98.JPG","null","","","","","",""
"html-keyboard-response","300","361437","0.0-7.0-2.17","LF","s0xp76sxy4","1280","800","0","1","0","5f68a907efe6b000080540be","","null","","","learningBlock2","","","","<div style=""font-size:60px;""> </div>","null","LF","learning/Slide98.JPG","This is a bim:","","",""
"html-keyboard-response","301","362441","0.0-7.0-0.18","LF","s0xp76sxy4","1280","800","0","1","0","5f68a907efe6b000080540be","","null","","","learningBlock2","","","","This is a dep:","null","","","","","",""
"image-keyboard-response","302","362772","0.0-7.0-1.18","LF","s0xp76sxy4","1280","800","0","1","0","5f68a907efe6b000080540be","","null","","","","","","","learning/Slide99.JPG","null","","","","","",""
"html-keyboard-response","303","363776","0.0-7.0-2.18","LF","s0xp76sxy4","1280","800","0","1","0","5f68a907efe6b000080540be","","null","","","learningBlock2","","","","<div style=""font-size:60px;""> </div>","null","LF","learning/Slide99.JPG","This is a dep:","","",""
"html-keyboard-response","304","364781","0.0-7.0-0.19","LF","s0xp76sxy4","1280","800","0","1","0","5f68a907efe6b000080540be","","null","","","learningBlock2","","","","This is a bim:","null","","","","","",""
"image-keyboard-response","305","365111","0.0-7.0-1.19","LF","s0xp76sxy4","1280","800","0","1","0","5f68a907efe6b000080540be","","null","","","","","","","learning/Slide100.JPG","null","","","","","",""
"html-keyboard-response","306","366115","0.0-7.0-2.19","LF","s0xp76sxy4","1280","800","0","1","0","5f68a907efe6b000080540be","","null","","","learningBlock2","","","","<div style=""font-size:60px;""> </div>","null","LF","learning/Slide100.JPG","This is a bim:","","",""
"html-keyboard-response","307","367119","0.0-7.0-0.20","LF","s0xp76sxy4","1280","800","0","1","0","5f68a907efe6b000080540be","","null","","","learningBlock2","","","","This is a tob:","null","","","","","",""
"image-keyboard-response","308","367454","0.0-7.0-1.20","LF","s0xp76sxy4","1280","800","0","1","0","5f68a907efe6b000080540be","","null","","","","","","","learning/Slide101.JPG","null","","","","","",""
"html-keyboard-response","309","368454","0.0-7.0-2.20","LF","s0xp76sxy4","1280","800","0","1","0","5f68a907efe6b000080540be","","null","","","learningBlock2","","","","<div style=""font-size:60px;""> </div>","null","LF","learning/Slide101.JPG","This is a tob:","","",""
"html-keyboard-response","310","369457","0.0-7.0-0.21","LF","s0xp76sxy4","1280","800","0","1","0","5f68a907efe6b000080540be","","null","","","learningBlock2","","","","This is a bim:","null","","","","","",""
"image-keyboard-response","311","369790","0.0-7.0-1.21","LF","s0xp76sxy4","1280","800","0","1","0","5f68a907efe6b000080540be","","null","","","","","","","learning/Slide102.JPG","null","","","","","",""
"html-keyboard-response","312","370794","0.0-7.0-2.21","LF","s0xp76sxy4","1280","800","0","1","0","5f68a907efe6b000080540be","","null","","","learningBlock2","","","","<div style=""font-size:60px;""> </div>","null","LF","learning/Slide102.JPG","This is a bim:","","",""
"html-keyboard-response","313","371798","0.0-7.0-0.22","LF","s0xp76sxy4","1280","800","0","1","0","5f68a907efe6b000080540be","","null","","","learningBlock2","","","","This is a dep:","null","","","","","",""
"image-keyboard-response","314","372133","0.0-7.0-1.22","LF","s0xp76sxy4","1280","800","0","1","0","5f68a907efe6b000080540be","","null","","","","","","","learning/Slide103.JPG","null","","","","","",""
"html-keyboard-response","315","373134","0.0-7.0-2.22","LF","s0xp76sxy4","1280","800","0","1","0","5f68a907efe6b000080540be","","null","","","learningBlock2","","","","<div style=""font-size:60px;""> </div>","null","LF","learning/Slide103.JPG","This is a dep:","","",""
"html-keyboard-response","316","374136","0.0-7.0-0.23","LF","s0xp76sxy4","1280","800","0","1","0","5f68a907efe6b000080540be","","null","","","learningBlock2","","","","This is a tob:","null","","","","","",""
"image-keyboard-response","317","374469","0.0-7.0-1.23","LF","s0xp76sxy4","1280","800","0","1","0","5f68a907efe6b000080540be","","null","","","","","","","learning/Slide104.JPG","null","","","","","",""
"html-keyboard-response","318","375474","0.0-7.0-2.23","LF","s0xp76sxy4","1280","800","0","1","0","5f68a907efe6b000080540be","","null","","","learningBlock2","","","","<div style=""font-size:60px;""> </div>","null","LF","learning/Slide104.JPG","This is a tob:","","",""
"html-keyboard-response","319","376478","0.0-7.0-0.24","LF","s0xp76sxy4","1280","800","0","1","0","5f68a907efe6b000080540be","","null","","","learningBlock2","","","","This is a dep:","null","","","","","",""
"image-keyboard-response","320","376811","0.0-7.0-1.24","LF","s0xp76sxy4","1280","800","0","1","0","5f68a907efe6b000080540be","","null","","","","","","","learning/Slide105.JPG","null","","","","","",""
"html-keyboard-response","321","377815","0.0-7.0-2.24","LF","s0xp76sxy4","1280","800","0","1","0","5f68a907efe6b000080540be","","null","","","learningBlock2","","","","<div style=""font-size:60px;""> </div>","null","LF","learning/Slide105.JPG","This is a dep:","","",""
"html-keyboard-response","322","378819","0.0-7.0-0.25","LF","s0xp76sxy4","1280","800","0","1","0","5f68a907efe6b000080540be","","null","","","learningBlock2","","","","This is a wug:","null","","","","","",""
"image-keyboard-response","323","379152","0.0-7.0-1.25","LF","s0xp76sxy4","1280","800","0","1","0","5f68a907efe6b000080540be","","null","","","","","","","learning/Slide106.JPG","null","","","","","",""
"html-keyboard-response","324","380156","0.0-7.0-2.25","LF","s0xp76sxy4","1280","800","0","1","0","5f68a907efe6b000080540be","","null","","","learningBlock2","","","","<div style=""font-size:60px;""> </div>","null","LF","learning/Slide106.JPG","This is a wug:","","",""
"html-keyboard-response","325","381160","0.0-7.0-0.26","LF","s0xp76sxy4","1280","800","0","1","0","5f68a907efe6b000080540be","","null","","","learningBlock2","","","","This is a bim:","null","","","","","",""
"image-keyboard-response","326","381491","0.0-7.0-1.26","LF","s0xp76sxy4","1280","800","0","1","0","5f68a907efe6b000080540be","","null","","","","","","","learning/Slide107.JPG","null","","","","","",""
"html-keyboard-response","327","382493","0.0-7.0-2.26","LF","s0xp76sxy4","1280","800","0","1","0","5f68a907efe6b000080540be","","null","","","learningBlock2","","","","<div style=""font-size:60px;""> </div>","null","LF","learning/Slide107.JPG","This is a bim:","","",""
"html-keyboard-response","328","383495","0.0-7.0-0.27","LF","s0xp76sxy4","1280","800","0","1","0","5f68a907efe6b000080540be","","null","","","learningBlock2","","","","This is a dep:","null","","","","","",""
"image-keyboard-response","329","383825","0.0-7.0-1.27","LF","s0xp76sxy4","1280","800","0","1","0","5f68a907efe6b000080540be","","null","","","","","","","learning/Slide108.JPG","null","","","","","",""
"html-keyboard-response","330","384830","0.0-7.0-2.27","LF","s0xp76sxy4","1280","800","0","1","0","5f68a907efe6b000080540be","","null","","","learningBlock2","","","","<div style=""font-size:60px;""> </div>","null","LF","learning/Slide108.JPG","This is a dep:","","",""
"html-keyboard-response","331","385835","0.0-7.0-0.28","LF","s0xp76sxy4","1280","800","0","1","0","5f68a907efe6b000080540be","","null","","","learningBlock2","","","","This is a wug:","null","","","","","",""
"image-keyboard-response","332","386167","0.0-7.0-1.28","LF","s0xp76sxy4","1280","800","0","1","0","5f68a907efe6b000080540be","","null","","","","","","","learning/Slide109.JPG","null","","","","","",""
"html-keyboard-response","333","387170","0.0-7.0-2.28","LF","s0xp76sxy4","1280","800","0","1","0","5f68a907efe6b000080540be","","null","","","learningBlock2","","","","<div style=""font-size:60px;""> </div>","null","LF","learning/Slide109.JPG","This is a wug:","","",""
"html-keyboard-response","334","388175","0.0-7.0-0.29","LF","s0xp76sxy4","1280","800","0","1","0","5f68a907efe6b000080540be","","null","","","learningBlock2","","","","This is a bim:","null","","","","","",""
"image-keyboard-response","335","388508","0.0-7.0-1.29","LF","s0xp76sxy4","1280","800","0","1","0","5f68a907efe6b000080540be","","null","","","","","","","learning/Slide110.JPG","null","","","","","",""
"html-keyboard-response","336","389512","0.0-7.0-2.29","LF","s0xp76sxy4","1280","800","0","1","0","5f68a907efe6b000080540be","","null","","","learningBlock2","","","","<div style=""font-size:60px;""> </div>","null","LF","learning/Slide110.JPG","This is a bim:","","",""
"html-keyboard-response","337","390516","0.0-7.0-0.30","LF","s0xp76sxy4","1280","800","0","1","0","5f68a907efe6b000080540be","","null","","","learningBlock2","","","","This is a tob:","null","","","","","",""
"image-keyboard-response","338","390848","0.0-7.0-1.30","LF","s0xp76sxy4","1280","800","0","1","0","5f68a907efe6b000080540be","","null","","","","","","","learning/Slide111.JPG","null","","","","","",""
"html-keyboard-response","339","391853","0.0-7.0-2.30","LF","s0xp76sxy4","1280","800","0","1","0","5f68a907efe6b000080540be","","null","","","learningBlock2","","","","<div style=""font-size:60px;""> </div>","null","LF","learning/Slide111.JPG","This is a tob:","","",""
"html-keyboard-response","340","392858","0.0-7.0-0.31","LF","s0xp76sxy4","1280","800","0","1","0","5f68a907efe6b000080540be","","null","","","learningBlock2","","","","This is a wug:","null","","","","","",""
"image-keyboard-response","341","393191","0.0-7.0-1.31","LF","s0xp76sxy4","1280","800","0","1","0","5f68a907efe6b000080540be","","null","","","","","","","learning/Slide112.JPG","null","","","","","",""
"html-keyboard-response","342","394195","0.0-7.0-2.31","LF","s0xp76sxy4","1280","800","0","1","0","5f68a907efe6b000080540be","","null","","","learningBlock2","","","","<div style=""font-size:60px;""> </div>","null","LF","learning/Slide112.JPG","This is a wug:","","",""
"html-keyboard-response","343","395199","0.0-7.0-0.32","LF","s0xp76sxy4","1280","800","0","1","0","5f68a907efe6b000080540be","","null","","","learningBlock2","","","","This is a tob:","null","","","","","",""
"image-keyboard-response","344","395530","0.0-7.0-1.32","LF","s0xp76sxy4","1280","800","0","1","0","5f68a907efe6b000080540be","","null","","","","","","","learning/Slide113.JPG","null","","","","","",""
"html-keyboard-response","345","396536","0.0-7.0-2.32","LF","s0xp76sxy4","1280","800","0","1","0","5f68a907efe6b000080540be","","null","","","learningBlock2","","","","<div style=""font-size:60px;""> </div>","null","LF","learning/Slide113.JPG","This is a tob:","","",""
"html-keyboard-response","346","397541","0.0-7.0-0.33","LF","s0xp76sxy4","1280","800","0","1","0","5f68a907efe6b000080540be","","null","","","learningBlock2","","","","This is a wug:","null","","","","","",""
"image-keyboard-response","347","397876","0.0-7.0-1.33","LF","s0xp76sxy4","1280","800","0","1","0","5f68a907efe6b000080540be","","null","","","","","","","learning/Slide114.JPG","null","","","","","",""
"html-keyboard-response","348","398877","0.0-7.0-2.33","LF","s0xp76sxy4","1280","800","0","1","0","5f68a907efe6b000080540be","","null","","","learningBlock2","","","","<div style=""font-size:60px;""> </div>","null","LF","learning/Slide114.JPG","This is a wug:","","",""
"html-keyboard-response","349","399878","0.0-7.0-0.34","LF","s0xp76sxy4","1280","800","0","1","0","5f68a907efe6b000080540be","","null","","","learningBlock2","","","","This is a bim:","null","","","","","",""
"image-keyboard-response","350","400209","0.0-7.0-1.34","LF","s0xp76sxy4","1280","800","0","1","0","5f68a907efe6b000080540be","","null","","","","","","","learning/Slide115.JPG","null","","","","","",""
"html-keyboard-response","351","401213","0.0-7.0-2.34","LF","s0xp76sxy4","1280","800","0","1","0","5f68a907efe6b000080540be","","null","","","learningBlock2","","","","<div style=""font-size:60px;""> </div>","null","LF","learning/Slide115.JPG","This is a bim:","","",""
"html-keyboard-response","352","402218","0.0-7.0-0.35","LF","s0xp76sxy4","1280","800","0","1","0","5f68a907efe6b000080540be","","null","","","learningBlock2","","","","This is a dep:","null","","","","","",""
"image-keyboard-response","353","402549","0.0-7.0-1.35","LF","s0xp76sxy4","1280","800","0","1","0","5f68a907efe6b000080540be","","null","","","","","","","learning/Slide116.JPG","null","","","","","",""
"html-keyboard-response","354","403550","0.0-7.0-2.35","LF","s0xp76sxy4","1280","800","0","1","0","5f68a907efe6b000080540be","","null","","","learningBlock2","","","","<div style=""font-size:60px;""> </div>","null","LF","learning/Slide116.JPG","This is a dep:","","",""
"html-keyboard-response","355","404553","0.0-7.0-0.36","LF","s0xp76sxy4","1280","800","0","1","0","5f68a907efe6b000080540be","","null","","","learningBlock2","","","","This is a tob:","null","","","","","",""
"image-keyboard-response","356","404888","0.0-7.0-1.36","LF","s0xp76sxy4","1280","800","0","1","0","5f68a907efe6b000080540be","","null","","","","","","","learning/Slide117.JPG","null","","","","","",""
"html-keyboard-response","357","405894","0.0-7.0-2.36","LF","s0xp76sxy4","1280","800","0","1","0","5f68a907efe6b000080540be","","null","","","learningBlock2","","","","<div style=""font-size:60px;""> </div>","null","LF","learning/Slide117.JPG","This is a tob:","","",""
"html-keyboard-response","358","406897","0.0-7.0-0.37","LF","s0xp76sxy4","1280","800","0","1","0","5f68a907efe6b000080540be","","null","","","learningBlock2","","","","This is a dep:","null","","","","","",""
"image-keyboard-response","359","407229","0.0-7.0-1.37","LF","s0xp76sxy4","1280","800","0","1","0","5f68a907efe6b000080540be","","null","","","","","","","learning/Slide118.JPG","null","","","","","",""
"html-keyboard-response","360","408232","0.0-7.0-2.37","LF","s0xp76sxy4","1280","800","0","1","0","5f68a907efe6b000080540be","","null","","","learningBlock2","","","","<div style=""font-size:60px;""> </div>","null","LF","learning/Slide118.JPG","This is a dep:","","",""
"html-keyboard-response","361","409236","0.0-7.0-0.38","LF","s0xp76sxy4","1280","800","0","1","0","5f68a907efe6b000080540be","","null","","","learningBlock2","","","","This is a wug:","null","","","","","",""
"image-keyboard-response","362","409566","0.0-7.0-1.38","LF","s0xp76sxy4","1280","800","0","1","0","5f68a907efe6b000080540be","","null","","","","","","","learning/Slide119.JPG","null","","","","","",""
"html-keyboard-response","363","410569","0.0-7.0-2.38","LF","s0xp76sxy4","1280","800","0","1","0","5f68a907efe6b000080540be","","null","","","learningBlock2","","","","<div style=""font-size:60px;""> </div>","null","LF","learning/Slide119.JPG","This is a wug:","","",""
"html-keyboard-response","364","411574","0.0-7.0-0.39","LF","s0xp76sxy4","1280","800","0","1","0","5f68a907efe6b000080540be","","null","","","learningBlock2","","","","This is a dep:","null","","","","","",""
"image-keyboard-response","365","411906","0.0-7.0-1.39","LF","s0xp76sxy4","1280","800","0","1","0","5f68a907efe6b000080540be","","null","","","","","","","learning/Slide120.JPG","null","","","","","",""
"html-keyboard-response","366","412911","0.0-7.0-2.39","LF","s0xp76sxy4","1280","800","0","1","0","5f68a907efe6b000080540be","","null","","","learningBlock2","","","","<div style=""font-size:60px;""> </div>","null","LF","learning/Slide120.JPG","This is a dep:","","",""
"html-keyboard-response","367","413916","0.0-7.0-0.40","LF","s0xp76sxy4","1280","800","0","1","0","5f68a907efe6b000080540be","","null","","","learningBlock2","","","","This is a bim:","null","","","","","",""
"image-keyboard-response","368","414251","0.0-7.0-1.40","LF","s0xp76sxy4","1280","800","0","1","0","5f68a907efe6b000080540be","","null","","","","","","","learning/Slide121.JPG","null","","","","","",""
"html-keyboard-response","369","415252","0.0-7.0-2.40","LF","s0xp76sxy4","1280","800","0","1","0","5f68a907efe6b000080540be","","null","","","learningBlock2","","","","<div style=""font-size:60px;""> </div>","null","LF","learning/Slide121.JPG","This is a bim:","","",""
"html-keyboard-response","370","416256","0.0-7.0-0.41","LF","s0xp76sxy4","1280","800","0","1","0","5f68a907efe6b000080540be","","null","","","learningBlock2","","","","This is a wug:","null","","","","","",""
"image-keyboard-response","371","416584","0.0-7.0-1.41","LF","s0xp76sxy4","1280","800","0","1","0","5f68a907efe6b000080540be","","null","","","","","","","learning/Slide122.JPG","null","","","","","",""
"html-keyboard-response","372","417589","0.0-7.0-2.41","LF","s0xp76sxy4","1280","800","0","1","0","5f68a907efe6b000080540be","","null","","","learningBlock2","","","","<div style=""font-size:60px;""> </div>","null","LF","learning/Slide122.JPG","This is a wug:","","",""
"html-keyboard-response","373","418593","0.0-7.0-0.42","LF","s0xp76sxy4","1280","800","0","1","0","5f68a907efe6b000080540be","","null","","","learningBlock2","","","","This is a bim:","null","","","","","",""
"image-keyboard-response","374","418922","0.0-7.0-1.42","LF","s0xp76sxy4","1280","800","0","1","0","5f68a907efe6b000080540be","","null","","","","","","","learning/Slide123.JPG","null","","","","","",""
"html-keyboard-response","375","419926","0.0-7.0-2.42","LF","s0xp76sxy4","1280","800","0","1","0","5f68a907efe6b000080540be","","null","","","learningBlock2","","","","<div style=""font-size:60px;""> </div>","null","LF","learning/Slide123.JPG","This is a bim:","","",""
"html-keyboard-response","376","420929","0.0-7.0-0.43","LF","s0xp76sxy4","1280","800","0","1","0","5f68a907efe6b000080540be","","null","","","learningBlock2","","","","This is a tob:","null","","","","","",""
"image-keyboard-response","377","421260","0.0-7.0-1.43","LF","s0xp76sxy4","1280","800","0","1","0","5f68a907efe6b000080540be","","null","","","","","","","learning/Slide124.JPG","null","","","","","",""
"html-keyboard-response","378","422262","0.0-7.0-2.43","LF","s0xp76sxy4","1280","800","0","1","0","5f68a907efe6b000080540be","","null","","","learningBlock2","","","","<div style=""font-size:60px;""> </div>","null","LF","learning/Slide124.JPG","This is a tob:","","",""
"html-keyboard-response","379","423263","0.0-7.0-0.44","LF","s0xp76sxy4","1280","800","0","1","0","5f68a907efe6b000080540be","","null","","","learningBlock2","","","","This is a bim:","null","","","","","",""
"image-keyboard-response","380","423592","0.0-7.0-1.44","LF","s0xp76sxy4","1280","800","0","1","0","5f68a907efe6b000080540be","","null","","","","","","","learning/Slide125.JPG","null","","","","","",""
"html-keyboard-response","381","424595","0.0-7.0-2.44","LF","s0xp76sxy4","1280","800","0","1","0","5f68a907efe6b000080540be","","null","","","learningBlock2","","","","<div style=""font-size:60px;""> </div>","null","LF","learning/Slide125.JPG","This is a bim:","","",""
"html-keyboard-response","382","425599","0.0-7.0-0.45","LF","s0xp76sxy4","1280","800","0","1","0","5f68a907efe6b000080540be","","null","","","learningBlock2","","","","This is a tob:","null","","","","","",""
"image-keyboard-response","383","425929","0.0-7.0-1.45","LF","s0xp76sxy4","1280","800","0","1","0","5f68a907efe6b000080540be","","null","","","","","","","learning/Slide126.JPG","null","","","","","",""
"html-keyboard-response","384","426934","0.0-7.0-2.45","LF","s0xp76sxy4","1280","800","0","1","0","5f68a907efe6b000080540be","","null","","","learningBlock2","","","","<div style=""font-size:60px;""> </div>","null","LF","learning/Slide126.JPG","This is a tob:","","",""
"html-keyboard-response","385","427938","0.0-7.0-0.46","LF","s0xp76sxy4","1280","800","0","1","0","5f68a907efe6b000080540be","","null","","","learningBlock2","","","","This is a dep:","null","","","","","",""
"image-keyboard-response","386","428273","0.0-7.0-1.46","LF","s0xp76sxy4","1280","800","0","1","0","5f68a907efe6b000080540be","","null","","","","","","","learning/Slide127.JPG","null","","","","","",""
"html-keyboard-response","387","429274","0.0-7.0-2.46","LF","s0xp76sxy4","1280","800","0","1","0","5f68a907efe6b000080540be","","null","","","learningBlock2","","","","<div style=""font-size:60px;""> </div>","null","LF","learning/Slide127.JPG","This is a dep:","","",""
"html-keyboard-response","388","430276","0.0-7.0-0.47","LF","s0xp76sxy4","1280","800","0","1","0","5f68a907efe6b000080540be","","null","","","learningBlock2","","","","This is a wug:","null","","","","","",""
"image-keyboard-response","389","430610","0.0-7.0-1.47","LF","s0xp76sxy4","1280","800","0","1","0","5f68a907efe6b000080540be","","null","","","","","","","learning/Slide128.JPG","null","","","","","",""
"html-keyboard-response","390","431613","0.0-7.0-2.47","LF","s0xp76sxy4","1280","800","0","1","0","5f68a907efe6b000080540be","","null","","","learningBlock2","","","","<div style=""font-size:60px;""> </div>","null","LF","learning/Slide128.JPG","This is a wug:","","",""
"html-keyboard-response","391","432616","0.0-7.0-0.48","LF","s0xp76sxy4","1280","800","0","1","0","5f68a907efe6b000080540be","","null","","","learningBlock2","","","","This is a tob:","null","","","","","",""
"image-keyboard-response","392","432943","0.0-7.0-1.48","LF","s0xp76sxy4","1280","800","0","1","0","5f68a907efe6b000080540be","","null","","","","","","","learning/Slide129.JPG","null","","","","","",""
"html-keyboard-response","393","433948","0.0-7.0-2.48","LF","s0xp76sxy4","1280","800","0","1","0","5f68a907efe6b000080540be","","null","","","learningBlock2","","","","<div style=""font-size:60px;""> </div>","null","LF","learning/Slide129.JPG","This is a tob:","","",""
"html-keyboard-response","394","434953","0.0-7.0-0.49","LF","s0xp76sxy4","1280","800","0","1","0","5f68a907efe6b000080540be","","null","","","learningBlock2","","","","This is a wug:","null","","","","","",""
"image-keyboard-response","395","435283","0.0-7.0-1.49","LF","s0xp76sxy4","1280","800","0","1","0","5f68a907efe6b000080540be","","null","","","","","","","learning/Slide130.JPG","null","","","","","",""
"html-keyboard-response","396","436287","0.0-7.0-2.49","LF","s0xp76sxy4","1280","800","0","1","0","5f68a907efe6b000080540be","","null","","","learningBlock2","","","","<div style=""font-size:60px;""> </div>","null","LF","learning/Slide130.JPG","This is a wug:","","",""
"html-keyboard-response","397","437292","0.0-7.0-0.50","LF","s0xp76sxy4","1280","800","0","1","0","5f68a907efe6b000080540be","","null","","","learningBlock2","","","","This is a bim:","null","","","","","",""
"image-keyboard-response","398","437623","0.0-7.0-1.50","LF","s0xp76sxy4","1280","800","0","1","0","5f68a907efe6b000080540be","","null","","","","","","","learning/Slide131.JPG","null","","","","","",""
"html-keyboard-response","399","438627","0.0-7.0-2.50","LF","s0xp76sxy4","1280","800","0","1","0","5f68a907efe6b000080540be","","null","","","learningBlock2","","","","<div style=""font-size:60px;""> </div>","null","LF","learning/Slide131.JPG","This is a bim:","","",""
"html-keyboard-response","400","439632","0.0-7.0-0.51","LF","s0xp76sxy4","1280","800","0","1","0","5f68a907efe6b000080540be","","null","","","learningBlock2","","","","This is a dep:","null","","","","","",""
"image-keyboard-response","401","439968","0.0-7.0-1.51","LF","s0xp76sxy4","1280","800","0","1","0","5f68a907efe6b000080540be","","null","","","","","","","learning/Slide132.JPG","null","","","","","",""
"html-keyboard-response","402","440972","0.0-7.0-2.51","LF","s0xp76sxy4","1280","800","0","1","0","5f68a907efe6b000080540be","","null","","","learningBlock2","","","","<div style=""font-size:60px;""> </div>","null","LF","learning/Slide132.JPG","This is a dep:","","",""
"html-keyboard-response","403","441977","0.0-7.0-0.52","LF","s0xp76sxy4","1280","800","0","1","0","5f68a907efe6b000080540be","","null","","","learningBlock2","","","","This is a tob:","null","","","","","",""
"image-keyboard-response","404","442313","0.0-7.0-1.52","LF","s0xp76sxy4","1280","800","0","1","0","5f68a907efe6b000080540be","","null","","","","","","","learning/Slide133.JPG","null","","","","","",""
"html-keyboard-response","405","443319","0.0-7.0-2.52","LF","s0xp76sxy4","1280","800","0","1","0","5f68a907efe6b000080540be","","null","","","learningBlock2","","","","<div style=""font-size:60px;""> </div>","null","LF","learning/Slide133.JPG","This is a tob:","","",""
"html-keyboard-response","406","444323","0.0-7.0-0.53","LF","s0xp76sxy4","1280","800","0","1","0","5f68a907efe6b000080540be","","null","","","learningBlock2","","","","This is a dep:","null","","","","","",""
"image-keyboard-response","407","444659","0.0-7.0-1.53","LF","s0xp76sxy4","1280","800","0","1","0","5f68a907efe6b000080540be","","null","","","","","","","learning/Slide134.JPG","null","","","","","",""
"html-keyboard-response","408","445663","0.0-7.0-2.53","LF","s0xp76sxy4","1280","800","0","1","0","5f68a907efe6b000080540be","","null","","","learningBlock2","","","","<div style=""font-size:60px;""> </div>","null","LF","learning/Slide134.JPG","This is a dep:","","",""
"html-keyboard-response","409","446667","0.0-7.0-0.54","LF","s0xp76sxy4","1280","800","0","1","0","5f68a907efe6b000080540be","","null","","","learningBlock2","","","","This is a tob:","null","","","","","",""
"image-keyboard-response","410","446998","0.0-7.0-1.54","LF","s0xp76sxy4","1280","800","0","1","0","5f68a907efe6b000080540be","","null","","","","","","","learning/Slide135.JPG","null","","","","","",""
"html-keyboard-response","411","448000","0.0-7.0-2.54","LF","s0xp76sxy4","1280","800","0","1","0","5f68a907efe6b000080540be","","null","","","learningBlock2","","","","<div style=""font-size:60px;""> </div>","null","LF","learning/Slide135.JPG","This is a tob:","","",""
"html-keyboard-response","412","449004","0.0-7.0-0.55","LF","s0xp76sxy4","1280","800","0","1","0","5f68a907efe6b000080540be","","null","","","learningBlock2","","","","This is a wug:","null","","","","","",""
"image-keyboard-response","413","449334","0.0-7.0-1.55","LF","s0xp76sxy4","1280","800","0","1","0","5f68a907efe6b000080540be","","null","","","","","","","learning/Slide136.JPG","null","","","","","",""
"html-keyboard-response","414","450336","0.0-7.0-2.55","LF","s0xp76sxy4","1280","800","0","1","0","5f68a907efe6b000080540be","","null","","","learningBlock2","","","","<div style=""font-size:60px;""> </div>","null","LF","learning/Slide136.JPG","This is a wug:","","",""
"html-keyboard-response","415","451340","0.0-7.0-0.56","LF","s0xp76sxy4","1280","800","0","1","0","5f68a907efe6b000080540be","","null","","","learningBlock2","","","","This is a tob:","null","","","","","",""
"image-keyboard-response","416","451671","0.0-7.0-1.56","LF","s0xp76sxy4","1280","800","0","1","0","5f68a907efe6b000080540be","","null","","","","","","","learning/Slide137.JPG","null","","","","","",""
"html-keyboard-response","417","452677","0.0-7.0-2.56","LF","s0xp76sxy4","1280","800","0","1","0","5f68a907efe6b000080540be","","null","","","learningBlock2","","","","<div style=""font-size:60px;""> </div>","null","LF","learning/Slide137.JPG","This is a tob:","","",""
"html-keyboard-response","418","453682","0.0-7.0-0.57","LF","s0xp76sxy4","1280","800","0","1","0","5f68a907efe6b000080540be","","null","","","learningBlock2","","","","This is a bim:","null","","","","","",""
"image-keyboard-response","419","454015","0.0-7.0-1.57","LF","s0xp76sxy4","1280","800","0","1","0","5f68a907efe6b000080540be","","null","","","","","","","learning/Slide138.JPG","null","","","","","",""
"html-keyboard-response","420","455019","0.0-7.0-2.57","LF","s0xp76sxy4","1280","800","0","1","0","5f68a907efe6b000080540be","","null","","","learningBlock2","","","","<div style=""font-size:60px;""> </div>","null","LF","learning/Slide138.JPG","This is a bim:","","",""
"html-keyboard-response","421","456025","0.0-7.0-0.58","LF","s0xp76sxy4","1280","800","0","1","0","5f68a907efe6b000080540be","","null","","","learningBlock2","","","","This is a wug:","null","","","","","",""
"image-keyboard-response","422","456356","0.0-7.0-1.58","LF","s0xp76sxy4","1280","800","0","1","0","5f68a907efe6b000080540be","","null","","","","","","","learning/Slide139.JPG","null","","","","","",""
"html-keyboard-response","423","457362","0.0-7.0-2.58","LF","s0xp76sxy4","1280","800","0","1","0","5f68a907efe6b000080540be","","null","","","learningBlock2","","","","<div style=""font-size:60px;""> </div>","null","LF","learning/Slide139.JPG","This is a wug:","","",""
"html-keyboard-response","424","458366","0.0-7.0-0.59","LF","s0xp76sxy4","1280","800","0","1","0","5f68a907efe6b000080540be","","null","","","learningBlock2","","","","This is a dep:","null","","","","","",""
"image-keyboard-response","425","458697","0.0-7.0-1.59","LF","s0xp76sxy4","1280","800","0","1","0","5f68a907efe6b000080540be","","null","","","","","","","learning/Slide140.JPG","null","","","","","",""
"html-keyboard-response","426","459700","0.0-7.0-2.59","LF","s0xp76sxy4","1280","800","0","1","0","5f68a907efe6b000080540be","","null","","","learningBlock2","","","","<div style=""font-size:60px;""> </div>","null","LF","learning/Slide140.JPG","This is a dep:","","",""
"html-keyboard-response","427","460704","0.0-7.0-0.60","LF","s0xp76sxy4","1280","800","0","1","0","5f68a907efe6b000080540be","","null","","","learningBlock2","","","","This is a tob:","null","","","","","",""
"image-keyboard-response","428","461035","0.0-7.0-1.60","LF","s0xp76sxy4","1280","800","0","1","0","5f68a907efe6b000080540be","","null","","","","","","","learning/Slide141.JPG","null","","","","","",""
"html-keyboard-response","429","462039","0.0-7.0-2.60","LF","s0xp76sxy4","1280","800","0","1","0","5f68a907efe6b000080540be","","null","","","learningBlock2","","","","<div style=""font-size:60px;""> </div>","null","LF","learning/Slide141.JPG","This is a tob:","","",""
"html-keyboard-response","430","463043","0.0-7.0-0.61","LF","s0xp76sxy4","1280","800","0","1","0","5f68a907efe6b000080540be","","null","","","learningBlock2","","","","This is a wug:","null","","","","","",""
"image-keyboard-response","431","463374","0.0-7.0-1.61","LF","s0xp76sxy4","1280","800","0","1","0","5f68a907efe6b000080540be","","null","","","","","","","learning/Slide142.JPG","null","","","","","",""
"html-keyboard-response","432","464379","0.0-7.0-2.61","LF","s0xp76sxy4","1280","800","0","1","0","5f68a907efe6b000080540be","","null","","","learningBlock2","","","","<div style=""font-size:60px;""> </div>","null","LF","learning/Slide142.JPG","This is a wug:","","",""
"html-keyboard-response","433","465385","0.0-7.0-0.62","LF","s0xp76sxy4","1280","800","0","1","0","5f68a907efe6b000080540be","","null","","","learningBlock2","","","","This is a bim:","null","","","","","",""
"image-keyboard-response","434","465720","0.0-7.0-1.62","LF","s0xp76sxy4","1280","800","0","1","0","5f68a907efe6b000080540be","","null","","","","","","","learning/Slide143.JPG","null","","","","","",""
"html-keyboard-response","435","466722","0.0-7.0-2.62","LF","s0xp76sxy4","1280","800","0","1","0","5f68a907efe6b000080540be","","null","","","learningBlock2","","","","<div style=""font-size:60px;""> </div>","null","LF","learning/Slide143.JPG","This is a bim:","","",""
"html-keyboard-response","436","467727","0.0-7.0-0.63","LF","s0xp76sxy4","1280","800","0","1","0","5f68a907efe6b000080540be","","null","","","learningBlock2","","","","This is a dep:","null","","","","","",""
"image-keyboard-response","437","468055","0.0-7.0-1.63","LF","s0xp76sxy4","1280","800","0","1","0","5f68a907efe6b000080540be","","null","","","","","","","learning/Slide144.JPG","null","","","","","",""
