"trial_type","trial_index","time_elapsed","internal_node_id","condition","subject","screen_width","screen_height","attention","distraction","conscientious","prolificID","success","rt","url","view_history","test_part","final_height_px","final_width_px","scale_factor","stimulus","key_press","learningType","presentedImage","presentedLabel","button_pressed","response","responses"
"pavlovia","0","24","0.0-0.0","LF","5urksolxqo","1536","864","0","1","0","5d10fe33fbbf3d001a56d936","","","","","","","","","","","","","","","",""
"fullscreen","1","9438","0.0-1.0","LF","5urksolxqo","1536","864","0","1","0","5d10fe33fbbf3d001a56d936","true","","","","","","","","","","","","","","",""
"external-html","2","48732","0.0-2.0-0.0","LF","5urksolxqo","1536","864","0","1","0","5d10fe33fbbf3d001a56d936","","39227.2149999917","text/information_english.html","","","","","","","","","","","","",""
"external-html","3","62284","0.0-2.0-1.0","LF","5urksolxqo","1536","864","0","1","0","5d10fe33fbbf3d001a56d936","","13481.624999985797","text/consent_english.html","","","","","","","","","","","","",""
"instructions","4","83493","0.0-3.0","LF","5urksolxqo","1536","864","0","1","0","5d10fe33fbbf3d001a56d936","","NA","","[{""page_index"":0,""viewing_time"":2406.8350000015926},{""page_index"":1,""viewing_time"":18799.920000019483}]","instructions","","","","","","","","","","",""
"resize","5","163277","0.0-4.0","LF","5urksolxqo","1536","864","0","1","0","5d10fe33fbbf3d001a56d936","","","","","","","560","3.5555555555555554","","","","","","","",""
"html-keyboard-response","6","164288","0.0-5.0-0.0","LF","5urksolxqo","1536","864","0","1","0","5d10fe33fbbf3d001a56d936","","null","","","learningBlock1","","","","This is a tob:","null","","","","","",""
"image-keyboard-response","7","164628","0.0-5.0-1.0","LF","5urksolxqo","1536","864","0","1","0","5d10fe33fbbf3d001a56d936","","null","","","","","","","learning/Slide1.JPG","null","","","","","",""
"html-keyboard-response","8","165630","0.0-5.0-2.0","LF","5urksolxqo","1536","864","0","1","0","5d10fe33fbbf3d001a56d936","","null","","","learningBlock1","","","","<div style=""font-size:60px;""> </div>","null","LF","learning/Slide1.JPG","This is a tob:","","",""
"html-keyboard-response","9","166635","0.0-5.0-0.1","LF","5urksolxqo","1536","864","0","1","0","5d10fe33fbbf3d001a56d936","","null","","","learningBlock1","","","","This is a wug:","null","","","","","",""
"image-keyboard-response","10","166978","0.0-5.0-1.1","LF","5urksolxqo","1536","864","0","1","0","5d10fe33fbbf3d001a56d936","","null","","","","","","","learning/Slide2.JPG","null","","","","","",""
"html-keyboard-response","11","167992","0.0-5.0-2.1","LF","5urksolxqo","1536","864","0","1","0","5d10fe33fbbf3d001a56d936","","null","","","learningBlock1","","","","<div style=""font-size:60px;""> </div>","null","LF","learning/Slide2.JPG","This is a wug:","","",""
"html-keyboard-response","12","168998","0.0-5.0-0.2","LF","5urksolxqo","1536","864","0","1","0","5d10fe33fbbf3d001a56d936","","null","","","learningBlock1","","","","This is a bim:","null","","","","","",""
"image-keyboard-response","13","169347","0.0-5.0-1.2","LF","5urksolxqo","1536","864","0","1","0","5d10fe33fbbf3d001a56d936","","null","","","","","","","learning/Slide3.JPG","null","","","","","",""
"html-keyboard-response","14","170360","0.0-5.0-2.2","LF","5urksolxqo","1536","864","0","1","0","5d10fe33fbbf3d001a56d936","","null","","","learningBlock1","","","","<div style=""font-size:60px;""> </div>","null","LF","learning/Slide3.JPG","This is a bim:","","",""
"html-keyboard-response","15","171375","0.0-5.0-0.3","LF","5urksolxqo","1536","864","0","1","0","5d10fe33fbbf3d001a56d936","","null","","","learningBlock1","","","","This is a dep:","null","","","","","",""
"image-keyboard-response","16","171710","0.0-5.0-1.3","LF","5urksolxqo","1536","864","0","1","0","5d10fe33fbbf3d001a56d936","","null","","","","","","","learning/Slide4.JPG","null","","","","","",""
"html-keyboard-response","17","172713","0.0-5.0-2.3","LF","5urksolxqo","1536","864","0","1","0","5d10fe33fbbf3d001a56d936","","null","","","learningBlock1","","","","<div style=""font-size:60px;""> </div>","null","LF","learning/Slide4.JPG","This is a dep:","","",""
"html-keyboard-response","18","173714","0.0-5.0-0.4","LF","5urksolxqo","1536","864","0","1","0","5d10fe33fbbf3d001a56d936","","null","","","learningBlock1","","","","This is a wug:","null","","","","","",""
"image-keyboard-response","19","174043","0.0-5.0-1.4","LF","5urksolxqo","1536","864","0","1","0","5d10fe33fbbf3d001a56d936","","null","","","","","","","learning/Slide5.JPG","null","","","","","",""
"html-keyboard-response","20","175044","0.0-5.0-2.4","LF","5urksolxqo","1536","864","0","1","0","5d10fe33fbbf3d001a56d936","","null","","","learningBlock1","","","","<div style=""font-size:60px;""> </div>","null","LF","learning/Slide5.JPG","This is a wug:","","",""
"html-keyboard-response","21","176059","0.0-5.0-0.5","LF","5urksolxqo","1536","864","0","1","0","5d10fe33fbbf3d001a56d936","","null","","","learningBlock1","","","","This is a dep:","null","","","","","",""
"image-keyboard-response","22","176394","0.0-5.0-1.5","LF","5urksolxqo","1536","864","0","1","0","5d10fe33fbbf3d001a56d936","","null","","","","","","","learning/Slide6.JPG","null","","","","","",""
"html-keyboard-response","23","177401","0.0-5.0-2.5","LF","5urksolxqo","1536","864","0","1","0","5d10fe33fbbf3d001a56d936","","null","","","learningBlock1","","","","<div style=""font-size:60px;""> </div>","null","LF","learning/Slide6.JPG","This is a dep:","","",""
"html-keyboard-response","24","178403","0.0-5.0-0.6","LF","5urksolxqo","1536","864","0","1","0","5d10fe33fbbf3d001a56d936","","null","","","learningBlock1","","","","This is a wug:","null","","","","","",""
"image-keyboard-response","25","178730","0.0-5.0-1.6","LF","5urksolxqo","1536","864","0","1","0","5d10fe33fbbf3d001a56d936","","null","","","","","","","learning/Slide7.JPG","null","","","","","",""
"html-keyboard-response","26","179732","0.0-5.0-2.6","LF","5urksolxqo","1536","864","0","1","0","5d10fe33fbbf3d001a56d936","","null","","","learningBlock1","","","","<div style=""font-size:60px;""> </div>","null","LF","learning/Slide7.JPG","This is a wug:","","",""
"html-keyboard-response","27","180734","0.0-5.0-0.7","LF","5urksolxqo","1536","864","0","1","0","5d10fe33fbbf3d001a56d936","","null","","","learningBlock1","","","","This is a bim:","null","","","","","",""
"image-keyboard-response","28","181062","0.0-5.0-1.7","LF","5urksolxqo","1536","864","0","1","0","5d10fe33fbbf3d001a56d936","","null","","","","","","","learning/Slide8.JPG","null","","","","","",""
"html-keyboard-response","29","182064","0.0-5.0-2.7","LF","5urksolxqo","1536","864","0","1","0","5d10fe33fbbf3d001a56d936","","null","","","learningBlock1","","","","<div style=""font-size:60px;""> </div>","null","LF","learning/Slide8.JPG","This is a bim:","","",""
"html-keyboard-response","30","183065","0.0-5.0-0.8","LF","5urksolxqo","1536","864","0","1","0","5d10fe33fbbf3d001a56d936","","null","","","learningBlock1","","","","This is a wug:","null","","","","","",""
"image-keyboard-response","31","183394","0.0-5.0-1.8","LF","5urksolxqo","1536","864","0","1","0","5d10fe33fbbf3d001a56d936","","null","","","","","","","learning/Slide9.JPG","null","","","","","",""
"html-keyboard-response","32","184396","0.0-5.0-2.8","LF","5urksolxqo","1536","864","0","1","0","5d10fe33fbbf3d001a56d936","","null","","","learningBlock1","","","","<div style=""font-size:60px;""> </div>","null","LF","learning/Slide9.JPG","This is a wug:","","",""
"html-keyboard-response","33","185397","0.0-5.0-0.9","LF","5urksolxqo","1536","864","0","1","0","5d10fe33fbbf3d001a56d936","","null","","","learningBlock1","","","","This is a dep:","null","","","","","",""
"image-keyboard-response","34","185725","0.0-5.0-1.9","LF","5urksolxqo","1536","864","0","1","0","5d10fe33fbbf3d001a56d936","","null","","","","","","","learning/Slide10.JPG","null","","","","","",""
"html-keyboard-response","35","186728","0.0-5.0-2.9","LF","5urksolxqo","1536","864","0","1","0","5d10fe33fbbf3d001a56d936","","null","","","learningBlock1","","","","<div style=""font-size:60px;""> </div>","null","LF","learning/Slide10.JPG","This is a dep:","","",""
"html-keyboard-response","36","187730","0.0-5.0-0.10","LF","5urksolxqo","1536","864","0","1","0","5d10fe33fbbf3d001a56d936","","null","","","learningBlock1","","","","This is a tob:","null","","","","","",""
"image-keyboard-response","37","188058","0.0-5.0-1.10","LF","5urksolxqo","1536","864","0","1","0","5d10fe33fbbf3d001a56d936","","null","","","","","","","learning/Slide11.JPG","null","","","","","",""
"html-keyboard-response","38","189059","0.0-5.0-2.10","LF","5urksolxqo","1536","864","0","1","0","5d10fe33fbbf3d001a56d936","","null","","","learningBlock1","","","","<div style=""font-size:60px;""> </div>","null","LF","learning/Slide11.JPG","This is a tob:","","",""
"html-keyboard-response","39","190061","0.0-5.0-0.11","LF","5urksolxqo","1536","864","0","1","0","5d10fe33fbbf3d001a56d936","","null","","","learningBlock1","","","","This is a dep:","null","","","","","",""
"image-keyboard-response","40","190389","0.0-5.0-1.11","LF","5urksolxqo","1536","864","0","1","0","5d10fe33fbbf3d001a56d936","","null","","","","","","","learning/Slide12.JPG","null","","","","","",""
"html-keyboard-response","41","191390","0.0-5.0-2.11","LF","5urksolxqo","1536","864","0","1","0","5d10fe33fbbf3d001a56d936","","null","","","learningBlock1","","","","<div style=""font-size:60px;""> </div>","null","LF","learning/Slide12.JPG","This is a dep:","","",""
"html-keyboard-response","42","192391","0.0-5.0-0.12","LF","5urksolxqo","1536","864","0","1","0","5d10fe33fbbf3d001a56d936","","null","","","learningBlock1","","","","This is a bim:","null","","","","","",""
"image-keyboard-response","43","192719","0.0-5.0-1.12","LF","5urksolxqo","1536","864","0","1","0","5d10fe33fbbf3d001a56d936","","null","","","","","","","learning/Slide13.JPG","null","","","","","",""
"html-keyboard-response","44","193722","0.0-5.0-2.12","LF","5urksolxqo","1536","864","0","1","0","5d10fe33fbbf3d001a56d936","","null","","","learningBlock1","","","","<div style=""font-size:60px;""> </div>","null","LF","learning/Slide13.JPG","This is a bim:","","",""
"html-keyboard-response","45","194724","0.0-5.0-0.13","LF","5urksolxqo","1536","864","0","1","0","5d10fe33fbbf3d001a56d936","","null","","","learningBlock1","","","","This is a wug:","null","","","","","",""
"image-keyboard-response","46","195051","0.0-5.0-1.13","LF","5urksolxqo","1536","864","0","1","0","5d10fe33fbbf3d001a56d936","","null","","","","","","","learning/Slide14.JPG","null","","","","","",""
"html-keyboard-response","47","196053","0.0-5.0-2.13","LF","5urksolxqo","1536","864","0","1","0","5d10fe33fbbf3d001a56d936","","null","","","learningBlock1","","","","<div style=""font-size:60px;""> </div>","null","LF","learning/Slide14.JPG","This is a wug:","","",""
"html-keyboard-response","48","197060","0.0-5.0-0.14","LF","5urksolxqo","1536","864","0","1","0","5d10fe33fbbf3d001a56d936","","null","","","learningBlock1","","","","This is a tob:","null","","","","","",""
"image-keyboard-response","49","197395","0.0-5.0-1.14","LF","5urksolxqo","1536","864","0","1","0","5d10fe33fbbf3d001a56d936","","null","","","","","","","learning/Slide15.JPG","null","","","","","",""
"html-keyboard-response","50","198402","0.0-5.0-2.14","LF","5urksolxqo","1536","864","0","1","0","5d10fe33fbbf3d001a56d936","","null","","","learningBlock1","","","","<div style=""font-size:60px;""> </div>","null","LF","learning/Slide15.JPG","This is a tob:","","",""
"html-keyboard-response","51","199404","0.0-5.0-0.15","LF","5urksolxqo","1536","864","0","1","0","5d10fe33fbbf3d001a56d936","","null","","","learningBlock1","","","","This is a dep:","null","","","","","",""
"image-keyboard-response","52","199746","0.0-5.0-1.15","LF","5urksolxqo","1536","864","0","1","0","5d10fe33fbbf3d001a56d936","","null","","","","","","","learning/Slide16.JPG","null","","","","","",""
"html-keyboard-response","53","200748","0.0-5.0-2.15","LF","5urksolxqo","1536","864","0","1","0","5d10fe33fbbf3d001a56d936","","null","","","learningBlock1","","","","<div style=""font-size:60px;""> </div>","null","LF","learning/Slide16.JPG","This is a dep:","","",""
"html-keyboard-response","54","201760","0.0-5.0-0.16","LF","5urksolxqo","1536","864","0","1","0","5d10fe33fbbf3d001a56d936","","null","","","learningBlock1","","","","This is a bim:","null","","","","","",""
"image-keyboard-response","55","202095","0.0-5.0-1.16","LF","5urksolxqo","1536","864","0","1","0","5d10fe33fbbf3d001a56d936","","null","","","","","","","learning/Slide17.JPG","null","","","","","",""
"html-keyboard-response","56","203114","0.0-5.0-2.16","LF","5urksolxqo","1536","864","0","1","0","5d10fe33fbbf3d001a56d936","","null","","","learningBlock1","","","","<div style=""font-size:60px;""> </div>","null","LF","learning/Slide17.JPG","This is a bim:","","",""
"html-keyboard-response","57","204116","0.0-5.0-0.17","LF","5urksolxqo","1536","864","0","1","0","5d10fe33fbbf3d001a56d936","","null","","","learningBlock1","","","","This is a tob:","null","","","","","",""
"image-keyboard-response","58","204465","0.0-5.0-1.17","LF","5urksolxqo","1536","864","0","1","0","5d10fe33fbbf3d001a56d936","","null","","","","","","","learning/Slide18.JPG","null","","","","","",""
"html-keyboard-response","59","205470","0.0-5.0-2.17","LF","5urksolxqo","1536","864","0","1","0","5d10fe33fbbf3d001a56d936","","null","","","learningBlock1","","","","<div style=""font-size:60px;""> </div>","null","LF","learning/Slide18.JPG","This is a tob:","","",""
"html-keyboard-response","60","206473","0.0-5.0-0.18","LF","5urksolxqo","1536","864","0","1","0","5d10fe33fbbf3d001a56d936","","null","","","learningBlock1","","","","This is a wug:","null","","","","","",""
"image-keyboard-response","61","206800","0.0-5.0-1.18","LF","5urksolxqo","1536","864","0","1","0","5d10fe33fbbf3d001a56d936","","null","","","","","","","learning/Slide19.JPG","null","","","","","",""
"html-keyboard-response","62","207802","0.0-5.0-2.18","LF","5urksolxqo","1536","864","0","1","0","5d10fe33fbbf3d001a56d936","","null","","","learningBlock1","","","","<div style=""font-size:60px;""> </div>","null","LF","learning/Slide19.JPG","This is a wug:","","",""
"html-keyboard-response","63","208803","0.0-5.0-0.19","LF","5urksolxqo","1536","864","0","1","0","5d10fe33fbbf3d001a56d936","","null","","","learningBlock1","","","","This is a bim:","null","","","","","",""
"image-keyboard-response","64","209131","0.0-5.0-1.19","LF","5urksolxqo","1536","864","0","1","0","5d10fe33fbbf3d001a56d936","","null","","","","","","","learning/Slide20.JPG","null","","","","","",""
"html-keyboard-response","65","210133","0.0-5.0-2.19","LF","5urksolxqo","1536","864","0","1","0","5d10fe33fbbf3d001a56d936","","null","","","learningBlock1","","","","<div style=""font-size:60px;""> </div>","null","LF","learning/Slide20.JPG","This is a bim:","","",""
"html-keyboard-response","66","211135","0.0-5.0-0.20","LF","5urksolxqo","1536","864","0","1","0","5d10fe33fbbf3d001a56d936","","null","","","learningBlock1","","","","This is a dep:","null","","","","","",""
"image-keyboard-response","67","211479","0.0-5.0-1.20","LF","5urksolxqo","1536","864","0","1","0","5d10fe33fbbf3d001a56d936","","null","","","","","","","learning/Slide21.JPG","null","","","","","",""
"html-keyboard-response","68","212481","0.0-5.0-2.20","LF","5urksolxqo","1536","864","0","1","0","5d10fe33fbbf3d001a56d936","","null","","","learningBlock1","","","","<div style=""font-size:60px;""> </div>","null","LF","learning/Slide21.JPG","This is a dep:","","",""
"html-keyboard-response","69","213486","0.0-5.0-0.21","LF","5urksolxqo","1536","864","0","1","0","5d10fe33fbbf3d001a56d936","","null","","","learningBlock1","","","","This is a bim:","null","","","","","",""
"image-keyboard-response","70","213814","0.0-5.0-1.21","LF","5urksolxqo","1536","864","0","1","0","5d10fe33fbbf3d001a56d936","","null","","","","","","","learning/Slide22.JPG","null","","","","","",""
"html-keyboard-response","71","214817","0.0-5.0-2.21","LF","5urksolxqo","1536","864","0","1","0","5d10fe33fbbf3d001a56d936","","null","","","learningBlock1","","","","<div style=""font-size:60px;""> </div>","null","LF","learning/Slide22.JPG","This is a bim:","","",""
"html-keyboard-response","72","215818","0.0-5.0-0.22","LF","5urksolxqo","1536","864","0","1","0","5d10fe33fbbf3d001a56d936","","null","","","learningBlock1","","","","This is a tob:","null","","","","","",""
"image-keyboard-response","73","216146","0.0-5.0-1.22","LF","5urksolxqo","1536","864","0","1","0","5d10fe33fbbf3d001a56d936","","null","","","","","","","learning/Slide23.JPG","null","","","","","",""
"html-keyboard-response","74","217153","0.0-5.0-2.22","LF","5urksolxqo","1536","864","0","1","0","5d10fe33fbbf3d001a56d936","","null","","","learningBlock1","","","","<div style=""font-size:60px;""> </div>","null","LF","learning/Slide23.JPG","This is a tob:","","",""
"html-keyboard-response","75","218156","0.0-5.0-0.23","LF","5urksolxqo","1536","864","0","1","0","5d10fe33fbbf3d001a56d936","","null","","","learningBlock1","","","","This is a wug:","null","","","","","",""
"image-keyboard-response","76","218482","0.0-5.0-1.23","LF","5urksolxqo","1536","864","0","1","0","5d10fe33fbbf3d001a56d936","","null","","","","","","","learning/Slide24.JPG","null","","","","","",""
"html-keyboard-response","77","219484","0.0-5.0-2.23","LF","5urksolxqo","1536","864","0","1","0","5d10fe33fbbf3d001a56d936","","null","","","learningBlock1","","","","<div style=""font-size:60px;""> </div>","null","LF","learning/Slide24.JPG","This is a wug:","","",""
"html-keyboard-response","78","220486","0.0-5.0-0.24","LF","5urksolxqo","1536","864","0","1","0","5d10fe33fbbf3d001a56d936","","null","","","learningBlock1","","","","This is a dep:","null","","","","","",""
"image-keyboard-response","79","220813","0.0-5.0-1.24","LF","5urksolxqo","1536","864","0","1","0","5d10fe33fbbf3d001a56d936","","null","","","","","","","learning/Slide25.JPG","null","","","","","",""
"html-keyboard-response","80","221815","0.0-5.0-2.24","LF","5urksolxqo","1536","864","0","1","0","5d10fe33fbbf3d001a56d936","","null","","","learningBlock1","","","","<div style=""font-size:60px;""> </div>","null","LF","learning/Slide25.JPG","This is a dep:","","",""
"html-keyboard-response","81","222816","0.0-5.0-0.25","LF","5urksolxqo","1536","864","0","1","0","5d10fe33fbbf3d001a56d936","","null","","","learningBlock1","","","","This is a wug:","null","","","","","",""
"image-keyboard-response","82","223143","0.0-5.0-1.25","LF","5urksolxqo","1536","864","0","1","0","5d10fe33fbbf3d001a56d936","","null","","","","","","","learning/Slide26.JPG","null","","","","","",""
"html-keyboard-response","83","224145","0.0-5.0-2.25","LF","5urksolxqo","1536","864","0","1","0","5d10fe33fbbf3d001a56d936","","null","","","learningBlock1","","","","<div style=""font-size:60px;""> </div>","null","LF","learning/Slide26.JPG","This is a wug:","","",""
"html-keyboard-response","84","225146","0.0-5.0-0.26","LF","5urksolxqo","1536","864","0","1","0","5d10fe33fbbf3d001a56d936","","null","","","learningBlock1","","","","This is a bim:","null","","","","","",""
"image-keyboard-response","85","225474","0.0-5.0-1.26","LF","5urksolxqo","1536","864","0","1","0","5d10fe33fbbf3d001a56d936","","null","","","","","","","learning/Slide27.JPG","null","","","","","",""
"html-keyboard-response","86","226476","0.0-5.0-2.26","LF","5urksolxqo","1536","864","0","1","0","5d10fe33fbbf3d001a56d936","","null","","","learningBlock1","","","","<div style=""font-size:60px;""> </div>","null","LF","learning/Slide27.JPG","This is a bim:","","",""
"html-keyboard-response","87","227478","0.0-5.0-0.27","LF","5urksolxqo","1536","864","0","1","0","5d10fe33fbbf3d001a56d936","","null","","","learningBlock1","","","","This is a dep:","null","","","","","",""
"image-keyboard-response","88","227805","0.0-5.0-1.27","LF","5urksolxqo","1536","864","0","1","0","5d10fe33fbbf3d001a56d936","","null","","","","","","","learning/Slide28.JPG","null","","","","","",""
"html-keyboard-response","89","228807","0.0-5.0-2.27","LF","5urksolxqo","1536","864","0","1","0","5d10fe33fbbf3d001a56d936","","null","","","learningBlock1","","","","<div style=""font-size:60px;""> </div>","null","LF","learning/Slide28.JPG","This is a dep:","","",""
"html-keyboard-response","90","229809","0.0-5.0-0.28","LF","5urksolxqo","1536","864","0","1","0","5d10fe33fbbf3d001a56d936","","null","","","learningBlock1","","","","This is a tob:","null","","","","","",""
"image-keyboard-response","91","230138","0.0-5.0-1.28","LF","5urksolxqo","1536","864","0","1","0","5d10fe33fbbf3d001a56d936","","null","","","","","","","learning/Slide29.JPG","null","","","","","",""
"html-keyboard-response","92","231140","0.0-5.0-2.28","LF","5urksolxqo","1536","864","0","1","0","5d10fe33fbbf3d001a56d936","","null","","","learningBlock1","","","","<div style=""font-size:60px;""> </div>","null","LF","learning/Slide29.JPG","This is a tob:","","",""
"html-keyboard-response","93","232142","0.0-5.0-0.29","LF","5urksolxqo","1536","864","0","1","0","5d10fe33fbbf3d001a56d936","","null","","","learningBlock1","","","","This is a dep:","null","","","","","",""
"image-keyboard-response","94","232470","0.0-5.0-1.29","LF","5urksolxqo","1536","864","0","1","0","5d10fe33fbbf3d001a56d936","","null","","","","","","","learning/Slide30.JPG","null","","","","","",""
"html-keyboard-response","95","233471","0.0-5.0-2.29","LF","5urksolxqo","1536","864","0","1","0","5d10fe33fbbf3d001a56d936","","null","","","learningBlock1","","","","<div style=""font-size:60px;""> </div>","null","LF","learning/Slide30.JPG","This is a dep:","","",""
"html-keyboard-response","96","234473","0.0-5.0-0.30","LF","5urksolxqo","1536","864","0","1","0","5d10fe33fbbf3d001a56d936","","null","","","learningBlock1","","","","This is a wug:","null","","","","","",""
"image-keyboard-response","97","234800","0.0-5.0-1.30","LF","5urksolxqo","1536","864","0","1","0","5d10fe33fbbf3d001a56d936","","null","","","","","","","learning/Slide31.JPG","null","","","","","",""
"html-keyboard-response","98","235802","0.0-5.0-2.30","LF","5urksolxqo","1536","864","0","1","0","5d10fe33fbbf3d001a56d936","","null","","","learningBlock1","","","","<div style=""font-size:60px;""> </div>","null","LF","learning/Slide31.JPG","This is a wug:","","",""
"html-keyboard-response","99","236807","0.0-5.0-0.31","LF","5urksolxqo","1536","864","0","1","0","5d10fe33fbbf3d001a56d936","","null","","","learningBlock1","","","","This is a tob:","null","","","","","",""
"image-keyboard-response","100","237149","0.0-5.0-1.31","LF","5urksolxqo","1536","864","0","1","0","5d10fe33fbbf3d001a56d936","","null","","","","","","","learning/Slide32.JPG","null","","","","","",""
"html-keyboard-response","101","238153","0.0-5.0-2.31","LF","5urksolxqo","1536","864","0","1","0","5d10fe33fbbf3d001a56d936","","null","","","learningBlock1","","","","<div style=""font-size:60px;""> </div>","null","LF","learning/Slide32.JPG","This is a tob:","","",""
"html-keyboard-response","102","239154","0.0-5.0-0.32","LF","5urksolxqo","1536","864","0","1","0","5d10fe33fbbf3d001a56d936","","null","","","learningBlock1","","","","This is a bim:","null","","","","","",""
"image-keyboard-response","103","239482","0.0-5.0-1.32","LF","5urksolxqo","1536","864","0","1","0","5d10fe33fbbf3d001a56d936","","null","","","","","","","learning/Slide33.JPG","null","","","","","",""
"html-keyboard-response","104","240484","0.0-5.0-2.32","LF","5urksolxqo","1536","864","0","1","0","5d10fe33fbbf3d001a56d936","","null","","","learningBlock1","","","","<div style=""font-size:60px;""> </div>","null","LF","learning/Slide33.JPG","This is a bim:","","",""
"html-keyboard-response","105","241486","0.0-5.0-0.33","LF","5urksolxqo","1536","864","0","1","0","5d10fe33fbbf3d001a56d936","","null","","","learningBlock1","","","","This is a tob:","null","","","","","",""
"image-keyboard-response","106","241814","0.0-5.0-1.33","LF","5urksolxqo","1536","864","0","1","0","5d10fe33fbbf3d001a56d936","","null","","","","","","","learning/Slide34.JPG","null","","","","","",""
"html-keyboard-response","107","242816","0.0-5.0-2.33","LF","5urksolxqo","1536","864","0","1","0","5d10fe33fbbf3d001a56d936","","null","","","learningBlock1","","","","<div style=""font-size:60px;""> </div>","null","LF","learning/Slide34.JPG","This is a tob:","","",""
"html-keyboard-response","108","243817","0.0-5.0-0.34","LF","5urksolxqo","1536","864","0","1","0","5d10fe33fbbf3d001a56d936","","null","","","learningBlock1","","","","This is a bim:","null","","","","","",""
"image-keyboard-response","109","244145","0.0-5.0-1.34","LF","5urksolxqo","1536","864","0","1","0","5d10fe33fbbf3d001a56d936","","null","","","","","","","learning/Slide35.JPG","null","","","","","",""
"html-keyboard-response","110","245151","0.0-5.0-2.34","LF","5urksolxqo","1536","864","0","1","0","5d10fe33fbbf3d001a56d936","","null","","","learningBlock1","","","","<div style=""font-size:60px;""> </div>","null","LF","learning/Slide35.JPG","This is a bim:","","",""
"html-keyboard-response","111","246153","0.0-5.0-0.35","LF","5urksolxqo","1536","864","0","1","0","5d10fe33fbbf3d001a56d936","","null","","","learningBlock1","","","","This is a dep:","null","","","","","",""
"image-keyboard-response","112","246481","0.0-5.0-1.35","LF","5urksolxqo","1536","864","0","1","0","5d10fe33fbbf3d001a56d936","","null","","","","","","","learning/Slide36.JPG","null","","","","","",""
"html-keyboard-response","113","247483","0.0-5.0-2.35","LF","5urksolxqo","1536","864","0","1","0","5d10fe33fbbf3d001a56d936","","null","","","learningBlock1","","","","<div style=""font-size:60px;""> </div>","null","LF","learning/Slide36.JPG","This is a dep:","","",""
"html-keyboard-response","114","248485","0.0-5.0-0.36","LF","5urksolxqo","1536","864","0","1","0","5d10fe33fbbf3d001a56d936","","null","","","learningBlock1","","","","This is a tob:","null","","","","","",""
"image-keyboard-response","115","248812","0.0-5.0-1.36","LF","5urksolxqo","1536","864","0","1","0","5d10fe33fbbf3d001a56d936","","null","","","","","","","learning/Slide37.JPG","null","","","","","",""
"html-keyboard-response","116","249815","0.0-5.0-2.36","LF","5urksolxqo","1536","864","0","1","0","5d10fe33fbbf3d001a56d936","","null","","","learningBlock1","","","","<div style=""font-size:60px;""> </div>","null","LF","learning/Slide37.JPG","This is a tob:","","",""
"html-keyboard-response","117","250817","0.0-5.0-0.37","LF","5urksolxqo","1536","864","0","1","0","5d10fe33fbbf3d001a56d936","","null","","","learningBlock1","","","","This is a wug:","null","","","","","",""
"image-keyboard-response","118","251144","0.0-5.0-1.37","LF","5urksolxqo","1536","864","0","1","0","5d10fe33fbbf3d001a56d936","","null","","","","","","","learning/Slide38.JPG","null","","","","","",""
"html-keyboard-response","119","252146","0.0-5.0-2.37","LF","5urksolxqo","1536","864","0","1","0","5d10fe33fbbf3d001a56d936","","null","","","learningBlock1","","","","<div style=""font-size:60px;""> </div>","null","LF","learning/Slide38.JPG","This is a wug:","","",""
"html-keyboard-response","120","253148","0.0-5.0-0.38","LF","5urksolxqo","1536","864","0","1","0","5d10fe33fbbf3d001a56d936","","null","","","learningBlock1","","","","This is a bim:","null","","","","","",""
"image-keyboard-response","121","253477","0.0-5.0-1.38","LF","5urksolxqo","1536","864","0","1","0","5d10fe33fbbf3d001a56d936","","null","","","","","","","learning/Slide39.JPG","null","","","","","",""
"html-keyboard-response","122","254479","0.0-5.0-2.38","LF","5urksolxqo","1536","864","0","1","0","5d10fe33fbbf3d001a56d936","","null","","","learningBlock1","","","","<div style=""font-size:60px;""> </div>","null","LF","learning/Slide39.JPG","This is a bim:","","",""
"html-keyboard-response","123","255481","0.0-5.0-0.39","LF","5urksolxqo","1536","864","0","1","0","5d10fe33fbbf3d001a56d936","","null","","","learningBlock1","","","","This is a tob:","null","","","","","",""
"image-keyboard-response","124","255808","0.0-5.0-1.39","LF","5urksolxqo","1536","864","0","1","0","5d10fe33fbbf3d001a56d936","","null","","","","","","","learning/Slide40.JPG","null","","","","","",""
"html-keyboard-response","125","256810","0.0-5.0-2.39","LF","5urksolxqo","1536","864","0","1","0","5d10fe33fbbf3d001a56d936","","null","","","learningBlock1","","","","<div style=""font-size:60px;""> </div>","null","LF","learning/Slide40.JPG","This is a tob:","","",""
"html-keyboard-response","126","257817","0.0-5.0-0.40","LF","5urksolxqo","1536","864","0","1","0","5d10fe33fbbf3d001a56d936","","null","","","learningBlock1","","","","This is a bim:","null","","","","","",""
"image-keyboard-response","127","258165","0.0-5.0-1.40","LF","5urksolxqo","1536","864","0","1","0","5d10fe33fbbf3d001a56d936","","null","","","","","","","learning/Slide41.JPG","null","","","","","",""
"html-keyboard-response","128","259167","0.0-5.0-2.40","LF","5urksolxqo","1536","864","0","1","0","5d10fe33fbbf3d001a56d936","","null","","","learningBlock1","","","","<div style=""font-size:60px;""> </div>","null","LF","learning/Slide41.JPG","This is a bim:","","",""
"html-keyboard-response","129","260182","0.0-5.0-0.41","LF","5urksolxqo","1536","864","0","1","0","5d10fe33fbbf3d001a56d936","","null","","","learningBlock1","","","","This is a dep:","null","","","","","",""
"image-keyboard-response","130","260511","0.0-5.0-1.41","LF","5urksolxqo","1536","864","0","1","0","5d10fe33fbbf3d001a56d936","","null","","","","","","","learning/Slide42.JPG","null","","","","","",""
"html-keyboard-response","131","261522","0.0-5.0-2.41","LF","5urksolxqo","1536","864","0","1","0","5d10fe33fbbf3d001a56d936","","null","","","learningBlock1","","","","<div style=""font-size:60px;""> </div>","null","LF","learning/Slide42.JPG","This is a dep:","","",""
"html-keyboard-response","132","262532","0.0-5.0-0.42","LF","5urksolxqo","1536","864","0","1","0","5d10fe33fbbf3d001a56d936","","null","","","learningBlock1","","","","This is a wug:","null","","","","","",""
"image-keyboard-response","133","262881","0.0-5.0-1.42","LF","5urksolxqo","1536","864","0","1","0","5d10fe33fbbf3d001a56d936","","null","","","","","","","learning/Slide43.JPG","null","","","","","",""
"html-keyboard-response","134","263883","0.0-5.0-2.42","LF","5urksolxqo","1536","864","0","1","0","5d10fe33fbbf3d001a56d936","","null","","","learningBlock1","","","","<div style=""font-size:60px;""> </div>","null","LF","learning/Slide43.JPG","This is a wug:","","",""
"html-keyboard-response","135","264885","0.0-5.0-0.43","LF","5urksolxqo","1536","864","0","1","0","5d10fe33fbbf3d001a56d936","","null","","","learningBlock1","","","","This is a bim:","null","","","","","",""
"image-keyboard-response","136","265213","0.0-5.0-1.43","LF","5urksolxqo","1536","864","0","1","0","5d10fe33fbbf3d001a56d936","","null","","","","","","","learning/Slide44.JPG","null","","","","","",""
"html-keyboard-response","137","266226","0.0-5.0-2.43","LF","5urksolxqo","1536","864","0","1","0","5d10fe33fbbf3d001a56d936","","null","","","learningBlock1","","","","<div style=""font-size:60px;""> </div>","null","LF","learning/Slide44.JPG","This is a bim:","","",""
"html-keyboard-response","138","267239","0.0-5.0-0.44","LF","5urksolxqo","1536","864","0","1","0","5d10fe33fbbf3d001a56d936","","null","","","learningBlock1","","","","This is a wug:","null","","","","","",""
"image-keyboard-response","139","267583","0.0-5.0-1.44","LF","5urksolxqo","1536","864","0","1","0","5d10fe33fbbf3d001a56d936","","null","","","","","","","learning/Slide45.JPG","null","","","","","",""
"html-keyboard-response","140","268585","0.0-5.0-2.44","LF","5urksolxqo","1536","864","0","1","0","5d10fe33fbbf3d001a56d936","","null","","","learningBlock1","","","","<div style=""font-size:60px;""> </div>","null","LF","learning/Slide45.JPG","This is a wug:","","",""
"html-keyboard-response","141","269599","0.0-5.0-0.45","LF","5urksolxqo","1536","864","0","1","0","5d10fe33fbbf3d001a56d936","","null","","","learningBlock1","","","","This is a dep:","null","","","","","",""
"image-keyboard-response","142","269948","0.0-5.0-1.45","LF","5urksolxqo","1536","864","0","1","0","5d10fe33fbbf3d001a56d936","","null","","","","","","","learning/Slide46.JPG","null","","","","","",""
"html-keyboard-response","143","270951","0.0-5.0-2.45","LF","5urksolxqo","1536","864","0","1","0","5d10fe33fbbf3d001a56d936","","null","","","learningBlock1","","","","<div style=""font-size:60px;""> </div>","null","LF","learning/Slide46.JPG","This is a dep:","","",""
"html-keyboard-response","144","271952","0.0-5.0-0.46","LF","5urksolxqo","1536","864","0","1","0","5d10fe33fbbf3d001a56d936","","null","","","learningBlock1","","","","This is a tob:","null","","","","","",""
"image-keyboard-response","145","272280","0.0-5.0-1.46","LF","5urksolxqo","1536","864","0","1","0","5d10fe33fbbf3d001a56d936","","null","","","","","","","learning/Slide47.JPG","null","","","","","",""
"html-keyboard-response","146","273282","0.0-5.0-2.46","LF","5urksolxqo","1536","864","0","1","0","5d10fe33fbbf3d001a56d936","","null","","","learningBlock1","","","","<div style=""font-size:60px;""> </div>","null","LF","learning/Slide47.JPG","This is a tob:","","",""
"html-keyboard-response","147","274283","0.0-5.0-0.47","LF","5urksolxqo","1536","864","0","1","0","5d10fe33fbbf3d001a56d936","","null","","","learningBlock1","","","","This is a bim:","null","","","","","",""
"image-keyboard-response","148","274610","0.0-5.0-1.47","LF","5urksolxqo","1536","864","0","1","0","5d10fe33fbbf3d001a56d936","","null","","","","","","","learning/Slide48.JPG","null","","","","","",""
"html-keyboard-response","149","275613","0.0-5.0-2.47","LF","5urksolxqo","1536","864","0","1","0","5d10fe33fbbf3d001a56d936","","null","","","learningBlock1","","","","<div style=""font-size:60px;""> </div>","null","LF","learning/Slide48.JPG","This is a bim:","","",""
"html-keyboard-response","150","276615","0.0-5.0-0.48","LF","5urksolxqo","1536","864","0","1","0","5d10fe33fbbf3d001a56d936","","null","","","learningBlock1","","","","This is a dep:","null","","","","","",""
"image-keyboard-response","151","276943","0.0-5.0-1.48","LF","5urksolxqo","1536","864","0","1","0","5d10fe33fbbf3d001a56d936","","null","","","","","","","learning/Slide49.JPG","null","","","","","",""
"html-keyboard-response","152","277947","0.0-5.0-2.48","LF","5urksolxqo","1536","864","0","1","0","5d10fe33fbbf3d001a56d936","","null","","","learningBlock1","","","","<div style=""font-size:60px;""> </div>","null","LF","learning/Slide49.JPG","This is a dep:","","",""
"html-keyboard-response","153","278949","0.0-5.0-0.49","LF","5urksolxqo","1536","864","0","1","0","5d10fe33fbbf3d001a56d936","","null","","","learningBlock1","","","","This is a tob:","null","","","","","",""
"image-keyboard-response","154","279276","0.0-5.0-1.49","LF","5urksolxqo","1536","864","0","1","0","5d10fe33fbbf3d001a56d936","","null","","","","","","","learning/Slide50.JPG","null","","","","","",""
"html-keyboard-response","155","280289","0.0-5.0-2.49","LF","5urksolxqo","1536","864","0","1","0","5d10fe33fbbf3d001a56d936","","null","","","learningBlock1","","","","<div style=""font-size:60px;""> </div>","null","LF","learning/Slide50.JPG","This is a tob:","","",""
"html-keyboard-response","156","281300","0.0-5.0-0.50","LF","5urksolxqo","1536","864","0","1","0","5d10fe33fbbf3d001a56d936","","null","","","learningBlock1","","","","This is a bim:","null","","","","","",""
"image-keyboard-response","157","281634","0.0-5.0-1.50","LF","5urksolxqo","1536","864","0","1","0","5d10fe33fbbf3d001a56d936","","null","","","","","","","learning/Slide51.JPG","null","","","","","",""
"html-keyboard-response","158","282636","0.0-5.0-2.50","LF","5urksolxqo","1536","864","0","1","0","5d10fe33fbbf3d001a56d936","","null","","","learningBlock1","","","","<div style=""font-size:60px;""> </div>","null","LF","learning/Slide51.JPG","This is a bim:","","",""
"html-keyboard-response","159","283638","0.0-5.0-0.51","LF","5urksolxqo","1536","864","0","1","0","5d10fe33fbbf3d001a56d936","","null","","","learningBlock1","","","","This is a wug:","null","","","","","",""
"image-keyboard-response","160","283982","0.0-5.0-1.51","LF","5urksolxqo","1536","864","0","1","0","5d10fe33fbbf3d001a56d936","","null","","","","","","","learning/Slide52.JPG","null","","","","","",""
"html-keyboard-response","161","284994","0.0-5.0-2.51","LF","5urksolxqo","1536","864","0","1","0","5d10fe33fbbf3d001a56d936","","null","","","learningBlock1","","","","<div style=""font-size:60px;""> </div>","null","LF","learning/Slide52.JPG","This is a wug:","","",""
"html-keyboard-response","162","286010","0.0-5.0-0.52","LF","5urksolxqo","1536","864","0","1","0","5d10fe33fbbf3d001a56d936","","null","","","learningBlock1","","","","This is a tob:","null","","","","","",""
"image-keyboard-response","163","286354","0.0-5.0-1.52","LF","5urksolxqo","1536","864","0","1","0","5d10fe33fbbf3d001a56d936","","null","","","","","","","learning/Slide53.JPG","null","","","","","",""
"html-keyboard-response","164","287356","0.0-5.0-2.52","LF","5urksolxqo","1536","864","0","1","0","5d10fe33fbbf3d001a56d936","","null","","","learningBlock1","","","","<div style=""font-size:60px;""> </div>","null","LF","learning/Slide53.JPG","This is a tob:","","",""
"html-keyboard-response","165","288361","0.0-5.0-0.53","LF","5urksolxqo","1536","864","0","1","0","5d10fe33fbbf3d001a56d936","","null","","","learningBlock1","","","","This is a dep:","null","","","","","",""
"image-keyboard-response","166","288689","0.0-5.0-1.53","LF","5urksolxqo","1536","864","0","1","0","5d10fe33fbbf3d001a56d936","","null","","","","","","","learning/Slide54.JPG","null","","","","","",""
"html-keyboard-response","167","289703","0.0-5.0-2.53","LF","5urksolxqo","1536","864","0","1","0","5d10fe33fbbf3d001a56d936","","null","","","learningBlock1","","","","<div style=""font-size:60px;""> </div>","null","LF","learning/Slide54.JPG","This is a dep:","","",""
"html-keyboard-response","168","290705","0.0-5.0-0.54","LF","5urksolxqo","1536","864","0","1","0","5d10fe33fbbf3d001a56d936","","null","","","learningBlock1","","","","This is a bim:","null","","","","","",""
"image-keyboard-response","169","291032","0.0-5.0-1.54","LF","5urksolxqo","1536","864","0","1","0","5d10fe33fbbf3d001a56d936","","null","","","","","","","learning/Slide55.JPG","null","","","","","",""
"html-keyboard-response","170","292037","0.0-5.0-2.54","LF","5urksolxqo","1536","864","0","1","0","5d10fe33fbbf3d001a56d936","","null","","","learningBlock1","","","","<div style=""font-size:60px;""> </div>","null","LF","learning/Slide55.JPG","This is a bim:","","",""
"html-keyboard-response","171","293050","0.0-5.0-0.55","LF","5urksolxqo","1536","864","0","1","0","5d10fe33fbbf3d001a56d936","","null","","","learningBlock1","","","","This is a tob:","null","","","","","",""
"image-keyboard-response","172","293384","0.0-5.0-1.55","LF","5urksolxqo","1536","864","0","1","0","5d10fe33fbbf3d001a56d936","","null","","","","","","","learning/Slide56.JPG","null","","","","","",""
"html-keyboard-response","173","294386","0.0-5.0-2.55","LF","5urksolxqo","1536","864","0","1","0","5d10fe33fbbf3d001a56d936","","null","","","learningBlock1","","","","<div style=""font-size:60px;""> </div>","null","LF","learning/Slide56.JPG","This is a tob:","","",""
"html-keyboard-response","174","295389","0.0-5.0-0.56","LF","5urksolxqo","1536","864","0","1","0","5d10fe33fbbf3d001a56d936","","null","","","learningBlock1","","","","This is a dep:","null","","","","","",""
"image-keyboard-response","175","295716","0.0-5.0-1.56","LF","5urksolxqo","1536","864","0","1","0","5d10fe33fbbf3d001a56d936","","null","","","","","","","learning/Slide57.JPG","null","","","","","",""
"html-keyboard-response","176","296717","0.0-5.0-2.56","LF","5urksolxqo","1536","864","0","1","0","5d10fe33fbbf3d001a56d936","","null","","","learningBlock1","","","","<div style=""font-size:60px;""> </div>","null","LF","learning/Slide57.JPG","This is a dep:","","",""
"html-keyboard-response","177","297728","0.0-5.0-0.57","LF","5urksolxqo","1536","864","0","1","0","5d10fe33fbbf3d001a56d936","","null","","","learningBlock1","","","","This is a wug:","null","","","","","",""
"image-keyboard-response","178","298067","0.0-5.0-1.57","LF","5urksolxqo","1536","864","0","1","0","5d10fe33fbbf3d001a56d936","","null","","","","","","","learning/Slide58.JPG","null","","","","","",""
"html-keyboard-response","179","299069","0.0-5.0-2.57","LF","5urksolxqo","1536","864","0","1","0","5d10fe33fbbf3d001a56d936","","null","","","learningBlock1","","","","<div style=""font-size:60px;""> </div>","null","LF","learning/Slide58.JPG","This is a wug:","","",""
"html-keyboard-response","180","300072","0.0-5.0-0.58","LF","5urksolxqo","1536","864","0","1","0","5d10fe33fbbf3d001a56d936","","null","","","learningBlock1","","","","This is a dep:","null","","","","","",""
"image-keyboard-response","181","300417","0.0-5.0-1.58","LF","5urksolxqo","1536","864","0","1","0","5d10fe33fbbf3d001a56d936","","null","","","","","","","learning/Slide59.JPG","null","","","","","",""
"html-keyboard-response","182","301420","0.0-5.0-2.58","LF","5urksolxqo","1536","864","0","1","0","5d10fe33fbbf3d001a56d936","","null","","","learningBlock1","","","","<div style=""font-size:60px;""> </div>","null","LF","learning/Slide59.JPG","This is a dep:","","",""
"html-keyboard-response","183","302435","0.0-5.0-0.59","LF","5urksolxqo","1536","864","0","1","0","5d10fe33fbbf3d001a56d936","","null","","","learningBlock1","","","","This is a wug:","null","","","","","",""
"image-keyboard-response","184","302783","0.0-5.0-1.59","LF","5urksolxqo","1536","864","0","1","0","5d10fe33fbbf3d001a56d936","","null","","","","","","","learning/Slide60.JPG","null","","","","","",""
"html-keyboard-response","185","303799","0.0-5.0-2.59","LF","5urksolxqo","1536","864","0","1","0","5d10fe33fbbf3d001a56d936","","null","","","learningBlock1","","","","<div style=""font-size:60px;""> </div>","null","LF","learning/Slide60.JPG","This is a wug:","","",""
"html-keyboard-response","186","304816","0.0-5.0-0.60","LF","5urksolxqo","1536","864","0","1","0","5d10fe33fbbf3d001a56d936","","null","","","learningBlock1","","","","This is a bim:","null","","","","","",""
"image-keyboard-response","187","305151","0.0-5.0-1.60","LF","5urksolxqo","1536","864","0","1","0","5d10fe33fbbf3d001a56d936","","null","","","","","","","learning/Slide61.JPG","null","","","","","",""
"html-keyboard-response","188","306154","0.0-5.0-2.60","LF","5urksolxqo","1536","864","0","1","0","5d10fe33fbbf3d001a56d936","","null","","","learningBlock1","","","","<div style=""font-size:60px;""> </div>","null","LF","learning/Slide61.JPG","This is a bim:","","",""
"html-keyboard-response","189","307156","0.0-5.0-0.61","LF","5urksolxqo","1536","864","0","1","0","5d10fe33fbbf3d001a56d936","","null","","","learningBlock1","","","","This is a dep:","null","","","","","",""
"image-keyboard-response","190","307482","0.0-5.0-1.61","LF","5urksolxqo","1536","864","0","1","0","5d10fe33fbbf3d001a56d936","","null","","","","","","","learning/Slide62.JPG","null","","","","","",""
"html-keyboard-response","191","308484","0.0-5.0-2.61","LF","5urksolxqo","1536","864","0","1","0","5d10fe33fbbf3d001a56d936","","null","","","learningBlock1","","","","<div style=""font-size:60px;""> </div>","null","LF","learning/Slide62.JPG","This is a dep:","","",""
"html-keyboard-response","192","309495","0.0-5.0-0.62","LF","5urksolxqo","1536","864","0","1","0","5d10fe33fbbf3d001a56d936","","null","","","learningBlock1","","","","This is a bim:","null","","","","","",""
"image-keyboard-response","193","309833","0.0-5.0-1.62","LF","5urksolxqo","1536","864","0","1","0","5d10fe33fbbf3d001a56d936","","null","","","","","","","learning/Slide63.JPG","null","","","","","",""
"html-keyboard-response","194","310835","0.0-5.0-2.62","LF","5urksolxqo","1536","864","0","1","0","5d10fe33fbbf3d001a56d936","","null","","","learningBlock1","","","","<div style=""font-size:60px;""> </div>","null","LF","learning/Slide63.JPG","This is a bim:","","",""
"html-keyboard-response","195","311836","0.0-5.0-0.63","LF","5urksolxqo","1536","864","0","1","0","5d10fe33fbbf3d001a56d936","","null","","","learningBlock1","","","","This is a tob:","null","","","","","",""
"image-keyboard-response","196","312164","0.0-5.0-1.63","LF","5urksolxqo","1536","864","0","1","0","5d10fe33fbbf3d001a56d936","","null","","","","","","","learning/Slide64.JPG","null","","","","","",""
"html-keyboard-response","197","313166","0.0-5.0-2.63","LF","5urksolxqo","1536","864","0","1","0","5d10fe33fbbf3d001a56d936","","null","","","learningBlock1","","","","<div style=""font-size:60px;""> </div>","null","LF","learning/Slide64.JPG","This is a tob:","","",""
"html-keyboard-response","198","314168","0.0-5.0-0.64","LF","5urksolxqo","1536","864","0","1","0","5d10fe33fbbf3d001a56d936","","null","","","learningBlock1","","","","This is a wug:","null","","","","","",""
"image-keyboard-response","199","314496","0.0-5.0-1.64","LF","5urksolxqo","1536","864","0","1","0","5d10fe33fbbf3d001a56d936","","null","","","","","","","learning/Slide65.JPG","null","","","","","",""
"html-keyboard-response","200","315498","0.0-5.0-2.64","LF","5urksolxqo","1536","864","0","1","0","5d10fe33fbbf3d001a56d936","","null","","","learningBlock1","","","","<div style=""font-size:60px;""> </div>","null","LF","learning/Slide65.JPG","This is a wug:","","",""
"html-keyboard-response","201","316499","0.0-5.0-0.65","LF","5urksolxqo","1536","864","0","1","0","5d10fe33fbbf3d001a56d936","","null","","","learningBlock1","","","","This is a dep:","null","","","","","",""
"image-keyboard-response","202","316827","0.0-5.0-1.65","LF","5urksolxqo","1536","864","0","1","0","5d10fe33fbbf3d001a56d936","","null","","","","","","","learning/Slide66.JPG","null","","","","","",""
"html-keyboard-response","203","317831","0.0-5.0-2.65","LF","5urksolxqo","1536","864","0","1","0","5d10fe33fbbf3d001a56d936","","null","","","learningBlock1","","","","<div style=""font-size:60px;""> </div>","null","LF","learning/Slide66.JPG","This is a dep:","","",""
"html-keyboard-response","204","318833","0.0-5.0-0.66","LF","5urksolxqo","1536","864","0","1","0","5d10fe33fbbf3d001a56d936","","null","","","learningBlock1","","","","This is a tob:","null","","","","","",""
"image-keyboard-response","205","319161","0.0-5.0-1.66","LF","5urksolxqo","1536","864","0","1","0","5d10fe33fbbf3d001a56d936","","null","","","","","","","learning/Slide67.JPG","null","","","","","",""
"html-keyboard-response","206","320164","0.0-5.0-2.66","LF","5urksolxqo","1536","864","0","1","0","5d10fe33fbbf3d001a56d936","","null","","","learningBlock1","","","","<div style=""font-size:60px;""> </div>","null","LF","learning/Slide67.JPG","This is a tob:","","",""
"html-keyboard-response","207","321164","0.0-5.0-0.67","LF","5urksolxqo","1536","864","0","1","0","5d10fe33fbbf3d001a56d936","","null","","","learningBlock1","","","","This is a wug:","null","","","","","",""
"image-keyboard-response","208","321491","0.0-5.0-1.67","LF","5urksolxqo","1536","864","0","1","0","5d10fe33fbbf3d001a56d936","","null","","","","","","","learning/Slide68.JPG","null","","","","","",""
"html-keyboard-response","209","322492","0.0-5.0-2.67","LF","5urksolxqo","1536","864","0","1","0","5d10fe33fbbf3d001a56d936","","null","","","learningBlock1","","","","<div style=""font-size:60px;""> </div>","null","LF","learning/Slide68.JPG","This is a wug:","","",""
"html-keyboard-response","210","323494","0.0-5.0-0.68","LF","5urksolxqo","1536","864","0","1","0","5d10fe33fbbf3d001a56d936","","null","","","learningBlock1","","","","This is a tob:","null","","","","","",""
"image-keyboard-response","211","323822","0.0-5.0-1.68","LF","5urksolxqo","1536","864","0","1","0","5d10fe33fbbf3d001a56d936","","null","","","","","","","learning/Slide69.JPG","null","","","","","",""
"html-keyboard-response","212","324825","0.0-5.0-2.68","LF","5urksolxqo","1536","864","0","1","0","5d10fe33fbbf3d001a56d936","","null","","","learningBlock1","","","","<div style=""font-size:60px;""> </div>","null","LF","learning/Slide69.JPG","This is a tob:","","",""
"html-keyboard-response","213","325827","0.0-5.0-0.69","LF","5urksolxqo","1536","864","0","1","0","5d10fe33fbbf3d001a56d936","","null","","","learningBlock1","","","","This is a dep:","null","","","","","",""
"image-keyboard-response","214","326158","0.0-5.0-1.69","LF","5urksolxqo","1536","864","0","1","0","5d10fe33fbbf3d001a56d936","","null","","","","","","","learning/Slide70.JPG","null","","","","","",""
"html-keyboard-response","215","327159","0.0-5.0-2.69","LF","5urksolxqo","1536","864","0","1","0","5d10fe33fbbf3d001a56d936","","null","","","learningBlock1","","","","<div style=""font-size:60px;""> </div>","null","LF","learning/Slide70.JPG","This is a dep:","","",""
"html-keyboard-response","216","328160","0.0-5.0-0.70","LF","5urksolxqo","1536","864","0","1","0","5d10fe33fbbf3d001a56d936","","null","","","learningBlock1","","","","This is a wug:","null","","","","","",""
"image-keyboard-response","217","328488","0.0-5.0-1.70","LF","5urksolxqo","1536","864","0","1","0","5d10fe33fbbf3d001a56d936","","null","","","","","","","learning/Slide71.JPG","null","","","","","",""
"html-keyboard-response","218","329494","0.0-5.0-2.70","LF","5urksolxqo","1536","864","0","1","0","5d10fe33fbbf3d001a56d936","","null","","","learningBlock1","","","","<div style=""font-size:60px;""> </div>","null","LF","learning/Slide71.JPG","This is a wug:","","",""
"html-keyboard-response","219","330505","0.0-5.0-0.71","LF","5urksolxqo","1536","864","0","1","0","5d10fe33fbbf3d001a56d936","","null","","","learningBlock1","","","","This is a bim:","null","","","","","",""
"image-keyboard-response","220","330853","0.0-5.0-1.71","LF","5urksolxqo","1536","864","0","1","0","5d10fe33fbbf3d001a56d936","","null","","","","","","","learning/Slide72.JPG","null","","","","","",""
"html-keyboard-response","221","331855","0.0-5.0-2.71","LF","5urksolxqo","1536","864","0","1","0","5d10fe33fbbf3d001a56d936","","null","","","learningBlock1","","","","<div style=""font-size:60px;""> </div>","null","LF","learning/Slide72.JPG","This is a bim:","","",""
"html-keyboard-response","222","332867","0.0-5.0-0.72","LF","5urksolxqo","1536","864","0","1","0","5d10fe33fbbf3d001a56d936","","null","","","learningBlock1","","","","This is a wug:","null","","","","","",""
"image-keyboard-response","223","333202","0.0-5.0-1.72","LF","5urksolxqo","1536","864","0","1","0","5d10fe33fbbf3d001a56d936","","null","","","","","","","learning/Slide73.JPG","null","","","","","",""
"html-keyboard-response","224","334205","0.0-5.0-2.72","LF","5urksolxqo","1536","864","0","1","0","5d10fe33fbbf3d001a56d936","","null","","","learningBlock1","","","","<div style=""font-size:60px;""> </div>","null","LF","learning/Slide73.JPG","This is a wug:","","",""
"html-keyboard-response","225","335217","0.0-5.0-0.73","LF","5urksolxqo","1536","864","0","1","0","5d10fe33fbbf3d001a56d936","","null","","","learningBlock1","","","","This is a dep:","null","","","","","",""
"image-keyboard-response","226","335546","0.0-5.0-1.73","LF","5urksolxqo","1536","864","0","1","0","5d10fe33fbbf3d001a56d936","","null","","","","","","","learning/Slide74.JPG","null","","","","","",""
"html-keyboard-response","227","336557","0.0-5.0-2.73","LF","5urksolxqo","1536","864","0","1","0","5d10fe33fbbf3d001a56d936","","null","","","learningBlock1","","","","<div style=""font-size:60px;""> </div>","null","LF","learning/Slide74.JPG","This is a dep:","","",""
"html-keyboard-response","228","337560","0.0-5.0-0.74","LF","5urksolxqo","1536","864","0","1","0","5d10fe33fbbf3d001a56d936","","null","","","learningBlock1","","","","This is a tob:","null","","","","","",""
"image-keyboard-response","229","337902","0.0-5.0-1.74","LF","5urksolxqo","1536","864","0","1","0","5d10fe33fbbf3d001a56d936","","null","","","","","","","learning/Slide75.JPG","null","","","","","",""
"html-keyboard-response","230","338903","0.0-5.0-2.74","LF","5urksolxqo","1536","864","0","1","0","5d10fe33fbbf3d001a56d936","","null","","","learningBlock1","","","","<div style=""font-size:60px;""> </div>","null","LF","learning/Slide75.JPG","This is a tob:","","",""
"html-keyboard-response","231","339905","0.0-5.0-0.75","LF","5urksolxqo","1536","864","0","1","0","5d10fe33fbbf3d001a56d936","","null","","","learningBlock1","","","","This is a bim:","null","","","","","",""
"image-keyboard-response","232","340234","0.0-5.0-1.75","LF","5urksolxqo","1536","864","0","1","0","5d10fe33fbbf3d001a56d936","","null","","","","","","","learning/Slide76.JPG","null","","","","","",""
"html-keyboard-response","233","341248","0.0-5.0-2.75","LF","5urksolxqo","1536","864","0","1","0","5d10fe33fbbf3d001a56d936","","null","","","learningBlock1","","","","<div style=""font-size:60px;""> </div>","null","LF","learning/Slide76.JPG","This is a bim:","","",""
"html-keyboard-response","234","342250","0.0-5.0-0.76","LF","5urksolxqo","1536","864","0","1","0","5d10fe33fbbf3d001a56d936","","null","","","learningBlock1","","","","This is a tob:","null","","","","","",""
"image-keyboard-response","235","342584","0.0-5.0-1.76","LF","5urksolxqo","1536","864","0","1","0","5d10fe33fbbf3d001a56d936","","null","","","","","","","learning/Slide77.JPG","null","","","","","",""
"html-keyboard-response","236","343587","0.0-5.0-2.76","LF","5urksolxqo","1536","864","0","1","0","5d10fe33fbbf3d001a56d936","","null","","","learningBlock1","","","","<div style=""font-size:60px;""> </div>","null","LF","learning/Slide77.JPG","This is a tob:","","",""
"html-keyboard-response","237","344600","0.0-5.0-0.77","LF","5urksolxqo","1536","864","0","1","0","5d10fe33fbbf3d001a56d936","","null","","","learningBlock1","","","","This is a wug:","null","","","","","",""
"image-keyboard-response","238","344936","0.0-5.0-1.77","LF","5urksolxqo","1536","864","0","1","0","5d10fe33fbbf3d001a56d936","","null","","","","","","","learning/Slide78.JPG","null","","","","","",""
"html-keyboard-response","239","345939","0.0-5.0-2.77","LF","5urksolxqo","1536","864","0","1","0","5d10fe33fbbf3d001a56d936","","null","","","learningBlock1","","","","<div style=""font-size:60px;""> </div>","null","LF","learning/Slide78.JPG","This is a wug:","","",""
"html-keyboard-response","240","346948","0.0-5.0-0.78","LF","5urksolxqo","1536","864","0","1","0","5d10fe33fbbf3d001a56d936","","null","","","learningBlock1","","","","This is a bim:","null","","","","","",""
"image-keyboard-response","241","347286","0.0-5.0-1.78","LF","5urksolxqo","1536","864","0","1","0","5d10fe33fbbf3d001a56d936","","null","","","","","","","learning/Slide79.JPG","null","","","","","",""
"html-keyboard-response","242","348288","0.0-5.0-2.78","LF","5urksolxqo","1536","864","0","1","0","5d10fe33fbbf3d001a56d936","","null","","","learningBlock1","","","","<div style=""font-size:60px;""> </div>","null","LF","learning/Slide79.JPG","This is a bim:","","",""
"html-keyboard-response","243","349295","0.0-5.0-0.79","LF","5urksolxqo","1536","864","0","1","0","5d10fe33fbbf3d001a56d936","","null","","","learningBlock1","","","","This is a tob:","null","","","","","",""
"image-keyboard-response","244","349622","0.0-5.0-1.79","LF","5urksolxqo","1536","864","0","1","0","5d10fe33fbbf3d001a56d936","","null","","","","","","","learning/Slide80.JPG","null","","","","","",""
"html-keyboard-response","245","350631","0.0-5.0-2.79","LF","5urksolxqo","1536","864","0","1","0","5d10fe33fbbf3d001a56d936","","null","","","learningBlock1","","","","<div style=""font-size:60px;""> </div>","null","LF","learning/Slide80.JPG","This is a tob:","","",""
"instructions","246","359859","0.0-6.0","LF","5urksolxqo","1536","864","0","1","0","5d10fe33fbbf3d001a56d936","","NA","","[{""page_index"":0,""viewing_time"":9228.004999982659}]","instructions","","","","","","","","","","",""
"html-keyboard-response","247","360861","0.0-7.0-0.0","LF","5urksolxqo","1536","864","0","1","0","5d10fe33fbbf3d001a56d936","","null","","","learningBlock2","","","","This is a wug:","null","","","","","",""
"image-keyboard-response","248","361190","0.0-7.0-1.0","LF","5urksolxqo","1536","864","0","1","0","5d10fe33fbbf3d001a56d936","","null","","","","","","","learning/Slide81.JPG","null","","","","","",""
"html-keyboard-response","249","362192","0.0-7.0-2.0","LF","5urksolxqo","1536","864","0","1","0","5d10fe33fbbf3d001a56d936","","null","","","learningBlock2","","","","<div style=""font-size:60px;""> </div>","null","LF","learning/Slide81.JPG","This is a wug:","","",""
"html-keyboard-response","250","363194","0.0-7.0-0.1","LF","5urksolxqo","1536","864","0","1","0","5d10fe33fbbf3d001a56d936","","null","","","learningBlock2","","","","This is a bim:","null","","","","","",""
"image-keyboard-response","251","363526","0.0-7.0-1.1","LF","5urksolxqo","1536","864","0","1","0","5d10fe33fbbf3d001a56d936","","null","","","","","","","learning/Slide82.JPG","null","","","","","",""
"html-keyboard-response","252","364540","0.0-7.0-2.1","LF","5urksolxqo","1536","864","0","1","0","5d10fe33fbbf3d001a56d936","","null","","","learningBlock2","","","","<div style=""font-size:60px;""> </div>","null","LF","learning/Slide82.JPG","This is a bim:","","",""
"html-keyboard-response","253","365542","0.0-7.0-0.2","LF","5urksolxqo","1536","864","0","1","0","5d10fe33fbbf3d001a56d936","","null","","","learningBlock2","","","","This is a wug:","null","","","","","",""
"image-keyboard-response","254","365870","0.0-7.0-1.2","LF","5urksolxqo","1536","864","0","1","0","5d10fe33fbbf3d001a56d936","","null","","","","","","","learning/Slide83.JPG","null","","","","","",""
"html-keyboard-response","255","366882","0.0-7.0-2.2","LF","5urksolxqo","1536","864","0","1","0","5d10fe33fbbf3d001a56d936","","null","","","learningBlock2","","","","<div style=""font-size:60px;""> </div>","null","LF","learning/Slide83.JPG","This is a wug:","","",""
"html-keyboard-response","256","367886","0.0-7.0-0.3","LF","5urksolxqo","1536","864","0","1","0","5d10fe33fbbf3d001a56d936","","null","","","learningBlock2","","","","This is a dep:","null","","","","","",""
"image-keyboard-response","257","368221","0.0-7.0-1.3","LF","5urksolxqo","1536","864","0","1","0","5d10fe33fbbf3d001a56d936","","null","","","","","","","learning/Slide84.JPG","null","","","","","",""
"html-keyboard-response","258","369238","0.0-7.0-2.3","LF","5urksolxqo","1536","864","0","1","0","5d10fe33fbbf3d001a56d936","","null","","","learningBlock2","","","","<div style=""font-size:60px;""> </div>","null","LF","learning/Slide84.JPG","This is a dep:","","",""
"html-keyboard-response","259","370241","0.0-7.0-0.4","LF","5urksolxqo","1536","864","0","1","0","5d10fe33fbbf3d001a56d936","","null","","","learningBlock2","","","","This is a bim:","null","","","","","",""
"image-keyboard-response","260","370585","0.0-7.0-1.4","LF","5urksolxqo","1536","864","0","1","0","5d10fe33fbbf3d001a56d936","","null","","","","","","","learning/Slide85.JPG","null","","","","","",""
"html-keyboard-response","261","371587","0.0-7.0-2.4","LF","5urksolxqo","1536","864","0","1","0","5d10fe33fbbf3d001a56d936","","null","","","learningBlock2","","","","<div style=""font-size:60px;""> </div>","null","LF","learning/Slide85.JPG","This is a bim:","","",""
"html-keyboard-response","262","372600","0.0-7.0-0.5","LF","5urksolxqo","1536","864","0","1","0","5d10fe33fbbf3d001a56d936","","null","","","learningBlock2","","","","This is a tob:","null","","","","","",""
"image-keyboard-response","263","372937","0.0-7.0-1.5","LF","5urksolxqo","1536","864","0","1","0","5d10fe33fbbf3d001a56d936","","null","","","","","","","learning/Slide86.JPG","null","","","","","",""
"html-keyboard-response","264","373947","0.0-7.0-2.5","LF","5urksolxqo","1536","864","0","1","0","5d10fe33fbbf3d001a56d936","","null","","","learningBlock2","","","","<div style=""font-size:60px;""> </div>","null","LF","learning/Slide86.JPG","This is a tob:","","",""
"html-keyboard-response","265","374949","0.0-7.0-0.6","LF","5urksolxqo","1536","864","0","1","0","5d10fe33fbbf3d001a56d936","","null","","","learningBlock2","","","","This is a wug:","null","","","","","",""
"image-keyboard-response","266","375287","0.0-7.0-1.6","LF","5urksolxqo","1536","864","0","1","0","5d10fe33fbbf3d001a56d936","","null","","","","","","","learning/Slide87.JPG","null","","","","","",""
"html-keyboard-response","267","376289","0.0-7.0-2.6","LF","5urksolxqo","1536","864","0","1","0","5d10fe33fbbf3d001a56d936","","null","","","learningBlock2","","","","<div style=""font-size:60px;""> </div>","null","LF","learning/Slide87.JPG","This is a wug:","","",""
"html-keyboard-response","268","377305","0.0-7.0-0.7","LF","5urksolxqo","1536","864","0","1","0","5d10fe33fbbf3d001a56d936","","null","","","learningBlock2","","","","This is a tob:","null","","","","","",""
"image-keyboard-response","269","377632","0.0-7.0-1.7","LF","5urksolxqo","1536","864","0","1","0","5d10fe33fbbf3d001a56d936","","null","","","","","","","learning/Slide88.JPG","null","","","","","",""
"html-keyboard-response","270","378637","0.0-7.0-2.7","LF","5urksolxqo","1536","864","0","1","0","5d10fe33fbbf3d001a56d936","","null","","","learningBlock2","","","","<div style=""font-size:60px;""> </div>","null","LF","learning/Slide88.JPG","This is a tob:","","",""
"html-keyboard-response","271","379639","0.0-7.0-0.8","LF","5urksolxqo","1536","864","0","1","0","5d10fe33fbbf3d001a56d936","","null","","","learningBlock2","","","","This is a bim:","null","","","","","",""
"image-keyboard-response","272","379966","0.0-7.0-1.8","LF","5urksolxqo","1536","864","0","1","0","5d10fe33fbbf3d001a56d936","","null","","","","","","","learning/Slide89.JPG","null","","","","","",""
"html-keyboard-response","273","380982","0.0-7.0-2.8","LF","5urksolxqo","1536","864","0","1","0","5d10fe33fbbf3d001a56d936","","null","","","learningBlock2","","","","<div style=""font-size:60px;""> </div>","null","LF","learning/Slide89.JPG","This is a bim:","","",""
"html-keyboard-response","274","381984","0.0-7.0-0.9","LF","5urksolxqo","1536","864","0","1","0","5d10fe33fbbf3d001a56d936","","null","","","learningBlock2","","","","This is a dep:","null","","","","","",""
"image-keyboard-response","275","382312","0.0-7.0-1.9","LF","5urksolxqo","1536","864","0","1","0","5d10fe33fbbf3d001a56d936","","null","","","","","","","learning/Slide90.JPG","null","","","","","",""
"html-keyboard-response","276","383330","0.0-7.0-2.9","LF","5urksolxqo","1536","864","0","1","0","5d10fe33fbbf3d001a56d936","","null","","","learningBlock2","","","","<div style=""font-size:60px;""> </div>","null","LF","learning/Slide90.JPG","This is a dep:","","",""
"html-keyboard-response","277","384339","0.0-7.0-0.10","LF","5urksolxqo","1536","864","0","1","0","5d10fe33fbbf3d001a56d936","","null","","","learningBlock2","","","","This is a wug:","null","","","","","",""
"image-keyboard-response","278","384666","0.0-7.0-1.10","LF","5urksolxqo","1536","864","0","1","0","5d10fe33fbbf3d001a56d936","","null","","","","","","","learning/Slide91.JPG","null","","","","","",""
"html-keyboard-response","279","385681","0.0-7.0-2.10","LF","5urksolxqo","1536","864","0","1","0","5d10fe33fbbf3d001a56d936","","null","","","learningBlock2","","","","<div style=""font-size:60px;""> </div>","null","LF","learning/Slide91.JPG","This is a wug:","","",""
"html-keyboard-response","280","386683","0.0-7.0-0.11","LF","5urksolxqo","1536","864","0","1","0","5d10fe33fbbf3d001a56d936","","null","","","learningBlock2","","","","This is a tob:","null","","","","","",""
"image-keyboard-response","281","387020","0.0-7.0-1.11","LF","5urksolxqo","1536","864","0","1","0","5d10fe33fbbf3d001a56d936","","null","","","","","","","learning/Slide92.JPG","null","","","","","",""
"html-keyboard-response","282","388034","0.0-7.0-2.11","LF","5urksolxqo","1536","864","0","1","0","5d10fe33fbbf3d001a56d936","","null","","","learningBlock2","","","","<div style=""font-size:60px;""> </div>","null","LF","learning/Slide92.JPG","This is a tob:","","",""
"html-keyboard-response","283","389035","0.0-7.0-0.12","LF","5urksolxqo","1536","864","0","1","0","5d10fe33fbbf3d001a56d936","","null","","","learningBlock2","","","","This is a bim:","null","","","","","",""
"image-keyboard-response","284","389363","0.0-7.0-1.12","LF","5urksolxqo","1536","864","0","1","0","5d10fe33fbbf3d001a56d936","","null","","","","","","","learning/Slide93.JPG","null","","","","","",""
"html-keyboard-response","285","390379","0.0-7.0-2.12","LF","5urksolxqo","1536","864","0","1","0","5d10fe33fbbf3d001a56d936","","null","","","learningBlock2","","","","<div style=""font-size:60px;""> </div>","null","LF","learning/Slide93.JPG","This is a bim:","","",""
"html-keyboard-response","286","391380","0.0-7.0-0.13","LF","5urksolxqo","1536","864","0","1","0","5d10fe33fbbf3d001a56d936","","null","","","learningBlock2","","","","This is a tob:","null","","","","","",""
"image-keyboard-response","287","391709","0.0-7.0-1.13","LF","5urksolxqo","1536","864","0","1","0","5d10fe33fbbf3d001a56d936","","null","","","","","","","learning/Slide94.JPG","null","","","","","",""
"html-keyboard-response","288","392711","0.0-7.0-2.13","LF","5urksolxqo","1536","864","0","1","0","5d10fe33fbbf3d001a56d936","","null","","","learningBlock2","","","","<div style=""font-size:60px;""> </div>","null","LF","learning/Slide94.JPG","This is a tob:","","",""
"html-keyboard-response","289","393712","0.0-7.0-0.14","LF","5urksolxqo","1536","864","0","1","0","5d10fe33fbbf3d001a56d936","","null","","","learningBlock2","","","","This is a wug:","null","","","","","",""
"image-keyboard-response","290","394040","0.0-7.0-1.14","LF","5urksolxqo","1536","864","0","1","0","5d10fe33fbbf3d001a56d936","","null","","","","","","","learning/Slide95.JPG","null","","","","","",""
"html-keyboard-response","291","395043","0.0-7.0-2.14","LF","5urksolxqo","1536","864","0","1","0","5d10fe33fbbf3d001a56d936","","null","","","learningBlock2","","","","<div style=""font-size:60px;""> </div>","null","LF","learning/Slide95.JPG","This is a wug:","","",""
"html-keyboard-response","292","396045","0.0-7.0-0.15","LF","5urksolxqo","1536","864","0","1","0","5d10fe33fbbf3d001a56d936","","null","","","learningBlock2","","","","This is a tob:","null","","","","","",""
"image-keyboard-response","293","396372","0.0-7.0-1.15","LF","5urksolxqo","1536","864","0","1","0","5d10fe33fbbf3d001a56d936","","null","","","","","","","learning/Slide96.JPG","null","","","","","",""
"html-keyboard-response","294","397376","0.0-7.0-2.15","LF","5urksolxqo","1536","864","0","1","0","5d10fe33fbbf3d001a56d936","","null","","","learningBlock2","","","","<div style=""font-size:60px;""> </div>","null","LF","learning/Slide96.JPG","This is a tob:","","",""
"html-keyboard-response","295","398393","0.0-7.0-0.16","LF","5urksolxqo","1536","864","0","1","0","5d10fe33fbbf3d001a56d936","","null","","","learningBlock2","","","","This is a dep:","null","","","","","",""
"image-keyboard-response","296","398721","0.0-7.0-1.16","LF","5urksolxqo","1536","864","0","1","0","5d10fe33fbbf3d001a56d936","","null","","","","","","","learning/Slide97.JPG","null","","","","","",""
"html-keyboard-response","297","399723","0.0-7.0-2.16","LF","5urksolxqo","1536","864","0","1","0","5d10fe33fbbf3d001a56d936","","null","","","learningBlock2","","","","<div style=""font-size:60px;""> </div>","null","LF","learning/Slide97.JPG","This is a dep:","","",""
"html-keyboard-response","298","400724","0.0-7.0-0.17","LF","5urksolxqo","1536","864","0","1","0","5d10fe33fbbf3d001a56d936","","null","","","learningBlock2","","","","This is a bim:","null","","","","","",""
"image-keyboard-response","299","401052","0.0-7.0-1.17","LF","5urksolxqo","1536","864","0","1","0","5d10fe33fbbf3d001a56d936","","null","","","","","","","learning/Slide98.JPG","null","","","","","",""
"html-keyboard-response","300","402054","0.0-7.0-2.17","LF","5urksolxqo","1536","864","0","1","0","5d10fe33fbbf3d001a56d936","","null","","","learningBlock2","","","","<div style=""font-size:60px;""> </div>","null","LF","learning/Slide98.JPG","This is a bim:","","",""
"html-keyboard-response","301","403055","0.0-7.0-0.18","LF","5urksolxqo","1536","864","0","1","0","5d10fe33fbbf3d001a56d936","","null","","","learningBlock2","","","","This is a dep:","null","","","","","",""
"image-keyboard-response","302","403383","0.0-7.0-1.18","LF","5urksolxqo","1536","864","0","1","0","5d10fe33fbbf3d001a56d936","","null","","","","","","","learning/Slide99.JPG","null","","","","","",""
"html-keyboard-response","303","404386","0.0-7.0-2.18","LF","5urksolxqo","1536","864","0","1","0","5d10fe33fbbf3d001a56d936","","null","","","learningBlock2","","","","<div style=""font-size:60px;""> </div>","null","LF","learning/Slide99.JPG","This is a dep:","","",""
"html-keyboard-response","304","405387","0.0-7.0-0.19","LF","5urksolxqo","1536","864","0","1","0","5d10fe33fbbf3d001a56d936","","null","","","learningBlock2","","","","This is a bim:","null","","","","","",""
"image-keyboard-response","305","405715","0.0-7.0-1.19","LF","5urksolxqo","1536","864","0","1","0","5d10fe33fbbf3d001a56d936","","null","","","","","","","learning/Slide100.JPG","null","","","","","",""
"html-keyboard-response","306","406717","0.0-7.0-2.19","LF","5urksolxqo","1536","864","0","1","0","5d10fe33fbbf3d001a56d936","","null","","","learningBlock2","","","","<div style=""font-size:60px;""> </div>","null","LF","learning/Slide100.JPG","This is a bim:","","",""
"html-keyboard-response","307","407718","0.0-7.0-0.20","LF","5urksolxqo","1536","864","0","1","0","5d10fe33fbbf3d001a56d936","","null","","","learningBlock2","","","","This is a tob:","null","","","","","",""
"image-keyboard-response","308","408046","0.0-7.0-1.20","LF","5urksolxqo","1536","864","0","1","0","5d10fe33fbbf3d001a56d936","","null","","","","","","","learning/Slide101.JPG","null","","","","","",""
"html-keyboard-response","309","409048","0.0-7.0-2.20","LF","5urksolxqo","1536","864","0","1","0","5d10fe33fbbf3d001a56d936","","null","","","learningBlock2","","","","<div style=""font-size:60px;""> </div>","null","LF","learning/Slide101.JPG","This is a tob:","","",""
"html-keyboard-response","310","410049","0.0-7.0-0.21","LF","5urksolxqo","1536","864","0","1","0","5d10fe33fbbf3d001a56d936","","null","","","learningBlock2","","","","This is a bim:","null","","","","","",""
"image-keyboard-response","311","410376","0.0-7.0-1.21","LF","5urksolxqo","1536","864","0","1","0","5d10fe33fbbf3d001a56d936","","null","","","","","","","learning/Slide102.JPG","null","","","","","",""
"html-keyboard-response","312","411378","0.0-7.0-2.21","LF","5urksolxqo","1536","864","0","1","0","5d10fe33fbbf3d001a56d936","","null","","","learningBlock2","","","","<div style=""font-size:60px;""> </div>","null","LF","learning/Slide102.JPG","This is a bim:","","",""
"html-keyboard-response","313","412379","0.0-7.0-0.22","LF","5urksolxqo","1536","864","0","1","0","5d10fe33fbbf3d001a56d936","","null","","","learningBlock2","","","","This is a dep:","null","","","","","",""
"image-keyboard-response","314","412707","0.0-7.0-1.22","LF","5urksolxqo","1536","864","0","1","0","5d10fe33fbbf3d001a56d936","","null","","","","","","","learning/Slide103.JPG","null","","","","","",""
"html-keyboard-response","315","413709","0.0-7.0-2.22","LF","5urksolxqo","1536","864","0","1","0","5d10fe33fbbf3d001a56d936","","null","","","learningBlock2","","","","<div style=""font-size:60px;""> </div>","null","LF","learning/Slide103.JPG","This is a dep:","","",""
"html-keyboard-response","316","414711","0.0-7.0-0.23","LF","5urksolxqo","1536","864","0","1","0","5d10fe33fbbf3d001a56d936","","null","","","learningBlock2","","","","This is a tob:","null","","","","","",""
"image-keyboard-response","317","415038","0.0-7.0-1.23","LF","5urksolxqo","1536","864","0","1","0","5d10fe33fbbf3d001a56d936","","null","","","","","","","learning/Slide104.JPG","null","","","","","",""
"html-keyboard-response","318","416040","0.0-7.0-2.23","LF","5urksolxqo","1536","864","0","1","0","5d10fe33fbbf3d001a56d936","","null","","","learningBlock2","","","","<div style=""font-size:60px;""> </div>","null","LF","learning/Slide104.JPG","This is a tob:","","",""
"html-keyboard-response","319","417042","0.0-7.0-0.24","LF","5urksolxqo","1536","864","0","1","0","5d10fe33fbbf3d001a56d936","","null","","","learningBlock2","","","","This is a dep:","null","","","","","",""
"image-keyboard-response","320","417369","0.0-7.0-1.24","LF","5urksolxqo","1536","864","0","1","0","5d10fe33fbbf3d001a56d936","","null","","","","","","","learning/Slide105.JPG","null","","","","","",""
"html-keyboard-response","321","418379","0.0-7.0-2.24","LF","5urksolxqo","1536","864","0","1","0","5d10fe33fbbf3d001a56d936","","null","","","learningBlock2","","","","<div style=""font-size:60px;""> </div>","null","LF","learning/Slide105.JPG","This is a dep:","","",""
"html-keyboard-response","322","419380","0.0-7.0-0.25","LF","5urksolxqo","1536","864","0","1","0","5d10fe33fbbf3d001a56d936","","null","","","learningBlock2","","","","This is a wug:","null","","","","","",""
"image-keyboard-response","323","419708","0.0-7.0-1.25","LF","5urksolxqo","1536","864","0","1","0","5d10fe33fbbf3d001a56d936","","null","","","","","","","learning/Slide106.JPG","null","","","","","",""
"html-keyboard-response","324","420710","0.0-7.0-2.25","LF","5urksolxqo","1536","864","0","1","0","5d10fe33fbbf3d001a56d936","","null","","","learningBlock2","","","","<div style=""font-size:60px;""> </div>","null","LF","learning/Slide106.JPG","This is a wug:","","",""
"html-keyboard-response","325","421714","0.0-7.0-0.26","LF","5urksolxqo","1536","864","0","1","0","5d10fe33fbbf3d001a56d936","","null","","","learningBlock2","","","","This is a bim:","null","","","","","",""
"image-keyboard-response","326","422056","0.0-7.0-1.26","LF","5urksolxqo","1536","864","0","1","0","5d10fe33fbbf3d001a56d936","","null","","","","","","","learning/Slide107.JPG","null","","","","","",""
"html-keyboard-response","327","423069","0.0-7.0-2.26","LF","5urksolxqo","1536","864","0","1","0","5d10fe33fbbf3d001a56d936","","null","","","learningBlock2","","","","<div style=""font-size:60px;""> </div>","null","LF","learning/Slide107.JPG","This is a bim:","","",""
"html-keyboard-response","328","424071","0.0-7.0-0.27","LF","5urksolxqo","1536","864","0","1","0","5d10fe33fbbf3d001a56d936","","null","","","learningBlock2","","","","This is a dep:","null","","","","","",""
"image-keyboard-response","329","424399","0.0-7.0-1.27","LF","5urksolxqo","1536","864","0","1","0","5d10fe33fbbf3d001a56d936","","null","","","","","","","learning/Slide108.JPG","null","","","","","",""
"html-keyboard-response","330","425401","0.0-7.0-2.27","LF","5urksolxqo","1536","864","0","1","0","5d10fe33fbbf3d001a56d936","","null","","","learningBlock2","","","","<div style=""font-size:60px;""> </div>","null","LF","learning/Slide108.JPG","This is a dep:","","",""
"html-keyboard-response","331","426403","0.0-7.0-0.28","LF","5urksolxqo","1536","864","0","1","0","5d10fe33fbbf3d001a56d936","","null","","","learningBlock2","","","","This is a wug:","null","","","","","",""
"image-keyboard-response","332","426730","0.0-7.0-1.28","LF","5urksolxqo","1536","864","0","1","0","5d10fe33fbbf3d001a56d936","","null","","","","","","","learning/Slide109.JPG","null","","","","","",""
"html-keyboard-response","333","427732","0.0-7.0-2.28","LF","5urksolxqo","1536","864","0","1","0","5d10fe33fbbf3d001a56d936","","null","","","learningBlock2","","","","<div style=""font-size:60px;""> </div>","null","LF","learning/Slide109.JPG","This is a wug:","","",""
"html-keyboard-response","334","428734","0.0-7.0-0.29","LF","5urksolxqo","1536","864","0","1","0","5d10fe33fbbf3d001a56d936","","null","","","learningBlock2","","","","This is a bim:","null","","","","","",""
"image-keyboard-response","335","429062","0.0-7.0-1.29","LF","5urksolxqo","1536","864","0","1","0","5d10fe33fbbf3d001a56d936","","null","","","","","","","learning/Slide110.JPG","null","","","","","",""
"html-keyboard-response","336","430063","0.0-7.0-2.29","LF","5urksolxqo","1536","864","0","1","0","5d10fe33fbbf3d001a56d936","","null","","","learningBlock2","","","","<div style=""font-size:60px;""> </div>","null","LF","learning/Slide110.JPG","This is a bim:","","",""
"html-keyboard-response","337","431064","0.0-7.0-0.30","LF","5urksolxqo","1536","864","0","1","0","5d10fe33fbbf3d001a56d936","","null","","","learningBlock2","","","","This is a tob:","null","","","","","",""
"image-keyboard-response","338","431392","0.0-7.0-1.30","LF","5urksolxqo","1536","864","0","1","0","5d10fe33fbbf3d001a56d936","","null","","","","","","","learning/Slide111.JPG","null","","","","","",""
"html-keyboard-response","339","432394","0.0-7.0-2.30","LF","5urksolxqo","1536","864","0","1","0","5d10fe33fbbf3d001a56d936","","null","","","learningBlock2","","","","<div style=""font-size:60px;""> </div>","null","LF","learning/Slide111.JPG","This is a tob:","","",""
"html-keyboard-response","340","433395","0.0-7.0-0.31","LF","5urksolxqo","1536","864","0","1","0","5d10fe33fbbf3d001a56d936","","null","","","learningBlock2","","","","This is a wug:","null","","","","","",""
"image-keyboard-response","341","433722","0.0-7.0-1.31","LF","5urksolxqo","1536","864","0","1","0","5d10fe33fbbf3d001a56d936","","null","","","","","","","learning/Slide112.JPG","null","","","","","",""
"html-keyboard-response","342","434725","0.0-7.0-2.31","LF","5urksolxqo","1536","864","0","1","0","5d10fe33fbbf3d001a56d936","","null","","","learningBlock2","","","","<div style=""font-size:60px;""> </div>","null","LF","learning/Slide112.JPG","This is a wug:","","",""
"html-keyboard-response","343","435727","0.0-7.0-0.32","LF","5urksolxqo","1536","864","0","1","0","5d10fe33fbbf3d001a56d936","","null","","","learningBlock2","","","","This is a tob:","null","","","","","",""
"image-keyboard-response","344","436055","0.0-7.0-1.32","LF","5urksolxqo","1536","864","0","1","0","5d10fe33fbbf3d001a56d936","","null","","","","","","","learning/Slide113.JPG","null","","","","","",""
"html-keyboard-response","345","437057","0.0-7.0-2.32","LF","5urksolxqo","1536","864","0","1","0","5d10fe33fbbf3d001a56d936","","null","","","learningBlock2","","","","<div style=""font-size:60px;""> </div>","null","LF","learning/Slide113.JPG","This is a tob:","","",""
"html-keyboard-response","346","438060","0.0-7.0-0.33","LF","5urksolxqo","1536","864","0","1","0","5d10fe33fbbf3d001a56d936","","null","","","learningBlock2","","","","This is a wug:","null","","","","","",""
"image-keyboard-response","347","438406","0.0-7.0-1.33","LF","5urksolxqo","1536","864","0","1","0","5d10fe33fbbf3d001a56d936","","null","","","","","","","learning/Slide114.JPG","null","","","","","",""
"html-keyboard-response","348","439407","0.0-7.0-2.33","LF","5urksolxqo","1536","864","0","1","0","5d10fe33fbbf3d001a56d936","","null","","","learningBlock2","","","","<div style=""font-size:60px;""> </div>","null","LF","learning/Slide114.JPG","This is a wug:","","",""
"html-keyboard-response","349","440409","0.0-7.0-0.34","LF","5urksolxqo","1536","864","0","1","0","5d10fe33fbbf3d001a56d936","","null","","","learningBlock2","","","","This is a bim:","null","","","","","",""
"image-keyboard-response","350","440737","0.0-7.0-1.34","LF","5urksolxqo","1536","864","0","1","0","5d10fe33fbbf3d001a56d936","","null","","","","","","","learning/Slide115.JPG","null","","","","","",""
"html-keyboard-response","351","441738","0.0-7.0-2.34","LF","5urksolxqo","1536","864","0","1","0","5d10fe33fbbf3d001a56d936","","null","","","learningBlock2","","","","<div style=""font-size:60px;""> </div>","null","LF","learning/Slide115.JPG","This is a bim:","","",""
"html-keyboard-response","352","442740","0.0-7.0-0.35","LF","5urksolxqo","1536","864","0","1","0","5d10fe33fbbf3d001a56d936","","null","","","learningBlock2","","","","This is a dep:","null","","","","","",""
"image-keyboard-response","353","443067","0.0-7.0-1.35","LF","5urksolxqo","1536","864","0","1","0","5d10fe33fbbf3d001a56d936","","null","","","","","","","learning/Slide116.JPG","null","","","","","",""
"html-keyboard-response","354","444069","0.0-7.0-2.35","LF","5urksolxqo","1536","864","0","1","0","5d10fe33fbbf3d001a56d936","","null","","","learningBlock2","","","","<div style=""font-size:60px;""> </div>","null","LF","learning/Slide116.JPG","This is a dep:","","",""
"html-keyboard-response","355","445071","0.0-7.0-0.36","LF","5urksolxqo","1536","864","0","1","0","5d10fe33fbbf3d001a56d936","","null","","","learningBlock2","","","","This is a tob:","null","","","","","",""
"image-keyboard-response","356","445398","0.0-7.0-1.36","LF","5urksolxqo","1536","864","0","1","0","5d10fe33fbbf3d001a56d936","","null","","","","","","","learning/Slide117.JPG","null","","","","","",""
"html-keyboard-response","357","446400","0.0-7.0-2.36","LF","5urksolxqo","1536","864","0","1","0","5d10fe33fbbf3d001a56d936","","null","","","learningBlock2","","","","<div style=""font-size:60px;""> </div>","null","LF","learning/Slide117.JPG","This is a tob:","","",""
"html-keyboard-response","358","447402","0.0-7.0-0.37","LF","5urksolxqo","1536","864","0","1","0","5d10fe33fbbf3d001a56d936","","null","","","learningBlock2","","","","This is a dep:","null","","","","","",""
"image-keyboard-response","359","447741","0.0-7.0-1.37","LF","5urksolxqo","1536","864","0","1","0","5d10fe33fbbf3d001a56d936","","null","","","","","","","learning/Slide118.JPG","null","","","","","",""
"html-keyboard-response","360","448744","0.0-7.0-2.37","LF","5urksolxqo","1536","864","0","1","0","5d10fe33fbbf3d001a56d936","","null","","","learningBlock2","","","","<div style=""font-size:60px;""> </div>","null","LF","learning/Slide118.JPG","This is a dep:","","",""
"html-keyboard-response","361","449745","0.0-7.0-0.38","LF","5urksolxqo","1536","864","0","1","0","5d10fe33fbbf3d001a56d936","","null","","","learningBlock2","","","","This is a wug:","null","","","","","",""
"image-keyboard-response","362","450073","0.0-7.0-1.38","LF","5urksolxqo","1536","864","0","1","0","5d10fe33fbbf3d001a56d936","","null","","","","","","","learning/Slide119.JPG","null","","","","","",""
"html-keyboard-response","363","451074","0.0-7.0-2.38","LF","5urksolxqo","1536","864","0","1","0","5d10fe33fbbf3d001a56d936","","null","","","learningBlock2","","","","<div style=""font-size:60px;""> </div>","null","LF","learning/Slide119.JPG","This is a wug:","","",""
"html-keyboard-response","364","452076","0.0-7.0-0.39","LF","5urksolxqo","1536","864","0","1","0","5d10fe33fbbf3d001a56d936","","null","","","learningBlock2","","","","This is a dep:","null","","","","","",""
"image-keyboard-response","365","452403","0.0-7.0-1.39","LF","5urksolxqo","1536","864","0","1","0","5d10fe33fbbf3d001a56d936","","null","","","","","","","learning/Slide120.JPG","null","","","","","",""
"html-keyboard-response","366","453405","0.0-7.0-2.39","LF","5urksolxqo","1536","864","0","1","0","5d10fe33fbbf3d001a56d936","","null","","","learningBlock2","","","","<div style=""font-size:60px;""> </div>","null","LF","learning/Slide120.JPG","This is a dep:","","",""
"html-keyboard-response","367","454406","0.0-7.0-0.40","LF","5urksolxqo","1536","864","0","1","0","5d10fe33fbbf3d001a56d936","","null","","","learningBlock2","","","","This is a bim:","null","","","","","",""
"image-keyboard-response","368","454734","0.0-7.0-1.40","LF","5urksolxqo","1536","864","0","1","0","5d10fe33fbbf3d001a56d936","","null","","","","","","","learning/Slide121.JPG","null","","","","","",""
"html-keyboard-response","369","455735","0.0-7.0-2.40","LF","5urksolxqo","1536","864","0","1","0","5d10fe33fbbf3d001a56d936","","null","","","learningBlock2","","","","<div style=""font-size:60px;""> </div>","null","LF","learning/Slide121.JPG","This is a bim:","","",""
"html-keyboard-response","370","456737","0.0-7.0-0.41","LF","5urksolxqo","1536","864","0","1","0","5d10fe33fbbf3d001a56d936","","null","","","learningBlock2","","","","This is a wug:","null","","","","","",""
"image-keyboard-response","371","457064","0.0-7.0-1.41","LF","5urksolxqo","1536","864","0","1","0","5d10fe33fbbf3d001a56d936","","null","","","","","","","learning/Slide122.JPG","null","","","","","",""
"html-keyboard-response","372","458066","0.0-7.0-2.41","LF","5urksolxqo","1536","864","0","1","0","5d10fe33fbbf3d001a56d936","","null","","","learningBlock2","","","","<div style=""font-size:60px;""> </div>","null","LF","learning/Slide122.JPG","This is a wug:","","",""
"html-keyboard-response","373","459067","0.0-7.0-0.42","LF","5urksolxqo","1536","864","0","1","0","5d10fe33fbbf3d001a56d936","","null","","","learningBlock2","","","","This is a bim:","null","","","","","",""
"image-keyboard-response","374","459394","0.0-7.0-1.42","LF","5urksolxqo","1536","864","0","1","0","5d10fe33fbbf3d001a56d936","","null","","","","","","","learning/Slide123.JPG","null","","","","","",""
"html-keyboard-response","375","460397","0.0-7.0-2.42","LF","5urksolxqo","1536","864","0","1","0","5d10fe33fbbf3d001a56d936","","null","","","learningBlock2","","","","<div style=""font-size:60px;""> </div>","null","LF","learning/Slide123.JPG","This is a bim:","","",""
"html-keyboard-response","376","461398","0.0-7.0-0.43","LF","5urksolxqo","1536","864","0","1","0","5d10fe33fbbf3d001a56d936","","null","","","learningBlock2","","","","This is a tob:","null","","","","","",""
"image-keyboard-response","377","461725","0.0-7.0-1.43","LF","5urksolxqo","1536","864","0","1","0","5d10fe33fbbf3d001a56d936","","null","","","","","","","learning/Slide124.JPG","null","","","","","",""
"html-keyboard-response","378","462727","0.0-7.0-2.43","LF","5urksolxqo","1536","864","0","1","0","5d10fe33fbbf3d001a56d936","","null","","","learningBlock2","","","","<div style=""font-size:60px;""> </div>","null","LF","learning/Slide124.JPG","This is a tob:","","",""
"html-keyboard-response","379","463730","0.0-7.0-0.44","LF","5urksolxqo","1536","864","0","1","0","5d10fe33fbbf3d001a56d936","","null","","","learningBlock2","","","","This is a bim:","null","","","","","",""
"image-keyboard-response","380","464075","0.0-7.0-1.44","LF","5urksolxqo","1536","864","0","1","0","5d10fe33fbbf3d001a56d936","","null","","","","","","","learning/Slide125.JPG","null","","","","","",""
"html-keyboard-response","381","465089","0.0-7.0-2.44","LF","5urksolxqo","1536","864","0","1","0","5d10fe33fbbf3d001a56d936","","null","","","learningBlock2","","","","<div style=""font-size:60px;""> </div>","null","LF","learning/Slide125.JPG","This is a bim:","","",""
"html-keyboard-response","382","466103","0.0-7.0-0.45","LF","5urksolxqo","1536","864","0","1","0","5d10fe33fbbf3d001a56d936","","null","","","learningBlock2","","","","This is a tob:","null","","","","","",""
"image-keyboard-response","383","466440","0.0-7.0-1.45","LF","5urksolxqo","1536","864","0","1","0","5d10fe33fbbf3d001a56d936","","null","","","","","","","learning/Slide126.JPG","null","","","","","",""
"html-keyboard-response","384","467442","0.0-7.0-2.45","LF","5urksolxqo","1536","864","0","1","0","5d10fe33fbbf3d001a56d936","","null","","","learningBlock2","","","","<div style=""font-size:60px;""> </div>","null","LF","learning/Slide126.JPG","This is a tob:","","",""
"html-keyboard-response","385","468444","0.0-7.0-0.46","LF","5urksolxqo","1536","864","0","1","0","5d10fe33fbbf3d001a56d936","","null","","","learningBlock2","","","","This is a dep:","null","","","","","",""
"image-keyboard-response","386","468770","0.0-7.0-1.46","LF","5urksolxqo","1536","864","0","1","0","5d10fe33fbbf3d001a56d936","","null","","","","","","","learning/Slide127.JPG","null","","","","","",""
"html-keyboard-response","387","469772","0.0-7.0-2.46","LF","5urksolxqo","1536","864","0","1","0","5d10fe33fbbf3d001a56d936","","null","","","learningBlock2","","","","<div style=""font-size:60px;""> </div>","null","LF","learning/Slide127.JPG","This is a dep:","","",""
"html-keyboard-response","388","470774","0.0-7.0-0.47","LF","5urksolxqo","1536","864","0","1","0","5d10fe33fbbf3d001a56d936","","null","","","learningBlock2","","","","This is a wug:","null","","","","","",""
"image-keyboard-response","389","471101","0.0-7.0-1.47","LF","5urksolxqo","1536","864","0","1","0","5d10fe33fbbf3d001a56d936","","null","","","","","","","learning/Slide128.JPG","null","","","","","",""
"html-keyboard-response","390","472118","0.0-7.0-2.47","LF","5urksolxqo","1536","864","0","1","0","5d10fe33fbbf3d001a56d936","","null","","","learningBlock2","","","","<div style=""font-size:60px;""> </div>","null","LF","learning/Slide128.JPG","This is a wug:","","",""
"html-keyboard-response","391","473135","0.0-7.0-0.48","LF","5urksolxqo","1536","864","0","1","0","5d10fe33fbbf3d001a56d936","","null","","","learningBlock2","","","","This is a tob:","null","","","","","",""
"image-keyboard-response","392","473480","0.0-7.0-1.48","LF","5urksolxqo","1536","864","0","1","0","5d10fe33fbbf3d001a56d936","","null","","","","","","","learning/Slide129.JPG","null","","","","","",""
"html-keyboard-response","393","474491","0.0-7.0-2.48","LF","5urksolxqo","1536","864","0","1","0","5d10fe33fbbf3d001a56d936","","null","","","learningBlock2","","","","<div style=""font-size:60px;""> </div>","null","LF","learning/Slide129.JPG","This is a tob:","","",""
"html-keyboard-response","394","475499","0.0-7.0-0.49","LF","5urksolxqo","1536","864","0","1","0","5d10fe33fbbf3d001a56d936","","null","","","learningBlock2","","","","This is a wug:","null","","","","","",""
"image-keyboard-response","395","475840","0.0-7.0-1.49","LF","5urksolxqo","1536","864","0","1","0","5d10fe33fbbf3d001a56d936","","null","","","","","","","learning/Slide130.JPG","null","","","","","",""
"html-keyboard-response","396","476855","0.0-7.0-2.49","LF","5urksolxqo","1536","864","0","1","0","5d10fe33fbbf3d001a56d936","","null","","","learningBlock2","","","","<div style=""font-size:60px;""> </div>","null","LF","learning/Slide130.JPG","This is a wug:","","",""
"html-keyboard-response","397","477856","0.0-7.0-0.50","LF","5urksolxqo","1536","864","0","1","0","5d10fe33fbbf3d001a56d936","","null","","","learningBlock2","","","","This is a bim:","null","","","","","",""
"image-keyboard-response","398","478185","0.0-7.0-1.50","LF","5urksolxqo","1536","864","0","1","0","5d10fe33fbbf3d001a56d936","","null","","","","","","","learning/Slide131.JPG","null","","","","","",""
"html-keyboard-response","399","479186","0.0-7.0-2.50","LF","5urksolxqo","1536","864","0","1","0","5d10fe33fbbf3d001a56d936","","null","","","learningBlock2","","","","<div style=""font-size:60px;""> </div>","null","LF","learning/Slide131.JPG","This is a bim:","","",""
"html-keyboard-response","400","480199","0.0-7.0-0.51","LF","5urksolxqo","1536","864","0","1","0","5d10fe33fbbf3d001a56d936","","null","","","learningBlock2","","","","This is a dep:","null","","","","","",""
"image-keyboard-response","401","480542","0.0-7.0-1.51","LF","5urksolxqo","1536","864","0","1","0","5d10fe33fbbf3d001a56d936","","null","","","","","","","learning/Slide132.JPG","null","","","","","",""
"html-keyboard-response","402","481544","0.0-7.0-2.51","LF","5urksolxqo","1536","864","0","1","0","5d10fe33fbbf3d001a56d936","","null","","","learningBlock2","","","","<div style=""font-size:60px;""> </div>","null","LF","learning/Slide132.JPG","This is a dep:","","",""
"html-keyboard-response","403","482545","0.0-7.0-0.52","LF","5urksolxqo","1536","864","0","1","0","5d10fe33fbbf3d001a56d936","","null","","","learningBlock2","","","","This is a tob:","null","","","","","",""
"image-keyboard-response","404","482892","0.0-7.0-1.52","LF","5urksolxqo","1536","864","0","1","0","5d10fe33fbbf3d001a56d936","","null","","","","","","","learning/Slide133.JPG","null","","","","","",""
"html-keyboard-response","405","483894","0.0-7.0-2.52","LF","5urksolxqo","1536","864","0","1","0","5d10fe33fbbf3d001a56d936","","null","","","learningBlock2","","","","<div style=""font-size:60px;""> </div>","null","LF","learning/Slide133.JPG","This is a tob:","","",""
"html-keyboard-response","406","484909","0.0-7.0-0.53","LF","5urksolxqo","1536","864","0","1","0","5d10fe33fbbf3d001a56d936","","null","","","learningBlock2","","","","This is a dep:","null","","","","","",""
"image-keyboard-response","407","485247","0.0-7.0-1.53","LF","5urksolxqo","1536","864","0","1","0","5d10fe33fbbf3d001a56d936","","null","","","","","","","learning/Slide134.JPG","null","","","","","",""
"html-keyboard-response","408","486249","0.0-7.0-2.53","LF","5urksolxqo","1536","864","0","1","0","5d10fe33fbbf3d001a56d936","","null","","","learningBlock2","","","","<div style=""font-size:60px;""> </div>","null","LF","learning/Slide134.JPG","This is a dep:","","",""
"html-keyboard-response","409","487252","0.0-7.0-0.54","LF","5urksolxqo","1536","864","0","1","0","5d10fe33fbbf3d001a56d936","","null","","","learningBlock2","","","","This is a tob:","null","","","","","",""
"image-keyboard-response","410","487587","0.0-7.0-1.54","LF","5urksolxqo","1536","864","0","1","0","5d10fe33fbbf3d001a56d936","","null","","","","","","","learning/Slide135.JPG","null","","","","","",""
"html-keyboard-response","411","488588","0.0-7.0-2.54","LF","5urksolxqo","1536","864","0","1","0","5d10fe33fbbf3d001a56d936","","null","","","learningBlock2","","","","<div style=""font-size:60px;""> </div>","null","LF","learning/Slide135.JPG","This is a tob:","","",""
"html-keyboard-response","412","489590","0.0-7.0-0.55","LF","5urksolxqo","1536","864","0","1","0","5d10fe33fbbf3d001a56d936","","null","","","learningBlock2","","","","This is a wug:","null","","","","","",""
"image-keyboard-response","413","489917","0.0-7.0-1.55","LF","5urksolxqo","1536","864","0","1","0","5d10fe33fbbf3d001a56d936","","null","","","","","","","learning/Slide136.JPG","null","","","","","",""
"html-keyboard-response","414","490919","0.0-7.0-2.55","LF","5urksolxqo","1536","864","0","1","0","5d10fe33fbbf3d001a56d936","","null","","","learningBlock2","","","","<div style=""font-size:60px;""> </div>","null","LF","learning/Slide136.JPG","This is a wug:","","",""
"html-keyboard-response","415","491928","0.0-7.0-0.56","LF","5urksolxqo","1536","864","0","1","0","5d10fe33fbbf3d001a56d936","","null","","","learningBlock2","","","","This is a tob:","null","","","","","",""
"image-keyboard-response","416","492278","0.0-7.0-1.56","LF","5urksolxqo","1536","864","0","1","0","5d10fe33fbbf3d001a56d936","","null","","","","","","","learning/Slide137.JPG","null","","","","","",""
"html-keyboard-response","417","493288","0.0-7.0-2.56","LF","5urksolxqo","1536","864","0","1","0","5d10fe33fbbf3d001a56d936","","null","","","learningBlock2","","","","<div style=""font-size:60px;""> </div>","null","LF","learning/Slide137.JPG","This is a tob:","","",""
"html-keyboard-response","418","494303","0.0-7.0-0.57","LF","5urksolxqo","1536","864","0","1","0","5d10fe33fbbf3d001a56d936","","null","","","learningBlock2","","","","This is a bim:","null","","","","","",""
"image-keyboard-response","419","494643","0.0-7.0-1.57","LF","5urksolxqo","1536","864","0","1","0","5d10fe33fbbf3d001a56d936","","null","","","","","","","learning/Slide138.JPG","null","","","","","",""
"html-keyboard-response","420","495646","0.0-7.0-2.57","LF","5urksolxqo","1536","864","0","1","0","5d10fe33fbbf3d001a56d936","","null","","","learningBlock2","","","","<div style=""font-size:60px;""> </div>","null","LF","learning/Slide138.JPG","This is a bim:","","",""
"html-keyboard-response","421","496662","0.0-7.0-0.58","LF","5urksolxqo","1536","864","0","1","0","5d10fe33fbbf3d001a56d936","","null","","","learningBlock2","","","","This is a wug:","null","","","","","",""
"image-keyboard-response","422","497009","0.0-7.0-1.58","LF","5urksolxqo","1536","864","0","1","0","5d10fe33fbbf3d001a56d936","","null","","","","","","","learning/Slide139.JPG","null","","","","","",""
"html-keyboard-response","423","498012","0.0-7.0-2.58","LF","5urksolxqo","1536","864","0","1","0","5d10fe33fbbf3d001a56d936","","null","","","learningBlock2","","","","<div style=""font-size:60px;""> </div>","null","LF","learning/Slide139.JPG","This is a wug:","","",""
"html-keyboard-response","424","499014","0.0-7.0-0.59","LF","5urksolxqo","1536","864","0","1","0","5d10fe33fbbf3d001a56d936","","null","","","learningBlock2","","","","This is a dep:","null","","","","","",""
"image-keyboard-response","425","499340","0.0-7.0-1.59","LF","5urksolxqo","1536","864","0","1","0","5d10fe33fbbf3d001a56d936","","null","","","","","","","learning/Slide140.JPG","null","","","","","",""
"html-keyboard-response","426","500342","0.0-7.0-2.59","LF","5urksolxqo","1536","864","0","1","0","5d10fe33fbbf3d001a56d936","","null","","","learningBlock2","","","","<div style=""font-size:60px;""> </div>","null","LF","learning/Slide140.JPG","This is a dep:","","",""
"html-keyboard-response","427","501344","0.0-7.0-0.60","LF","5urksolxqo","1536","864","0","1","0","5d10fe33fbbf3d001a56d936","","null","","","learningBlock2","","","","This is a tob:","null","","","","","",""
"image-keyboard-response","428","501671","0.0-7.0-1.60","LF","5urksolxqo","1536","864","0","1","0","5d10fe33fbbf3d001a56d936","","null","","","","","","","learning/Slide141.JPG","null","","","","","",""
"html-keyboard-response","429","502672","0.0-7.0-2.60","LF","5urksolxqo","1536","864","0","1","0","5d10fe33fbbf3d001a56d936","","null","","","learningBlock2","","","","<div style=""font-size:60px;""> </div>","null","LF","learning/Slide141.JPG","This is a tob:","","",""
"html-keyboard-response","430","503674","0.0-7.0-0.61","LF","5urksolxqo","1536","864","0","1","0","5d10fe33fbbf3d001a56d936","","null","","","learningBlock2","","","","This is a wug:","null","","","","","",""
"image-keyboard-response","431","504002","0.0-7.0-1.61","LF","5urksolxqo","1536","864","0","1","0","5d10fe33fbbf3d001a56d936","","null","","","","","","","learning/Slide142.JPG","null","","","","","",""
"html-keyboard-response","432","505004","0.0-7.0-2.61","LF","5urksolxqo","1536","864","0","1","0","5d10fe33fbbf3d001a56d936","","null","","","learningBlock2","","","","<div style=""font-size:60px;""> </div>","null","LF","learning/Slide142.JPG","This is a wug:","","",""
"html-keyboard-response","433","506005","0.0-7.0-0.62","LF","5urksolxqo","1536","864","0","1","0","5d10fe33fbbf3d001a56d936","","null","","","learningBlock2","","","","This is a bim:","null","","","","","",""
"image-keyboard-response","434","506332","0.0-7.0-1.62","LF","5urksolxqo","1536","864","0","1","0","5d10fe33fbbf3d001a56d936","","null","","","","","","","learning/Slide143.JPG","null","","","","","",""
"html-keyboard-response","435","507334","0.0-7.0-2.62","LF","5urksolxqo","1536","864","0","1","0","5d10fe33fbbf3d001a56d936","","null","","","learningBlock2","","","","<div style=""font-size:60px;""> </div>","null","LF","learning/Slide143.JPG","This is a bim:","","",""
"html-keyboard-response","436","508337","0.0-7.0-0.63","LF","5urksolxqo","1536","864","0","1","0","5d10fe33fbbf3d001a56d936","","null","","","learningBlock2","","","","This is a dep:","null","","","","","",""
"image-keyboard-response","437","508664","0.0-7.0-1.63","LF","5urksolxqo","1536","864","0","1","0","5d10fe33fbbf3d001a56d936","","null","","","","","","","learning/Slide144.JPG","null","","","","","",""
