"trial_type","trial_index","time_elapsed","internal_node_id","condition","subject","screen_width","screen_height","attention","distraction","conscientious","prolificID","success","rt","url","view_history","test_part","final_height_px","final_width_px","scale_factor","stimulus","key_press","learningType","presentedImage","presentedLabel","button_pressed","response","responses"
"pavlovia","0","21","0.0-0.0","LF","823tgxfuz7","1920","1080","0","0","0","5f632ea32e85353d93872c67","","","","","","","","","","","","","","","",""
"fullscreen","1","31766","0.0-1.0","LF","823tgxfuz7","1920","1080","0","0","0","5f632ea32e85353d93872c67","true","","","","","","","","","","","","","","",""
"external-html","2","90077","0.0-2.0-0.0","LF","823tgxfuz7","1920","1080","0","0","0","5f632ea32e85353d93872c67","","58251.04999999894","text/information_english.html","","","","","","","","","","","","",""
"external-html","3","96965","0.0-2.0-1.0","LF","823tgxfuz7","1920","1080","0","0","0","5f632ea32e85353d93872c67","","6833.2550000013725","text/consent_english.html","","","","","","","","","","","","",""
"instructions","4","111061","0.0-3.0","LF","823tgxfuz7","1920","1080","0","0","0","5f632ea32e85353d93872c67","","NA","","[{""page_index"":0,""viewing_time"":3428.6449999999604},{""page_index"":1,""viewing_time"":10663.985000002867}]","instructions","","","","","","","","","","",""
"resize","5","142597","0.0-4.0","LF","823tgxfuz7","1920","1080","0","0","0","5f632ea32e85353d93872c67","","","","","","","394","2.5015873015873016","","","","","","","",""
"html-keyboard-response","6","143600","0.0-5.0-0.0","LF","823tgxfuz7","1920","1080","0","0","0","5f632ea32e85353d93872c67","","null","","","learningBlock1","","","","This is a tob:","null","","","","","",""
"image-keyboard-response","7","143927","0.0-5.0-1.0","LF","823tgxfuz7","1920","1080","0","0","0","5f632ea32e85353d93872c67","","null","","","","","","","learning/Slide1.JPG","null","","","","","",""
"html-keyboard-response","8","144930","0.0-5.0-2.0","LF","823tgxfuz7","1920","1080","0","0","0","5f632ea32e85353d93872c67","","null","","","learningBlock1","","","","<div style=""font-size:60px;""> </div>","null","LF","learning/Slide1.JPG","This is a tob:","","",""
"html-keyboard-response","9","145932","0.0-5.0-0.1","LF","823tgxfuz7","1920","1080","0","0","0","5f632ea32e85353d93872c67","","null","","","learningBlock1","","","","This is a wug:","null","","","","","",""
"image-keyboard-response","10","146260","0.0-5.0-1.1","LF","823tgxfuz7","1920","1080","0","0","0","5f632ea32e85353d93872c67","","null","","","","","","","learning/Slide2.JPG","null","","","","","",""
"html-keyboard-response","11","147261","0.0-5.0-2.1","LF","823tgxfuz7","1920","1080","0","0","0","5f632ea32e85353d93872c67","","null","","","learningBlock1","","","","<div style=""font-size:60px;""> </div>","null","LF","learning/Slide2.JPG","This is a wug:","","",""
"html-keyboard-response","12","148264","0.0-5.0-0.2","LF","823tgxfuz7","1920","1080","0","0","0","5f632ea32e85353d93872c67","","null","","","learningBlock1","","","","This is a bim:","null","","","","","",""
"image-keyboard-response","13","148592","0.0-5.0-1.2","LF","823tgxfuz7","1920","1080","0","0","0","5f632ea32e85353d93872c67","","null","","","","","","","learning/Slide3.JPG","null","","","","","",""
"html-keyboard-response","14","149596","0.0-5.0-2.2","LF","823tgxfuz7","1920","1080","0","0","0","5f632ea32e85353d93872c67","","null","","","learningBlock1","","","","<div style=""font-size:60px;""> </div>","null","LF","learning/Slide3.JPG","This is a bim:","","",""
"html-keyboard-response","15","150598","0.0-5.0-0.3","LF","823tgxfuz7","1920","1080","0","0","0","5f632ea32e85353d93872c67","","null","","","learningBlock1","","","","This is a dep:","null","","","","","",""
"image-keyboard-response","16","150926","0.0-5.0-1.3","LF","823tgxfuz7","1920","1080","0","0","0","5f632ea32e85353d93872c67","","null","","","","","","","learning/Slide4.JPG","null","","","","","",""
"html-keyboard-response","17","151929","0.0-5.0-2.3","LF","823tgxfuz7","1920","1080","0","0","0","5f632ea32e85353d93872c67","","null","","","learningBlock1","","","","<div style=""font-size:60px;""> </div>","null","LF","learning/Slide4.JPG","This is a dep:","","",""
"html-keyboard-response","18","152931","0.0-5.0-0.4","LF","823tgxfuz7","1920","1080","0","0","0","5f632ea32e85353d93872c67","","null","","","learningBlock1","","","","This is a wug:","null","","","","","",""
"image-keyboard-response","19","153259","0.0-5.0-1.4","LF","823tgxfuz7","1920","1080","0","0","0","5f632ea32e85353d93872c67","","null","","","","","","","learning/Slide5.JPG","null","","","","","",""
"html-keyboard-response","20","154263","0.0-5.0-2.4","LF","823tgxfuz7","1920","1080","0","0","0","5f632ea32e85353d93872c67","","null","","","learningBlock1","","","","<div style=""font-size:60px;""> </div>","null","LF","learning/Slide5.JPG","This is a wug:","","",""
"html-keyboard-response","21","155265","0.0-5.0-0.5","LF","823tgxfuz7","1920","1080","0","0","0","5f632ea32e85353d93872c67","","null","","","learningBlock1","","","","This is a dep:","null","","","","","",""
"image-keyboard-response","22","155593","0.0-5.0-1.5","LF","823tgxfuz7","1920","1080","0","0","0","5f632ea32e85353d93872c67","","null","","","","","","","learning/Slide6.JPG","null","","","","","",""
"html-keyboard-response","23","156596","0.0-5.0-2.5","LF","823tgxfuz7","1920","1080","0","0","0","5f632ea32e85353d93872c67","","null","","","learningBlock1","","","","<div style=""font-size:60px;""> </div>","null","LF","learning/Slide6.JPG","This is a dep:","","",""
"html-keyboard-response","24","157599","0.0-5.0-0.6","LF","823tgxfuz7","1920","1080","0","0","0","5f632ea32e85353d93872c67","","null","","","learningBlock1","","","","This is a wug:","null","","","","","",""
"image-keyboard-response","25","157927","0.0-5.0-1.6","LF","823tgxfuz7","1920","1080","0","0","0","5f632ea32e85353d93872c67","","null","","","","","","","learning/Slide7.JPG","null","","","","","",""
"html-keyboard-response","26","158928","0.0-5.0-2.6","LF","823tgxfuz7","1920","1080","0","0","0","5f632ea32e85353d93872c67","","null","","","learningBlock1","","","","<div style=""font-size:60px;""> </div>","null","LF","learning/Slide7.JPG","This is a wug:","","",""
"html-keyboard-response","27","159931","0.0-5.0-0.7","LF","823tgxfuz7","1920","1080","0","0","0","5f632ea32e85353d93872c67","","null","","","learningBlock1","","","","This is a bim:","null","","","","","",""
"image-keyboard-response","28","160259","0.0-5.0-1.7","LF","823tgxfuz7","1920","1080","0","0","0","5f632ea32e85353d93872c67","","null","","","","","","","learning/Slide8.JPG","null","","","","","",""
"html-keyboard-response","29","161261","0.0-5.0-2.7","LF","823tgxfuz7","1920","1080","0","0","0","5f632ea32e85353d93872c67","","null","","","learningBlock1","","","","<div style=""font-size:60px;""> </div>","null","LF","learning/Slide8.JPG","This is a bim:","","",""
"html-keyboard-response","30","162264","0.0-5.0-0.8","LF","823tgxfuz7","1920","1080","0","0","0","5f632ea32e85353d93872c67","","null","","","learningBlock1","","","","This is a wug:","null","","","","","",""
"image-keyboard-response","31","162592","0.0-5.0-1.8","LF","823tgxfuz7","1920","1080","0","0","0","5f632ea32e85353d93872c67","","null","","","","","","","learning/Slide9.JPG","null","","","","","",""
"html-keyboard-response","32","163595","0.0-5.0-2.8","LF","823tgxfuz7","1920","1080","0","0","0","5f632ea32e85353d93872c67","","null","","","learningBlock1","","","","<div style=""font-size:60px;""> </div>","null","LF","learning/Slide9.JPG","This is a wug:","","",""
"html-keyboard-response","33","164596","0.0-5.0-0.9","LF","823tgxfuz7","1920","1080","0","0","0","5f632ea32e85353d93872c67","","null","","","learningBlock1","","","","This is a dep:","null","","","","","",""
"image-keyboard-response","34","164923","0.0-5.0-1.9","LF","823tgxfuz7","1920","1080","0","0","0","5f632ea32e85353d93872c67","","null","","","","","","","learning/Slide10.JPG","null","","","","","",""
"html-keyboard-response","35","165925","0.0-5.0-2.9","LF","823tgxfuz7","1920","1080","0","0","0","5f632ea32e85353d93872c67","","null","","","learningBlock1","","","","<div style=""font-size:60px;""> </div>","null","LF","learning/Slide10.JPG","This is a dep:","","",""
"html-keyboard-response","36","166928","0.0-5.0-0.10","LF","823tgxfuz7","1920","1080","0","0","0","5f632ea32e85353d93872c67","","null","","","learningBlock1","","","","This is a tob:","null","","","","","",""
"image-keyboard-response","37","167255","0.0-5.0-1.10","LF","823tgxfuz7","1920","1080","0","0","0","5f632ea32e85353d93872c67","","null","","","","","","","learning/Slide11.JPG","null","","","","","",""
"html-keyboard-response","38","168256","0.0-5.0-2.10","LF","823tgxfuz7","1920","1080","0","0","0","5f632ea32e85353d93872c67","","null","","","learningBlock1","","","","<div style=""font-size:60px;""> </div>","null","LF","learning/Slide11.JPG","This is a tob:","","",""
"html-keyboard-response","39","169258","0.0-5.0-0.11","LF","823tgxfuz7","1920","1080","0","0","0","5f632ea32e85353d93872c67","","null","","","learningBlock1","","","","This is a dep:","null","","","","","",""
"image-keyboard-response","40","169587","0.0-5.0-1.11","LF","823tgxfuz7","1920","1080","0","0","0","5f632ea32e85353d93872c67","","null","","","","","","","learning/Slide12.JPG","null","","","","","",""
"html-keyboard-response","41","170588","0.0-5.0-2.11","LF","823tgxfuz7","1920","1080","0","0","0","5f632ea32e85353d93872c67","","null","","","learningBlock1","","","","<div style=""font-size:60px;""> </div>","null","LF","learning/Slide12.JPG","This is a dep:","","",""
"html-keyboard-response","42","171589","0.0-5.0-0.12","LF","823tgxfuz7","1920","1080","0","0","0","5f632ea32e85353d93872c67","","null","","","learningBlock1","","","","This is a bim:","null","","","","","",""
"image-keyboard-response","43","171918","0.0-5.0-1.12","LF","823tgxfuz7","1920","1080","0","0","0","5f632ea32e85353d93872c67","","null","","","","","","","learning/Slide13.JPG","null","","","","","",""
"html-keyboard-response","44","172920","0.0-5.0-2.12","LF","823tgxfuz7","1920","1080","0","0","0","5f632ea32e85353d93872c67","","null","","","learningBlock1","","","","<div style=""font-size:60px;""> </div>","null","LF","learning/Slide13.JPG","This is a bim:","","",""
"html-keyboard-response","45","173922","0.0-5.0-0.13","LF","823tgxfuz7","1920","1080","0","0","0","5f632ea32e85353d93872c67","","null","","","learningBlock1","","","","This is a wug:","null","","","","","",""
"image-keyboard-response","46","174249","0.0-5.0-1.13","LF","823tgxfuz7","1920","1080","0","0","0","5f632ea32e85353d93872c67","","null","","","","","","","learning/Slide14.JPG","null","","","","","",""
"html-keyboard-response","47","175251","0.0-5.0-2.13","LF","823tgxfuz7","1920","1080","0","0","0","5f632ea32e85353d93872c67","","null","","","learningBlock1","","","","<div style=""font-size:60px;""> </div>","null","LF","learning/Slide14.JPG","This is a wug:","","",""
"html-keyboard-response","48","176254","0.0-5.0-0.14","LF","823tgxfuz7","1920","1080","0","0","0","5f632ea32e85353d93872c67","","null","","","learningBlock1","","","","This is a tob:","null","","","","","",""
"image-keyboard-response","49","176583","0.0-5.0-1.14","LF","823tgxfuz7","1920","1080","0","0","0","5f632ea32e85353d93872c67","","null","","","","","","","learning/Slide15.JPG","null","","","","","",""
"html-keyboard-response","50","177587","0.0-5.0-2.14","LF","823tgxfuz7","1920","1080","0","0","0","5f632ea32e85353d93872c67","","null","","","learningBlock1","","","","<div style=""font-size:60px;""> </div>","null","LF","learning/Slide15.JPG","This is a tob:","","",""
"html-keyboard-response","51","178589","0.0-5.0-0.15","LF","823tgxfuz7","1920","1080","0","0","0","5f632ea32e85353d93872c67","","null","","","learningBlock1","","","","This is a dep:","null","","","","","",""
"image-keyboard-response","52","178917","0.0-5.0-1.15","LF","823tgxfuz7","1920","1080","0","0","0","5f632ea32e85353d93872c67","","null","","","","","","","learning/Slide16.JPG","null","","","","","",""
"html-keyboard-response","53","179919","0.0-5.0-2.15","LF","823tgxfuz7","1920","1080","0","0","0","5f632ea32e85353d93872c67","","null","","","learningBlock1","","","","<div style=""font-size:60px;""> </div>","null","LF","learning/Slide16.JPG","This is a dep:","","",""
"html-keyboard-response","54","180921","0.0-5.0-0.16","LF","823tgxfuz7","1920","1080","0","0","0","5f632ea32e85353d93872c67","","null","","","learningBlock1","","","","This is a bim:","null","","","","","",""
"image-keyboard-response","55","181249","0.0-5.0-1.16","LF","823tgxfuz7","1920","1080","0","0","0","5f632ea32e85353d93872c67","","null","","","","","","","learning/Slide17.JPG","null","","","","","",""
"html-keyboard-response","56","182250","0.0-5.0-2.16","LF","823tgxfuz7","1920","1080","0","0","0","5f632ea32e85353d93872c67","","null","","","learningBlock1","","","","<div style=""font-size:60px;""> </div>","null","LF","learning/Slide17.JPG","This is a bim:","","",""
"html-keyboard-response","57","183253","0.0-5.0-0.17","LF","823tgxfuz7","1920","1080","0","0","0","5f632ea32e85353d93872c67","","null","","","learningBlock1","","","","This is a tob:","null","","","","","",""
"image-keyboard-response","58","183582","0.0-5.0-1.17","LF","823tgxfuz7","1920","1080","0","0","0","5f632ea32e85353d93872c67","","null","","","","","","","learning/Slide18.JPG","null","","","","","",""
"html-keyboard-response","59","184583","0.0-5.0-2.17","LF","823tgxfuz7","1920","1080","0","0","0","5f632ea32e85353d93872c67","","null","","","learningBlock1","","","","<div style=""font-size:60px;""> </div>","null","LF","learning/Slide18.JPG","This is a tob:","","",""
"html-keyboard-response","60","185585","0.0-5.0-0.18","LF","823tgxfuz7","1920","1080","0","0","0","5f632ea32e85353d93872c67","","null","","","learningBlock1","","","","This is a wug:","null","","","","","",""
"image-keyboard-response","61","185915","0.0-5.0-1.18","LF","823tgxfuz7","1920","1080","0","0","0","5f632ea32e85353d93872c67","","null","","","","","","","learning/Slide19.JPG","null","","","","","",""
"html-keyboard-response","62","186918","0.0-5.0-2.18","LF","823tgxfuz7","1920","1080","0","0","0","5f632ea32e85353d93872c67","","null","","","learningBlock1","","","","<div style=""font-size:60px;""> </div>","null","LF","learning/Slide19.JPG","This is a wug:","","",""
"html-keyboard-response","63","187919","0.0-5.0-0.19","LF","823tgxfuz7","1920","1080","0","0","0","5f632ea32e85353d93872c67","","null","","","learningBlock1","","","","This is a bim:","null","","","","","",""
"image-keyboard-response","64","188246","0.0-5.0-1.19","LF","823tgxfuz7","1920","1080","0","0","0","5f632ea32e85353d93872c67","","null","","","","","","","learning/Slide20.JPG","null","","","","","",""
"html-keyboard-response","65","189248","0.0-5.0-2.19","LF","823tgxfuz7","1920","1080","0","0","0","5f632ea32e85353d93872c67","","null","","","learningBlock1","","","","<div style=""font-size:60px;""> </div>","null","LF","learning/Slide20.JPG","This is a bim:","","",""
"html-keyboard-response","66","190250","0.0-5.0-0.20","LF","823tgxfuz7","1920","1080","0","0","0","5f632ea32e85353d93872c67","","null","","","learningBlock1","","","","This is a dep:","null","","","","","",""
"image-keyboard-response","67","190578","0.0-5.0-1.20","LF","823tgxfuz7","1920","1080","0","0","0","5f632ea32e85353d93872c67","","null","","","","","","","learning/Slide21.JPG","null","","","","","",""
"html-keyboard-response","68","191580","0.0-5.0-2.20","LF","823tgxfuz7","1920","1080","0","0","0","5f632ea32e85353d93872c67","","null","","","learningBlock1","","","","<div style=""font-size:60px;""> </div>","null","LF","learning/Slide21.JPG","This is a dep:","","",""
"html-keyboard-response","69","192584","0.0-5.0-0.21","LF","823tgxfuz7","1920","1080","0","0","0","5f632ea32e85353d93872c67","","null","","","learningBlock1","","","","This is a bim:","null","","","","","",""
"image-keyboard-response","70","192912","0.0-5.0-1.21","LF","823tgxfuz7","1920","1080","0","0","0","5f632ea32e85353d93872c67","","null","","","","","","","learning/Slide22.JPG","null","","","","","",""
"html-keyboard-response","71","193914","0.0-5.0-2.21","LF","823tgxfuz7","1920","1080","0","0","0","5f632ea32e85353d93872c67","","null","","","learningBlock1","","","","<div style=""font-size:60px;""> </div>","null","LF","learning/Slide22.JPG","This is a bim:","","",""
"html-keyboard-response","72","194916","0.0-5.0-0.22","LF","823tgxfuz7","1920","1080","0","0","0","5f632ea32e85353d93872c67","","null","","","learningBlock1","","","","This is a tob:","null","","","","","",""
"image-keyboard-response","73","195245","0.0-5.0-1.22","LF","823tgxfuz7","1920","1080","0","0","0","5f632ea32e85353d93872c67","","null","","","","","","","learning/Slide23.JPG","null","","","","","",""
"html-keyboard-response","74","196247","0.0-5.0-2.22","LF","823tgxfuz7","1920","1080","0","0","0","5f632ea32e85353d93872c67","","null","","","learningBlock1","","","","<div style=""font-size:60px;""> </div>","null","LF","learning/Slide23.JPG","This is a tob:","","",""
"html-keyboard-response","75","197249","0.0-5.0-0.23","LF","823tgxfuz7","1920","1080","0","0","0","5f632ea32e85353d93872c67","","null","","","learningBlock1","","","","This is a wug:","null","","","","","",""
"image-keyboard-response","76","197577","0.0-5.0-1.23","LF","823tgxfuz7","1920","1080","0","0","0","5f632ea32e85353d93872c67","","null","","","","","","","learning/Slide24.JPG","null","","","","","",""
"html-keyboard-response","77","198579","0.0-5.0-2.23","LF","823tgxfuz7","1920","1080","0","0","0","5f632ea32e85353d93872c67","","null","","","learningBlock1","","","","<div style=""font-size:60px;""> </div>","null","LF","learning/Slide24.JPG","This is a wug:","","",""
"html-keyboard-response","78","199581","0.0-5.0-0.24","LF","823tgxfuz7","1920","1080","0","0","0","5f632ea32e85353d93872c67","","null","","","learningBlock1","","","","This is a dep:","null","","","","","",""
"image-keyboard-response","79","199909","0.0-5.0-1.24","LF","823tgxfuz7","1920","1080","0","0","0","5f632ea32e85353d93872c67","","null","","","","","","","learning/Slide25.JPG","null","","","","","",""
"html-keyboard-response","80","200916","0.0-5.0-2.24","LF","823tgxfuz7","1920","1080","0","0","0","5f632ea32e85353d93872c67","","null","","","learningBlock1","","","","<div style=""font-size:60px;""> </div>","null","LF","learning/Slide25.JPG","This is a dep:","","",""
"html-keyboard-response","81","201919","0.0-5.0-0.25","LF","823tgxfuz7","1920","1080","0","0","0","5f632ea32e85353d93872c67","","null","","","learningBlock1","","","","This is a wug:","null","","","","","",""
"image-keyboard-response","82","202247","0.0-5.0-1.25","LF","823tgxfuz7","1920","1080","0","0","0","5f632ea32e85353d93872c67","","null","","","","","","","learning/Slide26.JPG","null","","","","","",""
"html-keyboard-response","83","203249","0.0-5.0-2.25","LF","823tgxfuz7","1920","1080","0","0","0","5f632ea32e85353d93872c67","","null","","","learningBlock1","","","","<div style=""font-size:60px;""> </div>","null","LF","learning/Slide26.JPG","This is a wug:","","",""
"html-keyboard-response","84","204250","0.0-5.0-0.26","LF","823tgxfuz7","1920","1080","0","0","0","5f632ea32e85353d93872c67","","null","","","learningBlock1","","","","This is a bim:","null","","","","","",""
"image-keyboard-response","85","204579","0.0-5.0-1.26","LF","823tgxfuz7","1920","1080","0","0","0","5f632ea32e85353d93872c67","","null","","","","","","","learning/Slide27.JPG","null","","","","","",""
"html-keyboard-response","86","205582","0.0-5.0-2.26","LF","823tgxfuz7","1920","1080","0","0","0","5f632ea32e85353d93872c67","","null","","","learningBlock1","","","","<div style=""font-size:60px;""> </div>","null","LF","learning/Slide27.JPG","This is a bim:","","",""
"html-keyboard-response","87","206584","0.0-5.0-0.27","LF","823tgxfuz7","1920","1080","0","0","0","5f632ea32e85353d93872c67","","null","","","learningBlock1","","","","This is a dep:","null","","","","","",""
"image-keyboard-response","88","206915","0.0-5.0-1.27","LF","823tgxfuz7","1920","1080","0","0","0","5f632ea32e85353d93872c67","","null","","","","","","","learning/Slide28.JPG","null","","","","","",""
"html-keyboard-response","89","207916","0.0-5.0-2.27","LF","823tgxfuz7","1920","1080","0","0","0","5f632ea32e85353d93872c67","","null","","","learningBlock1","","","","<div style=""font-size:60px;""> </div>","null","LF","learning/Slide28.JPG","This is a dep:","","",""
"html-keyboard-response","90","208919","0.0-5.0-0.28","LF","823tgxfuz7","1920","1080","0","0","0","5f632ea32e85353d93872c67","","null","","","learningBlock1","","","","This is a tob:","null","","","","","",""
"image-keyboard-response","91","209245","0.0-5.0-1.28","LF","823tgxfuz7","1920","1080","0","0","0","5f632ea32e85353d93872c67","","null","","","","","","","learning/Slide29.JPG","null","","","","","",""
"html-keyboard-response","92","210247","0.0-5.0-2.28","LF","823tgxfuz7","1920","1080","0","0","0","5f632ea32e85353d93872c67","","null","","","learningBlock1","","","","<div style=""font-size:60px;""> </div>","null","LF","learning/Slide29.JPG","This is a tob:","","",""
"html-keyboard-response","93","211250","0.0-5.0-0.29","LF","823tgxfuz7","1920","1080","0","0","0","5f632ea32e85353d93872c67","","null","","","learningBlock1","","","","This is a dep:","null","","","","","",""
"image-keyboard-response","94","211577","0.0-5.0-1.29","LF","823tgxfuz7","1920","1080","0","0","0","5f632ea32e85353d93872c67","","null","","","","","","","learning/Slide30.JPG","null","","","","","",""
"html-keyboard-response","95","212579","0.0-5.0-2.29","LF","823tgxfuz7","1920","1080","0","0","0","5f632ea32e85353d93872c67","","null","","","learningBlock1","","","","<div style=""font-size:60px;""> </div>","null","LF","learning/Slide30.JPG","This is a dep:","","",""
"html-keyboard-response","96","213581","0.0-5.0-0.30","LF","823tgxfuz7","1920","1080","0","0","0","5f632ea32e85353d93872c67","","null","","","learningBlock1","","","","This is a wug:","null","","","","","",""
"image-keyboard-response","97","213907","0.0-5.0-1.30","LF","823tgxfuz7","1920","1080","0","0","0","5f632ea32e85353d93872c67","","null","","","","","","","learning/Slide31.JPG","null","","","","","",""
"html-keyboard-response","98","214909","0.0-5.0-2.30","LF","823tgxfuz7","1920","1080","0","0","0","5f632ea32e85353d93872c67","","null","","","learningBlock1","","","","<div style=""font-size:60px;""> </div>","null","LF","learning/Slide31.JPG","This is a wug:","","",""
"html-keyboard-response","99","215914","0.0-5.0-0.31","LF","823tgxfuz7","1920","1080","0","0","0","5f632ea32e85353d93872c67","","null","","","learningBlock1","","","","This is a tob:","null","","","","","",""
"image-keyboard-response","100","216244","0.0-5.0-1.31","LF","823tgxfuz7","1920","1080","0","0","0","5f632ea32e85353d93872c67","","null","","","","","","","learning/Slide32.JPG","null","","","","","",""
"html-keyboard-response","101","217246","0.0-5.0-2.31","LF","823tgxfuz7","1920","1080","0","0","0","5f632ea32e85353d93872c67","","null","","","learningBlock1","","","","<div style=""font-size:60px;""> </div>","null","LF","learning/Slide32.JPG","This is a tob:","","",""
"html-keyboard-response","102","218248","0.0-5.0-0.32","LF","823tgxfuz7","1920","1080","0","0","0","5f632ea32e85353d93872c67","","null","","","learningBlock1","","","","This is a bim:","null","","","","","",""
"image-keyboard-response","103","218575","0.0-5.0-1.32","LF","823tgxfuz7","1920","1080","0","0","0","5f632ea32e85353d93872c67","","null","","","","","","","learning/Slide33.JPG","null","","","","","",""
"html-keyboard-response","104","219577","0.0-5.0-2.32","LF","823tgxfuz7","1920","1080","0","0","0","5f632ea32e85353d93872c67","","null","","","learningBlock1","","","","<div style=""font-size:60px;""> </div>","null","LF","learning/Slide33.JPG","This is a bim:","","",""
"html-keyboard-response","105","220582","0.0-5.0-0.33","LF","823tgxfuz7","1920","1080","0","0","0","5f632ea32e85353d93872c67","","null","","","learningBlock1","","","","This is a tob:","null","","","","","",""
"image-keyboard-response","106","220909","0.0-5.0-1.33","LF","823tgxfuz7","1920","1080","0","0","0","5f632ea32e85353d93872c67","","null","","","","","","","learning/Slide34.JPG","null","","","","","",""
"html-keyboard-response","107","221911","0.0-5.0-2.33","LF","823tgxfuz7","1920","1080","0","0","0","5f632ea32e85353d93872c67","","null","","","learningBlock1","","","","<div style=""font-size:60px;""> </div>","null","LF","learning/Slide34.JPG","This is a tob:","","",""
"html-keyboard-response","108","222914","0.0-5.0-0.34","LF","823tgxfuz7","1920","1080","0","0","0","5f632ea32e85353d93872c67","","null","","","learningBlock1","","","","This is a bim:","null","","","","","",""
"image-keyboard-response","109","223242","0.0-5.0-1.34","LF","823tgxfuz7","1920","1080","0","0","0","5f632ea32e85353d93872c67","","null","","","","","","","learning/Slide35.JPG","null","","","","","",""
"html-keyboard-response","110","224245","0.0-5.0-2.34","LF","823tgxfuz7","1920","1080","0","0","0","5f632ea32e85353d93872c67","","null","","","learningBlock1","","","","<div style=""font-size:60px;""> </div>","null","LF","learning/Slide35.JPG","This is a bim:","","",""
"html-keyboard-response","111","225247","0.0-5.0-0.35","LF","823tgxfuz7","1920","1080","0","0","0","5f632ea32e85353d93872c67","","null","","","learningBlock1","","","","This is a dep:","null","","","","","",""
"image-keyboard-response","112","225575","0.0-5.0-1.35","LF","823tgxfuz7","1920","1080","0","0","0","5f632ea32e85353d93872c67","","null","","","","","","","learning/Slide36.JPG","null","","","","","",""
"html-keyboard-response","113","226578","0.0-5.0-2.35","LF","823tgxfuz7","1920","1080","0","0","0","5f632ea32e85353d93872c67","","null","","","learningBlock1","","","","<div style=""font-size:60px;""> </div>","null","LF","learning/Slide36.JPG","This is a dep:","","",""
"html-keyboard-response","114","227581","0.0-5.0-0.36","LF","823tgxfuz7","1920","1080","0","0","0","5f632ea32e85353d93872c67","","null","","","learningBlock1","","","","This is a tob:","null","","","","","",""
"image-keyboard-response","115","227911","0.0-5.0-1.36","LF","823tgxfuz7","1920","1080","0","0","0","5f632ea32e85353d93872c67","","null","","","","","","","learning/Slide37.JPG","null","","","","","",""
"html-keyboard-response","116","228914","0.0-5.0-2.36","LF","823tgxfuz7","1920","1080","0","0","0","5f632ea32e85353d93872c67","","null","","","learningBlock1","","","","<div style=""font-size:60px;""> </div>","null","LF","learning/Slide37.JPG","This is a tob:","","",""
"html-keyboard-response","117","229917","0.0-5.0-0.37","LF","823tgxfuz7","1920","1080","0","0","0","5f632ea32e85353d93872c67","","null","","","learningBlock1","","","","This is a wug:","null","","","","","",""
"image-keyboard-response","118","230244","0.0-5.0-1.37","LF","823tgxfuz7","1920","1080","0","0","0","5f632ea32e85353d93872c67","","null","","","","","","","learning/Slide38.JPG","null","","","","","",""
"html-keyboard-response","119","231247","0.0-5.0-2.37","LF","823tgxfuz7","1920","1080","0","0","0","5f632ea32e85353d93872c67","","null","","","learningBlock1","","","","<div style=""font-size:60px;""> </div>","null","LF","learning/Slide38.JPG","This is a wug:","","",""
"html-keyboard-response","120","232250","0.0-5.0-0.38","LF","823tgxfuz7","1920","1080","0","0","0","5f632ea32e85353d93872c67","","null","","","learningBlock1","","","","This is a bim:","null","","","","","",""
"image-keyboard-response","121","232577","0.0-5.0-1.38","LF","823tgxfuz7","1920","1080","0","0","0","5f632ea32e85353d93872c67","","null","","","","","","","learning/Slide39.JPG","null","","","","","",""
"html-keyboard-response","122","233582","0.0-5.0-2.38","LF","823tgxfuz7","1920","1080","0","0","0","5f632ea32e85353d93872c67","","null","","","learningBlock1","","","","<div style=""font-size:60px;""> </div>","null","LF","learning/Slide39.JPG","This is a bim:","","",""
"html-keyboard-response","123","234584","0.0-5.0-0.39","LF","823tgxfuz7","1920","1080","0","0","0","5f632ea32e85353d93872c67","","null","","","learningBlock1","","","","This is a tob:","null","","","","","",""
"image-keyboard-response","124","234912","0.0-5.0-1.39","LF","823tgxfuz7","1920","1080","0","0","0","5f632ea32e85353d93872c67","","null","","","","","","","learning/Slide40.JPG","null","","","","","",""
"html-keyboard-response","125","235914","0.0-5.0-2.39","LF","823tgxfuz7","1920","1080","0","0","0","5f632ea32e85353d93872c67","","null","","","learningBlock1","","","","<div style=""font-size:60px;""> </div>","null","LF","learning/Slide40.JPG","This is a tob:","","",""
"html-keyboard-response","126","236917","0.0-5.0-0.40","LF","823tgxfuz7","1920","1080","0","0","0","5f632ea32e85353d93872c67","","null","","","learningBlock1","","","","This is a bim:","null","","","","","",""
"image-keyboard-response","127","237244","0.0-5.0-1.40","LF","823tgxfuz7","1920","1080","0","0","0","5f632ea32e85353d93872c67","","null","","","","","","","learning/Slide41.JPG","null","","","","","",""
"html-keyboard-response","128","238248","0.0-5.0-2.40","LF","823tgxfuz7","1920","1080","0","0","0","5f632ea32e85353d93872c67","","null","","","learningBlock1","","","","<div style=""font-size:60px;""> </div>","null","LF","learning/Slide41.JPG","This is a bim:","","",""
"html-keyboard-response","129","239249","0.0-5.0-0.41","LF","823tgxfuz7","1920","1080","0","0","0","5f632ea32e85353d93872c67","","null","","","learningBlock1","","","","This is a dep:","null","","","","","",""
"image-keyboard-response","130","239578","0.0-5.0-1.41","LF","823tgxfuz7","1920","1080","0","0","0","5f632ea32e85353d93872c67","","null","","","","","","","learning/Slide42.JPG","null","","","","","",""
"html-keyboard-response","131","240581","0.0-5.0-2.41","LF","823tgxfuz7","1920","1080","0","0","0","5f632ea32e85353d93872c67","","null","","","learningBlock1","","","","<div style=""font-size:60px;""> </div>","null","LF","learning/Slide42.JPG","This is a dep:","","",""
"html-keyboard-response","132","241583","0.0-5.0-0.42","LF","823tgxfuz7","1920","1080","0","0","0","5f632ea32e85353d93872c67","","null","","","learningBlock1","","","","This is a wug:","null","","","","","",""
"image-keyboard-response","133","241913","0.0-5.0-1.42","LF","823tgxfuz7","1920","1080","0","0","0","5f632ea32e85353d93872c67","","null","","","","","","","learning/Slide43.JPG","null","","","","","",""
"html-keyboard-response","134","242915","0.0-5.0-2.42","LF","823tgxfuz7","1920","1080","0","0","0","5f632ea32e85353d93872c67","","null","","","learningBlock1","","","","<div style=""font-size:60px;""> </div>","null","LF","learning/Slide43.JPG","This is a wug:","","",""
"html-keyboard-response","135","243916","0.0-5.0-0.43","LF","823tgxfuz7","1920","1080","0","0","0","5f632ea32e85353d93872c67","","null","","","learningBlock1","","","","This is a bim:","null","","","","","",""
"image-keyboard-response","136","244244","0.0-5.0-1.43","LF","823tgxfuz7","1920","1080","0","0","0","5f632ea32e85353d93872c67","","null","","","","","","","learning/Slide44.JPG","null","","","","","",""
"html-keyboard-response","137","245245","0.0-5.0-2.43","LF","823tgxfuz7","1920","1080","0","0","0","5f632ea32e85353d93872c67","","null","","","learningBlock1","","","","<div style=""font-size:60px;""> </div>","null","LF","learning/Slide44.JPG","This is a bim:","","",""
"html-keyboard-response","138","246248","0.0-5.0-0.44","LF","823tgxfuz7","1920","1080","0","0","0","5f632ea32e85353d93872c67","","null","","","learningBlock1","","","","This is a wug:","null","","","","","",""
"image-keyboard-response","139","246575","0.0-5.0-1.44","LF","823tgxfuz7","1920","1080","0","0","0","5f632ea32e85353d93872c67","","null","","","","","","","learning/Slide45.JPG","null","","","","","",""
"html-keyboard-response","140","247578","0.0-5.0-2.44","LF","823tgxfuz7","1920","1080","0","0","0","5f632ea32e85353d93872c67","","null","","","learningBlock1","","","","<div style=""font-size:60px;""> </div>","null","LF","learning/Slide45.JPG","This is a wug:","","",""
"html-keyboard-response","141","248581","0.0-5.0-0.45","LF","823tgxfuz7","1920","1080","0","0","0","5f632ea32e85353d93872c67","","null","","","learningBlock1","","","","This is a dep:","null","","","","","",""
"image-keyboard-response","142","248908","0.0-5.0-1.45","LF","823tgxfuz7","1920","1080","0","0","0","5f632ea32e85353d93872c67","","null","","","","","","","learning/Slide46.JPG","null","","","","","",""
"html-keyboard-response","143","249910","0.0-5.0-2.45","LF","823tgxfuz7","1920","1080","0","0","0","5f632ea32e85353d93872c67","","null","","","learningBlock1","","","","<div style=""font-size:60px;""> </div>","null","LF","learning/Slide46.JPG","This is a dep:","","",""
"html-keyboard-response","144","250911","0.0-5.0-0.46","LF","823tgxfuz7","1920","1080","0","0","0","5f632ea32e85353d93872c67","","null","","","learningBlock1","","","","This is a tob:","null","","","","","",""
"image-keyboard-response","145","251239","0.0-5.0-1.46","LF","823tgxfuz7","1920","1080","0","0","0","5f632ea32e85353d93872c67","","null","","","","","","","learning/Slide47.JPG","null","","","","","",""
"html-keyboard-response","146","252240","0.0-5.0-2.46","LF","823tgxfuz7","1920","1080","0","0","0","5f632ea32e85353d93872c67","","null","","","learningBlock1","","","","<div style=""font-size:60px;""> </div>","null","LF","learning/Slide47.JPG","This is a tob:","","",""
"html-keyboard-response","147","253241","0.0-5.0-0.47","LF","823tgxfuz7","1920","1080","0","0","0","5f632ea32e85353d93872c67","","null","","","learningBlock1","","","","This is a bim:","null","","","","","",""
"image-keyboard-response","148","253570","0.0-5.0-1.47","LF","823tgxfuz7","1920","1080","0","0","0","5f632ea32e85353d93872c67","","null","","","","","","","learning/Slide48.JPG","null","","","","","",""
"html-keyboard-response","149","254571","0.0-5.0-2.47","LF","823tgxfuz7","1920","1080","0","0","0","5f632ea32e85353d93872c67","","null","","","learningBlock1","","","","<div style=""font-size:60px;""> </div>","null","LF","learning/Slide48.JPG","This is a bim:","","",""
"html-keyboard-response","150","255573","0.0-5.0-0.48","LF","823tgxfuz7","1920","1080","0","0","0","5f632ea32e85353d93872c67","","null","","","learningBlock1","","","","This is a dep:","null","","","","","",""
"image-keyboard-response","151","255901","0.0-5.0-1.48","LF","823tgxfuz7","1920","1080","0","0","0","5f632ea32e85353d93872c67","","null","","","","","","","learning/Slide49.JPG","null","","","","","",""
"html-keyboard-response","152","256902","0.0-5.0-2.48","LF","823tgxfuz7","1920","1080","0","0","0","5f632ea32e85353d93872c67","","null","","","learningBlock1","","","","<div style=""font-size:60px;""> </div>","null","LF","learning/Slide49.JPG","This is a dep:","","",""
"html-keyboard-response","153","257904","0.0-5.0-0.49","LF","823tgxfuz7","1920","1080","0","0","0","5f632ea32e85353d93872c67","","null","","","learningBlock1","","","","This is a tob:","null","","","","","",""
"image-keyboard-response","154","258233","0.0-5.0-1.49","LF","823tgxfuz7","1920","1080","0","0","0","5f632ea32e85353d93872c67","","null","","","","","","","learning/Slide50.JPG","null","","","","","",""
"html-keyboard-response","155","259235","0.0-5.0-2.49","LF","823tgxfuz7","1920","1080","0","0","0","5f632ea32e85353d93872c67","","null","","","learningBlock1","","","","<div style=""font-size:60px;""> </div>","null","LF","learning/Slide50.JPG","This is a tob:","","",""
"html-keyboard-response","156","260237","0.0-5.0-0.50","LF","823tgxfuz7","1920","1080","0","0","0","5f632ea32e85353d93872c67","","null","","","learningBlock1","","","","This is a bim:","null","","","","","",""
"image-keyboard-response","157","260564","0.0-5.0-1.50","LF","823tgxfuz7","1920","1080","0","0","0","5f632ea32e85353d93872c67","","null","","","","","","","learning/Slide51.JPG","null","","","","","",""
"html-keyboard-response","158","261566","0.0-5.0-2.50","LF","823tgxfuz7","1920","1080","0","0","0","5f632ea32e85353d93872c67","","null","","","learningBlock1","","","","<div style=""font-size:60px;""> </div>","null","LF","learning/Slide51.JPG","This is a bim:","","",""
"html-keyboard-response","159","262568","0.0-5.0-0.51","LF","823tgxfuz7","1920","1080","0","0","0","5f632ea32e85353d93872c67","","null","","","learningBlock1","","","","This is a wug:","null","","","","","",""
"image-keyboard-response","160","262896","0.0-5.0-1.51","LF","823tgxfuz7","1920","1080","0","0","0","5f632ea32e85353d93872c67","","null","","","","","","","learning/Slide52.JPG","null","","","","","",""
"html-keyboard-response","161","263899","0.0-5.0-2.51","LF","823tgxfuz7","1920","1080","0","0","0","5f632ea32e85353d93872c67","","null","","","learningBlock1","","","","<div style=""font-size:60px;""> </div>","null","LF","learning/Slide52.JPG","This is a wug:","","",""
"html-keyboard-response","162","264902","0.0-5.0-0.52","LF","823tgxfuz7","1920","1080","0","0","0","5f632ea32e85353d93872c67","","null","","","learningBlock1","","","","This is a tob:","null","","","","","",""
"image-keyboard-response","163","265229","0.0-5.0-1.52","LF","823tgxfuz7","1920","1080","0","0","0","5f632ea32e85353d93872c67","","null","","","","","","","learning/Slide53.JPG","null","","","","","",""
"html-keyboard-response","164","266231","0.0-5.0-2.52","LF","823tgxfuz7","1920","1080","0","0","0","5f632ea32e85353d93872c67","","null","","","learningBlock1","","","","<div style=""font-size:60px;""> </div>","null","LF","learning/Slide53.JPG","This is a tob:","","",""
"html-keyboard-response","165","267233","0.0-5.0-0.53","LF","823tgxfuz7","1920","1080","0","0","0","5f632ea32e85353d93872c67","","null","","","learningBlock1","","","","This is a dep:","null","","","","","",""
"image-keyboard-response","166","267572","0.0-5.0-1.53","LF","823tgxfuz7","1920","1080","0","0","0","5f632ea32e85353d93872c67","","null","","","","","","","learning/Slide54.JPG","null","","","","","",""
"html-keyboard-response","167","268575","0.0-5.0-2.53","LF","823tgxfuz7","1920","1080","0","0","0","5f632ea32e85353d93872c67","","null","","","learningBlock1","","","","<div style=""font-size:60px;""> </div>","null","LF","learning/Slide54.JPG","This is a dep:","","",""
"html-keyboard-response","168","269576","0.0-5.0-0.54","LF","823tgxfuz7","1920","1080","0","0","0","5f632ea32e85353d93872c67","","null","","","learningBlock1","","","","This is a bim:","null","","","","","",""
"image-keyboard-response","169","269904","0.0-5.0-1.54","LF","823tgxfuz7","1920","1080","0","0","0","5f632ea32e85353d93872c67","","null","","","","","","","learning/Slide55.JPG","null","","","","","",""
"html-keyboard-response","170","270907","0.0-5.0-2.54","LF","823tgxfuz7","1920","1080","0","0","0","5f632ea32e85353d93872c67","","null","","","learningBlock1","","","","<div style=""font-size:60px;""> </div>","null","LF","learning/Slide55.JPG","This is a bim:","","",""
"html-keyboard-response","171","271908","0.0-5.0-0.55","LF","823tgxfuz7","1920","1080","0","0","0","5f632ea32e85353d93872c67","","null","","","learningBlock1","","","","This is a tob:","null","","","","","",""
"image-keyboard-response","172","272235","0.0-5.0-1.55","LF","823tgxfuz7","1920","1080","0","0","0","5f632ea32e85353d93872c67","","null","","","","","","","learning/Slide56.JPG","null","","","","","",""
"html-keyboard-response","173","273237","0.0-5.0-2.55","LF","823tgxfuz7","1920","1080","0","0","0","5f632ea32e85353d93872c67","","null","","","learningBlock1","","","","<div style=""font-size:60px;""> </div>","null","LF","learning/Slide56.JPG","This is a tob:","","",""
"html-keyboard-response","174","274238","0.0-5.0-0.56","LF","823tgxfuz7","1920","1080","0","0","0","5f632ea32e85353d93872c67","","null","","","learningBlock1","","","","This is a dep:","null","","","","","",""
"image-keyboard-response","175","274566","0.0-5.0-1.56","LF","823tgxfuz7","1920","1080","0","0","0","5f632ea32e85353d93872c67","","null","","","","","","","learning/Slide57.JPG","null","","","","","",""
"html-keyboard-response","176","275573","0.0-5.0-2.56","LF","823tgxfuz7","1920","1080","0","0","0","5f632ea32e85353d93872c67","","null","","","learningBlock1","","","","<div style=""font-size:60px;""> </div>","null","LF","learning/Slide57.JPG","This is a dep:","","",""
"html-keyboard-response","177","276575","0.0-5.0-0.57","LF","823tgxfuz7","1920","1080","0","0","0","5f632ea32e85353d93872c67","","null","","","learningBlock1","","","","This is a wug:","null","","","","","",""
"image-keyboard-response","178","276901","0.0-5.0-1.57","LF","823tgxfuz7","1920","1080","0","0","0","5f632ea32e85353d93872c67","","null","","","","","","","learning/Slide58.JPG","null","","","","","",""
"html-keyboard-response","179","277903","0.0-5.0-2.57","LF","823tgxfuz7","1920","1080","0","0","0","5f632ea32e85353d93872c67","","null","","","learningBlock1","","","","<div style=""font-size:60px;""> </div>","null","LF","learning/Slide58.JPG","This is a wug:","","",""
"html-keyboard-response","180","278905","0.0-5.0-0.58","LF","823tgxfuz7","1920","1080","0","0","0","5f632ea32e85353d93872c67","","null","","","learningBlock1","","","","This is a dep:","null","","","","","",""
"image-keyboard-response","181","279234","0.0-5.0-1.58","LF","823tgxfuz7","1920","1080","0","0","0","5f632ea32e85353d93872c67","","null","","","","","","","learning/Slide59.JPG","null","","","","","",""
"html-keyboard-response","182","280235","0.0-5.0-2.58","LF","823tgxfuz7","1920","1080","0","0","0","5f632ea32e85353d93872c67","","null","","","learningBlock1","","","","<div style=""font-size:60px;""> </div>","null","LF","learning/Slide59.JPG","This is a dep:","","",""
"html-keyboard-response","183","281237","0.0-5.0-0.59","LF","823tgxfuz7","1920","1080","0","0","0","5f632ea32e85353d93872c67","","null","","","learningBlock1","","","","This is a wug:","null","","","","","",""
"image-keyboard-response","184","281565","0.0-5.0-1.59","LF","823tgxfuz7","1920","1080","0","0","0","5f632ea32e85353d93872c67","","null","","","","","","","learning/Slide60.JPG","null","","","","","",""
"html-keyboard-response","185","282568","0.0-5.0-2.59","LF","823tgxfuz7","1920","1080","0","0","0","5f632ea32e85353d93872c67","","null","","","learningBlock1","","","","<div style=""font-size:60px;""> </div>","null","LF","learning/Slide60.JPG","This is a wug:","","",""
"html-keyboard-response","186","283570","0.0-5.0-0.60","LF","823tgxfuz7","1920","1080","0","0","0","5f632ea32e85353d93872c67","","null","","","learningBlock1","","","","This is a bim:","null","","","","","",""
"image-keyboard-response","187","283897","0.0-5.0-1.60","LF","823tgxfuz7","1920","1080","0","0","0","5f632ea32e85353d93872c67","","null","","","","","","","learning/Slide61.JPG","null","","","","","",""
"html-keyboard-response","188","284899","0.0-5.0-2.60","LF","823tgxfuz7","1920","1080","0","0","0","5f632ea32e85353d93872c67","","null","","","learningBlock1","","","","<div style=""font-size:60px;""> </div>","null","LF","learning/Slide61.JPG","This is a bim:","","",""
"html-keyboard-response","189","285901","0.0-5.0-0.61","LF","823tgxfuz7","1920","1080","0","0","0","5f632ea32e85353d93872c67","","null","","","learningBlock1","","","","This is a dep:","null","","","","","",""
"image-keyboard-response","190","286228","0.0-5.0-1.61","LF","823tgxfuz7","1920","1080","0","0","0","5f632ea32e85353d93872c67","","null","","","","","","","learning/Slide62.JPG","null","","","","","",""
"html-keyboard-response","191","287229","0.0-5.0-2.61","LF","823tgxfuz7","1920","1080","0","0","0","5f632ea32e85353d93872c67","","null","","","learningBlock1","","","","<div style=""font-size:60px;""> </div>","null","LF","learning/Slide62.JPG","This is a dep:","","",""
"html-keyboard-response","192","288230","0.0-5.0-0.62","LF","823tgxfuz7","1920","1080","0","0","0","5f632ea32e85353d93872c67","","null","","","learningBlock1","","","","This is a bim:","null","","","","","",""
"image-keyboard-response","193","288557","0.0-5.0-1.62","LF","823tgxfuz7","1920","1080","0","0","0","5f632ea32e85353d93872c67","","null","","","","","","","learning/Slide63.JPG","null","","","","","",""
"html-keyboard-response","194","289561","0.0-5.0-2.62","LF","823tgxfuz7","1920","1080","0","0","0","5f632ea32e85353d93872c67","","null","","","learningBlock1","","","","<div style=""font-size:60px;""> </div>","null","LF","learning/Slide63.JPG","This is a bim:","","",""
"html-keyboard-response","195","290563","0.0-5.0-0.63","LF","823tgxfuz7","1920","1080","0","0","0","5f632ea32e85353d93872c67","","null","","","learningBlock1","","","","This is a tob:","null","","","","","",""
"image-keyboard-response","196","290891","0.0-5.0-1.63","LF","823tgxfuz7","1920","1080","0","0","0","5f632ea32e85353d93872c67","","null","","","","","","","learning/Slide64.JPG","null","","","","","",""
"html-keyboard-response","197","291894","0.0-5.0-2.63","LF","823tgxfuz7","1920","1080","0","0","0","5f632ea32e85353d93872c67","","null","","","learningBlock1","","","","<div style=""font-size:60px;""> </div>","null","LF","learning/Slide64.JPG","This is a tob:","","",""
"html-keyboard-response","198","292896","0.0-5.0-0.64","LF","823tgxfuz7","1920","1080","0","0","0","5f632ea32e85353d93872c67","","null","","","learningBlock1","","","","This is a wug:","null","","","","","",""
"image-keyboard-response","199","293224","0.0-5.0-1.64","LF","823tgxfuz7","1920","1080","0","0","0","5f632ea32e85353d93872c67","","null","","","","","","","learning/Slide65.JPG","null","","","","","",""
"html-keyboard-response","200","294226","0.0-5.0-2.64","LF","823tgxfuz7","1920","1080","0","0","0","5f632ea32e85353d93872c67","","null","","","learningBlock1","","","","<div style=""font-size:60px;""> </div>","null","LF","learning/Slide65.JPG","This is a wug:","","",""
"html-keyboard-response","201","295228","0.0-5.0-0.65","LF","823tgxfuz7","1920","1080","0","0","0","5f632ea32e85353d93872c67","","null","","","learningBlock1","","","","This is a dep:","null","","","","","",""
"image-keyboard-response","202","295555","0.0-5.0-1.65","LF","823tgxfuz7","1920","1080","0","0","0","5f632ea32e85353d93872c67","","null","","","","","","","learning/Slide66.JPG","null","","","","","",""
"html-keyboard-response","203","296557","0.0-5.0-2.65","LF","823tgxfuz7","1920","1080","0","0","0","5f632ea32e85353d93872c67","","null","","","learningBlock1","","","","<div style=""font-size:60px;""> </div>","null","LF","learning/Slide66.JPG","This is a dep:","","",""
"html-keyboard-response","204","297558","0.0-5.0-0.66","LF","823tgxfuz7","1920","1080","0","0","0","5f632ea32e85353d93872c67","","null","","","learningBlock1","","","","This is a tob:","null","","","","","",""
"image-keyboard-response","205","297888","0.0-5.0-1.66","LF","823tgxfuz7","1920","1080","0","0","0","5f632ea32e85353d93872c67","","null","","","","","","","learning/Slide67.JPG","null","","","","","",""
"html-keyboard-response","206","298890","0.0-5.0-2.66","LF","823tgxfuz7","1920","1080","0","0","0","5f632ea32e85353d93872c67","","null","","","learningBlock1","","","","<div style=""font-size:60px;""> </div>","null","LF","learning/Slide67.JPG","This is a tob:","","",""
"html-keyboard-response","207","299893","0.0-5.0-0.67","LF","823tgxfuz7","1920","1080","0","0","0","5f632ea32e85353d93872c67","","null","","","learningBlock1","","","","This is a wug:","null","","","","","",""
"image-keyboard-response","208","300221","0.0-5.0-1.67","LF","823tgxfuz7","1920","1080","0","0","0","5f632ea32e85353d93872c67","","null","","","","","","","learning/Slide68.JPG","null","","","","","",""
"html-keyboard-response","209","301222","0.0-5.0-2.67","LF","823tgxfuz7","1920","1080","0","0","0","5f632ea32e85353d93872c67","","null","","","learningBlock1","","","","<div style=""font-size:60px;""> </div>","null","LF","learning/Slide68.JPG","This is a wug:","","",""
"html-keyboard-response","210","302225","0.0-5.0-0.68","LF","823tgxfuz7","1920","1080","0","0","0","5f632ea32e85353d93872c67","","null","","","learningBlock1","","","","This is a tob:","null","","","","","",""
"image-keyboard-response","211","302552","0.0-5.0-1.68","LF","823tgxfuz7","1920","1080","0","0","0","5f632ea32e85353d93872c67","","null","","","","","","","learning/Slide69.JPG","null","","","","","",""
"html-keyboard-response","212","303554","0.0-5.0-2.68","LF","823tgxfuz7","1920","1080","0","0","0","5f632ea32e85353d93872c67","","null","","","learningBlock1","","","","<div style=""font-size:60px;""> </div>","null","LF","learning/Slide69.JPG","This is a tob:","","",""
"html-keyboard-response","213","304556","0.0-5.0-0.69","LF","823tgxfuz7","1920","1080","0","0","0","5f632ea32e85353d93872c67","","null","","","learningBlock1","","","","This is a dep:","null","","","","","",""
"image-keyboard-response","214","304884","0.0-5.0-1.69","LF","823tgxfuz7","1920","1080","0","0","0","5f632ea32e85353d93872c67","","null","","","","","","","learning/Slide70.JPG","null","","","","","",""
"html-keyboard-response","215","305886","0.0-5.0-2.69","LF","823tgxfuz7","1920","1080","0","0","0","5f632ea32e85353d93872c67","","null","","","learningBlock1","","","","<div style=""font-size:60px;""> </div>","null","LF","learning/Slide70.JPG","This is a dep:","","",""
"html-keyboard-response","216","306888","0.0-5.0-0.70","LF","823tgxfuz7","1920","1080","0","0","0","5f632ea32e85353d93872c67","","null","","","learningBlock1","","","","This is a wug:","null","","","","","",""
"image-keyboard-response","217","307215","0.0-5.0-1.70","LF","823tgxfuz7","1920","1080","0","0","0","5f632ea32e85353d93872c67","","null","","","","","","","learning/Slide71.JPG","null","","","","","",""
"html-keyboard-response","218","308217","0.0-5.0-2.70","LF","823tgxfuz7","1920","1080","0","0","0","5f632ea32e85353d93872c67","","null","","","learningBlock1","","","","<div style=""font-size:60px;""> </div>","null","LF","learning/Slide71.JPG","This is a wug:","","",""
"html-keyboard-response","219","309219","0.0-5.0-0.71","LF","823tgxfuz7","1920","1080","0","0","0","5f632ea32e85353d93872c67","","null","","","learningBlock1","","","","This is a bim:","null","","","","","",""
"image-keyboard-response","220","309548","0.0-5.0-1.71","LF","823tgxfuz7","1920","1080","0","0","0","5f632ea32e85353d93872c67","","null","","","","","","","learning/Slide72.JPG","null","","","","","",""
"html-keyboard-response","221","310549","0.0-5.0-2.71","LF","823tgxfuz7","1920","1080","0","0","0","5f632ea32e85353d93872c67","","null","","","learningBlock1","","","","<div style=""font-size:60px;""> </div>","null","LF","learning/Slide72.JPG","This is a bim:","","",""
"html-keyboard-response","222","311551","0.0-5.0-0.72","LF","823tgxfuz7","1920","1080","0","0","0","5f632ea32e85353d93872c67","","null","","","learningBlock1","","","","This is a wug:","null","","","","","",""
"image-keyboard-response","223","311878","0.0-5.0-1.72","LF","823tgxfuz7","1920","1080","0","0","0","5f632ea32e85353d93872c67","","null","","","","","","","learning/Slide73.JPG","null","","","","","",""
"html-keyboard-response","224","312880","0.0-5.0-2.72","LF","823tgxfuz7","1920","1080","0","0","0","5f632ea32e85353d93872c67","","null","","","learningBlock1","","","","<div style=""font-size:60px;""> </div>","null","LF","learning/Slide73.JPG","This is a wug:","","",""
"html-keyboard-response","225","313882","0.0-5.0-0.73","LF","823tgxfuz7","1920","1080","0","0","0","5f632ea32e85353d93872c67","","null","","","learningBlock1","","","","This is a dep:","null","","","","","",""
"image-keyboard-response","226","314211","0.0-5.0-1.73","LF","823tgxfuz7","1920","1080","0","0","0","5f632ea32e85353d93872c67","","null","","","","","","","learning/Slide74.JPG","null","","","","","",""
"html-keyboard-response","227","315214","0.0-5.0-2.73","LF","823tgxfuz7","1920","1080","0","0","0","5f632ea32e85353d93872c67","","null","","","learningBlock1","","","","<div style=""font-size:60px;""> </div>","null","LF","learning/Slide74.JPG","This is a dep:","","",""
"html-keyboard-response","228","316216","0.0-5.0-0.74","LF","823tgxfuz7","1920","1080","0","0","0","5f632ea32e85353d93872c67","","null","","","learningBlock1","","","","This is a tob:","null","","","","","",""
"image-keyboard-response","229","316545","0.0-5.0-1.74","LF","823tgxfuz7","1920","1080","0","0","0","5f632ea32e85353d93872c67","","null","","","","","","","learning/Slide75.JPG","null","","","","","",""
"html-keyboard-response","230","317547","0.0-5.0-2.74","LF","823tgxfuz7","1920","1080","0","0","0","5f632ea32e85353d93872c67","","null","","","learningBlock1","","","","<div style=""font-size:60px;""> </div>","null","LF","learning/Slide75.JPG","This is a tob:","","",""
"html-keyboard-response","231","318548","0.0-5.0-0.75","LF","823tgxfuz7","1920","1080","0","0","0","5f632ea32e85353d93872c67","","null","","","learningBlock1","","","","This is a bim:","null","","","","","",""
"image-keyboard-response","232","318875","0.0-5.0-1.75","LF","823tgxfuz7","1920","1080","0","0","0","5f632ea32e85353d93872c67","","null","","","","","","","learning/Slide76.JPG","null","","","","","",""
"html-keyboard-response","233","319878","0.0-5.0-2.75","LF","823tgxfuz7","1920","1080","0","0","0","5f632ea32e85353d93872c67","","null","","","learningBlock1","","","","<div style=""font-size:60px;""> </div>","null","LF","learning/Slide76.JPG","This is a bim:","","",""
"html-keyboard-response","234","320881","0.0-5.0-0.76","LF","823tgxfuz7","1920","1080","0","0","0","5f632ea32e85353d93872c67","","null","","","learningBlock1","","","","This is a tob:","null","","","","","",""
"image-keyboard-response","235","321207","0.0-5.0-1.76","LF","823tgxfuz7","1920","1080","0","0","0","5f632ea32e85353d93872c67","","null","","","","","","","learning/Slide77.JPG","null","","","","","",""
"html-keyboard-response","236","322211","0.0-5.0-2.76","LF","823tgxfuz7","1920","1080","0","0","0","5f632ea32e85353d93872c67","","null","","","learningBlock1","","","","<div style=""font-size:60px;""> </div>","null","LF","learning/Slide77.JPG","This is a tob:","","",""
"html-keyboard-response","237","323214","0.0-5.0-0.77","LF","823tgxfuz7","1920","1080","0","0","0","5f632ea32e85353d93872c67","","null","","","learningBlock1","","","","This is a wug:","null","","","","","",""
"image-keyboard-response","238","323542","0.0-5.0-1.77","LF","823tgxfuz7","1920","1080","0","0","0","5f632ea32e85353d93872c67","","null","","","","","","","learning/Slide78.JPG","null","","","","","",""
"html-keyboard-response","239","324544","0.0-5.0-2.77","LF","823tgxfuz7","1920","1080","0","0","0","5f632ea32e85353d93872c67","","null","","","learningBlock1","","","","<div style=""font-size:60px;""> </div>","null","LF","learning/Slide78.JPG","This is a wug:","","",""
"html-keyboard-response","240","325545","0.0-5.0-0.78","LF","823tgxfuz7","1920","1080","0","0","0","5f632ea32e85353d93872c67","","null","","","learningBlock1","","","","This is a bim:","null","","","","","",""
"image-keyboard-response","241","325874","0.0-5.0-1.78","LF","823tgxfuz7","1920","1080","0","0","0","5f632ea32e85353d93872c67","","null","","","","","","","learning/Slide79.JPG","null","","","","","",""
"html-keyboard-response","242","326876","0.0-5.0-2.78","LF","823tgxfuz7","1920","1080","0","0","0","5f632ea32e85353d93872c67","","null","","","learningBlock1","","","","<div style=""font-size:60px;""> </div>","null","LF","learning/Slide79.JPG","This is a bim:","","",""
"html-keyboard-response","243","327877","0.0-5.0-0.79","LF","823tgxfuz7","1920","1080","0","0","0","5f632ea32e85353d93872c67","","null","","","learningBlock1","","","","This is a tob:","null","","","","","",""
"image-keyboard-response","244","328205","0.0-5.0-1.79","LF","823tgxfuz7","1920","1080","0","0","0","5f632ea32e85353d93872c67","","null","","","","","","","learning/Slide80.JPG","null","","","","","",""
"html-keyboard-response","245","329208","0.0-5.0-2.79","LF","823tgxfuz7","1920","1080","0","0","0","5f632ea32e85353d93872c67","","null","","","learningBlock1","","","","<div style=""font-size:60px;""> </div>","null","LF","learning/Slide80.JPG","This is a tob:","","",""
"instructions","246","332061","0.0-6.0","LF","823tgxfuz7","1920","1080","0","0","0","5f632ea32e85353d93872c67","","NA","","[{""page_index"":0,""viewing_time"":2851.425000000745}]","instructions","","","","","","","","","","",""
"html-keyboard-response","247","333063","0.0-7.0-0.0","LF","823tgxfuz7","1920","1080","0","0","0","5f632ea32e85353d93872c67","","null","","","learningBlock2","","","","This is a wug:","null","","","","","",""
"image-keyboard-response","248","333391","0.0-7.0-1.0","LF","823tgxfuz7","1920","1080","0","0","0","5f632ea32e85353d93872c67","","null","","","","","","","learning/Slide81.JPG","null","","","","","",""
"html-keyboard-response","249","334392","0.0-7.0-2.0","LF","823tgxfuz7","1920","1080","0","0","0","5f632ea32e85353d93872c67","","null","","","learningBlock2","","","","<div style=""font-size:60px;""> </div>","null","LF","learning/Slide81.JPG","This is a wug:","","",""
"html-keyboard-response","250","335395","0.0-7.0-0.1","LF","823tgxfuz7","1920","1080","0","0","0","5f632ea32e85353d93872c67","","null","","","learningBlock2","","","","This is a bim:","null","","","","","",""
"image-keyboard-response","251","335723","0.0-7.0-1.1","LF","823tgxfuz7","1920","1080","0","0","0","5f632ea32e85353d93872c67","","null","","","","","","","learning/Slide82.JPG","null","","","","","",""
"html-keyboard-response","252","336726","0.0-7.0-2.1","LF","823tgxfuz7","1920","1080","0","0","0","5f632ea32e85353d93872c67","","null","","","learningBlock2","","","","<div style=""font-size:60px;""> </div>","null","LF","learning/Slide82.JPG","This is a bim:","","",""
"html-keyboard-response","253","337728","0.0-7.0-0.2","LF","823tgxfuz7","1920","1080","0","0","0","5f632ea32e85353d93872c67","","null","","","learningBlock2","","","","This is a wug:","null","","","","","",""
"image-keyboard-response","254","338057","0.0-7.0-1.2","LF","823tgxfuz7","1920","1080","0","0","0","5f632ea32e85353d93872c67","","null","","","","","","","learning/Slide83.JPG","null","","","","","",""
"html-keyboard-response","255","339059","0.0-7.0-2.2","LF","823tgxfuz7","1920","1080","0","0","0","5f632ea32e85353d93872c67","","null","","","learningBlock2","","","","<div style=""font-size:60px;""> </div>","null","LF","learning/Slide83.JPG","This is a wug:","","",""
"html-keyboard-response","256","340061","0.0-7.0-0.3","LF","823tgxfuz7","1920","1080","0","0","0","5f632ea32e85353d93872c67","","null","","","learningBlock2","","","","This is a dep:","null","","","","","",""
"image-keyboard-response","257","340389","0.0-7.0-1.3","LF","823tgxfuz7","1920","1080","0","0","0","5f632ea32e85353d93872c67","","null","","","","","","","learning/Slide84.JPG","null","","","","","",""
"html-keyboard-response","258","341391","0.0-7.0-2.3","LF","823tgxfuz7","1920","1080","0","0","0","5f632ea32e85353d93872c67","","null","","","learningBlock2","","","","<div style=""font-size:60px;""> </div>","null","LF","learning/Slide84.JPG","This is a dep:","","",""
"html-keyboard-response","259","342393","0.0-7.0-0.4","LF","823tgxfuz7","1920","1080","0","0","0","5f632ea32e85353d93872c67","","null","","","learningBlock2","","","","This is a bim:","null","","","","","",""
"image-keyboard-response","260","342721","0.0-7.0-1.4","LF","823tgxfuz7","1920","1080","0","0","0","5f632ea32e85353d93872c67","","null","","","","","","","learning/Slide85.JPG","null","","","","","",""
"html-keyboard-response","261","343723","0.0-7.0-2.4","LF","823tgxfuz7","1920","1080","0","0","0","5f632ea32e85353d93872c67","","null","","","learningBlock2","","","","<div style=""font-size:60px;""> </div>","null","LF","learning/Slide85.JPG","This is a bim:","","",""
"html-keyboard-response","262","344726","0.0-7.0-0.5","LF","823tgxfuz7","1920","1080","0","0","0","5f632ea32e85353d93872c67","","null","","","learningBlock2","","","","This is a tob:","null","","","","","",""
"image-keyboard-response","263","345054","0.0-7.0-1.5","LF","823tgxfuz7","1920","1080","0","0","0","5f632ea32e85353d93872c67","","null","","","","","","","learning/Slide86.JPG","null","","","","","",""
"html-keyboard-response","264","346055","0.0-7.0-2.5","LF","823tgxfuz7","1920","1080","0","0","0","5f632ea32e85353d93872c67","","null","","","learningBlock2","","","","<div style=""font-size:60px;""> </div>","null","LF","learning/Slide86.JPG","This is a tob:","","",""
"html-keyboard-response","265","347057","0.0-7.0-0.6","LF","823tgxfuz7","1920","1080","0","0","0","5f632ea32e85353d93872c67","","null","","","learningBlock2","","","","This is a wug:","null","","","","","",""
"image-keyboard-response","266","347385","0.0-7.0-1.6","LF","823tgxfuz7","1920","1080","0","0","0","5f632ea32e85353d93872c67","","null","","","","","","","learning/Slide87.JPG","null","","","","","",""
"html-keyboard-response","267","348387","0.0-7.0-2.6","LF","823tgxfuz7","1920","1080","0","0","0","5f632ea32e85353d93872c67","","null","","","learningBlock2","","","","<div style=""font-size:60px;""> </div>","null","LF","learning/Slide87.JPG","This is a wug:","","",""
"html-keyboard-response","268","349389","0.0-7.0-0.7","LF","823tgxfuz7","1920","1080","0","0","0","5f632ea32e85353d93872c67","","null","","","learningBlock2","","","","This is a tob:","null","","","","","",""
"image-keyboard-response","269","349717","0.0-7.0-1.7","LF","823tgxfuz7","1920","1080","0","0","0","5f632ea32e85353d93872c67","","null","","","","","","","learning/Slide88.JPG","null","","","","","",""
"html-keyboard-response","270","350718","0.0-7.0-2.7","LF","823tgxfuz7","1920","1080","0","0","0","5f632ea32e85353d93872c67","","null","","","learningBlock2","","","","<div style=""font-size:60px;""> </div>","null","LF","learning/Slide88.JPG","This is a tob:","","",""
"html-keyboard-response","271","351721","0.0-7.0-0.8","LF","823tgxfuz7","1920","1080","0","0","0","5f632ea32e85353d93872c67","","null","","","learningBlock2","","","","This is a bim:","null","","","","","",""
"image-keyboard-response","272","352048","0.0-7.0-1.8","LF","823tgxfuz7","1920","1080","0","0","0","5f632ea32e85353d93872c67","","null","","","","","","","learning/Slide89.JPG","null","","","","","",""
"html-keyboard-response","273","353050","0.0-7.0-2.8","LF","823tgxfuz7","1920","1080","0","0","0","5f632ea32e85353d93872c67","","null","","","learningBlock2","","","","<div style=""font-size:60px;""> </div>","null","LF","learning/Slide89.JPG","This is a bim:","","",""
"html-keyboard-response","274","354052","0.0-7.0-0.9","LF","823tgxfuz7","1920","1080","0","0","0","5f632ea32e85353d93872c67","","null","","","learningBlock2","","","","This is a dep:","null","","","","","",""
"image-keyboard-response","275","354380","0.0-7.0-1.9","LF","823tgxfuz7","1920","1080","0","0","0","5f632ea32e85353d93872c67","","null","","","","","","","learning/Slide90.JPG","null","","","","","",""
"html-keyboard-response","276","355386","0.0-7.0-2.9","LF","823tgxfuz7","1920","1080","0","0","0","5f632ea32e85353d93872c67","","null","","","learningBlock2","","","","<div style=""font-size:60px;""> </div>","null","LF","learning/Slide90.JPG","This is a dep:","","",""
"html-keyboard-response","277","356388","0.0-7.0-0.10","LF","823tgxfuz7","1920","1080","0","0","0","5f632ea32e85353d93872c67","","null","","","learningBlock2","","","","This is a wug:","null","","","","","",""
"image-keyboard-response","278","356716","0.0-7.0-1.10","LF","823tgxfuz7","1920","1080","0","0","0","5f632ea32e85353d93872c67","","null","","","","","","","learning/Slide91.JPG","null","","","","","",""
"html-keyboard-response","279","357719","0.0-7.0-2.10","LF","823tgxfuz7","1920","1080","0","0","0","5f632ea32e85353d93872c67","","null","","","learningBlock2","","","","<div style=""font-size:60px;""> </div>","null","LF","learning/Slide91.JPG","This is a wug:","","",""
"html-keyboard-response","280","358721","0.0-7.0-0.11","LF","823tgxfuz7","1920","1080","0","0","0","5f632ea32e85353d93872c67","","null","","","learningBlock2","","","","This is a tob:","null","","","","","",""
"image-keyboard-response","281","359047","0.0-7.0-1.11","LF","823tgxfuz7","1920","1080","0","0","0","5f632ea32e85353d93872c67","","null","","","","","","","learning/Slide92.JPG","null","","","","","",""
"html-keyboard-response","282","360049","0.0-7.0-2.11","LF","823tgxfuz7","1920","1080","0","0","0","5f632ea32e85353d93872c67","","null","","","learningBlock2","","","","<div style=""font-size:60px;""> </div>","null","LF","learning/Slide92.JPG","This is a tob:","","",""
"html-keyboard-response","283","361050","0.0-7.0-0.12","LF","823tgxfuz7","1920","1080","0","0","0","5f632ea32e85353d93872c67","","null","","","learningBlock2","","","","This is a bim:","null","","","","","",""
"image-keyboard-response","284","361377","0.0-7.0-1.12","LF","823tgxfuz7","1920","1080","0","0","0","5f632ea32e85353d93872c67","","null","","","","","","","learning/Slide93.JPG","null","","","","","",""
"html-keyboard-response","285","362380","0.0-7.0-2.12","LF","823tgxfuz7","1920","1080","0","0","0","5f632ea32e85353d93872c67","","null","","","learningBlock2","","","","<div style=""font-size:60px;""> </div>","null","LF","learning/Slide93.JPG","This is a bim:","","",""
"html-keyboard-response","286","363381","0.0-7.0-0.13","LF","823tgxfuz7","1920","1080","0","0","0","5f632ea32e85353d93872c67","","null","","","learningBlock2","","","","This is a tob:","null","","","","","",""
"image-keyboard-response","287","363709","0.0-7.0-1.13","LF","823tgxfuz7","1920","1080","0","0","0","5f632ea32e85353d93872c67","","null","","","","","","","learning/Slide94.JPG","null","","","","","",""
"html-keyboard-response","288","364713","0.0-7.0-2.13","LF","823tgxfuz7","1920","1080","0","0","0","5f632ea32e85353d93872c67","","null","","","learningBlock2","","","","<div style=""font-size:60px;""> </div>","null","LF","learning/Slide94.JPG","This is a tob:","","",""
"html-keyboard-response","289","365715","0.0-7.0-0.14","LF","823tgxfuz7","1920","1080","0","0","0","5f632ea32e85353d93872c67","","null","","","learningBlock2","","","","This is a wug:","null","","","","","",""
"image-keyboard-response","290","366042","0.0-7.0-1.14","LF","823tgxfuz7","1920","1080","0","0","0","5f632ea32e85353d93872c67","","null","","","","","","","learning/Slide95.JPG","null","","","","","",""
"html-keyboard-response","291","367043","0.0-7.0-2.14","LF","823tgxfuz7","1920","1080","0","0","0","5f632ea32e85353d93872c67","","null","","","learningBlock2","","","","<div style=""font-size:60px;""> </div>","null","LF","learning/Slide95.JPG","This is a wug:","","",""
"html-keyboard-response","292","368044","0.0-7.0-0.15","LF","823tgxfuz7","1920","1080","0","0","0","5f632ea32e85353d93872c67","","null","","","learningBlock2","","","","This is a tob:","null","","","","","",""
"image-keyboard-response","293","368371","0.0-7.0-1.15","LF","823tgxfuz7","1920","1080","0","0","0","5f632ea32e85353d93872c67","","null","","","","","","","learning/Slide96.JPG","null","","","","","",""
"html-keyboard-response","294","369374","0.0-7.0-2.15","LF","823tgxfuz7","1920","1080","0","0","0","5f632ea32e85353d93872c67","","null","","","learningBlock2","","","","<div style=""font-size:60px;""> </div>","null","LF","learning/Slide96.JPG","This is a tob:","","",""
"html-keyboard-response","295","370376","0.0-7.0-0.16","LF","823tgxfuz7","1920","1080","0","0","0","5f632ea32e85353d93872c67","","null","","","learningBlock2","","","","This is a dep:","null","","","","","",""
"image-keyboard-response","296","370704","0.0-7.0-1.16","LF","823tgxfuz7","1920","1080","0","0","0","5f632ea32e85353d93872c67","","null","","","","","","","learning/Slide97.JPG","null","","","","","",""
"html-keyboard-response","297","371706","0.0-7.0-2.16","LF","823tgxfuz7","1920","1080","0","0","0","5f632ea32e85353d93872c67","","null","","","learningBlock2","","","","<div style=""font-size:60px;""> </div>","null","LF","learning/Slide97.JPG","This is a dep:","","",""
"html-keyboard-response","298","372709","0.0-7.0-0.17","LF","823tgxfuz7","1920","1080","0","0","0","5f632ea32e85353d93872c67","","null","","","learningBlock2","","","","This is a bim:","null","","","","","",""
"image-keyboard-response","299","373037","0.0-7.0-1.17","LF","823tgxfuz7","1920","1080","0","0","0","5f632ea32e85353d93872c67","","null","","","","","","","learning/Slide98.JPG","null","","","","","",""
"html-keyboard-response","300","374039","0.0-7.0-2.17","LF","823tgxfuz7","1920","1080","0","0","0","5f632ea32e85353d93872c67","","null","","","learningBlock2","","","","<div style=""font-size:60px;""> </div>","null","LF","learning/Slide98.JPG","This is a bim:","","",""
"html-keyboard-response","301","375041","0.0-7.0-0.18","LF","823tgxfuz7","1920","1080","0","0","0","5f632ea32e85353d93872c67","","null","","","learningBlock2","","","","This is a dep:","null","","","","","",""
"image-keyboard-response","302","375368","0.0-7.0-1.18","LF","823tgxfuz7","1920","1080","0","0","0","5f632ea32e85353d93872c67","","null","","","","","","","learning/Slide99.JPG","null","","","","","",""
"html-keyboard-response","303","376369","0.0-7.0-2.18","LF","823tgxfuz7","1920","1080","0","0","0","5f632ea32e85353d93872c67","","null","","","learningBlock2","","","","<div style=""font-size:60px;""> </div>","null","LF","learning/Slide99.JPG","This is a dep:","","",""
"html-keyboard-response","304","377370","0.0-7.0-0.19","LF","823tgxfuz7","1920","1080","0","0","0","5f632ea32e85353d93872c67","","null","","","learningBlock2","","","","This is a bim:","null","","","","","",""
"image-keyboard-response","305","377698","0.0-7.0-1.19","LF","823tgxfuz7","1920","1080","0","0","0","5f632ea32e85353d93872c67","","null","","","","","","","learning/Slide100.JPG","null","","","","","",""
"html-keyboard-response","306","378699","0.0-7.0-2.19","LF","823tgxfuz7","1920","1080","0","0","0","5f632ea32e85353d93872c67","","null","","","learningBlock2","","","","<div style=""font-size:60px;""> </div>","null","LF","learning/Slide100.JPG","This is a bim:","","",""
"html-keyboard-response","307","379701","0.0-7.0-0.20","LF","823tgxfuz7","1920","1080","0","0","0","5f632ea32e85353d93872c67","","null","","","learningBlock2","","","","This is a tob:","null","","","","","",""
"image-keyboard-response","308","380028","0.0-7.0-1.20","LF","823tgxfuz7","1920","1080","0","0","0","5f632ea32e85353d93872c67","","null","","","","","","","learning/Slide101.JPG","null","","","","","",""
"html-keyboard-response","309","381030","0.0-7.0-2.20","LF","823tgxfuz7","1920","1080","0","0","0","5f632ea32e85353d93872c67","","null","","","learningBlock2","","","","<div style=""font-size:60px;""> </div>","null","LF","learning/Slide101.JPG","This is a tob:","","",""
"html-keyboard-response","310","382032","0.0-7.0-0.21","LF","823tgxfuz7","1920","1080","0","0","0","5f632ea32e85353d93872c67","","null","","","learningBlock2","","","","This is a bim:","null","","","","","",""
"image-keyboard-response","311","382359","0.0-7.0-1.21","LF","823tgxfuz7","1920","1080","0","0","0","5f632ea32e85353d93872c67","","null","","","","","","","learning/Slide102.JPG","null","","","","","",""
"html-keyboard-response","312","383360","0.0-7.0-2.21","LF","823tgxfuz7","1920","1080","0","0","0","5f632ea32e85353d93872c67","","null","","","learningBlock2","","","","<div style=""font-size:60px;""> </div>","null","LF","learning/Slide102.JPG","This is a bim:","","",""
"html-keyboard-response","313","384362","0.0-7.0-0.22","LF","823tgxfuz7","1920","1080","0","0","0","5f632ea32e85353d93872c67","","null","","","learningBlock2","","","","This is a dep:","null","","","","","",""
"image-keyboard-response","314","384690","0.0-7.0-1.22","LF","823tgxfuz7","1920","1080","0","0","0","5f632ea32e85353d93872c67","","null","","","","","","","learning/Slide103.JPG","null","","","","","",""
"html-keyboard-response","315","385692","0.0-7.0-2.22","LF","823tgxfuz7","1920","1080","0","0","0","5f632ea32e85353d93872c67","","null","","","learningBlock2","","","","<div style=""font-size:60px;""> </div>","null","LF","learning/Slide103.JPG","This is a dep:","","",""
"html-keyboard-response","316","386694","0.0-7.0-0.23","LF","823tgxfuz7","1920","1080","0","0","0","5f632ea32e85353d93872c67","","null","","","learningBlock2","","","","This is a tob:","null","","","","","",""
"image-keyboard-response","317","387023","0.0-7.0-1.23","LF","823tgxfuz7","1920","1080","0","0","0","5f632ea32e85353d93872c67","","null","","","","","","","learning/Slide104.JPG","null","","","","","",""
"html-keyboard-response","318","388025","0.0-7.0-2.23","LF","823tgxfuz7","1920","1080","0","0","0","5f632ea32e85353d93872c67","","null","","","learningBlock2","","","","<div style=""font-size:60px;""> </div>","null","LF","learning/Slide104.JPG","This is a tob:","","",""
"html-keyboard-response","319","389027","0.0-7.0-0.24","LF","823tgxfuz7","1920","1080","0","0","0","5f632ea32e85353d93872c67","","null","","","learningBlock2","","","","This is a dep:","null","","","","","",""
"image-keyboard-response","320","389355","0.0-7.0-1.24","LF","823tgxfuz7","1920","1080","0","0","0","5f632ea32e85353d93872c67","","null","","","","","","","learning/Slide105.JPG","null","","","","","",""
"html-keyboard-response","321","390356","0.0-7.0-2.24","LF","823tgxfuz7","1920","1080","0","0","0","5f632ea32e85353d93872c67","","null","","","learningBlock2","","","","<div style=""font-size:60px;""> </div>","null","LF","learning/Slide105.JPG","This is a dep:","","",""
"html-keyboard-response","322","391358","0.0-7.0-0.25","LF","823tgxfuz7","1920","1080","0","0","0","5f632ea32e85353d93872c67","","null","","","learningBlock2","","","","This is a wug:","null","","","","","",""
"image-keyboard-response","323","391686","0.0-7.0-1.25","LF","823tgxfuz7","1920","1080","0","0","0","5f632ea32e85353d93872c67","","null","","","","","","","learning/Slide106.JPG","null","","","","","",""
"html-keyboard-response","324","392688","0.0-7.0-2.25","LF","823tgxfuz7","1920","1080","0","0","0","5f632ea32e85353d93872c67","","null","","","learningBlock2","","","","<div style=""font-size:60px;""> </div>","null","LF","learning/Slide106.JPG","This is a wug:","","",""
"html-keyboard-response","325","393691","0.0-7.0-0.26","LF","823tgxfuz7","1920","1080","0","0","0","5f632ea32e85353d93872c67","","null","","","learningBlock2","","","","This is a bim:","null","","","","","",""
"image-keyboard-response","326","394019","0.0-7.0-1.26","LF","823tgxfuz7","1920","1080","0","0","0","5f632ea32e85353d93872c67","","null","","","","","","","learning/Slide107.JPG","null","","","","","",""
"html-keyboard-response","327","395021","0.0-7.0-2.26","LF","823tgxfuz7","1920","1080","0","0","0","5f632ea32e85353d93872c67","","null","","","learningBlock2","","","","<div style=""font-size:60px;""> </div>","null","LF","learning/Slide107.JPG","This is a bim:","","",""
"html-keyboard-response","328","396022","0.0-7.0-0.27","LF","823tgxfuz7","1920","1080","0","0","0","5f632ea32e85353d93872c67","","null","","","learningBlock2","","","","This is a dep:","null","","","","","",""
"image-keyboard-response","329","396350","0.0-7.0-1.27","LF","823tgxfuz7","1920","1080","0","0","0","5f632ea32e85353d93872c67","","null","","","","","","","learning/Slide108.JPG","null","","","","","",""
"html-keyboard-response","330","397353","0.0-7.0-2.27","LF","823tgxfuz7","1920","1080","0","0","0","5f632ea32e85353d93872c67","","null","","","learningBlock2","","","","<div style=""font-size:60px;""> </div>","null","LF","learning/Slide108.JPG","This is a dep:","","",""
"html-keyboard-response","331","398356","0.0-7.0-0.28","LF","823tgxfuz7","1920","1080","0","0","0","5f632ea32e85353d93872c67","","null","","","learningBlock2","","","","This is a wug:","null","","","","","",""
"image-keyboard-response","332","398682","0.0-7.0-1.28","LF","823tgxfuz7","1920","1080","0","0","0","5f632ea32e85353d93872c67","","null","","","","","","","learning/Slide109.JPG","null","","","","","",""
"html-keyboard-response","333","399684","0.0-7.0-2.28","LF","823tgxfuz7","1920","1080","0","0","0","5f632ea32e85353d93872c67","","null","","","learningBlock2","","","","<div style=""font-size:60px;""> </div>","null","LF","learning/Slide109.JPG","This is a wug:","","",""
"html-keyboard-response","334","400686","0.0-7.0-0.29","LF","823tgxfuz7","1920","1080","0","0","0","5f632ea32e85353d93872c67","","null","","","learningBlock2","","","","This is a bim:","null","","","","","",""
"image-keyboard-response","335","401015","0.0-7.0-1.29","LF","823tgxfuz7","1920","1080","0","0","0","5f632ea32e85353d93872c67","","null","","","","","","","learning/Slide110.JPG","null","","","","","",""
"html-keyboard-response","336","402016","0.0-7.0-2.29","LF","823tgxfuz7","1920","1080","0","0","0","5f632ea32e85353d93872c67","","null","","","learningBlock2","","","","<div style=""font-size:60px;""> </div>","null","LF","learning/Slide110.JPG","This is a bim:","","",""
"html-keyboard-response","337","403018","0.0-7.0-0.30","LF","823tgxfuz7","1920","1080","0","0","0","5f632ea32e85353d93872c67","","null","","","learningBlock2","","","","This is a tob:","null","","","","","",""
"image-keyboard-response","338","403344","0.0-7.0-1.30","LF","823tgxfuz7","1920","1080","0","0","0","5f632ea32e85353d93872c67","","null","","","","","","","learning/Slide111.JPG","null","","","","","",""
"html-keyboard-response","339","404346","0.0-7.0-2.30","LF","823tgxfuz7","1920","1080","0","0","0","5f632ea32e85353d93872c67","","null","","","learningBlock2","","","","<div style=""font-size:60px;""> </div>","null","LF","learning/Slide111.JPG","This is a tob:","","",""
"html-keyboard-response","340","405349","0.0-7.0-0.31","LF","823tgxfuz7","1920","1080","0","0","0","5f632ea32e85353d93872c67","","null","","","learningBlock2","","","","This is a wug:","null","","","","","",""
"image-keyboard-response","341","405684","0.0-7.0-1.31","LF","823tgxfuz7","1920","1080","0","0","0","5f632ea32e85353d93872c67","","null","","","","","","","learning/Slide112.JPG","null","","","","","",""
"html-keyboard-response","342","406686","0.0-7.0-2.31","LF","823tgxfuz7","1920","1080","0","0","0","5f632ea32e85353d93872c67","","null","","","learningBlock2","","","","<div style=""font-size:60px;""> </div>","null","LF","learning/Slide112.JPG","This is a wug:","","",""
"html-keyboard-response","343","407688","0.0-7.0-0.32","LF","823tgxfuz7","1920","1080","0","0","0","5f632ea32e85353d93872c67","","null","","","learningBlock2","","","","This is a tob:","null","","","","","",""
"image-keyboard-response","344","408016","0.0-7.0-1.32","LF","823tgxfuz7","1920","1080","0","0","0","5f632ea32e85353d93872c67","","null","","","","","","","learning/Slide113.JPG","null","","","","","",""
"html-keyboard-response","345","409019","0.0-7.0-2.32","LF","823tgxfuz7","1920","1080","0","0","0","5f632ea32e85353d93872c67","","null","","","learningBlock2","","","","<div style=""font-size:60px;""> </div>","null","LF","learning/Slide113.JPG","This is a tob:","","",""
"html-keyboard-response","346","410021","0.0-7.0-0.33","LF","823tgxfuz7","1920","1080","0","0","0","5f632ea32e85353d93872c67","","null","","","learningBlock2","","","","This is a wug:","null","","","","","",""
"image-keyboard-response","347","410348","0.0-7.0-1.33","LF","823tgxfuz7","1920","1080","0","0","0","5f632ea32e85353d93872c67","","null","","","","","","","learning/Slide114.JPG","null","","","","","",""
"html-keyboard-response","348","411350","0.0-7.0-2.33","LF","823tgxfuz7","1920","1080","0","0","0","5f632ea32e85353d93872c67","","null","","","learningBlock2","","","","<div style=""font-size:60px;""> </div>","null","LF","learning/Slide114.JPG","This is a wug:","","",""
"html-keyboard-response","349","412353","0.0-7.0-0.34","LF","823tgxfuz7","1920","1080","0","0","0","5f632ea32e85353d93872c67","","null","","","learningBlock2","","","","This is a bim:","null","","","","","",""
"image-keyboard-response","350","412680","0.0-7.0-1.34","LF","823tgxfuz7","1920","1080","0","0","0","5f632ea32e85353d93872c67","","null","","","","","","","learning/Slide115.JPG","null","","","","","",""
"html-keyboard-response","351","413683","0.0-7.0-2.34","LF","823tgxfuz7","1920","1080","0","0","0","5f632ea32e85353d93872c67","","null","","","learningBlock2","","","","<div style=""font-size:60px;""> </div>","null","LF","learning/Slide115.JPG","This is a bim:","","",""
"html-keyboard-response","352","414686","0.0-7.0-0.35","LF","823tgxfuz7","1920","1080","0","0","0","5f632ea32e85353d93872c67","","null","","","learningBlock2","","","","This is a dep:","null","","","","","",""
"image-keyboard-response","353","415014","0.0-7.0-1.35","LF","823tgxfuz7","1920","1080","0","0","0","5f632ea32e85353d93872c67","","null","","","","","","","learning/Slide116.JPG","null","","","","","",""
"html-keyboard-response","354","416016","0.0-7.0-2.35","LF","823tgxfuz7","1920","1080","0","0","0","5f632ea32e85353d93872c67","","null","","","learningBlock2","","","","<div style=""font-size:60px;""> </div>","null","LF","learning/Slide116.JPG","This is a dep:","","",""
"html-keyboard-response","355","417019","0.0-7.0-0.36","LF","823tgxfuz7","1920","1080","0","0","0","5f632ea32e85353d93872c67","","null","","","learningBlock2","","","","This is a tob:","null","","","","","",""
"image-keyboard-response","356","417347","0.0-7.0-1.36","LF","823tgxfuz7","1920","1080","0","0","0","5f632ea32e85353d93872c67","","null","","","","","","","learning/Slide117.JPG","null","","","","","",""
"html-keyboard-response","357","418349","0.0-7.0-2.36","LF","823tgxfuz7","1920","1080","0","0","0","5f632ea32e85353d93872c67","","null","","","learningBlock2","","","","<div style=""font-size:60px;""> </div>","null","LF","learning/Slide117.JPG","This is a tob:","","",""
"html-keyboard-response","358","419352","0.0-7.0-0.37","LF","823tgxfuz7","1920","1080","0","0","0","5f632ea32e85353d93872c67","","null","","","learningBlock2","","","","This is a dep:","null","","","","","",""
"image-keyboard-response","359","419679","0.0-7.0-1.37","LF","823tgxfuz7","1920","1080","0","0","0","5f632ea32e85353d93872c67","","null","","","","","","","learning/Slide118.JPG","null","","","","","",""
"html-keyboard-response","360","420682","0.0-7.0-2.37","LF","823tgxfuz7","1920","1080","0","0","0","5f632ea32e85353d93872c67","","null","","","learningBlock2","","","","<div style=""font-size:60px;""> </div>","null","LF","learning/Slide118.JPG","This is a dep:","","",""
"html-keyboard-response","361","421686","0.0-7.0-0.38","LF","823tgxfuz7","1920","1080","0","0","0","5f632ea32e85353d93872c67","","null","","","learningBlock2","","","","This is a wug:","null","","","","","",""
"image-keyboard-response","362","422013","0.0-7.0-1.38","LF","823tgxfuz7","1920","1080","0","0","0","5f632ea32e85353d93872c67","","null","","","","","","","learning/Slide119.JPG","null","","","","","",""
"html-keyboard-response","363","423015","0.0-7.0-2.38","LF","823tgxfuz7","1920","1080","0","0","0","5f632ea32e85353d93872c67","","null","","","learningBlock2","","","","<div style=""font-size:60px;""> </div>","null","LF","learning/Slide119.JPG","This is a wug:","","",""
"html-keyboard-response","364","424017","0.0-7.0-0.39","LF","823tgxfuz7","1920","1080","0","0","0","5f632ea32e85353d93872c67","","null","","","learningBlock2","","","","This is a dep:","null","","","","","",""
"image-keyboard-response","365","424344","0.0-7.0-1.39","LF","823tgxfuz7","1920","1080","0","0","0","5f632ea32e85353d93872c67","","null","","","","","","","learning/Slide120.JPG","null","","","","","",""
"html-keyboard-response","366","425347","0.0-7.0-2.39","LF","823tgxfuz7","1920","1080","0","0","0","5f632ea32e85353d93872c67","","null","","","learningBlock2","","","","<div style=""font-size:60px;""> </div>","null","LF","learning/Slide120.JPG","This is a dep:","","",""
"html-keyboard-response","367","426349","0.0-7.0-0.40","LF","823tgxfuz7","1920","1080","0","0","0","5f632ea32e85353d93872c67","","null","","","learningBlock2","","","","This is a bim:","null","","","","","",""
"image-keyboard-response","368","426676","0.0-7.0-1.40","LF","823tgxfuz7","1920","1080","0","0","0","5f632ea32e85353d93872c67","","null","","","","","","","learning/Slide121.JPG","null","","","","","",""
"html-keyboard-response","369","427678","0.0-7.0-2.40","LF","823tgxfuz7","1920","1080","0","0","0","5f632ea32e85353d93872c67","","null","","","learningBlock2","","","","<div style=""font-size:60px;""> </div>","null","LF","learning/Slide121.JPG","This is a bim:","","",""
"html-keyboard-response","370","428680","0.0-7.0-0.41","LF","823tgxfuz7","1920","1080","0","0","0","5f632ea32e85353d93872c67","","null","","","learningBlock2","","","","This is a wug:","null","","","","","",""
"image-keyboard-response","371","429008","0.0-7.0-1.41","LF","823tgxfuz7","1920","1080","0","0","0","5f632ea32e85353d93872c67","","null","","","","","","","learning/Slide122.JPG","null","","","","","",""
"html-keyboard-response","372","430012","0.0-7.0-2.41","LF","823tgxfuz7","1920","1080","0","0","0","5f632ea32e85353d93872c67","","null","","","learningBlock2","","","","<div style=""font-size:60px;""> </div>","null","LF","learning/Slide122.JPG","This is a wug:","","",""
"html-keyboard-response","373","431014","0.0-7.0-0.42","LF","823tgxfuz7","1920","1080","0","0","0","5f632ea32e85353d93872c67","","null","","","learningBlock2","","","","This is a bim:","null","","","","","",""
"image-keyboard-response","374","431342","0.0-7.0-1.42","LF","823tgxfuz7","1920","1080","0","0","0","5f632ea32e85353d93872c67","","null","","","","","","","learning/Slide123.JPG","null","","","","","",""
"html-keyboard-response","375","432344","0.0-7.0-2.42","LF","823tgxfuz7","1920","1080","0","0","0","5f632ea32e85353d93872c67","","null","","","learningBlock2","","","","<div style=""font-size:60px;""> </div>","null","LF","learning/Slide123.JPG","This is a bim:","","",""
"html-keyboard-response","376","433345","0.0-7.0-0.43","LF","823tgxfuz7","1920","1080","0","0","0","5f632ea32e85353d93872c67","","null","","","learningBlock2","","","","This is a tob:","null","","","","","",""
"image-keyboard-response","377","433674","0.0-7.0-1.43","LF","823tgxfuz7","1920","1080","0","0","0","5f632ea32e85353d93872c67","","null","","","","","","","learning/Slide124.JPG","null","","","","","",""
"html-keyboard-response","378","434675","0.0-7.0-2.43","LF","823tgxfuz7","1920","1080","0","0","0","5f632ea32e85353d93872c67","","null","","","learningBlock2","","","","<div style=""font-size:60px;""> </div>","null","LF","learning/Slide124.JPG","This is a tob:","","",""
"html-keyboard-response","379","435677","0.0-7.0-0.44","LF","823tgxfuz7","1920","1080","0","0","0","5f632ea32e85353d93872c67","","null","","","learningBlock2","","","","This is a bim:","null","","","","","",""
"image-keyboard-response","380","436005","0.0-7.0-1.44","LF","823tgxfuz7","1920","1080","0","0","0","5f632ea32e85353d93872c67","","null","","","","","","","learning/Slide125.JPG","null","","","","","",""
"html-keyboard-response","381","437007","0.0-7.0-2.44","LF","823tgxfuz7","1920","1080","0","0","0","5f632ea32e85353d93872c67","","null","","","learningBlock2","","","","<div style=""font-size:60px;""> </div>","null","LF","learning/Slide125.JPG","This is a bim:","","",""
"html-keyboard-response","382","438008","0.0-7.0-0.45","LF","823tgxfuz7","1920","1080","0","0","0","5f632ea32e85353d93872c67","","null","","","learningBlock2","","","","This is a tob:","null","","","","","",""
"image-keyboard-response","383","438336","0.0-7.0-1.45","LF","823tgxfuz7","1920","1080","0","0","0","5f632ea32e85353d93872c67","","null","","","","","","","learning/Slide126.JPG","null","","","","","",""
"html-keyboard-response","384","439338","0.0-7.0-2.45","LF","823tgxfuz7","1920","1080","0","0","0","5f632ea32e85353d93872c67","","null","","","learningBlock2","","","","<div style=""font-size:60px;""> </div>","null","LF","learning/Slide126.JPG","This is a tob:","","",""
"html-keyboard-response","385","440341","0.0-7.0-0.46","LF","823tgxfuz7","1920","1080","0","0","0","5f632ea32e85353d93872c67","","null","","","learningBlock2","","","","This is a dep:","null","","","","","",""
"image-keyboard-response","386","440668","0.0-7.0-1.46","LF","823tgxfuz7","1920","1080","0","0","0","5f632ea32e85353d93872c67","","null","","","","","","","learning/Slide127.JPG","null","","","","","",""
"html-keyboard-response","387","441670","0.0-7.0-2.46","LF","823tgxfuz7","1920","1080","0","0","0","5f632ea32e85353d93872c67","","null","","","learningBlock2","","","","<div style=""font-size:60px;""> </div>","null","LF","learning/Slide127.JPG","This is a dep:","","",""
"html-keyboard-response","388","442671","0.0-7.0-0.47","LF","823tgxfuz7","1920","1080","0","0","0","5f632ea32e85353d93872c67","","null","","","learningBlock2","","","","This is a wug:","null","","","","","",""
"image-keyboard-response","389","442999","0.0-7.0-1.47","LF","823tgxfuz7","1920","1080","0","0","0","5f632ea32e85353d93872c67","","null","","","","","","","learning/Slide128.JPG","null","","","","","",""
"html-keyboard-response","390","444001","0.0-7.0-2.47","LF","823tgxfuz7","1920","1080","0","0","0","5f632ea32e85353d93872c67","","null","","","learningBlock2","","","","<div style=""font-size:60px;""> </div>","null","LF","learning/Slide128.JPG","This is a wug:","","",""
"html-keyboard-response","391","445004","0.0-7.0-0.48","LF","823tgxfuz7","1920","1080","0","0","0","5f632ea32e85353d93872c67","","null","","","learningBlock2","","","","This is a tob:","null","","","","","",""
"image-keyboard-response","392","445333","0.0-7.0-1.48","LF","823tgxfuz7","1920","1080","0","0","0","5f632ea32e85353d93872c67","","null","","","","","","","learning/Slide129.JPG","null","","","","","",""
"html-keyboard-response","393","446335","0.0-7.0-2.48","LF","823tgxfuz7","1920","1080","0","0","0","5f632ea32e85353d93872c67","","null","","","learningBlock2","","","","<div style=""font-size:60px;""> </div>","null","LF","learning/Slide129.JPG","This is a tob:","","",""
"html-keyboard-response","394","447337","0.0-7.0-0.49","LF","823tgxfuz7","1920","1080","0","0","0","5f632ea32e85353d93872c67","","null","","","learningBlock2","","","","This is a wug:","null","","","","","",""
"image-keyboard-response","395","447665","0.0-7.0-1.49","LF","823tgxfuz7","1920","1080","0","0","0","5f632ea32e85353d93872c67","","null","","","","","","","learning/Slide130.JPG","null","","","","","",""
"html-keyboard-response","396","448667","0.0-7.0-2.49","LF","823tgxfuz7","1920","1080","0","0","0","5f632ea32e85353d93872c67","","null","","","learningBlock2","","","","<div style=""font-size:60px;""> </div>","null","LF","learning/Slide130.JPG","This is a wug:","","",""
"html-keyboard-response","397","449669","0.0-7.0-0.50","LF","823tgxfuz7","1920","1080","0","0","0","5f632ea32e85353d93872c67","","null","","","learningBlock2","","","","This is a bim:","null","","","","","",""
"image-keyboard-response","398","449997","0.0-7.0-1.50","LF","823tgxfuz7","1920","1080","0","0","0","5f632ea32e85353d93872c67","","null","","","","","","","learning/Slide131.JPG","null","","","","","",""
"html-keyboard-response","399","450999","0.0-7.0-2.50","LF","823tgxfuz7","1920","1080","0","0","0","5f632ea32e85353d93872c67","","null","","","learningBlock2","","","","<div style=""font-size:60px;""> </div>","null","LF","learning/Slide131.JPG","This is a bim:","","",""
"html-keyboard-response","400","452000","0.0-7.0-0.51","LF","823tgxfuz7","1920","1080","0","0","0","5f632ea32e85353d93872c67","","null","","","learningBlock2","","","","This is a dep:","null","","","","","",""
"image-keyboard-response","401","452327","0.0-7.0-1.51","LF","823tgxfuz7","1920","1080","0","0","0","5f632ea32e85353d93872c67","","null","","","","","","","learning/Slide132.JPG","null","","","","","",""
"html-keyboard-response","402","453329","0.0-7.0-2.51","LF","823tgxfuz7","1920","1080","0","0","0","5f632ea32e85353d93872c67","","null","","","learningBlock2","","","","<div style=""font-size:60px;""> </div>","null","LF","learning/Slide132.JPG","This is a dep:","","",""
"html-keyboard-response","403","454332","0.0-7.0-0.52","LF","823tgxfuz7","1920","1080","0","0","0","5f632ea32e85353d93872c67","","null","","","learningBlock2","","","","This is a tob:","null","","","","","",""
"image-keyboard-response","404","454662","0.0-7.0-1.52","LF","823tgxfuz7","1920","1080","0","0","0","5f632ea32e85353d93872c67","","null","","","","","","","learning/Slide133.JPG","null","","","","","",""
"html-keyboard-response","405","455664","0.0-7.0-2.52","LF","823tgxfuz7","1920","1080","0","0","0","5f632ea32e85353d93872c67","","null","","","learningBlock2","","","","<div style=""font-size:60px;""> </div>","null","LF","learning/Slide133.JPG","This is a tob:","","",""
"html-keyboard-response","406","456666","0.0-7.0-0.53","LF","823tgxfuz7","1920","1080","0","0","0","5f632ea32e85353d93872c67","","null","","","learningBlock2","","","","This is a dep:","null","","","","","",""
"image-keyboard-response","407","456993","0.0-7.0-1.53","LF","823tgxfuz7","1920","1080","0","0","0","5f632ea32e85353d93872c67","","null","","","","","","","learning/Slide134.JPG","null","","","","","",""
"html-keyboard-response","408","457996","0.0-7.0-2.53","LF","823tgxfuz7","1920","1080","0","0","0","5f632ea32e85353d93872c67","","null","","","learningBlock2","","","","<div style=""font-size:60px;""> </div>","null","LF","learning/Slide134.JPG","This is a dep:","","",""
"html-keyboard-response","409","458997","0.0-7.0-0.54","LF","823tgxfuz7","1920","1080","0","0","0","5f632ea32e85353d93872c67","","null","","","learningBlock2","","","","This is a tob:","null","","","","","",""
"image-keyboard-response","410","459326","0.0-7.0-1.54","LF","823tgxfuz7","1920","1080","0","0","0","5f632ea32e85353d93872c67","","null","","","","","","","learning/Slide135.JPG","null","","","","","",""
"html-keyboard-response","411","460328","0.0-7.0-2.54","LF","823tgxfuz7","1920","1080","0","0","0","5f632ea32e85353d93872c67","","null","","","learningBlock2","","","","<div style=""font-size:60px;""> </div>","null","LF","learning/Slide135.JPG","This is a tob:","","",""
"html-keyboard-response","412","461330","0.0-7.0-0.55","LF","823tgxfuz7","1920","1080","0","0","0","5f632ea32e85353d93872c67","","null","","","learningBlock2","","","","This is a wug:","null","","","","","",""
"image-keyboard-response","413","461660","0.0-7.0-1.55","LF","823tgxfuz7","1920","1080","0","0","0","5f632ea32e85353d93872c67","","null","","","","","","","learning/Slide136.JPG","null","","","","","",""
"html-keyboard-response","414","462662","0.0-7.0-2.55","LF","823tgxfuz7","1920","1080","0","0","0","5f632ea32e85353d93872c67","","null","","","learningBlock2","","","","<div style=""font-size:60px;""> </div>","null","LF","learning/Slide136.JPG","This is a wug:","","",""
"html-keyboard-response","415","463665","0.0-7.0-0.56","LF","823tgxfuz7","1920","1080","0","0","0","5f632ea32e85353d93872c67","","null","","","learningBlock2","","","","This is a tob:","null","","","","","",""
"image-keyboard-response","416","463993","0.0-7.0-1.56","LF","823tgxfuz7","1920","1080","0","0","0","5f632ea32e85353d93872c67","","null","","","","","","","learning/Slide137.JPG","null","","","","","",""
"html-keyboard-response","417","464996","0.0-7.0-2.56","LF","823tgxfuz7","1920","1080","0","0","0","5f632ea32e85353d93872c67","","null","","","learningBlock2","","","","<div style=""font-size:60px;""> </div>","null","LF","learning/Slide137.JPG","This is a tob:","","",""
"html-keyboard-response","418","465998","0.0-7.0-0.57","LF","823tgxfuz7","1920","1080","0","0","0","5f632ea32e85353d93872c67","","null","","","learningBlock2","","","","This is a bim:","null","","","","","",""
"image-keyboard-response","419","466327","0.0-7.0-1.57","LF","823tgxfuz7","1920","1080","0","0","0","5f632ea32e85353d93872c67","","null","","","","","","","learning/Slide138.JPG","null","","","","","",""
"html-keyboard-response","420","467329","0.0-7.0-2.57","LF","823tgxfuz7","1920","1080","0","0","0","5f632ea32e85353d93872c67","","null","","","learningBlock2","","","","<div style=""font-size:60px;""> </div>","null","LF","learning/Slide138.JPG","This is a bim:","","",""
"html-keyboard-response","421","468331","0.0-7.0-0.58","LF","823tgxfuz7","1920","1080","0","0","0","5f632ea32e85353d93872c67","","null","","","learningBlock2","","","","This is a wug:","null","","","","","",""
"image-keyboard-response","422","468659","0.0-7.0-1.58","LF","823tgxfuz7","1920","1080","0","0","0","5f632ea32e85353d93872c67","","null","","","","","","","learning/Slide139.JPG","null","","","","","",""
"html-keyboard-response","423","469661","0.0-7.0-2.58","LF","823tgxfuz7","1920","1080","0","0","0","5f632ea32e85353d93872c67","","null","","","learningBlock2","","","","<div style=""font-size:60px;""> </div>","null","LF","learning/Slide139.JPG","This is a wug:","","",""
"html-keyboard-response","424","470663","0.0-7.0-0.59","LF","823tgxfuz7","1920","1080","0","0","0","5f632ea32e85353d93872c67","","null","","","learningBlock2","","","","This is a dep:","null","","","","","",""
"image-keyboard-response","425","470991","0.0-7.0-1.59","LF","823tgxfuz7","1920","1080","0","0","0","5f632ea32e85353d93872c67","","null","","","","","","","learning/Slide140.JPG","null","","","","","",""
"html-keyboard-response","426","471993","0.0-7.0-2.59","LF","823tgxfuz7","1920","1080","0","0","0","5f632ea32e85353d93872c67","","null","","","learningBlock2","","","","<div style=""font-size:60px;""> </div>","null","LF","learning/Slide140.JPG","This is a dep:","","",""
"html-keyboard-response","427","472994","0.0-7.0-0.60","LF","823tgxfuz7","1920","1080","0","0","0","5f632ea32e85353d93872c67","","null","","","learningBlock2","","","","This is a tob:","null","","","","","",""
"image-keyboard-response","428","473323","0.0-7.0-1.60","LF","823tgxfuz7","1920","1080","0","0","0","5f632ea32e85353d93872c67","","null","","","","","","","learning/Slide141.JPG","null","","","","","",""
"html-keyboard-response","429","474325","0.0-7.0-2.60","LF","823tgxfuz7","1920","1080","0","0","0","5f632ea32e85353d93872c67","","null","","","learningBlock2","","","","<div style=""font-size:60px;""> </div>","null","LF","learning/Slide141.JPG","This is a tob:","","",""
"html-keyboard-response","430","475327","0.0-7.0-0.61","LF","823tgxfuz7","1920","1080","0","0","0","5f632ea32e85353d93872c67","","null","","","learningBlock2","","","","This is a wug:","null","","","","","",""
"image-keyboard-response","431","475655","0.0-7.0-1.61","LF","823tgxfuz7","1920","1080","0","0","0","5f632ea32e85353d93872c67","","null","","","","","","","learning/Slide142.JPG","null","","","","","",""
"html-keyboard-response","432","476658","0.0-7.0-2.61","LF","823tgxfuz7","1920","1080","0","0","0","5f632ea32e85353d93872c67","","null","","","learningBlock2","","","","<div style=""font-size:60px;""> </div>","null","LF","learning/Slide142.JPG","This is a wug:","","",""
"html-keyboard-response","433","477660","0.0-7.0-0.62","LF","823tgxfuz7","1920","1080","0","0","0","5f632ea32e85353d93872c67","","null","","","learningBlock2","","","","This is a bim:","null","","","","","",""
"image-keyboard-response","434","477988","0.0-7.0-1.62","LF","823tgxfuz7","1920","1080","0","0","0","5f632ea32e85353d93872c67","","null","","","","","","","learning/Slide143.JPG","null","","","","","",""
"html-keyboard-response","435","478989","0.0-7.0-2.62","LF","823tgxfuz7","1920","1080","0","0","0","5f632ea32e85353d93872c67","","null","","","learningBlock2","","","","<div style=""font-size:60px;""> </div>","null","LF","learning/Slide143.JPG","This is a bim:","","",""
