"trial_type","trial_index","time_elapsed","internal_node_id","condition","subject","screen_width","screen_height","attention","distraction","conscientious","prolificID","success","rt","url","view_history","test_part","final_height_px","final_width_px","scale_factor","stimulus","key_press","learningType","presentedImage","presentedLabel","button_pressed","response","responses"
"pavlovia","0","19","0.0-0.0","LF","zt96waez4c","1920","1080","0","1","0","5daca66b71a51b00113172ce","","","","","","","","","","","","","","","",""
"fullscreen","1","3247","0.0-1.0","LF","zt96waez4c","1920","1080","0","1","0","5daca66b71a51b00113172ce","true","","","","","","","","","","","","","","",""
"external-html","2","12399","0.0-2.0-0.0","LF","zt96waez4c","1920","1080","0","1","0","5daca66b71a51b00113172ce","","9075.399999999718","text/information_english.html","","","","","","","","","","","","",""
"external-html","3","45291","0.0-2.0-1.0","LF","zt96waez4c","1920","1080","0","1","0","5daca66b71a51b00113172ce","","32828.325000000405","text/consent_english.html","","","","","","","","","","","","",""
"instructions","4","56121","0.0-3.0","LF","zt96waez4c","1920","1080","0","1","0","5daca66b71a51b00113172ce","","NA","","[{""page_index"":0,""viewing_time"":2630.764999999883},{""page_index"":1,""viewing_time"":8195.06999999976}]","instructions","","","","","","","","","","",""
"resize","5","83749","0.0-4.0","LF","zt96waez4c","1920","1080","0","1","0","5daca66b71a51b00113172ce","","","","","","","348","2.2095238095238097","","","","","","","",""
"html-keyboard-response","6","84752","0.0-5.0-0.0","LF","zt96waez4c","1920","1080","0","1","0","5daca66b71a51b00113172ce","","null","","","learningBlock1","","","","This is a tob:","null","","","","","",""
"image-keyboard-response","7","85085","0.0-5.0-1.0","LF","zt96waez4c","1920","1080","0","1","0","5daca66b71a51b00113172ce","","null","","","","","","","learning/Slide1.JPG","null","","","","","",""
"html-keyboard-response","8","86088","0.0-5.0-2.0","LF","zt96waez4c","1920","1080","0","1","0","5daca66b71a51b00113172ce","","null","","","learningBlock1","","","","<div style=""font-size:60px;""> </div>","null","LF","learning/Slide1.JPG","This is a tob:","","",""
"html-keyboard-response","9","87093","0.0-5.0-0.1","LF","zt96waez4c","1920","1080","0","1","0","5daca66b71a51b00113172ce","","null","","","learningBlock1","","","","This is a wug:","null","","","","","",""
"image-keyboard-response","10","87455","0.0-5.0-1.1","LF","zt96waez4c","1920","1080","0","1","0","5daca66b71a51b00113172ce","","null","","","","","","","learning/Slide2.JPG","null","","","","","",""
"html-keyboard-response","11","88460","0.0-5.0-2.1","LF","zt96waez4c","1920","1080","0","1","0","5daca66b71a51b00113172ce","","null","","","learningBlock1","","","","<div style=""font-size:60px;""> </div>","null","LF","learning/Slide2.JPG","This is a wug:","","",""
"html-keyboard-response","12","89462","0.0-5.0-0.2","LF","zt96waez4c","1920","1080","0","1","0","5daca66b71a51b00113172ce","","null","","","learningBlock1","","","","This is a bim:","null","","","","","",""
"image-keyboard-response","13","89791","0.0-5.0-1.2","LF","zt96waez4c","1920","1080","0","1","0","5daca66b71a51b00113172ce","","null","","","","","","","learning/Slide3.JPG","null","","","","","",""
"html-keyboard-response","14","90794","0.0-5.0-2.2","LF","zt96waez4c","1920","1080","0","1","0","5daca66b71a51b00113172ce","","null","","","learningBlock1","","","","<div style=""font-size:60px;""> </div>","null","LF","learning/Slide3.JPG","This is a bim:","","",""
"html-keyboard-response","15","91796","0.0-5.0-0.3","LF","zt96waez4c","1920","1080","0","1","0","5daca66b71a51b00113172ce","","null","","","learningBlock1","","","","This is a dep:","null","","","","","",""
"image-keyboard-response","16","92124","0.0-5.0-1.3","LF","zt96waez4c","1920","1080","0","1","0","5daca66b71a51b00113172ce","","null","","","","","","","learning/Slide4.JPG","null","","","","","",""
"html-keyboard-response","17","93127","0.0-5.0-2.3","LF","zt96waez4c","1920","1080","0","1","0","5daca66b71a51b00113172ce","","null","","","learningBlock1","","","","<div style=""font-size:60px;""> </div>","null","LF","learning/Slide4.JPG","This is a dep:","","",""
"html-keyboard-response","18","94129","0.0-5.0-0.4","LF","zt96waez4c","1920","1080","0","1","0","5daca66b71a51b00113172ce","","null","","","learningBlock1","","","","This is a wug:","null","","","","","",""
"image-keyboard-response","19","94460","0.0-5.0-1.4","LF","zt96waez4c","1920","1080","0","1","0","5daca66b71a51b00113172ce","","null","","","","","","","learning/Slide5.JPG","null","","","","","",""
"html-keyboard-response","20","95462","0.0-5.0-2.4","LF","zt96waez4c","1920","1080","0","1","0","5daca66b71a51b00113172ce","","null","","","learningBlock1","","","","<div style=""font-size:60px;""> </div>","null","LF","learning/Slide5.JPG","This is a wug:","","",""
"html-keyboard-response","21","96464","0.0-5.0-0.5","LF","zt96waez4c","1920","1080","0","1","0","5daca66b71a51b00113172ce","","null","","","learningBlock1","","","","This is a dep:","null","","","","","",""
"image-keyboard-response","22","96793","0.0-5.0-1.5","LF","zt96waez4c","1920","1080","0","1","0","5daca66b71a51b00113172ce","","null","","","","","","","learning/Slide6.JPG","null","","","","","",""
"html-keyboard-response","23","97796","0.0-5.0-2.5","LF","zt96waez4c","1920","1080","0","1","0","5daca66b71a51b00113172ce","","null","","","learningBlock1","","","","<div style=""font-size:60px;""> </div>","null","LF","learning/Slide6.JPG","This is a dep:","","",""
"html-keyboard-response","24","98799","0.0-5.0-0.6","LF","zt96waez4c","1920","1080","0","1","0","5daca66b71a51b00113172ce","","null","","","learningBlock1","","","","This is a wug:","null","","","","","",""
"image-keyboard-response","25","99127","0.0-5.0-1.6","LF","zt96waez4c","1920","1080","0","1","0","5daca66b71a51b00113172ce","","null","","","","","","","learning/Slide7.JPG","null","","","","","",""
"html-keyboard-response","26","100130","0.0-5.0-2.6","LF","zt96waez4c","1920","1080","0","1","0","5daca66b71a51b00113172ce","","null","","","learningBlock1","","","","<div style=""font-size:60px;""> </div>","null","LF","learning/Slide7.JPG","This is a wug:","","",""
"html-keyboard-response","27","101132","0.0-5.0-0.7","LF","zt96waez4c","1920","1080","0","1","0","5daca66b71a51b00113172ce","","null","","","learningBlock1","","","","This is a bim:","null","","","","","",""
"image-keyboard-response","28","101460","0.0-5.0-1.7","LF","zt96waez4c","1920","1080","0","1","0","5daca66b71a51b00113172ce","","null","","","","","","","learning/Slide8.JPG","null","","","","","",""
"html-keyboard-response","29","102463","0.0-5.0-2.7","LF","zt96waez4c","1920","1080","0","1","0","5daca66b71a51b00113172ce","","null","","","learningBlock1","","","","<div style=""font-size:60px;""> </div>","null","LF","learning/Slide8.JPG","This is a bim:","","",""
"html-keyboard-response","30","103465","0.0-5.0-0.8","LF","zt96waez4c","1920","1080","0","1","0","5daca66b71a51b00113172ce","","null","","","learningBlock1","","","","This is a wug:","null","","","","","",""
"image-keyboard-response","31","103794","0.0-5.0-1.8","LF","zt96waez4c","1920","1080","0","1","0","5daca66b71a51b00113172ce","","null","","","","","","","learning/Slide9.JPG","null","","","","","",""
"html-keyboard-response","32","104798","0.0-5.0-2.8","LF","zt96waez4c","1920","1080","0","1","0","5daca66b71a51b00113172ce","","null","","","learningBlock1","","","","<div style=""font-size:60px;""> </div>","null","LF","learning/Slide9.JPG","This is a wug:","","",""
"html-keyboard-response","33","105801","0.0-5.0-0.9","LF","zt96waez4c","1920","1080","0","1","0","5daca66b71a51b00113172ce","","null","","","learningBlock1","","","","This is a dep:","null","","","","","",""
"image-keyboard-response","34","106130","0.0-5.0-1.9","LF","zt96waez4c","1920","1080","0","1","0","5daca66b71a51b00113172ce","","null","","","","","","","learning/Slide10.JPG","null","","","","","",""
"html-keyboard-response","35","107132","0.0-5.0-2.9","LF","zt96waez4c","1920","1080","0","1","0","5daca66b71a51b00113172ce","","null","","","learningBlock1","","","","<div style=""font-size:60px;""> </div>","null","LF","learning/Slide10.JPG","This is a dep:","","",""
"html-keyboard-response","36","108134","0.0-5.0-0.10","LF","zt96waez4c","1920","1080","0","1","0","5daca66b71a51b00113172ce","","null","","","learningBlock1","","","","This is a tob:","null","","","","","",""
"image-keyboard-response","37","108462","0.0-5.0-1.10","LF","zt96waez4c","1920","1080","0","1","0","5daca66b71a51b00113172ce","","null","","","","","","","learning/Slide11.JPG","null","","","","","",""
"html-keyboard-response","38","109465","0.0-5.0-2.10","LF","zt96waez4c","1920","1080","0","1","0","5daca66b71a51b00113172ce","","null","","","learningBlock1","","","","<div style=""font-size:60px;""> </div>","null","LF","learning/Slide11.JPG","This is a tob:","","",""
"html-keyboard-response","39","110468","0.0-5.0-0.11","LF","zt96waez4c","1920","1080","0","1","0","5daca66b71a51b00113172ce","","null","","","learningBlock1","","","","This is a dep:","null","","","","","",""
"image-keyboard-response","40","110795","0.0-5.0-1.11","LF","zt96waez4c","1920","1080","0","1","0","5daca66b71a51b00113172ce","","null","","","","","","","learning/Slide12.JPG","null","","","","","",""
"html-keyboard-response","41","111799","0.0-5.0-2.11","LF","zt96waez4c","1920","1080","0","1","0","5daca66b71a51b00113172ce","","null","","","learningBlock1","","","","<div style=""font-size:60px;""> </div>","null","LF","learning/Slide12.JPG","This is a dep:","","",""
"html-keyboard-response","42","112800","0.0-5.0-0.12","LF","zt96waez4c","1920","1080","0","1","0","5daca66b71a51b00113172ce","","null","","","learningBlock1","","","","This is a bim:","null","","","","","",""
"image-keyboard-response","43","113128","0.0-5.0-1.12","LF","zt96waez4c","1920","1080","0","1","0","5daca66b71a51b00113172ce","","null","","","","","","","learning/Slide13.JPG","null","","","","","",""
"html-keyboard-response","44","114131","0.0-5.0-2.12","LF","zt96waez4c","1920","1080","0","1","0","5daca66b71a51b00113172ce","","null","","","learningBlock1","","","","<div style=""font-size:60px;""> </div>","null","LF","learning/Slide13.JPG","This is a bim:","","",""
"html-keyboard-response","45","115134","0.0-5.0-0.13","LF","zt96waez4c","1920","1080","0","1","0","5daca66b71a51b00113172ce","","null","","","learningBlock1","","","","This is a wug:","null","","","","","",""
"image-keyboard-response","46","115461","0.0-5.0-1.13","LF","zt96waez4c","1920","1080","0","1","0","5daca66b71a51b00113172ce","","null","","","","","","","learning/Slide14.JPG","null","","","","","",""
"html-keyboard-response","47","116463","0.0-5.0-2.13","LF","zt96waez4c","1920","1080","0","1","0","5daca66b71a51b00113172ce","","null","","","learningBlock1","","","","<div style=""font-size:60px;""> </div>","null","LF","learning/Slide14.JPG","This is a wug:","","",""
"html-keyboard-response","48","117464","0.0-5.0-0.14","LF","zt96waez4c","1920","1080","0","1","0","5daca66b71a51b00113172ce","","null","","","learningBlock1","","","","This is a tob:","null","","","","","",""
"image-keyboard-response","49","117792","0.0-5.0-1.14","LF","zt96waez4c","1920","1080","0","1","0","5daca66b71a51b00113172ce","","null","","","","","","","learning/Slide15.JPG","null","","","","","",""
"html-keyboard-response","50","118794","0.0-5.0-2.14","LF","zt96waez4c","1920","1080","0","1","0","5daca66b71a51b00113172ce","","null","","","learningBlock1","","","","<div style=""font-size:60px;""> </div>","null","LF","learning/Slide15.JPG","This is a tob:","","",""
"html-keyboard-response","51","119796","0.0-5.0-0.15","LF","zt96waez4c","1920","1080","0","1","0","5daca66b71a51b00113172ce","","null","","","learningBlock1","","","","This is a dep:","null","","","","","",""
"image-keyboard-response","52","120128","0.0-5.0-1.15","LF","zt96waez4c","1920","1080","0","1","0","5daca66b71a51b00113172ce","","null","","","","","","","learning/Slide16.JPG","null","","","","","",""
"html-keyboard-response","53","121130","0.0-5.0-2.15","LF","zt96waez4c","1920","1080","0","1","0","5daca66b71a51b00113172ce","","null","","","learningBlock1","","","","<div style=""font-size:60px;""> </div>","null","LF","learning/Slide16.JPG","This is a dep:","","",""
"html-keyboard-response","54","122131","0.0-5.0-0.16","LF","zt96waez4c","1920","1080","0","1","0","5daca66b71a51b00113172ce","","null","","","learningBlock1","","","","This is a bim:","null","","","","","",""
"image-keyboard-response","55","122460","0.0-5.0-1.16","LF","zt96waez4c","1920","1080","0","1","0","5daca66b71a51b00113172ce","","null","","","","","","","learning/Slide17.JPG","null","","","","","",""
"html-keyboard-response","56","123463","0.0-5.0-2.16","LF","zt96waez4c","1920","1080","0","1","0","5daca66b71a51b00113172ce","","null","","","learningBlock1","","","","<div style=""font-size:60px;""> </div>","null","LF","learning/Slide17.JPG","This is a bim:","","",""
"html-keyboard-response","57","124466","0.0-5.0-0.17","LF","zt96waez4c","1920","1080","0","1","0","5daca66b71a51b00113172ce","","null","","","learningBlock1","","","","This is a tob:","null","","","","","",""
"image-keyboard-response","58","124794","0.0-5.0-1.17","LF","zt96waez4c","1920","1080","0","1","0","5daca66b71a51b00113172ce","","null","","","","","","","learning/Slide18.JPG","null","","","","","",""
"html-keyboard-response","59","125796","0.0-5.0-2.17","LF","zt96waez4c","1920","1080","0","1","0","5daca66b71a51b00113172ce","","null","","","learningBlock1","","","","<div style=""font-size:60px;""> </div>","null","LF","learning/Slide18.JPG","This is a tob:","","",""
"html-keyboard-response","60","126798","0.0-5.0-0.18","LF","zt96waez4c","1920","1080","0","1","0","5daca66b71a51b00113172ce","","null","","","learningBlock1","","","","This is a wug:","null","","","","","",""
"image-keyboard-response","61","127125","0.0-5.0-1.18","LF","zt96waez4c","1920","1080","0","1","0","5daca66b71a51b00113172ce","","null","","","","","","","learning/Slide19.JPG","null","","","","","",""
"html-keyboard-response","62","128128","0.0-5.0-2.18","LF","zt96waez4c","1920","1080","0","1","0","5daca66b71a51b00113172ce","","null","","","learningBlock1","","","","<div style=""font-size:60px;""> </div>","null","LF","learning/Slide19.JPG","This is a wug:","","",""
"html-keyboard-response","63","129129","0.0-5.0-0.19","LF","zt96waez4c","1920","1080","0","1","0","5daca66b71a51b00113172ce","","null","","","learningBlock1","","","","This is a bim:","null","","","","","",""
"image-keyboard-response","64","129458","0.0-5.0-1.19","LF","zt96waez4c","1920","1080","0","1","0","5daca66b71a51b00113172ce","","null","","","","","","","learning/Slide20.JPG","null","","","","","",""
"html-keyboard-response","65","130461","0.0-5.0-2.19","LF","zt96waez4c","1920","1080","0","1","0","5daca66b71a51b00113172ce","","null","","","learningBlock1","","","","<div style=""font-size:60px;""> </div>","null","LF","learning/Slide20.JPG","This is a bim:","","",""
"html-keyboard-response","66","131463","0.0-5.0-0.20","LF","zt96waez4c","1920","1080","0","1","0","5daca66b71a51b00113172ce","","null","","","learningBlock1","","","","This is a dep:","null","","","","","",""
"image-keyboard-response","67","131790","0.0-5.0-1.20","LF","zt96waez4c","1920","1080","0","1","0","5daca66b71a51b00113172ce","","null","","","","","","","learning/Slide21.JPG","null","","","","","",""
"html-keyboard-response","68","132794","0.0-5.0-2.20","LF","zt96waez4c","1920","1080","0","1","0","5daca66b71a51b00113172ce","","null","","","learningBlock1","","","","<div style=""font-size:60px;""> </div>","null","LF","learning/Slide21.JPG","This is a dep:","","",""
"html-keyboard-response","69","133795","0.0-5.0-0.21","LF","zt96waez4c","1920","1080","0","1","0","5daca66b71a51b00113172ce","","null","","","learningBlock1","","","","This is a bim:","null","","","","","",""
"image-keyboard-response","70","134123","0.0-5.0-1.21","LF","zt96waez4c","1920","1080","0","1","0","5daca66b71a51b00113172ce","","null","","","","","","","learning/Slide22.JPG","null","","","","","",""
"html-keyboard-response","71","135126","0.0-5.0-2.21","LF","zt96waez4c","1920","1080","0","1","0","5daca66b71a51b00113172ce","","null","","","learningBlock1","","","","<div style=""font-size:60px;""> </div>","null","LF","learning/Slide22.JPG","This is a bim:","","",""
"html-keyboard-response","72","136128","0.0-5.0-0.22","LF","zt96waez4c","1920","1080","0","1","0","5daca66b71a51b00113172ce","","null","","","learningBlock1","","","","This is a tob:","null","","","","","",""
"image-keyboard-response","73","136456","0.0-5.0-1.22","LF","zt96waez4c","1920","1080","0","1","0","5daca66b71a51b00113172ce","","null","","","","","","","learning/Slide23.JPG","null","","","","","",""
"html-keyboard-response","74","137459","0.0-5.0-2.22","LF","zt96waez4c","1920","1080","0","1","0","5daca66b71a51b00113172ce","","null","","","learningBlock1","","","","<div style=""font-size:60px;""> </div>","null","LF","learning/Slide23.JPG","This is a tob:","","",""
"html-keyboard-response","75","138461","0.0-5.0-0.23","LF","zt96waez4c","1920","1080","0","1","0","5daca66b71a51b00113172ce","","null","","","learningBlock1","","","","This is a wug:","null","","","","","",""
"image-keyboard-response","76","138789","0.0-5.0-1.23","LF","zt96waez4c","1920","1080","0","1","0","5daca66b71a51b00113172ce","","null","","","","","","","learning/Slide24.JPG","null","","","","","",""
"html-keyboard-response","77","139792","0.0-5.0-2.23","LF","zt96waez4c","1920","1080","0","1","0","5daca66b71a51b00113172ce","","null","","","learningBlock1","","","","<div style=""font-size:60px;""> </div>","null","LF","learning/Slide24.JPG","This is a wug:","","",""
"html-keyboard-response","78","140794","0.0-5.0-0.24","LF","zt96waez4c","1920","1080","0","1","0","5daca66b71a51b00113172ce","","null","","","learningBlock1","","","","This is a dep:","null","","","","","",""
"image-keyboard-response","79","141123","0.0-5.0-1.24","LF","zt96waez4c","1920","1080","0","1","0","5daca66b71a51b00113172ce","","null","","","","","","","learning/Slide25.JPG","null","","","","","",""
"html-keyboard-response","80","142132","0.0-5.0-2.24","LF","zt96waez4c","1920","1080","0","1","0","5daca66b71a51b00113172ce","","null","","","learningBlock1","","","","<div style=""font-size:60px;""> </div>","null","LF","learning/Slide25.JPG","This is a dep:","","",""
"html-keyboard-response","81","143134","0.0-5.0-0.25","LF","zt96waez4c","1920","1080","0","1","0","5daca66b71a51b00113172ce","","null","","","learningBlock1","","","","This is a wug:","null","","","","","",""
"image-keyboard-response","82","143461","0.0-5.0-1.25","LF","zt96waez4c","1920","1080","0","1","0","5daca66b71a51b00113172ce","","null","","","","","","","learning/Slide26.JPG","null","","","","","",""
"html-keyboard-response","83","144463","0.0-5.0-2.25","LF","zt96waez4c","1920","1080","0","1","0","5daca66b71a51b00113172ce","","null","","","learningBlock1","","","","<div style=""font-size:60px;""> </div>","null","LF","learning/Slide26.JPG","This is a wug:","","",""
"html-keyboard-response","84","145465","0.0-5.0-0.26","LF","zt96waez4c","1920","1080","0","1","0","5daca66b71a51b00113172ce","","null","","","learningBlock1","","","","This is a bim:","null","","","","","",""
"image-keyboard-response","85","145793","0.0-5.0-1.26","LF","zt96waez4c","1920","1080","0","1","0","5daca66b71a51b00113172ce","","null","","","","","","","learning/Slide27.JPG","null","","","","","",""
"html-keyboard-response","86","146796","0.0-5.0-2.26","LF","zt96waez4c","1920","1080","0","1","0","5daca66b71a51b00113172ce","","null","","","learningBlock1","","","","<div style=""font-size:60px;""> </div>","null","LF","learning/Slide27.JPG","This is a bim:","","",""
"html-keyboard-response","87","147798","0.0-5.0-0.27","LF","zt96waez4c","1920","1080","0","1","0","5daca66b71a51b00113172ce","","null","","","learningBlock1","","","","This is a dep:","null","","","","","",""
"image-keyboard-response","88","148128","0.0-5.0-1.27","LF","zt96waez4c","1920","1080","0","1","0","5daca66b71a51b00113172ce","","null","","","","","","","learning/Slide28.JPG","null","","","","","",""
"html-keyboard-response","89","149131","0.0-5.0-2.27","LF","zt96waez4c","1920","1080","0","1","0","5daca66b71a51b00113172ce","","null","","","learningBlock1","","","","<div style=""font-size:60px;""> </div>","null","LF","learning/Slide28.JPG","This is a dep:","","",""
"html-keyboard-response","90","150133","0.0-5.0-0.28","LF","zt96waez4c","1920","1080","0","1","0","5daca66b71a51b00113172ce","","null","","","learningBlock1","","","","This is a tob:","null","","","","","",""
"image-keyboard-response","91","150461","0.0-5.0-1.28","LF","zt96waez4c","1920","1080","0","1","0","5daca66b71a51b00113172ce","","null","","","","","","","learning/Slide29.JPG","null","","","","","",""
"html-keyboard-response","92","151463","0.0-5.0-2.28","LF","zt96waez4c","1920","1080","0","1","0","5daca66b71a51b00113172ce","","null","","","learningBlock1","","","","<div style=""font-size:60px;""> </div>","null","LF","learning/Slide29.JPG","This is a tob:","","",""
"html-keyboard-response","93","152465","0.0-5.0-0.29","LF","zt96waez4c","1920","1080","0","1","0","5daca66b71a51b00113172ce","","null","","","learningBlock1","","","","This is a dep:","null","","","","","",""
"image-keyboard-response","94","152792","0.0-5.0-1.29","LF","zt96waez4c","1920","1080","0","1","0","5daca66b71a51b00113172ce","","null","","","","","","","learning/Slide30.JPG","null","","","","","",""
"html-keyboard-response","95","153795","0.0-5.0-2.29","LF","zt96waez4c","1920","1080","0","1","0","5daca66b71a51b00113172ce","","null","","","learningBlock1","","","","<div style=""font-size:60px;""> </div>","null","LF","learning/Slide30.JPG","This is a dep:","","",""
"html-keyboard-response","96","154797","0.0-5.0-0.30","LF","zt96waez4c","1920","1080","0","1","0","5daca66b71a51b00113172ce","","null","","","learningBlock1","","","","This is a wug:","null","","","","","",""
"image-keyboard-response","97","155125","0.0-5.0-1.30","LF","zt96waez4c","1920","1080","0","1","0","5daca66b71a51b00113172ce","","null","","","","","","","learning/Slide31.JPG","null","","","","","",""
"html-keyboard-response","98","156128","0.0-5.0-2.30","LF","zt96waez4c","1920","1080","0","1","0","5daca66b71a51b00113172ce","","null","","","learningBlock1","","","","<div style=""font-size:60px;""> </div>","null","LF","learning/Slide31.JPG","This is a wug:","","",""
"html-keyboard-response","99","157130","0.0-5.0-0.31","LF","zt96waez4c","1920","1080","0","1","0","5daca66b71a51b00113172ce","","null","","","learningBlock1","","","","This is a tob:","null","","","","","",""
"image-keyboard-response","100","157459","0.0-5.0-1.31","LF","zt96waez4c","1920","1080","0","1","0","5daca66b71a51b00113172ce","","null","","","","","","","learning/Slide32.JPG","null","","","","","",""
"html-keyboard-response","101","158462","0.0-5.0-2.31","LF","zt96waez4c","1920","1080","0","1","0","5daca66b71a51b00113172ce","","null","","","learningBlock1","","","","<div style=""font-size:60px;""> </div>","null","LF","learning/Slide32.JPG","This is a tob:","","",""
"html-keyboard-response","102","159464","0.0-5.0-0.32","LF","zt96waez4c","1920","1080","0","1","0","5daca66b71a51b00113172ce","","null","","","learningBlock1","","","","This is a bim:","null","","","","","",""
"image-keyboard-response","103","159792","0.0-5.0-1.32","LF","zt96waez4c","1920","1080","0","1","0","5daca66b71a51b00113172ce","","null","","","","","","","learning/Slide33.JPG","null","","","","","",""
"html-keyboard-response","104","160795","0.0-5.0-2.32","LF","zt96waez4c","1920","1080","0","1","0","5daca66b71a51b00113172ce","","null","","","learningBlock1","","","","<div style=""font-size:60px;""> </div>","null","LF","learning/Slide33.JPG","This is a bim:","","",""
"html-keyboard-response","105","161796","0.0-5.0-0.33","LF","zt96waez4c","1920","1080","0","1","0","5daca66b71a51b00113172ce","","null","","","learningBlock1","","","","This is a tob:","null","","","","","",""
"image-keyboard-response","106","162124","0.0-5.0-1.33","LF","zt96waez4c","1920","1080","0","1","0","5daca66b71a51b00113172ce","","null","","","","","","","learning/Slide34.JPG","null","","","","","",""
"html-keyboard-response","107","163126","0.0-5.0-2.33","LF","zt96waez4c","1920","1080","0","1","0","5daca66b71a51b00113172ce","","null","","","learningBlock1","","","","<div style=""font-size:60px;""> </div>","null","LF","learning/Slide34.JPG","This is a tob:","","",""
"html-keyboard-response","108","164129","0.0-5.0-0.34","LF","zt96waez4c","1920","1080","0","1","0","5daca66b71a51b00113172ce","","null","","","learningBlock1","","","","This is a bim:","null","","","","","",""
"image-keyboard-response","109","164457","0.0-5.0-1.34","LF","zt96waez4c","1920","1080","0","1","0","5daca66b71a51b00113172ce","","null","","","","","","","learning/Slide35.JPG","null","","","","","",""
"html-keyboard-response","110","165459","0.0-5.0-2.34","LF","zt96waez4c","1920","1080","0","1","0","5daca66b71a51b00113172ce","","null","","","learningBlock1","","","","<div style=""font-size:60px;""> </div>","null","LF","learning/Slide35.JPG","This is a bim:","","",""
"html-keyboard-response","111","166462","0.0-5.0-0.35","LF","zt96waez4c","1920","1080","0","1","0","5daca66b71a51b00113172ce","","null","","","learningBlock1","","","","This is a dep:","null","","","","","",""
"image-keyboard-response","112","166789","0.0-5.0-1.35","LF","zt96waez4c","1920","1080","0","1","0","5daca66b71a51b00113172ce","","null","","","","","","","learning/Slide36.JPG","null","","","","","",""
"html-keyboard-response","113","167792","0.0-5.0-2.35","LF","zt96waez4c","1920","1080","0","1","0","5daca66b71a51b00113172ce","","null","","","learningBlock1","","","","<div style=""font-size:60px;""> </div>","null","LF","learning/Slide36.JPG","This is a dep:","","",""
"html-keyboard-response","114","168793","0.0-5.0-0.36","LF","zt96waez4c","1920","1080","0","1","0","5daca66b71a51b00113172ce","","null","","","learningBlock1","","","","This is a tob:","null","","","","","",""
"image-keyboard-response","115","169123","0.0-5.0-1.36","LF","zt96waez4c","1920","1080","0","1","0","5daca66b71a51b00113172ce","","null","","","","","","","learning/Slide37.JPG","null","","","","","",""
"html-keyboard-response","116","170126","0.0-5.0-2.36","LF","zt96waez4c","1920","1080","0","1","0","5daca66b71a51b00113172ce","","null","","","learningBlock1","","","","<div style=""font-size:60px;""> </div>","null","LF","learning/Slide37.JPG","This is a tob:","","",""
"html-keyboard-response","117","171130","0.0-5.0-0.37","LF","zt96waez4c","1920","1080","0","1","0","5daca66b71a51b00113172ce","","null","","","learningBlock1","","","","This is a wug:","null","","","","","",""
"image-keyboard-response","118","171458","0.0-5.0-1.37","LF","zt96waez4c","1920","1080","0","1","0","5daca66b71a51b00113172ce","","null","","","","","","","learning/Slide38.JPG","null","","","","","",""
"html-keyboard-response","119","172462","0.0-5.0-2.37","LF","zt96waez4c","1920","1080","0","1","0","5daca66b71a51b00113172ce","","null","","","learningBlock1","","","","<div style=""font-size:60px;""> </div>","null","LF","learning/Slide38.JPG","This is a wug:","","",""
"html-keyboard-response","120","173464","0.0-5.0-0.38","LF","zt96waez4c","1920","1080","0","1","0","5daca66b71a51b00113172ce","","null","","","learningBlock1","","","","This is a bim:","null","","","","","",""
"image-keyboard-response","121","173793","0.0-5.0-1.38","LF","zt96waez4c","1920","1080","0","1","0","5daca66b71a51b00113172ce","","null","","","","","","","learning/Slide39.JPG","null","","","","","",""
"html-keyboard-response","122","174796","0.0-5.0-2.38","LF","zt96waez4c","1920","1080","0","1","0","5daca66b71a51b00113172ce","","null","","","learningBlock1","","","","<div style=""font-size:60px;""> </div>","null","LF","learning/Slide39.JPG","This is a bim:","","",""
"html-keyboard-response","123","175797","0.0-5.0-0.39","LF","zt96waez4c","1920","1080","0","1","0","5daca66b71a51b00113172ce","","null","","","learningBlock1","","","","This is a tob:","null","","","","","",""
"image-keyboard-response","124","176125","0.0-5.0-1.39","LF","zt96waez4c","1920","1080","0","1","0","5daca66b71a51b00113172ce","","null","","","","","","","learning/Slide40.JPG","null","","","","","",""
"html-keyboard-response","125","177129","0.0-5.0-2.39","LF","zt96waez4c","1920","1080","0","1","0","5daca66b71a51b00113172ce","","null","","","learningBlock1","","","","<div style=""font-size:60px;""> </div>","null","LF","learning/Slide40.JPG","This is a tob:","","",""
"html-keyboard-response","126","178131","0.0-5.0-0.40","LF","zt96waez4c","1920","1080","0","1","0","5daca66b71a51b00113172ce","","null","","","learningBlock1","","","","This is a bim:","null","","","","","",""
"image-keyboard-response","127","178459","0.0-5.0-1.40","LF","zt96waez4c","1920","1080","0","1","0","5daca66b71a51b00113172ce","","null","","","","","","","learning/Slide41.JPG","null","","","","","",""
"html-keyboard-response","128","179462","0.0-5.0-2.40","LF","zt96waez4c","1920","1080","0","1","0","5daca66b71a51b00113172ce","","null","","","learningBlock1","","","","<div style=""font-size:60px;""> </div>","null","LF","learning/Slide41.JPG","This is a bim:","","",""
"html-keyboard-response","129","180463","0.0-5.0-0.41","LF","zt96waez4c","1920","1080","0","1","0","5daca66b71a51b00113172ce","","null","","","learningBlock1","","","","This is a dep:","null","","","","","",""
"image-keyboard-response","130","180796","0.0-5.0-1.41","LF","zt96waez4c","1920","1080","0","1","0","5daca66b71a51b00113172ce","","null","","","","","","","learning/Slide42.JPG","null","","","","","",""
"html-keyboard-response","131","181798","0.0-5.0-2.41","LF","zt96waez4c","1920","1080","0","1","0","5daca66b71a51b00113172ce","","null","","","learningBlock1","","","","<div style=""font-size:60px;""> </div>","null","LF","learning/Slide42.JPG","This is a dep:","","",""
"html-keyboard-response","132","182798","0.0-5.0-0.42","LF","zt96waez4c","1920","1080","0","1","0","5daca66b71a51b00113172ce","","null","","","learningBlock1","","","","This is a wug:","null","","","","","",""
"image-keyboard-response","133","183125","0.0-5.0-1.42","LF","zt96waez4c","1920","1080","0","1","0","5daca66b71a51b00113172ce","","null","","","","","","","learning/Slide43.JPG","null","","","","","",""
"html-keyboard-response","134","184127","0.0-5.0-2.42","LF","zt96waez4c","1920","1080","0","1","0","5daca66b71a51b00113172ce","","null","","","learningBlock1","","","","<div style=""font-size:60px;""> </div>","null","LF","learning/Slide43.JPG","This is a wug:","","",""
"html-keyboard-response","135","185129","0.0-5.0-0.43","LF","zt96waez4c","1920","1080","0","1","0","5daca66b71a51b00113172ce","","null","","","learningBlock1","","","","This is a bim:","null","","","","","",""
"image-keyboard-response","136","185458","0.0-5.0-1.43","LF","zt96waez4c","1920","1080","0","1","0","5daca66b71a51b00113172ce","","null","","","","","","","learning/Slide44.JPG","null","","","","","",""
"html-keyboard-response","137","186459","0.0-5.0-2.43","LF","zt96waez4c","1920","1080","0","1","0","5daca66b71a51b00113172ce","","null","","","learningBlock1","","","","<div style=""font-size:60px;""> </div>","null","LF","learning/Slide44.JPG","This is a bim:","","",""
"html-keyboard-response","138","187462","0.0-5.0-0.44","LF","zt96waez4c","1920","1080","0","1","0","5daca66b71a51b00113172ce","","null","","","learningBlock1","","","","This is a wug:","null","","","","","",""
"image-keyboard-response","139","187790","0.0-5.0-1.44","LF","zt96waez4c","1920","1080","0","1","0","5daca66b71a51b00113172ce","","null","","","","","","","learning/Slide45.JPG","null","","","","","",""
"html-keyboard-response","140","188792","0.0-5.0-2.44","LF","zt96waez4c","1920","1080","0","1","0","5daca66b71a51b00113172ce","","null","","","learningBlock1","","","","<div style=""font-size:60px;""> </div>","null","LF","learning/Slide45.JPG","This is a wug:","","",""
"html-keyboard-response","141","189796","0.0-5.0-0.45","LF","zt96waez4c","1920","1080","0","1","0","5daca66b71a51b00113172ce","","null","","","learningBlock1","","","","This is a dep:","null","","","","","",""
"image-keyboard-response","142","190123","0.0-5.0-1.45","LF","zt96waez4c","1920","1080","0","1","0","5daca66b71a51b00113172ce","","null","","","","","","","learning/Slide46.JPG","null","","","","","",""
"html-keyboard-response","143","191125","0.0-5.0-2.45","LF","zt96waez4c","1920","1080","0","1","0","5daca66b71a51b00113172ce","","null","","","learningBlock1","","","","<div style=""font-size:60px;""> </div>","null","LF","learning/Slide46.JPG","This is a dep:","","",""
"html-keyboard-response","144","192127","0.0-5.0-0.46","LF","zt96waez4c","1920","1080","0","1","0","5daca66b71a51b00113172ce","","null","","","learningBlock1","","","","This is a tob:","null","","","","","",""
"image-keyboard-response","145","192455","0.0-5.0-1.46","LF","zt96waez4c","1920","1080","0","1","0","5daca66b71a51b00113172ce","","null","","","","","","","learning/Slide47.JPG","null","","","","","",""
"html-keyboard-response","146","193457","0.0-5.0-2.46","LF","zt96waez4c","1920","1080","0","1","0","5daca66b71a51b00113172ce","","null","","","learningBlock1","","","","<div style=""font-size:60px;""> </div>","null","LF","learning/Slide47.JPG","This is a tob:","","",""
"html-keyboard-response","147","194459","0.0-5.0-0.47","LF","zt96waez4c","1920","1080","0","1","0","5daca66b71a51b00113172ce","","null","","","learningBlock1","","","","This is a bim:","null","","","","","",""
"image-keyboard-response","148","194789","0.0-5.0-1.47","LF","zt96waez4c","1920","1080","0","1","0","5daca66b71a51b00113172ce","","null","","","","","","","learning/Slide48.JPG","null","","","","","",""
"html-keyboard-response","149","195792","0.0-5.0-2.47","LF","zt96waez4c","1920","1080","0","1","0","5daca66b71a51b00113172ce","","null","","","learningBlock1","","","","<div style=""font-size:60px;""> </div>","null","LF","learning/Slide48.JPG","This is a bim:","","",""
"html-keyboard-response","150","196793","0.0-5.0-0.48","LF","zt96waez4c","1920","1080","0","1","0","5daca66b71a51b00113172ce","","null","","","learningBlock1","","","","This is a dep:","null","","","","","",""
"image-keyboard-response","151","197123","0.0-5.0-1.48","LF","zt96waez4c","1920","1080","0","1","0","5daca66b71a51b00113172ce","","null","","","","","","","learning/Slide49.JPG","null","","","","","",""
"html-keyboard-response","152","198125","0.0-5.0-2.48","LF","zt96waez4c","1920","1080","0","1","0","5daca66b71a51b00113172ce","","null","","","learningBlock1","","","","<div style=""font-size:60px;""> </div>","null","LF","learning/Slide49.JPG","This is a dep:","","",""
"html-keyboard-response","153","199127","0.0-5.0-0.49","LF","zt96waez4c","1920","1080","0","1","0","5daca66b71a51b00113172ce","","null","","","learningBlock1","","","","This is a tob:","null","","","","","",""
"image-keyboard-response","154","199456","0.0-5.0-1.49","LF","zt96waez4c","1920","1080","0","1","0","5daca66b71a51b00113172ce","","null","","","","","","","learning/Slide50.JPG","null","","","","","",""
"html-keyboard-response","155","200458","0.0-5.0-2.49","LF","zt96waez4c","1920","1080","0","1","0","5daca66b71a51b00113172ce","","null","","","learningBlock1","","","","<div style=""font-size:60px;""> </div>","null","LF","learning/Slide50.JPG","This is a tob:","","",""
"html-keyboard-response","156","201459","0.0-5.0-0.50","LF","zt96waez4c","1920","1080","0","1","0","5daca66b71a51b00113172ce","","null","","","learningBlock1","","","","This is a bim:","null","","","","","",""
"image-keyboard-response","157","201788","0.0-5.0-1.50","LF","zt96waez4c","1920","1080","0","1","0","5daca66b71a51b00113172ce","","null","","","","","","","learning/Slide51.JPG","null","","","","","",""
"html-keyboard-response","158","202790","0.0-5.0-2.50","LF","zt96waez4c","1920","1080","0","1","0","5daca66b71a51b00113172ce","","null","","","learningBlock1","","","","<div style=""font-size:60px;""> </div>","null","LF","learning/Slide51.JPG","This is a bim:","","",""
"html-keyboard-response","159","203793","0.0-5.0-0.51","LF","zt96waez4c","1920","1080","0","1","0","5daca66b71a51b00113172ce","","null","","","learningBlock1","","","","This is a wug:","null","","","","","",""
"image-keyboard-response","160","204122","0.0-5.0-1.51","LF","zt96waez4c","1920","1080","0","1","0","5daca66b71a51b00113172ce","","null","","","","","","","learning/Slide52.JPG","null","","","","","",""
"html-keyboard-response","161","205124","0.0-5.0-2.51","LF","zt96waez4c","1920","1080","0","1","0","5daca66b71a51b00113172ce","","null","","","learningBlock1","","","","<div style=""font-size:60px;""> </div>","null","LF","learning/Slide52.JPG","This is a wug:","","",""
"html-keyboard-response","162","206128","0.0-5.0-0.52","LF","zt96waez4c","1920","1080","0","1","0","5daca66b71a51b00113172ce","","null","","","learningBlock1","","","","This is a tob:","null","","","","","",""
"image-keyboard-response","163","206457","0.0-5.0-1.52","LF","zt96waez4c","1920","1080","0","1","0","5daca66b71a51b00113172ce","","null","","","","","","","learning/Slide53.JPG","null","","","","","",""
"html-keyboard-response","164","207459","0.0-5.0-2.52","LF","zt96waez4c","1920","1080","0","1","0","5daca66b71a51b00113172ce","","null","","","learningBlock1","","","","<div style=""font-size:60px;""> </div>","null","LF","learning/Slide53.JPG","This is a tob:","","",""
"html-keyboard-response","165","208462","0.0-5.0-0.53","LF","zt96waez4c","1920","1080","0","1","0","5daca66b71a51b00113172ce","","null","","","learningBlock1","","","","This is a dep:","null","","","","","",""
"image-keyboard-response","166","208789","0.0-5.0-1.53","LF","zt96waez4c","1920","1080","0","1","0","5daca66b71a51b00113172ce","","null","","","","","","","learning/Slide54.JPG","null","","","","","",""
"html-keyboard-response","167","209792","0.0-5.0-2.53","LF","zt96waez4c","1920","1080","0","1","0","5daca66b71a51b00113172ce","","null","","","learningBlock1","","","","<div style=""font-size:60px;""> </div>","null","LF","learning/Slide54.JPG","This is a dep:","","",""
"html-keyboard-response","168","210794","0.0-5.0-0.54","LF","zt96waez4c","1920","1080","0","1","0","5daca66b71a51b00113172ce","","null","","","learningBlock1","","","","This is a bim:","null","","","","","",""
"image-keyboard-response","169","211124","0.0-5.0-1.54","LF","zt96waez4c","1920","1080","0","1","0","5daca66b71a51b00113172ce","","null","","","","","","","learning/Slide55.JPG","null","","","","","",""
"html-keyboard-response","170","212126","0.0-5.0-2.54","LF","zt96waez4c","1920","1080","0","1","0","5daca66b71a51b00113172ce","","null","","","learningBlock1","","","","<div style=""font-size:60px;""> </div>","null","LF","learning/Slide55.JPG","This is a bim:","","",""
"html-keyboard-response","171","213130","0.0-5.0-0.55","LF","zt96waez4c","1920","1080","0","1","0","5daca66b71a51b00113172ce","","null","","","learningBlock1","","","","This is a tob:","null","","","","","",""
"image-keyboard-response","172","213457","0.0-5.0-1.55","LF","zt96waez4c","1920","1080","0","1","0","5daca66b71a51b00113172ce","","null","","","","","","","learning/Slide56.JPG","null","","","","","",""
"html-keyboard-response","173","214459","0.0-5.0-2.55","LF","zt96waez4c","1920","1080","0","1","0","5daca66b71a51b00113172ce","","null","","","learningBlock1","","","","<div style=""font-size:60px;""> </div>","null","LF","learning/Slide56.JPG","This is a tob:","","",""
"html-keyboard-response","174","215461","0.0-5.0-0.56","LF","zt96waez4c","1920","1080","0","1","0","5daca66b71a51b00113172ce","","null","","","learningBlock1","","","","This is a dep:","null","","","","","",""
"image-keyboard-response","175","215790","0.0-5.0-1.56","LF","zt96waez4c","1920","1080","0","1","0","5daca66b71a51b00113172ce","","null","","","","","","","learning/Slide57.JPG","null","","","","","",""
"html-keyboard-response","176","216792","0.0-5.0-2.56","LF","zt96waez4c","1920","1080","0","1","0","5daca66b71a51b00113172ce","","null","","","learningBlock1","","","","<div style=""font-size:60px;""> </div>","null","LF","learning/Slide57.JPG","This is a dep:","","",""
"html-keyboard-response","177","217794","0.0-5.0-0.57","LF","zt96waez4c","1920","1080","0","1","0","5daca66b71a51b00113172ce","","null","","","learningBlock1","","","","This is a wug:","null","","","","","",""
"image-keyboard-response","178","218123","0.0-5.0-1.57","LF","zt96waez4c","1920","1080","0","1","0","5daca66b71a51b00113172ce","","null","","","","","","","learning/Slide58.JPG","null","","","","","",""
"html-keyboard-response","179","219124","0.0-5.0-2.57","LF","zt96waez4c","1920","1080","0","1","0","5daca66b71a51b00113172ce","","null","","","learningBlock1","","","","<div style=""font-size:60px;""> </div>","null","LF","learning/Slide58.JPG","This is a wug:","","",""
"html-keyboard-response","180","220127","0.0-5.0-0.58","LF","zt96waez4c","1920","1080","0","1","0","5daca66b71a51b00113172ce","","null","","","learningBlock1","","","","This is a dep:","null","","","","","",""
"image-keyboard-response","181","220454","0.0-5.0-1.58","LF","zt96waez4c","1920","1080","0","1","0","5daca66b71a51b00113172ce","","null","","","","","","","learning/Slide59.JPG","null","","","","","",""
"html-keyboard-response","182","221458","0.0-5.0-2.58","LF","zt96waez4c","1920","1080","0","1","0","5daca66b71a51b00113172ce","","null","","","learningBlock1","","","","<div style=""font-size:60px;""> </div>","null","LF","learning/Slide59.JPG","This is a dep:","","",""
"html-keyboard-response","183","222460","0.0-5.0-0.59","LF","zt96waez4c","1920","1080","0","1","0","5daca66b71a51b00113172ce","","null","","","learningBlock1","","","","This is a wug:","null","","","","","",""
"image-keyboard-response","184","222790","0.0-5.0-1.59","LF","zt96waez4c","1920","1080","0","1","0","5daca66b71a51b00113172ce","","null","","","","","","","learning/Slide60.JPG","null","","","","","",""
"html-keyboard-response","185","223793","0.0-5.0-2.59","LF","zt96waez4c","1920","1080","0","1","0","5daca66b71a51b00113172ce","","null","","","learningBlock1","","","","<div style=""font-size:60px;""> </div>","null","LF","learning/Slide60.JPG","This is a wug:","","",""
"html-keyboard-response","186","224797","0.0-5.0-0.60","LF","zt96waez4c","1920","1080","0","1","0","5daca66b71a51b00113172ce","","null","","","learningBlock1","","","","This is a bim:","null","","","","","",""
"image-keyboard-response","187","225126","0.0-5.0-1.60","LF","zt96waez4c","1920","1080","0","1","0","5daca66b71a51b00113172ce","","null","","","","","","","learning/Slide61.JPG","null","","","","","",""
"html-keyboard-response","188","226130","0.0-5.0-2.60","LF","zt96waez4c","1920","1080","0","1","0","5daca66b71a51b00113172ce","","null","","","learningBlock1","","","","<div style=""font-size:60px;""> </div>","null","LF","learning/Slide61.JPG","This is a bim:","","",""
"html-keyboard-response","189","227132","0.0-5.0-0.61","LF","zt96waez4c","1920","1080","0","1","0","5daca66b71a51b00113172ce","","null","","","learningBlock1","","","","This is a dep:","null","","","","","",""
"image-keyboard-response","190","227460","0.0-5.0-1.61","LF","zt96waez4c","1920","1080","0","1","0","5daca66b71a51b00113172ce","","null","","","","","","","learning/Slide62.JPG","null","","","","","",""
"html-keyboard-response","191","228462","0.0-5.0-2.61","LF","zt96waez4c","1920","1080","0","1","0","5daca66b71a51b00113172ce","","null","","","learningBlock1","","","","<div style=""font-size:60px;""> </div>","null","LF","learning/Slide62.JPG","This is a dep:","","",""
"html-keyboard-response","192","229463","0.0-5.0-0.62","LF","zt96waez4c","1920","1080","0","1","0","5daca66b71a51b00113172ce","","null","","","learningBlock1","","","","This is a bim:","null","","","","","",""
"image-keyboard-response","193","229791","0.0-5.0-1.62","LF","zt96waez4c","1920","1080","0","1","0","5daca66b71a51b00113172ce","","null","","","","","","","learning/Slide63.JPG","null","","","","","",""
"html-keyboard-response","194","230793","0.0-5.0-2.62","LF","zt96waez4c","1920","1080","0","1","0","5daca66b71a51b00113172ce","","null","","","learningBlock1","","","","<div style=""font-size:60px;""> </div>","null","LF","learning/Slide63.JPG","This is a bim:","","",""
"html-keyboard-response","195","231795","0.0-5.0-0.63","LF","zt96waez4c","1920","1080","0","1","0","5daca66b71a51b00113172ce","","null","","","learningBlock1","","","","This is a tob:","null","","","","","",""
"image-keyboard-response","196","232122","0.0-5.0-1.63","LF","zt96waez4c","1920","1080","0","1","0","5daca66b71a51b00113172ce","","null","","","","","","","learning/Slide64.JPG","null","","","","","",""
"html-keyboard-response","197","233124","0.0-5.0-2.63","LF","zt96waez4c","1920","1080","0","1","0","5daca66b71a51b00113172ce","","null","","","learningBlock1","","","","<div style=""font-size:60px;""> </div>","null","LF","learning/Slide64.JPG","This is a tob:","","",""
"html-keyboard-response","198","234126","0.0-5.0-0.64","LF","zt96waez4c","1920","1080","0","1","0","5daca66b71a51b00113172ce","","null","","","learningBlock1","","","","This is a wug:","null","","","","","",""
"image-keyboard-response","199","234456","0.0-5.0-1.64","LF","zt96waez4c","1920","1080","0","1","0","5daca66b71a51b00113172ce","","null","","","","","","","learning/Slide65.JPG","null","","","","","",""
"html-keyboard-response","200","235459","0.0-5.0-2.64","LF","zt96waez4c","1920","1080","0","1","0","5daca66b71a51b00113172ce","","null","","","learningBlock1","","","","<div style=""font-size:60px;""> </div>","null","LF","learning/Slide65.JPG","This is a wug:","","",""
"html-keyboard-response","201","236461","0.0-5.0-0.65","LF","zt96waez4c","1920","1080","0","1","0","5daca66b71a51b00113172ce","","null","","","learningBlock1","","","","This is a dep:","null","","","","","",""
"image-keyboard-response","202","236790","0.0-5.0-1.65","LF","zt96waez4c","1920","1080","0","1","0","5daca66b71a51b00113172ce","","null","","","","","","","learning/Slide66.JPG","null","","","","","",""
"html-keyboard-response","203","237792","0.0-5.0-2.65","LF","zt96waez4c","1920","1080","0","1","0","5daca66b71a51b00113172ce","","null","","","learningBlock1","","","","<div style=""font-size:60px;""> </div>","null","LF","learning/Slide66.JPG","This is a dep:","","",""
"html-keyboard-response","204","238794","0.0-5.0-0.66","LF","zt96waez4c","1920","1080","0","1","0","5daca66b71a51b00113172ce","","null","","","learningBlock1","","","","This is a tob:","null","","","","","",""
"image-keyboard-response","205","239122","0.0-5.0-1.66","LF","zt96waez4c","1920","1080","0","1","0","5daca66b71a51b00113172ce","","null","","","","","","","learning/Slide67.JPG","null","","","","","",""
"html-keyboard-response","206","240124","0.0-5.0-2.66","LF","zt96waez4c","1920","1080","0","1","0","5daca66b71a51b00113172ce","","null","","","learningBlock1","","","","<div style=""font-size:60px;""> </div>","null","LF","learning/Slide67.JPG","This is a tob:","","",""
"html-keyboard-response","207","241127","0.0-5.0-0.67","LF","zt96waez4c","1920","1080","0","1","0","5daca66b71a51b00113172ce","","null","","","learningBlock1","","","","This is a wug:","null","","","","","",""
"image-keyboard-response","208","241458","0.0-5.0-1.67","LF","zt96waez4c","1920","1080","0","1","0","5daca66b71a51b00113172ce","","null","","","","","","","learning/Slide68.JPG","null","","","","","",""
"html-keyboard-response","209","242460","0.0-5.0-2.67","LF","zt96waez4c","1920","1080","0","1","0","5daca66b71a51b00113172ce","","null","","","learningBlock1","","","","<div style=""font-size:60px;""> </div>","null","LF","learning/Slide68.JPG","This is a wug:","","",""
"html-keyboard-response","210","243461","0.0-5.0-0.68","LF","zt96waez4c","1920","1080","0","1","0","5daca66b71a51b00113172ce","","null","","","learningBlock1","","","","This is a tob:","null","","","","","",""
"image-keyboard-response","211","243792","0.0-5.0-1.68","LF","zt96waez4c","1920","1080","0","1","0","5daca66b71a51b00113172ce","","null","","","","","","","learning/Slide69.JPG","null","","","","","",""
"html-keyboard-response","212","244797","0.0-5.0-2.68","LF","zt96waez4c","1920","1080","0","1","0","5daca66b71a51b00113172ce","","null","","","learningBlock1","","","","<div style=""font-size:60px;""> </div>","null","LF","learning/Slide69.JPG","This is a tob:","","",""
"html-keyboard-response","213","245799","0.0-5.0-0.69","LF","zt96waez4c","1920","1080","0","1","0","5daca66b71a51b00113172ce","","null","","","learningBlock1","","","","This is a dep:","null","","","","","",""
"image-keyboard-response","214","246127","0.0-5.0-1.69","LF","zt96waez4c","1920","1080","0","1","0","5daca66b71a51b00113172ce","","null","","","","","","","learning/Slide70.JPG","null","","","","","",""
"html-keyboard-response","215","247130","0.0-5.0-2.69","LF","zt96waez4c","1920","1080","0","1","0","5daca66b71a51b00113172ce","","null","","","learningBlock1","","","","<div style=""font-size:60px;""> </div>","null","LF","learning/Slide70.JPG","This is a dep:","","",""
"html-keyboard-response","216","248132","0.0-5.0-0.70","LF","zt96waez4c","1920","1080","0","1","0","5daca66b71a51b00113172ce","","null","","","learningBlock1","","","","This is a wug:","null","","","","","",""
"image-keyboard-response","217","248461","0.0-5.0-1.70","LF","zt96waez4c","1920","1080","0","1","0","5daca66b71a51b00113172ce","","null","","","","","","","learning/Slide71.JPG","null","","","","","",""
"html-keyboard-response","218","249463","0.0-5.0-2.70","LF","zt96waez4c","1920","1080","0","1","0","5daca66b71a51b00113172ce","","null","","","learningBlock1","","","","<div style=""font-size:60px;""> </div>","null","LF","learning/Slide71.JPG","This is a wug:","","",""
"html-keyboard-response","219","250465","0.0-5.0-0.71","LF","zt96waez4c","1920","1080","0","1","0","5daca66b71a51b00113172ce","","null","","","learningBlock1","","","","This is a bim:","null","","","","","",""
"image-keyboard-response","220","250793","0.0-5.0-1.71","LF","zt96waez4c","1920","1080","0","1","0","5daca66b71a51b00113172ce","","null","","","","","","","learning/Slide72.JPG","null","","","","","",""
"html-keyboard-response","221","251795","0.0-5.0-2.71","LF","zt96waez4c","1920","1080","0","1","0","5daca66b71a51b00113172ce","","null","","","learningBlock1","","","","<div style=""font-size:60px;""> </div>","null","LF","learning/Slide72.JPG","This is a bim:","","",""
"html-keyboard-response","222","252797","0.0-5.0-0.72","LF","zt96waez4c","1920","1080","0","1","0","5daca66b71a51b00113172ce","","null","","","learningBlock1","","","","This is a wug:","null","","","","","",""
"image-keyboard-response","223","253125","0.0-5.0-1.72","LF","zt96waez4c","1920","1080","0","1","0","5daca66b71a51b00113172ce","","null","","","","","","","learning/Slide73.JPG","null","","","","","",""
"html-keyboard-response","224","254127","0.0-5.0-2.72","LF","zt96waez4c","1920","1080","0","1","0","5daca66b71a51b00113172ce","","null","","","learningBlock1","","","","<div style=""font-size:60px;""> </div>","null","LF","learning/Slide73.JPG","This is a wug:","","",""
"html-keyboard-response","225","255131","0.0-5.0-0.73","LF","zt96waez4c","1920","1080","0","1","0","5daca66b71a51b00113172ce","","null","","","learningBlock1","","","","This is a dep:","null","","","","","",""
"image-keyboard-response","226","255460","0.0-5.0-1.73","LF","zt96waez4c","1920","1080","0","1","0","5daca66b71a51b00113172ce","","null","","","","","","","learning/Slide74.JPG","null","","","","","",""
"html-keyboard-response","227","256464","0.0-5.0-2.73","LF","zt96waez4c","1920","1080","0","1","0","5daca66b71a51b00113172ce","","null","","","learningBlock1","","","","<div style=""font-size:60px;""> </div>","null","LF","learning/Slide74.JPG","This is a dep:","","",""
"html-keyboard-response","228","257465","0.0-5.0-0.74","LF","zt96waez4c","1920","1080","0","1","0","5daca66b71a51b00113172ce","","null","","","learningBlock1","","","","This is a tob:","null","","","","","",""
"image-keyboard-response","229","257793","0.0-5.0-1.74","LF","zt96waez4c","1920","1080","0","1","0","5daca66b71a51b00113172ce","","null","","","","","","","learning/Slide75.JPG","null","","","","","",""
"html-keyboard-response","230","258797","0.0-5.0-2.74","LF","zt96waez4c","1920","1080","0","1","0","5daca66b71a51b00113172ce","","null","","","learningBlock1","","","","<div style=""font-size:60px;""> </div>","null","LF","learning/Slide75.JPG","This is a tob:","","",""
"html-keyboard-response","231","259800","0.0-5.0-0.75","LF","zt96waez4c","1920","1080","0","1","0","5daca66b71a51b00113172ce","","null","","","learningBlock1","","","","This is a bim:","null","","","","","",""
"image-keyboard-response","232","260127","0.0-5.0-1.75","LF","zt96waez4c","1920","1080","0","1","0","5daca66b71a51b00113172ce","","null","","","","","","","learning/Slide76.JPG","null","","","","","",""
"html-keyboard-response","233","261131","0.0-5.0-2.75","LF","zt96waez4c","1920","1080","0","1","0","5daca66b71a51b00113172ce","","null","","","learningBlock1","","","","<div style=""font-size:60px;""> </div>","null","LF","learning/Slide76.JPG","This is a bim:","","",""
"html-keyboard-response","234","262133","0.0-5.0-0.76","LF","zt96waez4c","1920","1080","0","1","0","5daca66b71a51b00113172ce","","null","","","learningBlock1","","","","This is a tob:","null","","","","","",""
"image-keyboard-response","235","262464","0.0-5.0-1.76","LF","zt96waez4c","1920","1080","0","1","0","5daca66b71a51b00113172ce","","null","","","","","","","learning/Slide77.JPG","null","","","","","",""
"html-keyboard-response","236","263466","0.0-5.0-2.76","LF","zt96waez4c","1920","1080","0","1","0","5daca66b71a51b00113172ce","","null","","","learningBlock1","","","","<div style=""font-size:60px;""> </div>","null","LF","learning/Slide77.JPG","This is a tob:","","",""
"html-keyboard-response","237","264468","0.0-5.0-0.77","LF","zt96waez4c","1920","1080","0","1","0","5daca66b71a51b00113172ce","","null","","","learningBlock1","","","","This is a wug:","null","","","","","",""
"image-keyboard-response","238","264797","0.0-5.0-1.77","LF","zt96waez4c","1920","1080","0","1","0","5daca66b71a51b00113172ce","","null","","","","","","","learning/Slide78.JPG","null","","","","","",""
"html-keyboard-response","239","265799","0.0-5.0-2.77","LF","zt96waez4c","1920","1080","0","1","0","5daca66b71a51b00113172ce","","null","","","learningBlock1","","","","<div style=""font-size:60px;""> </div>","null","LF","learning/Slide78.JPG","This is a wug:","","",""
"html-keyboard-response","240","266802","0.0-5.0-0.78","LF","zt96waez4c","1920","1080","0","1","0","5daca66b71a51b00113172ce","","null","","","learningBlock1","","","","This is a bim:","null","","","","","",""
"image-keyboard-response","241","267131","0.0-5.0-1.78","LF","zt96waez4c","1920","1080","0","1","0","5daca66b71a51b00113172ce","","null","","","","","","","learning/Slide79.JPG","null","","","","","",""
"html-keyboard-response","242","268134","0.0-5.0-2.78","LF","zt96waez4c","1920","1080","0","1","0","5daca66b71a51b00113172ce","","null","","","learningBlock1","","","","<div style=""font-size:60px;""> </div>","null","LF","learning/Slide79.JPG","This is a bim:","","",""
"html-keyboard-response","243","269136","0.0-5.0-0.79","LF","zt96waez4c","1920","1080","0","1","0","5daca66b71a51b00113172ce","","null","","","learningBlock1","","","","This is a tob:","null","","","","","",""
"image-keyboard-response","244","269464","0.0-5.0-1.79","LF","zt96waez4c","1920","1080","0","1","0","5daca66b71a51b00113172ce","","null","","","","","","","learning/Slide80.JPG","null","","","","","",""
"html-keyboard-response","245","270466","0.0-5.0-2.79","LF","zt96waez4c","1920","1080","0","1","0","5daca66b71a51b00113172ce","","null","","","learningBlock1","","","","<div style=""font-size:60px;""> </div>","null","LF","learning/Slide80.JPG","This is a tob:","","",""
"instructions","246","277777","0.0-6.0","LF","zt96waez4c","1920","1080","0","1","0","5daca66b71a51b00113172ce","","NA","","[{""page_index"":0,""viewing_time"":7309.054999999702}]","instructions","","","","","","","","","","",""
"html-keyboard-response","247","278781","0.0-7.0-0.0","LF","zt96waez4c","1920","1080","0","1","0","5daca66b71a51b00113172ce","","null","","","learningBlock2","","","","This is a wug:","null","","","","","",""
"image-keyboard-response","248","279108","0.0-7.0-1.0","LF","zt96waez4c","1920","1080","0","1","0","5daca66b71a51b00113172ce","","null","","","","","","","learning/Slide81.JPG","null","","","","","",""
"html-keyboard-response","249","280110","0.0-7.0-2.0","LF","zt96waez4c","1920","1080","0","1","0","5daca66b71a51b00113172ce","","null","","","learningBlock2","","","","<div style=""font-size:60px;""> </div>","null","LF","learning/Slide81.JPG","This is a wug:","","",""
"html-keyboard-response","250","281111","0.0-7.0-0.1","LF","zt96waez4c","1920","1080","0","1","0","5daca66b71a51b00113172ce","","null","","","learningBlock2","","","","This is a bim:","null","","","","","",""
"image-keyboard-response","251","281441","0.0-7.0-1.1","LF","zt96waez4c","1920","1080","0","1","0","5daca66b71a51b00113172ce","","null","","","","","","","learning/Slide82.JPG","null","","","","","",""
"html-keyboard-response","252","282443","0.0-7.0-2.1","LF","zt96waez4c","1920","1080","0","1","0","5daca66b71a51b00113172ce","","null","","","learningBlock2","","","","<div style=""font-size:60px;""> </div>","null","LF","learning/Slide82.JPG","This is a bim:","","",""
"html-keyboard-response","253","283448","0.0-7.0-0.2","LF","zt96waez4c","1920","1080","0","1","0","5daca66b71a51b00113172ce","","null","","","learningBlock2","","","","This is a wug:","null","","","","","",""
"image-keyboard-response","254","283776","0.0-7.0-1.2","LF","zt96waez4c","1920","1080","0","1","0","5daca66b71a51b00113172ce","","null","","","","","","","learning/Slide83.JPG","null","","","","","",""
"html-keyboard-response","255","284777","0.0-7.0-2.2","LF","zt96waez4c","1920","1080","0","1","0","5daca66b71a51b00113172ce","","null","","","learningBlock2","","","","<div style=""font-size:60px;""> </div>","null","LF","learning/Slide83.JPG","This is a wug:","","",""
"html-keyboard-response","256","285782","0.0-7.0-0.3","LF","zt96waez4c","1920","1080","0","1","0","5daca66b71a51b00113172ce","","null","","","learningBlock2","","","","This is a dep:","null","","","","","",""
"image-keyboard-response","257","286109","0.0-7.0-1.3","LF","zt96waez4c","1920","1080","0","1","0","5daca66b71a51b00113172ce","","null","","","","","","","learning/Slide84.JPG","null","","","","","",""
"html-keyboard-response","258","287113","0.0-7.0-2.3","LF","zt96waez4c","1920","1080","0","1","0","5daca66b71a51b00113172ce","","null","","","learningBlock2","","","","<div style=""font-size:60px;""> </div>","null","LF","learning/Slide84.JPG","This is a dep:","","",""
"html-keyboard-response","259","288116","0.0-7.0-0.4","LF","zt96waez4c","1920","1080","0","1","0","5daca66b71a51b00113172ce","","null","","","learningBlock2","","","","This is a bim:","null","","","","","",""
"image-keyboard-response","260","288444","0.0-7.0-1.4","LF","zt96waez4c","1920","1080","0","1","0","5daca66b71a51b00113172ce","","null","","","","","","","learning/Slide85.JPG","null","","","","","",""
"html-keyboard-response","261","289448","0.0-7.0-2.4","LF","zt96waez4c","1920","1080","0","1","0","5daca66b71a51b00113172ce","","null","","","learningBlock2","","","","<div style=""font-size:60px;""> </div>","null","LF","learning/Slide85.JPG","This is a bim:","","",""
"html-keyboard-response","262","290450","0.0-7.0-0.5","LF","zt96waez4c","1920","1080","0","1","0","5daca66b71a51b00113172ce","","null","","","learningBlock2","","","","This is a tob:","null","","","","","",""
"image-keyboard-response","263","290779","0.0-7.0-1.5","LF","zt96waez4c","1920","1080","0","1","0","5daca66b71a51b00113172ce","","null","","","","","","","learning/Slide86.JPG","null","","","","","",""
"html-keyboard-response","264","291782","0.0-7.0-2.5","LF","zt96waez4c","1920","1080","0","1","0","5daca66b71a51b00113172ce","","null","","","learningBlock2","","","","<div style=""font-size:60px;""> </div>","null","LF","learning/Slide86.JPG","This is a tob:","","",""
"html-keyboard-response","265","292783","0.0-7.0-0.6","LF","zt96waez4c","1920","1080","0","1","0","5daca66b71a51b00113172ce","","null","","","learningBlock2","","","","This is a wug:","null","","","","","",""
"image-keyboard-response","266","293112","0.0-7.0-1.6","LF","zt96waez4c","1920","1080","0","1","0","5daca66b71a51b00113172ce","","null","","","","","","","learning/Slide87.JPG","null","","","","","",""
"html-keyboard-response","267","294115","0.0-7.0-2.6","LF","zt96waez4c","1920","1080","0","1","0","5daca66b71a51b00113172ce","","null","","","learningBlock2","","","","<div style=""font-size:60px;""> </div>","null","LF","learning/Slide87.JPG","This is a wug:","","",""
"html-keyboard-response","268","295117","0.0-7.0-0.7","LF","zt96waez4c","1920","1080","0","1","0","5daca66b71a51b00113172ce","","null","","","learningBlock2","","","","This is a tob:","null","","","","","",""
"image-keyboard-response","269","295445","0.0-7.0-1.7","LF","zt96waez4c","1920","1080","0","1","0","5daca66b71a51b00113172ce","","null","","","","","","","learning/Slide88.JPG","null","","","","","",""
"html-keyboard-response","270","296448","0.0-7.0-2.7","LF","zt96waez4c","1920","1080","0","1","0","5daca66b71a51b00113172ce","","null","","","learningBlock2","","","","<div style=""font-size:60px;""> </div>","null","LF","learning/Slide88.JPG","This is a tob:","","",""
"html-keyboard-response","271","297451","0.0-7.0-0.8","LF","zt96waez4c","1920","1080","0","1","0","5daca66b71a51b00113172ce","","null","","","learningBlock2","","","","This is a bim:","null","","","","","",""
"image-keyboard-response","272","297779","0.0-7.0-1.8","LF","zt96waez4c","1920","1080","0","1","0","5daca66b71a51b00113172ce","","null","","","","","","","learning/Slide89.JPG","null","","","","","",""
"html-keyboard-response","273","298782","0.0-7.0-2.8","LF","zt96waez4c","1920","1080","0","1","0","5daca66b71a51b00113172ce","","null","","","learningBlock2","","","","<div style=""font-size:60px;""> </div>","null","LF","learning/Slide89.JPG","This is a bim:","","",""
"html-keyboard-response","274","299785","0.0-7.0-0.9","LF","zt96waez4c","1920","1080","0","1","0","5daca66b71a51b00113172ce","","null","","","learningBlock2","","","","This is a dep:","null","","","","","",""
"image-keyboard-response","275","300112","0.0-7.0-1.9","LF","zt96waez4c","1920","1080","0","1","0","5daca66b71a51b00113172ce","","null","","","","","","","learning/Slide90.JPG","null","","","","","",""
"html-keyboard-response","276","301115","0.0-7.0-2.9","LF","zt96waez4c","1920","1080","0","1","0","5daca66b71a51b00113172ce","","null","","","learningBlock2","","","","<div style=""font-size:60px;""> </div>","null","LF","learning/Slide90.JPG","This is a dep:","","",""
"html-keyboard-response","277","302118","0.0-7.0-0.10","LF","zt96waez4c","1920","1080","0","1","0","5daca66b71a51b00113172ce","","null","","","learningBlock2","","","","This is a wug:","null","","","","","",""
"image-keyboard-response","278","302445","0.0-7.0-1.10","LF","zt96waez4c","1920","1080","0","1","0","5daca66b71a51b00113172ce","","null","","","","","","","learning/Slide91.JPG","null","","","","","",""
"html-keyboard-response","279","303448","0.0-7.0-2.10","LF","zt96waez4c","1920","1080","0","1","0","5daca66b71a51b00113172ce","","null","","","learningBlock2","","","","<div style=""font-size:60px;""> </div>","null","LF","learning/Slide91.JPG","This is a wug:","","",""
"html-keyboard-response","280","304450","0.0-7.0-0.11","LF","zt96waez4c","1920","1080","0","1","0","5daca66b71a51b00113172ce","","null","","","learningBlock2","","","","This is a tob:","null","","","","","",""
"image-keyboard-response","281","304779","0.0-7.0-1.11","LF","zt96waez4c","1920","1080","0","1","0","5daca66b71a51b00113172ce","","null","","","","","","","learning/Slide92.JPG","null","","","","","",""
"html-keyboard-response","282","305782","0.0-7.0-2.11","LF","zt96waez4c","1920","1080","0","1","0","5daca66b71a51b00113172ce","","null","","","learningBlock2","","","","<div style=""font-size:60px;""> </div>","null","LF","learning/Slide92.JPG","This is a tob:","","",""
"html-keyboard-response","283","306784","0.0-7.0-0.12","LF","zt96waez4c","1920","1080","0","1","0","5daca66b71a51b00113172ce","","null","","","learningBlock2","","","","This is a bim:","null","","","","","",""
"image-keyboard-response","284","307112","0.0-7.0-1.12","LF","zt96waez4c","1920","1080","0","1","0","5daca66b71a51b00113172ce","","null","","","","","","","learning/Slide93.JPG","null","","","","","",""
"html-keyboard-response","285","308115","0.0-7.0-2.12","LF","zt96waez4c","1920","1080","0","1","0","5daca66b71a51b00113172ce","","null","","","learningBlock2","","","","<div style=""font-size:60px;""> </div>","null","LF","learning/Slide93.JPG","This is a bim:","","",""
"html-keyboard-response","286","309117","0.0-7.0-0.13","LF","zt96waez4c","1920","1080","0","1","0","5daca66b71a51b00113172ce","","null","","","learningBlock2","","","","This is a tob:","null","","","","","",""
"image-keyboard-response","287","309444","0.0-7.0-1.13","LF","zt96waez4c","1920","1080","0","1","0","5daca66b71a51b00113172ce","","null","","","","","","","learning/Slide94.JPG","null","","","","","",""
"html-keyboard-response","288","310448","0.0-7.0-2.13","LF","zt96waez4c","1920","1080","0","1","0","5daca66b71a51b00113172ce","","null","","","learningBlock2","","","","<div style=""font-size:60px;""> </div>","null","LF","learning/Slide94.JPG","This is a tob:","","",""
"html-keyboard-response","289","311450","0.0-7.0-0.14","LF","zt96waez4c","1920","1080","0","1","0","5daca66b71a51b00113172ce","","null","","","learningBlock2","","","","This is a wug:","null","","","","","",""
"image-keyboard-response","290","311780","0.0-7.0-1.14","LF","zt96waez4c","1920","1080","0","1","0","5daca66b71a51b00113172ce","","null","","","","","","","learning/Slide95.JPG","null","","","","","",""
"html-keyboard-response","291","312783","0.0-7.0-2.14","LF","zt96waez4c","1920","1080","0","1","0","5daca66b71a51b00113172ce","","null","","","learningBlock2","","","","<div style=""font-size:60px;""> </div>","null","LF","learning/Slide95.JPG","This is a wug:","","",""
"html-keyboard-response","292","313786","0.0-7.0-0.15","LF","zt96waez4c","1920","1080","0","1","0","5daca66b71a51b00113172ce","","null","","","learningBlock2","","","","This is a tob:","null","","","","","",""
"image-keyboard-response","293","314115","0.0-7.0-1.15","LF","zt96waez4c","1920","1080","0","1","0","5daca66b71a51b00113172ce","","null","","","","","","","learning/Slide96.JPG","null","","","","","",""
"html-keyboard-response","294","315119","0.0-7.0-2.15","LF","zt96waez4c","1920","1080","0","1","0","5daca66b71a51b00113172ce","","null","","","learningBlock2","","","","<div style=""font-size:60px;""> </div>","null","LF","learning/Slide96.JPG","This is a tob:","","",""
"html-keyboard-response","295","316120","0.0-7.0-0.16","LF","zt96waez4c","1920","1080","0","1","0","5daca66b71a51b00113172ce","","null","","","learningBlock2","","","","This is a dep:","null","","","","","",""
"image-keyboard-response","296","316448","0.0-7.0-1.16","LF","zt96waez4c","1920","1080","0","1","0","5daca66b71a51b00113172ce","","null","","","","","","","learning/Slide97.JPG","null","","","","","",""
"html-keyboard-response","297","317450","0.0-7.0-2.16","LF","zt96waez4c","1920","1080","0","1","0","5daca66b71a51b00113172ce","","null","","","learningBlock2","","","","<div style=""font-size:60px;""> </div>","null","LF","learning/Slide97.JPG","This is a dep:","","",""
"html-keyboard-response","298","318452","0.0-7.0-0.17","LF","zt96waez4c","1920","1080","0","1","0","5daca66b71a51b00113172ce","","null","","","learningBlock2","","","","This is a bim:","null","","","","","",""
"image-keyboard-response","299","318782","0.0-7.0-1.17","LF","zt96waez4c","1920","1080","0","1","0","5daca66b71a51b00113172ce","","null","","","","","","","learning/Slide98.JPG","null","","","","","",""
"html-keyboard-response","300","319784","0.0-7.0-2.17","LF","zt96waez4c","1920","1080","0","1","0","5daca66b71a51b00113172ce","","null","","","learningBlock2","","","","<div style=""font-size:60px;""> </div>","null","LF","learning/Slide98.JPG","This is a bim:","","",""
"html-keyboard-response","301","320786","0.0-7.0-0.18","LF","zt96waez4c","1920","1080","0","1","0","5daca66b71a51b00113172ce","","null","","","learningBlock2","","","","This is a dep:","null","","","","","",""
"image-keyboard-response","302","321115","0.0-7.0-1.18","LF","zt96waez4c","1920","1080","0","1","0","5daca66b71a51b00113172ce","","null","","","","","","","learning/Slide99.JPG","null","","","","","",""
"html-keyboard-response","303","322119","0.0-7.0-2.18","LF","zt96waez4c","1920","1080","0","1","0","5daca66b71a51b00113172ce","","null","","","learningBlock2","","","","<div style=""font-size:60px;""> </div>","null","LF","learning/Slide99.JPG","This is a dep:","","",""
"html-keyboard-response","304","323120","0.0-7.0-0.19","LF","zt96waez4c","1920","1080","0","1","0","5daca66b71a51b00113172ce","","null","","","learningBlock2","","","","This is a bim:","null","","","","","",""
"image-keyboard-response","305","323448","0.0-7.0-1.19","LF","zt96waez4c","1920","1080","0","1","0","5daca66b71a51b00113172ce","","null","","","","","","","learning/Slide100.JPG","null","","","","","",""
"html-keyboard-response","306","324450","0.0-7.0-2.19","LF","zt96waez4c","1920","1080","0","1","0","5daca66b71a51b00113172ce","","null","","","learningBlock2","","","","<div style=""font-size:60px;""> </div>","null","LF","learning/Slide100.JPG","This is a bim:","","",""
"html-keyboard-response","307","325452","0.0-7.0-0.20","LF","zt96waez4c","1920","1080","0","1","0","5daca66b71a51b00113172ce","","null","","","learningBlock2","","","","This is a tob:","null","","","","","",""
"image-keyboard-response","308","325782","0.0-7.0-1.20","LF","zt96waez4c","1920","1080","0","1","0","5daca66b71a51b00113172ce","","null","","","","","","","learning/Slide101.JPG","null","","","","","",""
"html-keyboard-response","309","326784","0.0-7.0-2.20","LF","zt96waez4c","1920","1080","0","1","0","5daca66b71a51b00113172ce","","null","","","learningBlock2","","","","<div style=""font-size:60px;""> </div>","null","LF","learning/Slide101.JPG","This is a tob:","","",""
"html-keyboard-response","310","327787","0.0-7.0-0.21","LF","zt96waez4c","1920","1080","0","1","0","5daca66b71a51b00113172ce","","null","","","learningBlock2","","","","This is a bim:","null","","","","","",""
"image-keyboard-response","311","328116","0.0-7.0-1.21","LF","zt96waez4c","1920","1080","0","1","0","5daca66b71a51b00113172ce","","null","","","","","","","learning/Slide102.JPG","null","","","","","",""
"html-keyboard-response","312","329118","0.0-7.0-2.21","LF","zt96waez4c","1920","1080","0","1","0","5daca66b71a51b00113172ce","","null","","","learningBlock2","","","","<div style=""font-size:60px;""> </div>","null","LF","learning/Slide102.JPG","This is a bim:","","",""
"html-keyboard-response","313","330120","0.0-7.0-0.22","LF","zt96waez4c","1920","1080","0","1","0","5daca66b71a51b00113172ce","","null","","","learningBlock2","","","","This is a dep:","null","","","","","",""
"image-keyboard-response","314","330449","0.0-7.0-1.22","LF","zt96waez4c","1920","1080","0","1","0","5daca66b71a51b00113172ce","","null","","","","","","","learning/Slide103.JPG","null","","","","","",""
"html-keyboard-response","315","331451","0.0-7.0-2.22","LF","zt96waez4c","1920","1080","0","1","0","5daca66b71a51b00113172ce","","null","","","learningBlock2","","","","<div style=""font-size:60px;""> </div>","null","LF","learning/Slide103.JPG","This is a dep:","","",""
"html-keyboard-response","316","332453","0.0-7.0-0.23","LF","zt96waez4c","1920","1080","0","1","0","5daca66b71a51b00113172ce","","null","","","learningBlock2","","","","This is a tob:","null","","","","","",""
"image-keyboard-response","317","332783","0.0-7.0-1.23","LF","zt96waez4c","1920","1080","0","1","0","5daca66b71a51b00113172ce","","null","","","","","","","learning/Slide104.JPG","null","","","","","",""
"html-keyboard-response","318","333785","0.0-7.0-2.23","LF","zt96waez4c","1920","1080","0","1","0","5daca66b71a51b00113172ce","","null","","","learningBlock2","","","","<div style=""font-size:60px;""> </div>","null","LF","learning/Slide104.JPG","This is a tob:","","",""
"html-keyboard-response","319","334786","0.0-7.0-0.24","LF","zt96waez4c","1920","1080","0","1","0","5daca66b71a51b00113172ce","","null","","","learningBlock2","","","","This is a dep:","null","","","","","",""
"image-keyboard-response","320","335116","0.0-7.0-1.24","LF","zt96waez4c","1920","1080","0","1","0","5daca66b71a51b00113172ce","","null","","","","","","","learning/Slide105.JPG","null","","","","","",""
"html-keyboard-response","321","336118","0.0-7.0-2.24","LF","zt96waez4c","1920","1080","0","1","0","5daca66b71a51b00113172ce","","null","","","learningBlock2","","","","<div style=""font-size:60px;""> </div>","null","LF","learning/Slide105.JPG","This is a dep:","","",""
"html-keyboard-response","322","337120","0.0-7.0-0.25","LF","zt96waez4c","1920","1080","0","1","0","5daca66b71a51b00113172ce","","null","","","learningBlock2","","","","This is a wug:","null","","","","","",""
"image-keyboard-response","323","337449","0.0-7.0-1.25","LF","zt96waez4c","1920","1080","0","1","0","5daca66b71a51b00113172ce","","null","","","","","","","learning/Slide106.JPG","null","","","","","",""
"html-keyboard-response","324","338451","0.0-7.0-2.25","LF","zt96waez4c","1920","1080","0","1","0","5daca66b71a51b00113172ce","","null","","","learningBlock2","","","","<div style=""font-size:60px;""> </div>","null","LF","learning/Slide106.JPG","This is a wug:","","",""
"html-keyboard-response","325","339453","0.0-7.0-0.26","LF","zt96waez4c","1920","1080","0","1","0","5daca66b71a51b00113172ce","","null","","","learningBlock2","","","","This is a bim:","null","","","","","",""
"image-keyboard-response","326","339780","0.0-7.0-1.26","LF","zt96waez4c","1920","1080","0","1","0","5daca66b71a51b00113172ce","","null","","","","","","","learning/Slide107.JPG","null","","","","","",""
"html-keyboard-response","327","340783","0.0-7.0-2.26","LF","zt96waez4c","1920","1080","0","1","0","5daca66b71a51b00113172ce","","null","","","learningBlock2","","","","<div style=""font-size:60px;""> </div>","null","LF","learning/Slide107.JPG","This is a bim:","","",""
"html-keyboard-response","328","341784","0.0-7.0-0.27","LF","zt96waez4c","1920","1080","0","1","0","5daca66b71a51b00113172ce","","null","","","learningBlock2","","","","This is a dep:","null","","","","","",""
"image-keyboard-response","329","342114","0.0-7.0-1.27","LF","zt96waez4c","1920","1080","0","1","0","5daca66b71a51b00113172ce","","null","","","","","","","learning/Slide108.JPG","null","","","","","",""
"html-keyboard-response","330","343117","0.0-7.0-2.27","LF","zt96waez4c","1920","1080","0","1","0","5daca66b71a51b00113172ce","","null","","","learningBlock2","","","","<div style=""font-size:60px;""> </div>","null","LF","learning/Slide108.JPG","This is a dep:","","",""
"html-keyboard-response","331","344119","0.0-7.0-0.28","LF","zt96waez4c","1920","1080","0","1","0","5daca66b71a51b00113172ce","","null","","","learningBlock2","","","","This is a wug:","null","","","","","",""
"image-keyboard-response","332","344450","0.0-7.0-1.28","LF","zt96waez4c","1920","1080","0","1","0","5daca66b71a51b00113172ce","","null","","","","","","","learning/Slide109.JPG","null","","","","","",""
"html-keyboard-response","333","345452","0.0-7.0-2.28","LF","zt96waez4c","1920","1080","0","1","0","5daca66b71a51b00113172ce","","null","","","learningBlock2","","","","<div style=""font-size:60px;""> </div>","null","LF","learning/Slide109.JPG","This is a wug:","","",""
"html-keyboard-response","334","346454","0.0-7.0-0.29","LF","zt96waez4c","1920","1080","0","1","0","5daca66b71a51b00113172ce","","null","","","learningBlock2","","","","This is a bim:","null","","","","","",""
"image-keyboard-response","335","346783","0.0-7.0-1.29","LF","zt96waez4c","1920","1080","0","1","0","5daca66b71a51b00113172ce","","null","","","","","","","learning/Slide110.JPG","null","","","","","",""
"html-keyboard-response","336","347785","0.0-7.0-2.29","LF","zt96waez4c","1920","1080","0","1","0","5daca66b71a51b00113172ce","","null","","","learningBlock2","","","","<div style=""font-size:60px;""> </div>","null","LF","learning/Slide110.JPG","This is a bim:","","",""
"html-keyboard-response","337","348786","0.0-7.0-0.30","LF","zt96waez4c","1920","1080","0","1","0","5daca66b71a51b00113172ce","","null","","","learningBlock2","","","","This is a tob:","null","","","","","",""
"image-keyboard-response","338","349115","0.0-7.0-1.30","LF","zt96waez4c","1920","1080","0","1","0","5daca66b71a51b00113172ce","","null","","","","","","","learning/Slide111.JPG","null","","","","","",""
"html-keyboard-response","339","350116","0.0-7.0-2.30","LF","zt96waez4c","1920","1080","0","1","0","5daca66b71a51b00113172ce","","null","","","learningBlock2","","","","<div style=""font-size:60px;""> </div>","null","LF","learning/Slide111.JPG","This is a tob:","","",""
"html-keyboard-response","340","351118","0.0-7.0-0.31","LF","zt96waez4c","1920","1080","0","1","0","5daca66b71a51b00113172ce","","null","","","learningBlock2","","","","This is a wug:","null","","","","","",""
"image-keyboard-response","341","351446","0.0-7.0-1.31","LF","zt96waez4c","1920","1080","0","1","0","5daca66b71a51b00113172ce","","null","","","","","","","learning/Slide112.JPG","null","","","","","",""
"html-keyboard-response","342","352449","0.0-7.0-2.31","LF","zt96waez4c","1920","1080","0","1","0","5daca66b71a51b00113172ce","","null","","","learningBlock2","","","","<div style=""font-size:60px;""> </div>","null","LF","learning/Slide112.JPG","This is a wug:","","",""
"html-keyboard-response","343","353451","0.0-7.0-0.32","LF","zt96waez4c","1920","1080","0","1","0","5daca66b71a51b00113172ce","","null","","","learningBlock2","","","","This is a tob:","null","","","","","",""
"image-keyboard-response","344","353780","0.0-7.0-1.32","LF","zt96waez4c","1920","1080","0","1","0","5daca66b71a51b00113172ce","","null","","","","","","","learning/Slide113.JPG","null","","","","","",""
"html-keyboard-response","345","354783","0.0-7.0-2.32","LF","zt96waez4c","1920","1080","0","1","0","5daca66b71a51b00113172ce","","null","","","learningBlock2","","","","<div style=""font-size:60px;""> </div>","null","LF","learning/Slide113.JPG","This is a tob:","","",""
"html-keyboard-response","346","355785","0.0-7.0-0.33","LF","zt96waez4c","1920","1080","0","1","0","5daca66b71a51b00113172ce","","null","","","learningBlock2","","","","This is a wug:","null","","","","","",""
"image-keyboard-response","347","356114","0.0-7.0-1.33","LF","zt96waez4c","1920","1080","0","1","0","5daca66b71a51b00113172ce","","null","","","","","","","learning/Slide114.JPG","null","","","","","",""
"html-keyboard-response","348","357117","0.0-7.0-2.33","LF","zt96waez4c","1920","1080","0","1","0","5daca66b71a51b00113172ce","","null","","","learningBlock2","","","","<div style=""font-size:60px;""> </div>","null","LF","learning/Slide114.JPG","This is a wug:","","",""
"html-keyboard-response","349","358119","0.0-7.0-0.34","LF","zt96waez4c","1920","1080","0","1","0","5daca66b71a51b00113172ce","","null","","","learningBlock2","","","","This is a bim:","null","","","","","",""
"image-keyboard-response","350","358450","0.0-7.0-1.34","LF","zt96waez4c","1920","1080","0","1","0","5daca66b71a51b00113172ce","","null","","","","","","","learning/Slide115.JPG","null","","","","","",""
"html-keyboard-response","351","359452","0.0-7.0-2.34","LF","zt96waez4c","1920","1080","0","1","0","5daca66b71a51b00113172ce","","null","","","learningBlock2","","","","<div style=""font-size:60px;""> </div>","null","LF","learning/Slide115.JPG","This is a bim:","","",""
"html-keyboard-response","352","360455","0.0-7.0-0.35","LF","zt96waez4c","1920","1080","0","1","0","5daca66b71a51b00113172ce","","null","","","learningBlock2","","","","This is a dep:","null","","","","","",""
"image-keyboard-response","353","360784","0.0-7.0-1.35","LF","zt96waez4c","1920","1080","0","1","0","5daca66b71a51b00113172ce","","null","","","","","","","learning/Slide116.JPG","null","","","","","",""
"html-keyboard-response","354","361787","0.0-7.0-2.35","LF","zt96waez4c","1920","1080","0","1","0","5daca66b71a51b00113172ce","","null","","","learningBlock2","","","","<div style=""font-size:60px;""> </div>","null","LF","learning/Slide116.JPG","This is a dep:","","",""
"html-keyboard-response","355","362789","0.0-7.0-0.36","LF","zt96waez4c","1920","1080","0","1","0","5daca66b71a51b00113172ce","","null","","","learningBlock2","","","","This is a tob:","null","","","","","",""
"image-keyboard-response","356","363117","0.0-7.0-1.36","LF","zt96waez4c","1920","1080","0","1","0","5daca66b71a51b00113172ce","","null","","","","","","","learning/Slide117.JPG","null","","","","","",""
"html-keyboard-response","357","364119","0.0-7.0-2.36","LF","zt96waez4c","1920","1080","0","1","0","5daca66b71a51b00113172ce","","null","","","learningBlock2","","","","<div style=""font-size:60px;""> </div>","null","LF","learning/Slide117.JPG","This is a tob:","","",""
"html-keyboard-response","358","365120","0.0-7.0-0.37","LF","zt96waez4c","1920","1080","0","1","0","5daca66b71a51b00113172ce","","null","","","learningBlock2","","","","This is a dep:","null","","","","","",""
"image-keyboard-response","359","365450","0.0-7.0-1.37","LF","zt96waez4c","1920","1080","0","1","0","5daca66b71a51b00113172ce","","null","","","","","","","learning/Slide118.JPG","null","","","","","",""
"html-keyboard-response","360","366454","0.0-7.0-2.37","LF","zt96waez4c","1920","1080","0","1","0","5daca66b71a51b00113172ce","","null","","","learningBlock2","","","","<div style=""font-size:60px;""> </div>","null","LF","learning/Slide118.JPG","This is a dep:","","",""
"html-keyboard-response","361","367456","0.0-7.0-0.38","LF","zt96waez4c","1920","1080","0","1","0","5daca66b71a51b00113172ce","","null","","","learningBlock2","","","","This is a wug:","null","","","","","",""
"image-keyboard-response","362","367784","0.0-7.0-1.38","LF","zt96waez4c","1920","1080","0","1","0","5daca66b71a51b00113172ce","","null","","","","","","","learning/Slide119.JPG","null","","","","","",""
"html-keyboard-response","363","368787","0.0-7.0-2.38","LF","zt96waez4c","1920","1080","0","1","0","5daca66b71a51b00113172ce","","null","","","learningBlock2","","","","<div style=""font-size:60px;""> </div>","null","LF","learning/Slide119.JPG","This is a wug:","","",""
"html-keyboard-response","364","369789","0.0-7.0-0.39","LF","zt96waez4c","1920","1080","0","1","0","5daca66b71a51b00113172ce","","null","","","learningBlock2","","","","This is a dep:","null","","","","","",""
"image-keyboard-response","365","370117","0.0-7.0-1.39","LF","zt96waez4c","1920","1080","0","1","0","5daca66b71a51b00113172ce","","null","","","","","","","learning/Slide120.JPG","null","","","","","",""
"html-keyboard-response","366","371121","0.0-7.0-2.39","LF","zt96waez4c","1920","1080","0","1","0","5daca66b71a51b00113172ce","","null","","","learningBlock2","","","","<div style=""font-size:60px;""> </div>","null","LF","learning/Slide120.JPG","This is a dep:","","",""
"html-keyboard-response","367","372122","0.0-7.0-0.40","LF","zt96waez4c","1920","1080","0","1","0","5daca66b71a51b00113172ce","","null","","","learningBlock2","","","","This is a bim:","null","","","","","",""
"image-keyboard-response","368","372450","0.0-7.0-1.40","LF","zt96waez4c","1920","1080","0","1","0","5daca66b71a51b00113172ce","","null","","","","","","","learning/Slide121.JPG","null","","","","","",""
"html-keyboard-response","369","373452","0.0-7.0-2.40","LF","zt96waez4c","1920","1080","0","1","0","5daca66b71a51b00113172ce","","null","","","learningBlock2","","","","<div style=""font-size:60px;""> </div>","null","LF","learning/Slide121.JPG","This is a bim:","","",""
"html-keyboard-response","370","374454","0.0-7.0-0.41","LF","zt96waez4c","1920","1080","0","1","0","5daca66b71a51b00113172ce","","null","","","learningBlock2","","","","This is a wug:","null","","","","","",""
"image-keyboard-response","371","374784","0.0-7.0-1.41","LF","zt96waez4c","1920","1080","0","1","0","5daca66b71a51b00113172ce","","null","","","","","","","learning/Slide122.JPG","null","","","","","",""
"html-keyboard-response","372","375786","0.0-7.0-2.41","LF","zt96waez4c","1920","1080","0","1","0","5daca66b71a51b00113172ce","","null","","","learningBlock2","","","","<div style=""font-size:60px;""> </div>","null","LF","learning/Slide122.JPG","This is a wug:","","",""
"html-keyboard-response","373","376788","0.0-7.0-0.42","LF","zt96waez4c","1920","1080","0","1","0","5daca66b71a51b00113172ce","","null","","","learningBlock2","","","","This is a bim:","null","","","","","",""
"image-keyboard-response","374","377117","0.0-7.0-1.42","LF","zt96waez4c","1920","1080","0","1","0","5daca66b71a51b00113172ce","","null","","","","","","","learning/Slide123.JPG","null","","","","","",""
"html-keyboard-response","375","378120","0.0-7.0-2.42","LF","zt96waez4c","1920","1080","0","1","0","5daca66b71a51b00113172ce","","null","","","learningBlock2","","","","<div style=""font-size:60px;""> </div>","null","LF","learning/Slide123.JPG","This is a bim:","","",""
"html-keyboard-response","376","379122","0.0-7.0-0.43","LF","zt96waez4c","1920","1080","0","1","0","5daca66b71a51b00113172ce","","null","","","learningBlock2","","","","This is a tob:","null","","","","","",""
"image-keyboard-response","377","379451","0.0-7.0-1.43","LF","zt96waez4c","1920","1080","0","1","0","5daca66b71a51b00113172ce","","null","","","","","","","learning/Slide124.JPG","null","","","","","",""
"html-keyboard-response","378","380453","0.0-7.0-2.43","LF","zt96waez4c","1920","1080","0","1","0","5daca66b71a51b00113172ce","","null","","","learningBlock2","","","","<div style=""font-size:60px;""> </div>","null","LF","learning/Slide124.JPG","This is a tob:","","",""
"html-keyboard-response","379","381454","0.0-7.0-0.44","LF","zt96waez4c","1920","1080","0","1","0","5daca66b71a51b00113172ce","","null","","","learningBlock2","","","","This is a bim:","null","","","","","",""
"image-keyboard-response","380","381784","0.0-7.0-1.44","LF","zt96waez4c","1920","1080","0","1","0","5daca66b71a51b00113172ce","","null","","","","","","","learning/Slide125.JPG","null","","","","","",""
"html-keyboard-response","381","382786","0.0-7.0-2.44","LF","zt96waez4c","1920","1080","0","1","0","5daca66b71a51b00113172ce","","null","","","learningBlock2","","","","<div style=""font-size:60px;""> </div>","null","LF","learning/Slide125.JPG","This is a bim:","","",""
"html-keyboard-response","382","383788","0.0-7.0-0.45","LF","zt96waez4c","1920","1080","0","1","0","5daca66b71a51b00113172ce","","null","","","learningBlock2","","","","This is a tob:","null","","","","","",""
"image-keyboard-response","383","384116","0.0-7.0-1.45","LF","zt96waez4c","1920","1080","0","1","0","5daca66b71a51b00113172ce","","null","","","","","","","learning/Slide126.JPG","null","","","","","",""
"html-keyboard-response","384","385117","0.0-7.0-2.45","LF","zt96waez4c","1920","1080","0","1","0","5daca66b71a51b00113172ce","","null","","","learningBlock2","","","","<div style=""font-size:60px;""> </div>","null","LF","learning/Slide126.JPG","This is a tob:","","",""
"html-keyboard-response","385","386119","0.0-7.0-0.46","LF","zt96waez4c","1920","1080","0","1","0","5daca66b71a51b00113172ce","","null","","","learningBlock2","","","","This is a dep:","null","","","","","",""
"image-keyboard-response","386","386448","0.0-7.0-1.46","LF","zt96waez4c","1920","1080","0","1","0","5daca66b71a51b00113172ce","","null","","","","","","","learning/Slide127.JPG","null","","","","","",""
"html-keyboard-response","387","387459","0.0-7.0-2.46","LF","zt96waez4c","1920","1080","0","1","0","5daca66b71a51b00113172ce","","null","","","learningBlock2","","","","<div style=""font-size:60px;""> </div>","null","LF","learning/Slide127.JPG","This is a dep:","","",""
"html-keyboard-response","388","388461","0.0-7.0-0.47","LF","zt96waez4c","1920","1080","0","1","0","5daca66b71a51b00113172ce","","null","","","learningBlock2","","","","This is a wug:","null","","","","","",""
"image-keyboard-response","389","388788","0.0-7.0-1.47","LF","zt96waez4c","1920","1080","0","1","0","5daca66b71a51b00113172ce","","null","","","","","","","learning/Slide128.JPG","null","","","","","",""
"html-keyboard-response","390","389790","0.0-7.0-2.47","LF","zt96waez4c","1920","1080","0","1","0","5daca66b71a51b00113172ce","","null","","","learningBlock2","","","","<div style=""font-size:60px;""> </div>","null","LF","learning/Slide128.JPG","This is a wug:","","",""
"html-keyboard-response","391","390792","0.0-7.0-0.48","LF","zt96waez4c","1920","1080","0","1","0","5daca66b71a51b00113172ce","","null","","","learningBlock2","","","","This is a tob:","null","","","","","",""
"image-keyboard-response","392","391120","0.0-7.0-1.48","LF","zt96waez4c","1920","1080","0","1","0","5daca66b71a51b00113172ce","","null","","","","","","","learning/Slide129.JPG","null","","","","","",""
"html-keyboard-response","393","392123","0.0-7.0-2.48","LF","zt96waez4c","1920","1080","0","1","0","5daca66b71a51b00113172ce","","null","","","learningBlock2","","","","<div style=""font-size:60px;""> </div>","null","LF","learning/Slide129.JPG","This is a tob:","","",""
"html-keyboard-response","394","393125","0.0-7.0-0.49","LF","zt96waez4c","1920","1080","0","1","0","5daca66b71a51b00113172ce","","null","","","learningBlock2","","","","This is a wug:","null","","","","","",""
"image-keyboard-response","395","393453","0.0-7.0-1.49","LF","zt96waez4c","1920","1080","0","1","0","5daca66b71a51b00113172ce","","null","","","","","","","learning/Slide130.JPG","null","","","","","",""
"html-keyboard-response","396","394456","0.0-7.0-2.49","LF","zt96waez4c","1920","1080","0","1","0","5daca66b71a51b00113172ce","","null","","","learningBlock2","","","","<div style=""font-size:60px;""> </div>","null","LF","learning/Slide130.JPG","This is a wug:","","",""
"html-keyboard-response","397","395457","0.0-7.0-0.50","LF","zt96waez4c","1920","1080","0","1","0","5daca66b71a51b00113172ce","","null","","","learningBlock2","","","","This is a bim:","null","","","","","",""
"image-keyboard-response","398","395784","0.0-7.0-1.50","LF","zt96waez4c","1920","1080","0","1","0","5daca66b71a51b00113172ce","","null","","","","","","","learning/Slide131.JPG","null","","","","","",""
"html-keyboard-response","399","396786","0.0-7.0-2.50","LF","zt96waez4c","1920","1080","0","1","0","5daca66b71a51b00113172ce","","null","","","learningBlock2","","","","<div style=""font-size:60px;""> </div>","null","LF","learning/Slide131.JPG","This is a bim:","","",""
"html-keyboard-response","400","397788","0.0-7.0-0.51","LF","zt96waez4c","1920","1080","0","1","0","5daca66b71a51b00113172ce","","null","","","learningBlock2","","","","This is a dep:","null","","","","","",""
"image-keyboard-response","401","398118","0.0-7.0-1.51","LF","zt96waez4c","1920","1080","0","1","0","5daca66b71a51b00113172ce","","null","","","","","","","learning/Slide132.JPG","null","","","","","",""
"html-keyboard-response","402","399121","0.0-7.0-2.51","LF","zt96waez4c","1920","1080","0","1","0","5daca66b71a51b00113172ce","","null","","","learningBlock2","","","","<div style=""font-size:60px;""> </div>","null","LF","learning/Slide132.JPG","This is a dep:","","",""
"html-keyboard-response","403","400123","0.0-7.0-0.52","LF","zt96waez4c","1920","1080","0","1","0","5daca66b71a51b00113172ce","","null","","","learningBlock2","","","","This is a tob:","null","","","","","",""
"image-keyboard-response","404","400457","0.0-7.0-1.52","LF","zt96waez4c","1920","1080","0","1","0","5daca66b71a51b00113172ce","","null","","","","","","","learning/Slide133.JPG","null","","","","","",""
"html-keyboard-response","405","401461","0.0-7.0-2.52","LF","zt96waez4c","1920","1080","0","1","0","5daca66b71a51b00113172ce","","null","","","learningBlock2","","","","<div style=""font-size:60px;""> </div>","null","LF","learning/Slide133.JPG","This is a tob:","","",""
"html-keyboard-response","406","402464","0.0-7.0-0.53","LF","zt96waez4c","1920","1080","0","1","0","5daca66b71a51b00113172ce","","null","","","learningBlock2","","","","This is a dep:","null","","","","","",""
"image-keyboard-response","407","402791","0.0-7.0-1.53","LF","zt96waez4c","1920","1080","0","1","0","5daca66b71a51b00113172ce","","null","","","","","","","learning/Slide134.JPG","null","","","","","",""
"html-keyboard-response","408","403794","0.0-7.0-2.53","LF","zt96waez4c","1920","1080","0","1","0","5daca66b71a51b00113172ce","","null","","","learningBlock2","","","","<div style=""font-size:60px;""> </div>","null","LF","learning/Slide134.JPG","This is a dep:","","",""
"html-keyboard-response","409","404795","0.0-7.0-0.54","LF","zt96waez4c","1920","1080","0","1","0","5daca66b71a51b00113172ce","","null","","","learningBlock2","","","","This is a tob:","null","","","","","",""
"image-keyboard-response","410","405122","0.0-7.0-1.54","LF","zt96waez4c","1920","1080","0","1","0","5daca66b71a51b00113172ce","","null","","","","","","","learning/Slide135.JPG","null","","","","","",""
"html-keyboard-response","411","406124","0.0-7.0-2.54","LF","zt96waez4c","1920","1080","0","1","0","5daca66b71a51b00113172ce","","null","","","learningBlock2","","","","<div style=""font-size:60px;""> </div>","null","LF","learning/Slide135.JPG","This is a tob:","","",""
"html-keyboard-response","412","407125","0.0-7.0-0.55","LF","zt96waez4c","1920","1080","0","1","0","5daca66b71a51b00113172ce","","null","","","learningBlock2","","","","This is a wug:","null","","","","","",""
"image-keyboard-response","413","407453","0.0-7.0-1.55","LF","zt96waez4c","1920","1080","0","1","0","5daca66b71a51b00113172ce","","null","","","","","","","learning/Slide136.JPG","null","","","","","",""
"html-keyboard-response","414","408457","0.0-7.0-2.55","LF","zt96waez4c","1920","1080","0","1","0","5daca66b71a51b00113172ce","","null","","","learningBlock2","","","","<div style=""font-size:60px;""> </div>","null","LF","learning/Slide136.JPG","This is a wug:","","",""
"html-keyboard-response","415","409459","0.0-7.0-0.56","LF","zt96waez4c","1920","1080","0","1","0","5daca66b71a51b00113172ce","","null","","","learningBlock2","","","","This is a tob:","null","","","","","",""
"image-keyboard-response","416","409787","0.0-7.0-1.56","LF","zt96waez4c","1920","1080","0","1","0","5daca66b71a51b00113172ce","","null","","","","","","","learning/Slide137.JPG","null","","","","","",""
"html-keyboard-response","417","410789","0.0-7.0-2.56","LF","zt96waez4c","1920","1080","0","1","0","5daca66b71a51b00113172ce","","null","","","learningBlock2","","","","<div style=""font-size:60px;""> </div>","null","LF","learning/Slide137.JPG","This is a tob:","","",""
"html-keyboard-response","418","411792","0.0-7.0-0.57","LF","zt96waez4c","1920","1080","0","1","0","5daca66b71a51b00113172ce","","null","","","learningBlock2","","","","This is a bim:","null","","","","","",""
"image-keyboard-response","419","412120","0.0-7.0-1.57","LF","zt96waez4c","1920","1080","0","1","0","5daca66b71a51b00113172ce","","null","","","","","","","learning/Slide138.JPG","null","","","","","",""
"html-keyboard-response","420","413124","0.0-7.0-2.57","LF","zt96waez4c","1920","1080","0","1","0","5daca66b71a51b00113172ce","","null","","","learningBlock2","","","","<div style=""font-size:60px;""> </div>","null","LF","learning/Slide138.JPG","This is a bim:","","",""
"html-keyboard-response","421","414125","0.0-7.0-0.58","LF","zt96waez4c","1920","1080","0","1","0","5daca66b71a51b00113172ce","","null","","","learningBlock2","","","","This is a wug:","null","","","","","",""
"image-keyboard-response","422","414455","0.0-7.0-1.58","LF","zt96waez4c","1920","1080","0","1","0","5daca66b71a51b00113172ce","","null","","","","","","","learning/Slide139.JPG","null","","","","","",""
"html-keyboard-response","423","415459","0.0-7.0-2.58","LF","zt96waez4c","1920","1080","0","1","0","5daca66b71a51b00113172ce","","null","","","learningBlock2","","","","<div style=""font-size:60px;""> </div>","null","LF","learning/Slide139.JPG","This is a wug:","","",""
"html-keyboard-response","424","416461","0.0-7.0-0.59","LF","zt96waez4c","1920","1080","0","1","0","5daca66b71a51b00113172ce","","null","","","learningBlock2","","","","This is a dep:","null","","","","","",""
"image-keyboard-response","425","416789","0.0-7.0-1.59","LF","zt96waez4c","1920","1080","0","1","0","5daca66b71a51b00113172ce","","null","","","","","","","learning/Slide140.JPG","null","","","","","",""
"html-keyboard-response","426","417791","0.0-7.0-2.59","LF","zt96waez4c","1920","1080","0","1","0","5daca66b71a51b00113172ce","","null","","","learningBlock2","","","","<div style=""font-size:60px;""> </div>","null","LF","learning/Slide140.JPG","This is a dep:","","",""
"html-keyboard-response","427","418792","0.0-7.0-0.60","LF","zt96waez4c","1920","1080","0","1","0","5daca66b71a51b00113172ce","","null","","","learningBlock2","","","","This is a tob:","null","","","","","",""
"image-keyboard-response","428","419121","0.0-7.0-1.60","LF","zt96waez4c","1920","1080","0","1","0","5daca66b71a51b00113172ce","","null","","","","","","","learning/Slide141.JPG","null","","","","","",""
"html-keyboard-response","429","420123","0.0-7.0-2.60","LF","zt96waez4c","1920","1080","0","1","0","5daca66b71a51b00113172ce","","null","","","learningBlock2","","","","<div style=""font-size:60px;""> </div>","null","LF","learning/Slide141.JPG","This is a tob:","","",""
"html-keyboard-response","430","421125","0.0-7.0-0.61","LF","zt96waez4c","1920","1080","0","1","0","5daca66b71a51b00113172ce","","null","","","learningBlock2","","","","This is a wug:","null","","","","","",""
"image-keyboard-response","431","421453","0.0-7.0-1.61","LF","zt96waez4c","1920","1080","0","1","0","5daca66b71a51b00113172ce","","null","","","","","","","learning/Slide142.JPG","null","","","","","",""
"html-keyboard-response","432","422455","0.0-7.0-2.61","LF","zt96waez4c","1920","1080","0","1","0","5daca66b71a51b00113172ce","","null","","","learningBlock2","","","","<div style=""font-size:60px;""> </div>","null","LF","learning/Slide142.JPG","This is a wug:","","",""
"html-keyboard-response","433","423458","0.0-7.0-0.62","LF","zt96waez4c","1920","1080","0","1","0","5daca66b71a51b00113172ce","","null","","","learningBlock2","","","","This is a bim:","null","","","","","",""
"image-keyboard-response","434","423786","0.0-7.0-1.62","LF","zt96waez4c","1920","1080","0","1","0","5daca66b71a51b00113172ce","","null","","","","","","","learning/Slide143.JPG","null","","","","","",""
"html-keyboard-response","435","424788","0.0-7.0-2.62","LF","zt96waez4c","1920","1080","0","1","0","5daca66b71a51b00113172ce","","null","","","learningBlock2","","","","<div style=""font-size:60px;""> </div>","null","LF","learning/Slide143.JPG","This is a bim:","","",""
"html-keyboard-response","436","425791","0.0-7.0-0.63","LF","zt96waez4c","1920","1080","0","1","0","5daca66b71a51b00113172ce","","null","","","learningBlock2","","","","This is a dep:","null","","","","","",""
