"trial_type","trial_index","time_elapsed","internal_node_id","condition","subject","screen_width","screen_height","attention","distraction","conscientious","prolificID","success","rt","url","view_history","test_part","final_height_px","final_width_px","scale_factor","stimulus","key_press","learningType","presentedImage","presentedLabel","button_pressed","response","responses"
"pavlovia","0","18","0.0-0.0","FL","w2brxm7ay2","1366","768","0","1","0","5f60713e595007000a8e1da7","","","","","","","","","","","","","","","",""
"fullscreen","1","3570","0.0-1.0","FL","w2brxm7ay2","1366","768","0","1","0","5f60713e595007000a8e1da7","true","","","","","","","","","","","","","","",""
"external-html","2","10307","0.0-2.0-0.0","FL","w2brxm7ay2","1366","768","0","1","0","5f60713e595007000a8e1da7","","6654","text/information_english.html","","","","","","","","","","","","",""
"external-html","3","18302","0.0-2.0-1.0","FL","w2brxm7ay2","1366","768","0","1","0","5f60713e595007000a8e1da7","","7899","text/consent_english.html","","","","","","","","","","","","",""
"instructions","4","30139","0.0-3.0","FL","w2brxm7ay2","1366","768","0","1","0","5f60713e595007000a8e1da7","","NA","","[{""page_index"":0,""viewing_time"":1735},{""page_index"":1,""viewing_time"":10097}]","instructions","","","","","","","","","","",""
"resize","5","54966","0.0-4.0","FL","w2brxm7ay2","1366","768","0","1","0","5f60713e595007000a8e1da7","","","","","","","274","1.7396825396825397","","","","","","","",""
"image-keyboard-response","6","55149","0.0-5.0-0.0","FL","w2brxm7ay2","1366","768","0","1","0","5f60713e595007000a8e1da7","","null","","","","","","","learning/Slide1.JPG","null","","","","","",""
"html-keyboard-response","7","56318","0.0-5.0-1.0","FL","w2brxm7ay2","1366","768","0","1","0","5f60713e595007000a8e1da7","","null","","","learningBlock1","","","","That was a tob.","null","","","","","",""
"html-keyboard-response","8","57320","0.0-5.0-2.0","FL","w2brxm7ay2","1366","768","0","1","0","5f60713e595007000a8e1da7","","null","","","learningBlock1","","","","<div style=""font-size:60px;""> </div>","null","FL","learning/Slide1.JPG","That was a tob.","","",""
"image-keyboard-response","9","57510","0.0-5.0-0.1","FL","w2brxm7ay2","1366","768","0","1","0","5f60713e595007000a8e1da7","","null","","","","","","","learning/Slide2.JPG","null","","","","","",""
"html-keyboard-response","10","58668","0.0-5.0-1.1","FL","w2brxm7ay2","1366","768","0","1","0","5f60713e595007000a8e1da7","","null","","","learningBlock1","","","","That was a wug.","null","","","","","",""
"html-keyboard-response","11","59680","0.0-5.0-2.1","FL","w2brxm7ay2","1366","768","0","1","0","5f60713e595007000a8e1da7","","null","","","learningBlock1","","","","<div style=""font-size:60px;""> </div>","null","FL","learning/Slide2.JPG","That was a wug.","","",""
"image-keyboard-response","12","59867","0.0-5.0-0.2","FL","w2brxm7ay2","1366","768","0","1","0","5f60713e595007000a8e1da7","","null","","","","","","","learning/Slide3.JPG","null","","","","","",""
"html-keyboard-response","13","61029","0.0-5.0-1.2","FL","w2brxm7ay2","1366","768","0","1","0","5f60713e595007000a8e1da7","","null","","","learningBlock1","","","","That was a bim.","null","","","","","",""
"html-keyboard-response","14","62044","0.0-5.0-2.2","FL","w2brxm7ay2","1366","768","0","1","0","5f60713e595007000a8e1da7","","null","","","learningBlock1","","","","<div style=""font-size:60px;""> </div>","null","FL","learning/Slide3.JPG","That was a bim.","","",""
"image-keyboard-response","15","62233","0.0-5.0-0.3","FL","w2brxm7ay2","1366","768","0","1","0","5f60713e595007000a8e1da7","","null","","","","","","","learning/Slide4.JPG","null","","","","","",""
"html-keyboard-response","16","63401","0.0-5.0-1.3","FL","w2brxm7ay2","1366","768","0","1","0","5f60713e595007000a8e1da7","","null","","","learningBlock1","","","","That was a dep.","null","","","","","",""
"html-keyboard-response","17","64413","0.0-5.0-2.3","FL","w2brxm7ay2","1366","768","0","1","0","5f60713e595007000a8e1da7","","null","","","learningBlock1","","","","<div style=""font-size:60px;""> </div>","null","FL","learning/Slide4.JPG","That was a dep.","","",""
"image-keyboard-response","18","64602","0.0-5.0-0.4","FL","w2brxm7ay2","1366","768","0","1","0","5f60713e595007000a8e1da7","","null","","","","","","","learning/Slide5.JPG","null","","","","","",""
"html-keyboard-response","19","65769","0.0-5.0-1.4","FL","w2brxm7ay2","1366","768","0","1","0","5f60713e595007000a8e1da7","","null","","","learningBlock1","","","","That was a wug.","null","","","","","",""
"html-keyboard-response","20","66773","0.0-5.0-2.4","FL","w2brxm7ay2","1366","768","0","1","0","5f60713e595007000a8e1da7","","null","","","learningBlock1","","","","<div style=""font-size:60px;""> </div>","null","FL","learning/Slide5.JPG","That was a wug.","","",""
"image-keyboard-response","21","66961","0.0-5.0-0.5","FL","w2brxm7ay2","1366","768","0","1","0","5f60713e595007000a8e1da7","","null","","","","","","","learning/Slide6.JPG","null","","","","","",""
"html-keyboard-response","22","68130","0.0-5.0-1.5","FL","w2brxm7ay2","1366","768","0","1","0","5f60713e595007000a8e1da7","","null","","","learningBlock1","","","","That was a dep.","null","","","","","",""
"html-keyboard-response","23","69138","0.0-5.0-2.5","FL","w2brxm7ay2","1366","768","0","1","0","5f60713e595007000a8e1da7","","null","","","learningBlock1","","","","<div style=""font-size:60px;""> </div>","null","FL","learning/Slide6.JPG","That was a dep.","","",""
"image-keyboard-response","24","69327","0.0-5.0-0.6","FL","w2brxm7ay2","1366","768","0","1","0","5f60713e595007000a8e1da7","","null","","","","","","","learning/Slide7.JPG","null","","","","","",""
"html-keyboard-response","25","70486","0.0-5.0-1.6","FL","w2brxm7ay2","1366","768","0","1","0","5f60713e595007000a8e1da7","","null","","","learningBlock1","","","","That was a wug.","null","","","","","",""
"html-keyboard-response","26","71489","0.0-5.0-2.6","FL","w2brxm7ay2","1366","768","0","1","0","5f60713e595007000a8e1da7","","null","","","learningBlock1","","","","<div style=""font-size:60px;""> </div>","null","FL","learning/Slide7.JPG","That was a wug.","","",""
"image-keyboard-response","27","71676","0.0-5.0-0.7","FL","w2brxm7ay2","1366","768","0","1","0","5f60713e595007000a8e1da7","","null","","","","","","","learning/Slide8.JPG","null","","","","","",""
"html-keyboard-response","28","72845","0.0-5.0-1.7","FL","w2brxm7ay2","1366","768","0","1","0","5f60713e595007000a8e1da7","","null","","","learningBlock1","","","","That was a bim.","null","","","","","",""
"html-keyboard-response","29","73858","0.0-5.0-2.7","FL","w2brxm7ay2","1366","768","0","1","0","5f60713e595007000a8e1da7","","null","","","learningBlock1","","","","<div style=""font-size:60px;""> </div>","null","FL","learning/Slide8.JPG","That was a bim.","","",""
"image-keyboard-response","30","74049","0.0-5.0-0.8","FL","w2brxm7ay2","1366","768","0","1","0","5f60713e595007000a8e1da7","","null","","","","","","","learning/Slide9.JPG","null","","","","","",""
"html-keyboard-response","31","75220","0.0-5.0-1.8","FL","w2brxm7ay2","1366","768","0","1","0","5f60713e595007000a8e1da7","","null","","","learningBlock1","","","","That was a wug.","null","","","","","",""
"html-keyboard-response","32","76235","0.0-5.0-2.8","FL","w2brxm7ay2","1366","768","0","1","0","5f60713e595007000a8e1da7","","null","","","learningBlock1","","","","<div style=""font-size:60px;""> </div>","null","FL","learning/Slide9.JPG","That was a wug.","","",""
"image-keyboard-response","33","76422","0.0-5.0-0.9","FL","w2brxm7ay2","1366","768","0","1","0","5f60713e595007000a8e1da7","","null","","","","","","","learning/Slide10.JPG","null","","","","","",""
"html-keyboard-response","34","77581","0.0-5.0-1.9","FL","w2brxm7ay2","1366","768","0","1","0","5f60713e595007000a8e1da7","","null","","","learningBlock1","","","","That was a dep.","null","","","","","",""
"html-keyboard-response","35","78585","0.0-5.0-2.9","FL","w2brxm7ay2","1366","768","0","1","0","5f60713e595007000a8e1da7","","null","","","learningBlock1","","","","<div style=""font-size:60px;""> </div>","null","FL","learning/Slide10.JPG","That was a dep.","","",""
"image-keyboard-response","36","78773","0.0-5.0-0.10","FL","w2brxm7ay2","1366","768","0","1","0","5f60713e595007000a8e1da7","","null","","","","","","","learning/Slide11.JPG","null","","","","","",""
"html-keyboard-response","37","79947","0.0-5.0-1.10","FL","w2brxm7ay2","1366","768","0","1","0","5f60713e595007000a8e1da7","","null","","","learningBlock1","","","","That was a tob.","null","","","","","",""
"html-keyboard-response","38","80955","0.0-5.0-2.10","FL","w2brxm7ay2","1366","768","0","1","0","5f60713e595007000a8e1da7","","null","","","learningBlock1","","","","<div style=""font-size:60px;""> </div>","null","FL","learning/Slide11.JPG","That was a tob.","","",""
"image-keyboard-response","39","81145","0.0-5.0-0.11","FL","w2brxm7ay2","1366","768","0","1","0","5f60713e595007000a8e1da7","","null","","","","","","","learning/Slide12.JPG","null","","","","","",""
"html-keyboard-response","40","82314","0.0-5.0-1.11","FL","w2brxm7ay2","1366","768","0","1","0","5f60713e595007000a8e1da7","","null","","","learningBlock1","","","","That was a dep.","null","","","","","",""
"html-keyboard-response","41","83331","0.0-5.0-2.11","FL","w2brxm7ay2","1366","768","0","1","0","5f60713e595007000a8e1da7","","null","","","learningBlock1","","","","<div style=""font-size:60px;""> </div>","null","FL","learning/Slide12.JPG","That was a dep.","","",""
"image-keyboard-response","42","83535","0.0-5.0-0.12","FL","w2brxm7ay2","1366","768","0","1","0","5f60713e595007000a8e1da7","","null","","","","","","","learning/Slide13.JPG","null","","","","","",""
"html-keyboard-response","43","84707","0.0-5.0-1.12","FL","w2brxm7ay2","1366","768","0","1","0","5f60713e595007000a8e1da7","","null","","","learningBlock1","","","","That was a bim.","null","","","","","",""
"html-keyboard-response","44","85711","0.0-5.0-2.12","FL","w2brxm7ay2","1366","768","0","1","0","5f60713e595007000a8e1da7","","null","","","learningBlock1","","","","<div style=""font-size:60px;""> </div>","null","FL","learning/Slide13.JPG","That was a bim.","","",""
"image-keyboard-response","45","85901","0.0-5.0-0.13","FL","w2brxm7ay2","1366","768","0","1","0","5f60713e595007000a8e1da7","","null","","","","","","","learning/Slide14.JPG","null","","","","","",""
"html-keyboard-response","46","87076","0.0-5.0-1.13","FL","w2brxm7ay2","1366","768","0","1","0","5f60713e595007000a8e1da7","","null","","","learningBlock1","","","","That was a wug.","null","","","","","",""
"html-keyboard-response","47","88081","0.0-5.0-2.13","FL","w2brxm7ay2","1366","768","0","1","0","5f60713e595007000a8e1da7","","null","","","learningBlock1","","","","<div style=""font-size:60px;""> </div>","null","FL","learning/Slide14.JPG","That was a wug.","","",""
"image-keyboard-response","48","88269","0.0-5.0-0.14","FL","w2brxm7ay2","1366","768","0","1","0","5f60713e595007000a8e1da7","","null","","","","","","","learning/Slide15.JPG","null","","","","","",""
"html-keyboard-response","49","89447","0.0-5.0-1.14","FL","w2brxm7ay2","1366","768","0","1","0","5f60713e595007000a8e1da7","","null","","","learningBlock1","","","","That was a tob.","null","","","","","",""
"html-keyboard-response","50","90453","0.0-5.0-2.14","FL","w2brxm7ay2","1366","768","0","1","0","5f60713e595007000a8e1da7","","null","","","learningBlock1","","","","<div style=""font-size:60px;""> </div>","null","FL","learning/Slide15.JPG","That was a tob.","","",""
"image-keyboard-response","51","90652","0.0-5.0-0.15","FL","w2brxm7ay2","1366","768","0","1","0","5f60713e595007000a8e1da7","","null","","","","","","","learning/Slide16.JPG","null","","","","","",""
"html-keyboard-response","52","91816","0.0-5.0-1.15","FL","w2brxm7ay2","1366","768","0","1","0","5f60713e595007000a8e1da7","","null","","","learningBlock1","","","","That was a dep.","null","","","","","",""
"html-keyboard-response","53","92827","0.0-5.0-2.15","FL","w2brxm7ay2","1366","768","0","1","0","5f60713e595007000a8e1da7","","null","","","learningBlock1","","","","<div style=""font-size:60px;""> </div>","null","FL","learning/Slide16.JPG","That was a dep.","","",""
"image-keyboard-response","54","93018","0.0-5.0-0.16","FL","w2brxm7ay2","1366","768","0","1","0","5f60713e595007000a8e1da7","","null","","","","","","","learning/Slide17.JPG","null","","","","","",""
"html-keyboard-response","55","94186","0.0-5.0-1.16","FL","w2brxm7ay2","1366","768","0","1","0","5f60713e595007000a8e1da7","","null","","","learningBlock1","","","","That was a bim.","null","","","","","",""
"html-keyboard-response","56","95209","0.0-5.0-2.16","FL","w2brxm7ay2","1366","768","0","1","0","5f60713e595007000a8e1da7","","null","","","learningBlock1","","","","<div style=""font-size:60px;""> </div>","null","FL","learning/Slide17.JPG","That was a bim.","","",""
"image-keyboard-response","57","95390","0.0-5.0-0.17","FL","w2brxm7ay2","1366","768","0","1","0","5f60713e595007000a8e1da7","","null","","","","","","","learning/Slide18.JPG","null","","","","","",""
"html-keyboard-response","58","96556","0.0-5.0-1.17","FL","w2brxm7ay2","1366","768","0","1","0","5f60713e595007000a8e1da7","","null","","","learningBlock1","","","","That was a tob.","null","","","","","",""
"html-keyboard-response","59","97571","0.0-5.0-2.17","FL","w2brxm7ay2","1366","768","0","1","0","5f60713e595007000a8e1da7","","null","","","learningBlock1","","","","<div style=""font-size:60px;""> </div>","null","FL","learning/Slide18.JPG","That was a tob.","","",""
"image-keyboard-response","60","97766","0.0-5.0-0.18","FL","w2brxm7ay2","1366","768","0","1","0","5f60713e595007000a8e1da7","","null","","","","","","","learning/Slide19.JPG","null","","","","","",""
"html-keyboard-response","61","98941","0.0-5.0-1.18","FL","w2brxm7ay2","1366","768","0","1","0","5f60713e595007000a8e1da7","","null","","","learningBlock1","","","","That was a wug.","null","","","","","",""
"html-keyboard-response","62","99954","0.0-5.0-2.18","FL","w2brxm7ay2","1366","768","0","1","0","5f60713e595007000a8e1da7","","null","","","learningBlock1","","","","<div style=""font-size:60px;""> </div>","null","FL","learning/Slide19.JPG","That was a wug.","","",""
"image-keyboard-response","63","100144","0.0-5.0-0.19","FL","w2brxm7ay2","1366","768","0","1","0","5f60713e595007000a8e1da7","","null","","","","","","","learning/Slide20.JPG","null","","","","","",""
"html-keyboard-response","64","101308","0.0-5.0-1.19","FL","w2brxm7ay2","1366","768","0","1","0","5f60713e595007000a8e1da7","","null","","","learningBlock1","","","","That was a bim.","null","","","","","",""
"html-keyboard-response","65","102331","0.0-5.0-2.19","FL","w2brxm7ay2","1366","768","0","1","0","5f60713e595007000a8e1da7","","null","","","learningBlock1","","","","<div style=""font-size:60px;""> </div>","null","FL","learning/Slide20.JPG","That was a bim.","","",""
"image-keyboard-response","66","102507","0.0-5.0-0.20","FL","w2brxm7ay2","1366","768","0","1","0","5f60713e595007000a8e1da7","","null","","","","","","","learning/Slide21.JPG","null","","","","","",""
"html-keyboard-response","67","103668","0.0-5.0-1.20","FL","w2brxm7ay2","1366","768","0","1","0","5f60713e595007000a8e1da7","","null","","","learningBlock1","","","","That was a dep.","null","","","","","",""
"html-keyboard-response","68","104677","0.0-5.0-2.20","FL","w2brxm7ay2","1366","768","0","1","0","5f60713e595007000a8e1da7","","null","","","learningBlock1","","","","<div style=""font-size:60px;""> </div>","null","FL","learning/Slide21.JPG","That was a dep.","","",""
"image-keyboard-response","69","104864","0.0-5.0-0.21","FL","w2brxm7ay2","1366","768","0","1","0","5f60713e595007000a8e1da7","","null","","","","","","","learning/Slide22.JPG","null","","","","","",""
"html-keyboard-response","70","106029","0.0-5.0-1.21","FL","w2brxm7ay2","1366","768","0","1","0","5f60713e595007000a8e1da7","","null","","","learningBlock1","","","","That was a bim.","null","","","","","",""
"html-keyboard-response","71","107034","0.0-5.0-2.21","FL","w2brxm7ay2","1366","768","0","1","0","5f60713e595007000a8e1da7","","null","","","learningBlock1","","","","<div style=""font-size:60px;""> </div>","null","FL","learning/Slide22.JPG","That was a bim.","","",""
"image-keyboard-response","72","107222","0.0-5.0-0.22","FL","w2brxm7ay2","1366","768","0","1","0","5f60713e595007000a8e1da7","","null","","","","","","","learning/Slide23.JPG","null","","","","","",""
"html-keyboard-response","73","108387","0.0-5.0-1.22","FL","w2brxm7ay2","1366","768","0","1","0","5f60713e595007000a8e1da7","","null","","","learningBlock1","","","","That was a tob.","null","","","","","",""
"html-keyboard-response","74","109390","0.0-5.0-2.22","FL","w2brxm7ay2","1366","768","0","1","0","5f60713e595007000a8e1da7","","null","","","learningBlock1","","","","<div style=""font-size:60px;""> </div>","null","FL","learning/Slide23.JPG","That was a tob.","","",""
"image-keyboard-response","75","109580","0.0-5.0-0.23","FL","w2brxm7ay2","1366","768","0","1","0","5f60713e595007000a8e1da7","","null","","","","","","","learning/Slide24.JPG","null","","","","","",""
"html-keyboard-response","76","110744","0.0-5.0-1.23","FL","w2brxm7ay2","1366","768","0","1","0","5f60713e595007000a8e1da7","","null","","","learningBlock1","","","","That was a wug.","null","","","","","",""
"html-keyboard-response","77","111758","0.0-5.0-2.23","FL","w2brxm7ay2","1366","768","0","1","0","5f60713e595007000a8e1da7","","null","","","learningBlock1","","","","<div style=""font-size:60px;""> </div>","null","FL","learning/Slide24.JPG","That was a wug.","","",""
"image-keyboard-response","78","111946","0.0-5.0-0.24","FL","w2brxm7ay2","1366","768","0","1","0","5f60713e595007000a8e1da7","","null","","","","","","","learning/Slide25.JPG","null","","","","","",""
"html-keyboard-response","79","113108","0.0-5.0-1.24","FL","w2brxm7ay2","1366","768","0","1","0","5f60713e595007000a8e1da7","","null","","","learningBlock1","","","","That was a dep.","null","","","","","",""
"html-keyboard-response","80","114112","0.0-5.0-2.24","FL","w2brxm7ay2","1366","768","0","1","0","5f60713e595007000a8e1da7","","null","","","learningBlock1","","","","<div style=""font-size:60px;""> </div>","null","FL","learning/Slide25.JPG","That was a dep.","","",""
"image-keyboard-response","81","114288","0.0-5.0-0.25","FL","w2brxm7ay2","1366","768","0","1","0","5f60713e595007000a8e1da7","","null","","","","","","","learning/Slide26.JPG","null","","","","","",""
"html-keyboard-response","82","115452","0.0-5.0-1.25","FL","w2brxm7ay2","1366","768","0","1","0","5f60713e595007000a8e1da7","","null","","","learningBlock1","","","","That was a wug.","null","","","","","",""
"html-keyboard-response","83","116454","0.0-5.0-2.25","FL","w2brxm7ay2","1366","768","0","1","0","5f60713e595007000a8e1da7","","null","","","learningBlock1","","","","<div style=""font-size:60px;""> </div>","null","FL","learning/Slide26.JPG","That was a wug.","","",""
"image-keyboard-response","84","116641","0.0-5.0-0.26","FL","w2brxm7ay2","1366","768","0","1","0","5f60713e595007000a8e1da7","","null","","","","","","","learning/Slide27.JPG","null","","","","","",""
"html-keyboard-response","85","117807","0.0-5.0-1.26","FL","w2brxm7ay2","1366","768","0","1","0","5f60713e595007000a8e1da7","","null","","","learningBlock1","","","","That was a bim.","null","","","","","",""
"html-keyboard-response","86","118813","0.0-5.0-2.26","FL","w2brxm7ay2","1366","768","0","1","0","5f60713e595007000a8e1da7","","null","","","learningBlock1","","","","<div style=""font-size:60px;""> </div>","null","FL","learning/Slide27.JPG","That was a bim.","","",""
"image-keyboard-response","87","119005","0.0-5.0-0.27","FL","w2brxm7ay2","1366","768","0","1","0","5f60713e595007000a8e1da7","","null","","","","","","","learning/Slide28.JPG","null","","","","","",""
"html-keyboard-response","88","120172","0.0-5.0-1.27","FL","w2brxm7ay2","1366","768","0","1","0","5f60713e595007000a8e1da7","","null","","","learningBlock1","","","","That was a dep.","null","","","","","",""
"html-keyboard-response","89","121175","0.0-5.0-2.27","FL","w2brxm7ay2","1366","768","0","1","0","5f60713e595007000a8e1da7","","null","","","learningBlock1","","","","<div style=""font-size:60px;""> </div>","null","FL","learning/Slide28.JPG","That was a dep.","","",""
"image-keyboard-response","90","121365","0.0-5.0-0.28","FL","w2brxm7ay2","1366","768","0","1","0","5f60713e595007000a8e1da7","","null","","","","","","","learning/Slide29.JPG","null","","","","","",""
"html-keyboard-response","91","122526","0.0-5.0-1.28","FL","w2brxm7ay2","1366","768","0","1","0","5f60713e595007000a8e1da7","","null","","","learningBlock1","","","","That was a tob.","null","","","","","",""
"html-keyboard-response","92","123534","0.0-5.0-2.28","FL","w2brxm7ay2","1366","768","0","1","0","5f60713e595007000a8e1da7","","null","","","learningBlock1","","","","<div style=""font-size:60px;""> </div>","null","FL","learning/Slide29.JPG","That was a tob.","","",""
"image-keyboard-response","93","123722","0.0-5.0-0.29","FL","w2brxm7ay2","1366","768","0","1","0","5f60713e595007000a8e1da7","","null","","","","","","","learning/Slide30.JPG","null","","","","","",""
"html-keyboard-response","94","124884","0.0-5.0-1.29","FL","w2brxm7ay2","1366","768","0","1","0","5f60713e595007000a8e1da7","","null","","","learningBlock1","","","","That was a dep.","null","","","","","",""
"html-keyboard-response","95","125888","0.0-5.0-2.29","FL","w2brxm7ay2","1366","768","0","1","0","5f60713e595007000a8e1da7","","null","","","learningBlock1","","","","<div style=""font-size:60px;""> </div>","null","FL","learning/Slide30.JPG","That was a dep.","","",""
"image-keyboard-response","96","126076","0.0-5.0-0.30","FL","w2brxm7ay2","1366","768","0","1","0","5f60713e595007000a8e1da7","","null","","","","","","","learning/Slide31.JPG","null","","","","","",""
"html-keyboard-response","97","127237","0.0-5.0-1.30","FL","w2brxm7ay2","1366","768","0","1","0","5f60713e595007000a8e1da7","","null","","","learningBlock1","","","","That was a wug.","null","","","","","",""
"html-keyboard-response","98","128253","0.0-5.0-2.30","FL","w2brxm7ay2","1366","768","0","1","0","5f60713e595007000a8e1da7","","null","","","learningBlock1","","","","<div style=""font-size:60px;""> </div>","null","FL","learning/Slide31.JPG","That was a wug.","","",""
"image-keyboard-response","99","128440","0.0-5.0-0.31","FL","w2brxm7ay2","1366","768","0","1","0","5f60713e595007000a8e1da7","","null","","","","","","","learning/Slide32.JPG","null","","","","","",""
"html-keyboard-response","100","129607","0.0-5.0-1.31","FL","w2brxm7ay2","1366","768","0","1","0","5f60713e595007000a8e1da7","","null","","","learningBlock1","","","","That was a tob.","null","","","","","",""
"html-keyboard-response","101","130617","0.0-5.0-2.31","FL","w2brxm7ay2","1366","768","0","1","0","5f60713e595007000a8e1da7","","null","","","learningBlock1","","","","<div style=""font-size:60px;""> </div>","null","FL","learning/Slide32.JPG","That was a tob.","","",""
"image-keyboard-response","102","130807","0.0-5.0-0.32","FL","w2brxm7ay2","1366","768","0","1","0","5f60713e595007000a8e1da7","","null","","","","","","","learning/Slide33.JPG","null","","","","","",""
"html-keyboard-response","103","131966","0.0-5.0-1.32","FL","w2brxm7ay2","1366","768","0","1","0","5f60713e595007000a8e1da7","","null","","","learningBlock1","","","","That was a bim.","null","","","","","",""
"html-keyboard-response","104","132968","0.0-5.0-2.32","FL","w2brxm7ay2","1366","768","0","1","0","5f60713e595007000a8e1da7","","null","","","learningBlock1","","","","<div style=""font-size:60px;""> </div>","null","FL","learning/Slide33.JPG","That was a bim.","","",""
"image-keyboard-response","105","133152","0.0-5.0-0.33","FL","w2brxm7ay2","1366","768","0","1","0","5f60713e595007000a8e1da7","","null","","","","","","","learning/Slide34.JPG","null","","","","","",""
"html-keyboard-response","106","134322","0.0-5.0-1.33","FL","w2brxm7ay2","1366","768","0","1","0","5f60713e595007000a8e1da7","","null","","","learningBlock1","","","","That was a tob.","null","","","","","",""
"html-keyboard-response","107","135328","0.0-5.0-2.33","FL","w2brxm7ay2","1366","768","0","1","0","5f60713e595007000a8e1da7","","null","","","learningBlock1","","","","<div style=""font-size:60px;""> </div>","null","FL","learning/Slide34.JPG","That was a tob.","","",""
"image-keyboard-response","108","135516","0.0-5.0-0.34","FL","w2brxm7ay2","1366","768","0","1","0","5f60713e595007000a8e1da7","","null","","","","","","","learning/Slide35.JPG","null","","","","","",""
"html-keyboard-response","109","136678","0.0-5.0-1.34","FL","w2brxm7ay2","1366","768","0","1","0","5f60713e595007000a8e1da7","","null","","","learningBlock1","","","","That was a bim.","null","","","","","",""
"html-keyboard-response","110","137686","0.0-5.0-2.34","FL","w2brxm7ay2","1366","768","0","1","0","5f60713e595007000a8e1da7","","null","","","learningBlock1","","","","<div style=""font-size:60px;""> </div>","null","FL","learning/Slide35.JPG","That was a bim.","","",""
"image-keyboard-response","111","137872","0.0-5.0-0.35","FL","w2brxm7ay2","1366","768","0","1","0","5f60713e595007000a8e1da7","","null","","","","","","","learning/Slide36.JPG","null","","","","","",""
"html-keyboard-response","112","139044","0.0-5.0-1.35","FL","w2brxm7ay2","1366","768","0","1","0","5f60713e595007000a8e1da7","","null","","","learningBlock1","","","","That was a dep.","null","","","","","",""
"html-keyboard-response","113","140058","0.0-5.0-2.35","FL","w2brxm7ay2","1366","768","0","1","0","5f60713e595007000a8e1da7","","null","","","learningBlock1","","","","<div style=""font-size:60px;""> </div>","null","FL","learning/Slide36.JPG","That was a dep.","","",""
"image-keyboard-response","114","140249","0.0-5.0-0.36","FL","w2brxm7ay2","1366","768","0","1","0","5f60713e595007000a8e1da7","","null","","","","","","","learning/Slide37.JPG","null","","","","","",""
"html-keyboard-response","115","141412","0.0-5.0-1.36","FL","w2brxm7ay2","1366","768","0","1","0","5f60713e595007000a8e1da7","","null","","","learningBlock1","","","","That was a tob.","null","","","","","",""
"html-keyboard-response","116","142424","0.0-5.0-2.36","FL","w2brxm7ay2","1366","768","0","1","0","5f60713e595007000a8e1da7","","null","","","learningBlock1","","","","<div style=""font-size:60px;""> </div>","null","FL","learning/Slide37.JPG","That was a tob.","","",""
"image-keyboard-response","117","142613","0.0-5.0-0.37","FL","w2brxm7ay2","1366","768","0","1","0","5f60713e595007000a8e1da7","","null","","","","","","","learning/Slide38.JPG","null","","","","","",""
"html-keyboard-response","118","143772","0.0-5.0-1.37","FL","w2brxm7ay2","1366","768","0","1","0","5f60713e595007000a8e1da7","","null","","","learningBlock1","","","","That was a wug.","null","","","","","",""
"html-keyboard-response","119","144780","0.0-5.0-2.37","FL","w2brxm7ay2","1366","768","0","1","0","5f60713e595007000a8e1da7","","null","","","learningBlock1","","","","<div style=""font-size:60px;""> </div>","null","FL","learning/Slide38.JPG","That was a wug.","","",""
"image-keyboard-response","120","144969","0.0-5.0-0.38","FL","w2brxm7ay2","1366","768","0","1","0","5f60713e595007000a8e1da7","","null","","","","","","","learning/Slide39.JPG","null","","","","","",""
"html-keyboard-response","121","146132","0.0-5.0-1.38","FL","w2brxm7ay2","1366","768","0","1","0","5f60713e595007000a8e1da7","","null","","","learningBlock1","","","","That was a bim.","null","","","","","",""
"html-keyboard-response","122","147139","0.0-5.0-2.38","FL","w2brxm7ay2","1366","768","0","1","0","5f60713e595007000a8e1da7","","null","","","learningBlock1","","","","<div style=""font-size:60px;""> </div>","null","FL","learning/Slide39.JPG","That was a bim.","","",""
"image-keyboard-response","123","147326","0.0-5.0-0.39","FL","w2brxm7ay2","1366","768","0","1","0","5f60713e595007000a8e1da7","","null","","","","","","","learning/Slide40.JPG","null","","","","","",""
"html-keyboard-response","124","148488","0.0-5.0-1.39","FL","w2brxm7ay2","1366","768","0","1","0","5f60713e595007000a8e1da7","","null","","","learningBlock1","","","","That was a tob.","null","","","","","",""
"html-keyboard-response","125","149495","0.0-5.0-2.39","FL","w2brxm7ay2","1366","768","0","1","0","5f60713e595007000a8e1da7","","null","","","learningBlock1","","","","<div style=""font-size:60px;""> </div>","null","FL","learning/Slide40.JPG","That was a tob.","","",""
"image-keyboard-response","126","149685","0.0-5.0-0.40","FL","w2brxm7ay2","1366","768","0","1","0","5f60713e595007000a8e1da7","","null","","","","","","","learning/Slide41.JPG","null","","","","","",""
"html-keyboard-response","127","150846","0.0-5.0-1.40","FL","w2brxm7ay2","1366","768","0","1","0","5f60713e595007000a8e1da7","","null","","","learningBlock1","","","","That was a bim.","null","","","","","",""
"html-keyboard-response","128","151857","0.0-5.0-2.40","FL","w2brxm7ay2","1366","768","0","1","0","5f60713e595007000a8e1da7","","null","","","learningBlock1","","","","<div style=""font-size:60px;""> </div>","null","FL","learning/Slide41.JPG","That was a bim.","","",""
"image-keyboard-response","129","152049","0.0-5.0-0.41","FL","w2brxm7ay2","1366","768","0","1","0","5f60713e595007000a8e1da7","","null","","","","","","","learning/Slide42.JPG","null","","","","","",""
"html-keyboard-response","130","153215","0.0-5.0-1.41","FL","w2brxm7ay2","1366","768","0","1","0","5f60713e595007000a8e1da7","","null","","","learningBlock1","","","","That was a dep.","null","","","","","",""
"html-keyboard-response","131","154226","0.0-5.0-2.41","FL","w2brxm7ay2","1366","768","0","1","0","5f60713e595007000a8e1da7","","null","","","learningBlock1","","","","<div style=""font-size:60px;""> </div>","null","FL","learning/Slide42.JPG","That was a dep.","","",""
"image-keyboard-response","132","154415","0.0-5.0-0.42","FL","w2brxm7ay2","1366","768","0","1","0","5f60713e595007000a8e1da7","","null","","","","","","","learning/Slide43.JPG","null","","","","","",""
"html-keyboard-response","133","155585","0.0-5.0-1.42","FL","w2brxm7ay2","1366","768","0","1","0","5f60713e595007000a8e1da7","","null","","","learningBlock1","","","","That was a wug.","null","","","","","",""
"html-keyboard-response","134","156596","0.0-5.0-2.42","FL","w2brxm7ay2","1366","768","0","1","0","5f60713e595007000a8e1da7","","null","","","learningBlock1","","","","<div style=""font-size:60px;""> </div>","null","FL","learning/Slide43.JPG","That was a wug.","","",""
"image-keyboard-response","135","156785","0.0-5.0-0.43","FL","w2brxm7ay2","1366","768","0","1","0","5f60713e595007000a8e1da7","","null","","","","","","","learning/Slide44.JPG","null","","","","","",""
"html-keyboard-response","136","157951","0.0-5.0-1.43","FL","w2brxm7ay2","1366","768","0","1","0","5f60713e595007000a8e1da7","","null","","","learningBlock1","","","","That was a bim.","null","","","","","",""
"html-keyboard-response","137","158957","0.0-5.0-2.43","FL","w2brxm7ay2","1366","768","0","1","0","5f60713e595007000a8e1da7","","null","","","learningBlock1","","","","<div style=""font-size:60px;""> </div>","null","FL","learning/Slide44.JPG","That was a bim.","","",""
"image-keyboard-response","138","159141","0.0-5.0-0.44","FL","w2brxm7ay2","1366","768","0","1","0","5f60713e595007000a8e1da7","","null","","","","","","","learning/Slide45.JPG","null","","","","","",""
"html-keyboard-response","139","160305","0.0-5.0-1.44","FL","w2brxm7ay2","1366","768","0","1","0","5f60713e595007000a8e1da7","","null","","","learningBlock1","","","","That was a wug.","null","","","","","",""
"html-keyboard-response","140","161313","0.0-5.0-2.44","FL","w2brxm7ay2","1366","768","0","1","0","5f60713e595007000a8e1da7","","null","","","learningBlock1","","","","<div style=""font-size:60px;""> </div>","null","FL","learning/Slide45.JPG","That was a wug.","","",""
"image-keyboard-response","141","161500","0.0-5.0-0.45","FL","w2brxm7ay2","1366","768","0","1","0","5f60713e595007000a8e1da7","","null","","","","","","","learning/Slide46.JPG","null","","","","","",""
"html-keyboard-response","142","162666","0.0-5.0-1.45","FL","w2brxm7ay2","1366","768","0","1","0","5f60713e595007000a8e1da7","","null","","","learningBlock1","","","","That was a dep.","null","","","","","",""
"html-keyboard-response","143","163675","0.0-5.0-2.45","FL","w2brxm7ay2","1366","768","0","1","0","5f60713e595007000a8e1da7","","null","","","learningBlock1","","","","<div style=""font-size:60px;""> </div>","null","FL","learning/Slide46.JPG","That was a dep.","","",""
"image-keyboard-response","144","163863","0.0-5.0-0.46","FL","w2brxm7ay2","1366","768","0","1","0","5f60713e595007000a8e1da7","","null","","","","","","","learning/Slide47.JPG","null","","","","","",""
"html-keyboard-response","145","165027","0.0-5.0-1.46","FL","w2brxm7ay2","1366","768","0","1","0","5f60713e595007000a8e1da7","","null","","","learningBlock1","","","","That was a tob.","null","","","","","",""
"html-keyboard-response","146","166033","0.0-5.0-2.46","FL","w2brxm7ay2","1366","768","0","1","0","5f60713e595007000a8e1da7","","null","","","learningBlock1","","","","<div style=""font-size:60px;""> </div>","null","FL","learning/Slide47.JPG","That was a tob.","","",""
"image-keyboard-response","147","166220","0.0-5.0-0.47","FL","w2brxm7ay2","1366","768","0","1","0","5f60713e595007000a8e1da7","","null","","","","","","","learning/Slide48.JPG","null","","","","","",""
"html-keyboard-response","148","167384","0.0-5.0-1.47","FL","w2brxm7ay2","1366","768","0","1","0","5f60713e595007000a8e1da7","","null","","","learningBlock1","","","","That was a bim.","null","","","","","",""
"html-keyboard-response","149","168389","0.0-5.0-2.47","FL","w2brxm7ay2","1366","768","0","1","0","5f60713e595007000a8e1da7","","null","","","learningBlock1","","","","<div style=""font-size:60px;""> </div>","null","FL","learning/Slide48.JPG","That was a bim.","","",""
"image-keyboard-response","150","168576","0.0-5.0-0.48","FL","w2brxm7ay2","1366","768","0","1","0","5f60713e595007000a8e1da7","","null","","","","","","","learning/Slide49.JPG","null","","","","","",""
"html-keyboard-response","151","169742","0.0-5.0-1.48","FL","w2brxm7ay2","1366","768","0","1","0","5f60713e595007000a8e1da7","","null","","","learningBlock1","","","","That was a dep.","null","","","","","",""
"html-keyboard-response","152","170749","0.0-5.0-2.48","FL","w2brxm7ay2","1366","768","0","1","0","5f60713e595007000a8e1da7","","null","","","learningBlock1","","","","<div style=""font-size:60px;""> </div>","null","FL","learning/Slide49.JPG","That was a dep.","","",""
"image-keyboard-response","153","170940","0.0-5.0-0.49","FL","w2brxm7ay2","1366","768","0","1","0","5f60713e595007000a8e1da7","","null","","","","","","","learning/Slide50.JPG","null","","","","","",""
"html-keyboard-response","154","172101","0.0-5.0-1.49","FL","w2brxm7ay2","1366","768","0","1","0","5f60713e595007000a8e1da7","","null","","","learningBlock1","","","","That was a tob.","null","","","","","",""
"html-keyboard-response","155","173106","0.0-5.0-2.49","FL","w2brxm7ay2","1366","768","0","1","0","5f60713e595007000a8e1da7","","null","","","learningBlock1","","","","<div style=""font-size:60px;""> </div>","null","FL","learning/Slide50.JPG","That was a tob.","","",""
"image-keyboard-response","156","173295","0.0-5.0-0.50","FL","w2brxm7ay2","1366","768","0","1","0","5f60713e595007000a8e1da7","","null","","","","","","","learning/Slide51.JPG","null","","","","","",""
"html-keyboard-response","157","174460","0.0-5.0-1.50","FL","w2brxm7ay2","1366","768","0","1","0","5f60713e595007000a8e1da7","","null","","","learningBlock1","","","","That was a bim.","null","","","","","",""
"html-keyboard-response","158","175474","0.0-5.0-2.50","FL","w2brxm7ay2","1366","768","0","1","0","5f60713e595007000a8e1da7","","null","","","learningBlock1","","","","<div style=""font-size:60px;""> </div>","null","FL","learning/Slide51.JPG","That was a bim.","","",""
"image-keyboard-response","159","175660","0.0-5.0-0.51","FL","w2brxm7ay2","1366","768","0","1","0","5f60713e595007000a8e1da7","","null","","","","","","","learning/Slide52.JPG","null","","","","","",""
"html-keyboard-response","160","176825","0.0-5.0-1.51","FL","w2brxm7ay2","1366","768","0","1","0","5f60713e595007000a8e1da7","","null","","","learningBlock1","","","","That was a wug.","null","","","","","",""
"html-keyboard-response","161","177840","0.0-5.0-2.51","FL","w2brxm7ay2","1366","768","0","1","0","5f60713e595007000a8e1da7","","null","","","learningBlock1","","","","<div style=""font-size:60px;""> </div>","null","FL","learning/Slide52.JPG","That was a wug.","","",""
"image-keyboard-response","162","178026","0.0-5.0-0.52","FL","w2brxm7ay2","1366","768","0","1","0","5f60713e595007000a8e1da7","","null","","","","","","","learning/Slide53.JPG","null","","","","","",""
"html-keyboard-response","163","179185","0.0-5.0-1.52","FL","w2brxm7ay2","1366","768","0","1","0","5f60713e595007000a8e1da7","","null","","","learningBlock1","","","","That was a tob.","null","","","","","",""
"html-keyboard-response","164","180194","0.0-5.0-2.52","FL","w2brxm7ay2","1366","768","0","1","0","5f60713e595007000a8e1da7","","null","","","learningBlock1","","","","<div style=""font-size:60px;""> </div>","null","FL","learning/Slide53.JPG","That was a tob.","","",""
"image-keyboard-response","165","180384","0.0-5.0-0.53","FL","w2brxm7ay2","1366","768","0","1","0","5f60713e595007000a8e1da7","","null","","","","","","","learning/Slide54.JPG","null","","","","","",""
"html-keyboard-response","166","181551","0.0-5.0-1.53","FL","w2brxm7ay2","1366","768","0","1","0","5f60713e595007000a8e1da7","","null","","","learningBlock1","","","","That was a dep.","null","","","","","",""
"html-keyboard-response","167","182558","0.0-5.0-2.53","FL","w2brxm7ay2","1366","768","0","1","0","5f60713e595007000a8e1da7","","null","","","learningBlock1","","","","<div style=""font-size:60px;""> </div>","null","FL","learning/Slide54.JPG","That was a dep.","","",""
"image-keyboard-response","168","182746","0.0-5.0-0.54","FL","w2brxm7ay2","1366","768","0","1","0","5f60713e595007000a8e1da7","","null","","","","","","","learning/Slide55.JPG","null","","","","","",""
"html-keyboard-response","169","183918","0.0-5.0-1.54","FL","w2brxm7ay2","1366","768","0","1","0","5f60713e595007000a8e1da7","","null","","","learningBlock1","","","","That was a bim.","null","","","","","",""
"html-keyboard-response","170","184923","0.0-5.0-2.54","FL","w2brxm7ay2","1366","768","0","1","0","5f60713e595007000a8e1da7","","null","","","learningBlock1","","","","<div style=""font-size:60px;""> </div>","null","FL","learning/Slide55.JPG","That was a bim.","","",""
"image-keyboard-response","171","185113","0.0-5.0-0.55","FL","w2brxm7ay2","1366","768","0","1","0","5f60713e595007000a8e1da7","","null","","","","","","","learning/Slide56.JPG","null","","","","","",""
"html-keyboard-response","172","186274","0.0-5.0-1.55","FL","w2brxm7ay2","1366","768","0","1","0","5f60713e595007000a8e1da7","","null","","","learningBlock1","","","","That was a tob.","null","","","","","",""
"html-keyboard-response","173","187291","0.0-5.0-2.55","FL","w2brxm7ay2","1366","768","0","1","0","5f60713e595007000a8e1da7","","null","","","learningBlock1","","","","<div style=""font-size:60px;""> </div>","null","FL","learning/Slide56.JPG","That was a tob.","","",""
"image-keyboard-response","174","187477","0.0-5.0-0.56","FL","w2brxm7ay2","1366","768","0","1","0","5f60713e595007000a8e1da7","","null","","","","","","","learning/Slide57.JPG","null","","","","","",""
"html-keyboard-response","175","188640","0.0-5.0-1.56","FL","w2brxm7ay2","1366","768","0","1","0","5f60713e595007000a8e1da7","","null","","","learningBlock1","","","","That was a dep.","null","","","","","",""
"html-keyboard-response","176","189645","0.0-5.0-2.56","FL","w2brxm7ay2","1366","768","0","1","0","5f60713e595007000a8e1da7","","null","","","learningBlock1","","","","<div style=""font-size:60px;""> </div>","null","FL","learning/Slide57.JPG","That was a dep.","","",""
"image-keyboard-response","177","189832","0.0-5.0-0.57","FL","w2brxm7ay2","1366","768","0","1","0","5f60713e595007000a8e1da7","","null","","","","","","","learning/Slide58.JPG","null","","","","","",""
"html-keyboard-response","178","191004","0.0-5.0-1.57","FL","w2brxm7ay2","1366","768","0","1","0","5f60713e595007000a8e1da7","","null","","","learningBlock1","","","","That was a wug.","null","","","","","",""
"html-keyboard-response","179","192012","0.0-5.0-2.57","FL","w2brxm7ay2","1366","768","0","1","0","5f60713e595007000a8e1da7","","null","","","learningBlock1","","","","<div style=""font-size:60px;""> </div>","null","FL","learning/Slide58.JPG","That was a wug.","","",""
"image-keyboard-response","180","192203","0.0-5.0-0.58","FL","w2brxm7ay2","1366","768","0","1","0","5f60713e595007000a8e1da7","","null","","","","","","","learning/Slide59.JPG","null","","","","","",""
"html-keyboard-response","181","193369","0.0-5.0-1.58","FL","w2brxm7ay2","1366","768","0","1","0","5f60713e595007000a8e1da7","","null","","","learningBlock1","","","","That was a dep.","null","","","","","",""
"html-keyboard-response","182","194371","0.0-5.0-2.58","FL","w2brxm7ay2","1366","768","0","1","0","5f60713e595007000a8e1da7","","null","","","learningBlock1","","","","<div style=""font-size:60px;""> </div>","null","FL","learning/Slide59.JPG","That was a dep.","","",""
"image-keyboard-response","183","194560","0.0-5.0-0.59","FL","w2brxm7ay2","1366","768","0","1","0","5f60713e595007000a8e1da7","","null","","","","","","","learning/Slide60.JPG","null","","","","","",""
"html-keyboard-response","184","195720","0.0-5.0-1.59","FL","w2brxm7ay2","1366","768","0","1","0","5f60713e595007000a8e1da7","","null","","","learningBlock1","","","","That was a wug.","null","","","","","",""
"html-keyboard-response","185","196725","0.0-5.0-2.59","FL","w2brxm7ay2","1366","768","0","1","0","5f60713e595007000a8e1da7","","null","","","learningBlock1","","","","<div style=""font-size:60px;""> </div>","null","FL","learning/Slide60.JPG","That was a wug.","","",""
"image-keyboard-response","186","196915","0.0-5.0-0.60","FL","w2brxm7ay2","1366","768","0","1","0","5f60713e595007000a8e1da7","","null","","","","","","","learning/Slide61.JPG","null","","","","","",""
"html-keyboard-response","187","198091","0.0-5.0-1.60","FL","w2brxm7ay2","1366","768","0","1","0","5f60713e595007000a8e1da7","","null","","","learningBlock1","","","","That was a bim.","null","","","","","",""
"html-keyboard-response","188","199102","0.0-5.0-2.60","FL","w2brxm7ay2","1366","768","0","1","0","5f60713e595007000a8e1da7","","null","","","learningBlock1","","","","<div style=""font-size:60px;""> </div>","null","FL","learning/Slide61.JPG","That was a bim.","","",""
"image-keyboard-response","189","199278","0.0-5.0-0.61","FL","w2brxm7ay2","1366","768","0","1","0","5f60713e595007000a8e1da7","","null","","","","","","","learning/Slide62.JPG","null","","","","","",""
"html-keyboard-response","190","200441","0.0-5.0-1.61","FL","w2brxm7ay2","1366","768","0","1","0","5f60713e595007000a8e1da7","","null","","","learningBlock1","","","","That was a dep.","null","","","","","",""
"html-keyboard-response","191","201448","0.0-5.0-2.61","FL","w2brxm7ay2","1366","768","0","1","0","5f60713e595007000a8e1da7","","null","","","learningBlock1","","","","<div style=""font-size:60px;""> </div>","null","FL","learning/Slide62.JPG","That was a dep.","","",""
"image-keyboard-response","192","201635","0.0-5.0-0.62","FL","w2brxm7ay2","1366","768","0","1","0","5f60713e595007000a8e1da7","","null","","","","","","","learning/Slide63.JPG","null","","","","","",""
"html-keyboard-response","193","202798","0.0-5.0-1.62","FL","w2brxm7ay2","1366","768","0","1","0","5f60713e595007000a8e1da7","","null","","","learningBlock1","","","","That was a bim.","null","","","","","",""
"html-keyboard-response","194","203800","0.0-5.0-2.62","FL","w2brxm7ay2","1366","768","0","1","0","5f60713e595007000a8e1da7","","null","","","learningBlock1","","","","<div style=""font-size:60px;""> </div>","null","FL","learning/Slide63.JPG","That was a bim.","","",""
"image-keyboard-response","195","203987","0.0-5.0-0.63","FL","w2brxm7ay2","1366","768","0","1","0","5f60713e595007000a8e1da7","","null","","","","","","","learning/Slide64.JPG","null","","","","","",""
"html-keyboard-response","196","205149","0.0-5.0-1.63","FL","w2brxm7ay2","1366","768","0","1","0","5f60713e595007000a8e1da7","","null","","","learningBlock1","","","","That was a tob.","null","","","","","",""
"html-keyboard-response","197","206165","0.0-5.0-2.63","FL","w2brxm7ay2","1366","768","0","1","0","5f60713e595007000a8e1da7","","null","","","learningBlock1","","","","<div style=""font-size:60px;""> </div>","null","FL","learning/Slide64.JPG","That was a tob.","","",""
"image-keyboard-response","198","206361","0.0-5.0-0.64","FL","w2brxm7ay2","1366","768","0","1","0","5f60713e595007000a8e1da7","","null","","","","","","","learning/Slide65.JPG","null","","","","","",""
"html-keyboard-response","199","207525","0.0-5.0-1.64","FL","w2brxm7ay2","1366","768","0","1","0","5f60713e595007000a8e1da7","","null","","","learningBlock1","","","","That was a wug.","null","","","","","",""
"html-keyboard-response","200","208544","0.0-5.0-2.64","FL","w2brxm7ay2","1366","768","0","1","0","5f60713e595007000a8e1da7","","null","","","learningBlock1","","","","<div style=""font-size:60px;""> </div>","null","FL","learning/Slide65.JPG","That was a wug.","","",""
"image-keyboard-response","201","208732","0.0-5.0-0.65","FL","w2brxm7ay2","1366","768","0","1","0","5f60713e595007000a8e1da7","","null","","","","","","","learning/Slide66.JPG","null","","","","","",""
"html-keyboard-response","202","209903","0.0-5.0-1.65","FL","w2brxm7ay2","1366","768","0","1","0","5f60713e595007000a8e1da7","","null","","","learningBlock1","","","","That was a dep.","null","","","","","",""
"html-keyboard-response","203","210903","0.0-5.0-2.65","FL","w2brxm7ay2","1366","768","0","1","0","5f60713e595007000a8e1da7","","null","","","learningBlock1","","","","<div style=""font-size:60px;""> </div>","null","FL","learning/Slide66.JPG","That was a dep.","","",""
"image-keyboard-response","204","211093","0.0-5.0-0.66","FL","w2brxm7ay2","1366","768","0","1","0","5f60713e595007000a8e1da7","","null","","","","","","","learning/Slide67.JPG","null","","","","","",""
"html-keyboard-response","205","212258","0.0-5.0-1.66","FL","w2brxm7ay2","1366","768","0","1","0","5f60713e595007000a8e1da7","","null","","","learningBlock1","","","","That was a tob.","null","","","","","",""
"html-keyboard-response","206","213264","0.0-5.0-2.66","FL","w2brxm7ay2","1366","768","0","1","0","5f60713e595007000a8e1da7","","null","","","learningBlock1","","","","<div style=""font-size:60px;""> </div>","null","FL","learning/Slide67.JPG","That was a tob.","","",""
"image-keyboard-response","207","213440","0.0-5.0-0.67","FL","w2brxm7ay2","1366","768","0","1","0","5f60713e595007000a8e1da7","","null","","","","","","","learning/Slide68.JPG","null","","","","","",""
"html-keyboard-response","208","214601","0.0-5.0-1.67","FL","w2brxm7ay2","1366","768","0","1","0","5f60713e595007000a8e1da7","","null","","","learningBlock1","","","","That was a wug.","null","","","","","",""
"html-keyboard-response","209","215612","0.0-5.0-2.67","FL","w2brxm7ay2","1366","768","0","1","0","5f60713e595007000a8e1da7","","null","","","learningBlock1","","","","<div style=""font-size:60px;""> </div>","null","FL","learning/Slide68.JPG","That was a wug.","","",""
"image-keyboard-response","210","215801","0.0-5.0-0.68","FL","w2brxm7ay2","1366","768","0","1","0","5f60713e595007000a8e1da7","","null","","","","","","","learning/Slide69.JPG","null","","","","","",""
"html-keyboard-response","211","216968","0.0-5.0-1.68","FL","w2brxm7ay2","1366","768","0","1","0","5f60713e595007000a8e1da7","","null","","","learningBlock1","","","","That was a tob.","null","","","","","",""
"html-keyboard-response","212","217980","0.0-5.0-2.68","FL","w2brxm7ay2","1366","768","0","1","0","5f60713e595007000a8e1da7","","null","","","learningBlock1","","","","<div style=""font-size:60px;""> </div>","null","FL","learning/Slide69.JPG","That was a tob.","","",""
"image-keyboard-response","213","218168","0.0-5.0-0.69","FL","w2brxm7ay2","1366","768","0","1","0","5f60713e595007000a8e1da7","","null","","","","","","","learning/Slide70.JPG","null","","","","","",""
"html-keyboard-response","214","219332","0.0-5.0-1.69","FL","w2brxm7ay2","1366","768","0","1","0","5f60713e595007000a8e1da7","","null","","","learningBlock1","","","","That was a dep.","null","","","","","",""
"html-keyboard-response","215","220369","0.0-5.0-2.69","FL","w2brxm7ay2","1366","768","0","1","0","5f60713e595007000a8e1da7","","null","","","learningBlock1","","","","<div style=""font-size:60px;""> </div>","null","FL","learning/Slide70.JPG","That was a dep.","","",""
"image-keyboard-response","216","220560","0.0-5.0-0.70","FL","w2brxm7ay2","1366","768","0","1","0","5f60713e595007000a8e1da7","","null","","","","","","","learning/Slide71.JPG","null","","","","","",""
"html-keyboard-response","217","221717","0.0-5.0-1.70","FL","w2brxm7ay2","1366","768","0","1","0","5f60713e595007000a8e1da7","","null","","","learningBlock1","","","","That was a wug.","null","","","","","",""
"html-keyboard-response","218","222721","0.0-5.0-2.70","FL","w2brxm7ay2","1366","768","0","1","0","5f60713e595007000a8e1da7","","null","","","learningBlock1","","","","<div style=""font-size:60px;""> </div>","null","FL","learning/Slide71.JPG","That was a wug.","","",""
"image-keyboard-response","219","222908","0.0-5.0-0.71","FL","w2brxm7ay2","1366","768","0","1","0","5f60713e595007000a8e1da7","","null","","","","","","","learning/Slide72.JPG","null","","","","","",""
"html-keyboard-response","220","224067","0.0-5.0-1.71","FL","w2brxm7ay2","1366","768","0","1","0","5f60713e595007000a8e1da7","","null","","","learningBlock1","","","","That was a bim.","null","","","","","",""
"html-keyboard-response","221","225070","0.0-5.0-2.71","FL","w2brxm7ay2","1366","768","0","1","0","5f60713e595007000a8e1da7","","null","","","learningBlock1","","","","<div style=""font-size:60px;""> </div>","null","FL","learning/Slide72.JPG","That was a bim.","","",""
"image-keyboard-response","222","225259","0.0-5.0-0.72","FL","w2brxm7ay2","1366","768","0","1","0","5f60713e595007000a8e1da7","","null","","","","","","","learning/Slide73.JPG","null","","","","","",""
"html-keyboard-response","223","226416","0.0-5.0-1.72","FL","w2brxm7ay2","1366","768","0","1","0","5f60713e595007000a8e1da7","","null","","","learningBlock1","","","","That was a wug.","null","","","","","",""
"html-keyboard-response","224","227420","0.0-5.0-2.72","FL","w2brxm7ay2","1366","768","0","1","0","5f60713e595007000a8e1da7","","null","","","learningBlock1","","","","<div style=""font-size:60px;""> </div>","null","FL","learning/Slide73.JPG","That was a wug.","","",""
"image-keyboard-response","225","227609","0.0-5.0-0.73","FL","w2brxm7ay2","1366","768","0","1","0","5f60713e595007000a8e1da7","","null","","","","","","","learning/Slide74.JPG","null","","","","","",""
"html-keyboard-response","226","228767","0.0-5.0-1.73","FL","w2brxm7ay2","1366","768","0","1","0","5f60713e595007000a8e1da7","","null","","","learningBlock1","","","","That was a dep.","null","","","","","",""
"html-keyboard-response","227","229775","0.0-5.0-2.73","FL","w2brxm7ay2","1366","768","0","1","0","5f60713e595007000a8e1da7","","null","","","learningBlock1","","","","<div style=""font-size:60px;""> </div>","null","FL","learning/Slide74.JPG","That was a dep.","","",""
"image-keyboard-response","228","229966","0.0-5.0-0.74","FL","w2brxm7ay2","1366","768","0","1","0","5f60713e595007000a8e1da7","","null","","","","","","","learning/Slide75.JPG","null","","","","","",""
"html-keyboard-response","229","231126","0.0-5.0-1.74","FL","w2brxm7ay2","1366","768","0","1","0","5f60713e595007000a8e1da7","","null","","","learningBlock1","","","","That was a tob.","null","","","","","",""
"html-keyboard-response","230","232128","0.0-5.0-2.74","FL","w2brxm7ay2","1366","768","0","1","0","5f60713e595007000a8e1da7","","null","","","learningBlock1","","","","<div style=""font-size:60px;""> </div>","null","FL","learning/Slide75.JPG","That was a tob.","","",""
"image-keyboard-response","231","232317","0.0-5.0-0.75","FL","w2brxm7ay2","1366","768","0","1","0","5f60713e595007000a8e1da7","","null","","","","","","","learning/Slide76.JPG","null","","","","","",""
"html-keyboard-response","232","233481","0.0-5.0-1.75","FL","w2brxm7ay2","1366","768","0","1","0","5f60713e595007000a8e1da7","","null","","","learningBlock1","","","","That was a bim.","null","","","","","",""
"html-keyboard-response","233","234494","0.0-5.0-2.75","FL","w2brxm7ay2","1366","768","0","1","0","5f60713e595007000a8e1da7","","null","","","learningBlock1","","","","<div style=""font-size:60px;""> </div>","null","FL","learning/Slide76.JPG","That was a bim.","","",""
"image-keyboard-response","234","234676","0.0-5.0-0.76","FL","w2brxm7ay2","1366","768","0","1","0","5f60713e595007000a8e1da7","","null","","","","","","","learning/Slide77.JPG","null","","","","","",""
"html-keyboard-response","235","235848","0.0-5.0-1.76","FL","w2brxm7ay2","1366","768","0","1","0","5f60713e595007000a8e1da7","","null","","","learningBlock1","","","","That was a tob.","null","","","","","",""
"html-keyboard-response","236","236864","0.0-5.0-2.76","FL","w2brxm7ay2","1366","768","0","1","0","5f60713e595007000a8e1da7","","null","","","learningBlock1","","","","<div style=""font-size:60px;""> </div>","null","FL","learning/Slide77.JPG","That was a tob.","","",""
"image-keyboard-response","237","237054","0.0-5.0-0.77","FL","w2brxm7ay2","1366","768","0","1","0","5f60713e595007000a8e1da7","","null","","","","","","","learning/Slide78.JPG","null","","","","","",""
"html-keyboard-response","238","238214","0.0-5.0-1.77","FL","w2brxm7ay2","1366","768","0","1","0","5f60713e595007000a8e1da7","","null","","","learningBlock1","","","","That was a wug.","null","","","","","",""
"html-keyboard-response","239","239215","0.0-5.0-2.77","FL","w2brxm7ay2","1366","768","0","1","0","5f60713e595007000a8e1da7","","null","","","learningBlock1","","","","<div style=""font-size:60px;""> </div>","null","FL","learning/Slide78.JPG","That was a wug.","","",""
"image-keyboard-response","240","239403","0.0-5.0-0.78","FL","w2brxm7ay2","1366","768","0","1","0","5f60713e595007000a8e1da7","","null","","","","","","","learning/Slide79.JPG","null","","","","","",""
"html-keyboard-response","241","240562","0.0-5.0-1.78","FL","w2brxm7ay2","1366","768","0","1","0","5f60713e595007000a8e1da7","","null","","","learningBlock1","","","","That was a bim.","null","","","","","",""
"html-keyboard-response","242","241566","0.0-5.0-2.78","FL","w2brxm7ay2","1366","768","0","1","0","5f60713e595007000a8e1da7","","null","","","learningBlock1","","","","<div style=""font-size:60px;""> </div>","null","FL","learning/Slide79.JPG","That was a bim.","","",""
"image-keyboard-response","243","241753","0.0-5.0-0.79","FL","w2brxm7ay2","1366","768","0","1","0","5f60713e595007000a8e1da7","","null","","","","","","","learning/Slide80.JPG","null","","","","","",""
"html-keyboard-response","244","242909","0.0-5.0-1.79","FL","w2brxm7ay2","1366","768","0","1","0","5f60713e595007000a8e1da7","","null","","","learningBlock1","","","","That was a tob.","null","","","","","",""
"html-keyboard-response","245","243916","0.0-5.0-2.79","FL","w2brxm7ay2","1366","768","0","1","0","5f60713e595007000a8e1da7","","null","","","learningBlock1","","","","<div style=""font-size:60px;""> </div>","null","FL","learning/Slide80.JPG","That was a tob.","","",""
"instructions","246","245735","0.0-6.0","FL","w2brxm7ay2","1366","768","0","1","0","5f60713e595007000a8e1da7","","NA","","[{""page_index"":0,""viewing_time"":1818}]","instructions","","","","","","","","","","",""
"image-keyboard-response","247","245918","0.0-7.0-0.0","FL","w2brxm7ay2","1366","768","0","1","0","5f60713e595007000a8e1da7","","null","","","","","","","learning/Slide81.JPG","null","","","","","",""
"html-keyboard-response","248","247087","0.0-7.0-1.0","FL","w2brxm7ay2","1366","768","0","1","0","5f60713e595007000a8e1da7","","null","","","learningBlock2","","","","That was a wug.","null","","","","","",""
"html-keyboard-response","249","248088","0.0-7.0-2.0","FL","w2brxm7ay2","1366","768","0","1","0","5f60713e595007000a8e1da7","","null","","","learningBlock2","","","","<div style=""font-size:60px;""> </div>","null","FL","learning/Slide81.JPG","That was a wug.","","",""
"image-keyboard-response","250","248279","0.0-7.0-0.1","FL","w2brxm7ay2","1366","768","0","1","0","5f60713e595007000a8e1da7","","null","","","","","","","learning/Slide82.JPG","null","","","","","",""
"html-keyboard-response","251","249438","0.0-7.0-1.1","FL","w2brxm7ay2","1366","768","0","1","0","5f60713e595007000a8e1da7","","null","","","learningBlock2","","","","That was a bim.","null","","","","","",""
"html-keyboard-response","252","250445","0.0-7.0-2.1","FL","w2brxm7ay2","1366","768","0","1","0","5f60713e595007000a8e1da7","","null","","","learningBlock2","","","","<div style=""font-size:60px;""> </div>","null","FL","learning/Slide82.JPG","That was a bim.","","",""
"image-keyboard-response","253","250634","0.0-7.0-0.2","FL","w2brxm7ay2","1366","768","0","1","0","5f60713e595007000a8e1da7","","null","","","","","","","learning/Slide83.JPG","null","","","","","",""
"html-keyboard-response","254","251807","0.0-7.0-1.2","FL","w2brxm7ay2","1366","768","0","1","0","5f60713e595007000a8e1da7","","null","","","learningBlock2","","","","That was a wug.","null","","","","","",""
"html-keyboard-response","255","252820","0.0-7.0-2.2","FL","w2brxm7ay2","1366","768","0","1","0","5f60713e595007000a8e1da7","","null","","","learningBlock2","","","","<div style=""font-size:60px;""> </div>","null","FL","learning/Slide83.JPG","That was a wug.","","",""
"image-keyboard-response","256","253006","0.0-7.0-0.3","FL","w2brxm7ay2","1366","768","0","1","0","5f60713e595007000a8e1da7","","null","","","","","","","learning/Slide84.JPG","null","","","","","",""
"html-keyboard-response","257","254157","0.0-7.0-1.3","FL","w2brxm7ay2","1366","768","0","1","0","5f60713e595007000a8e1da7","","null","","","learningBlock2","","","","That was a dep.","null","","","","","",""
"html-keyboard-response","258","255163","0.0-7.0-2.3","FL","w2brxm7ay2","1366","768","0","1","0","5f60713e595007000a8e1da7","","null","","","learningBlock2","","","","<div style=""font-size:60px;""> </div>","null","FL","learning/Slide84.JPG","That was a dep.","","",""
"image-keyboard-response","259","255349","0.0-7.0-0.4","FL","w2brxm7ay2","1366","768","0","1","0","5f60713e595007000a8e1da7","","null","","","","","","","learning/Slide85.JPG","null","","","","","",""
"html-keyboard-response","260","256513","0.0-7.0-1.4","FL","w2brxm7ay2","1366","768","0","1","0","5f60713e595007000a8e1da7","","null","","","learningBlock2","","","","That was a bim.","null","","","","","",""
"html-keyboard-response","261","257526","0.0-7.0-2.4","FL","w2brxm7ay2","1366","768","0","1","0","5f60713e595007000a8e1da7","","null","","","learningBlock2","","","","<div style=""font-size:60px;""> </div>","null","FL","learning/Slide85.JPG","That was a bim.","","",""
"image-keyboard-response","262","257712","0.0-7.0-0.5","FL","w2brxm7ay2","1366","768","0","1","0","5f60713e595007000a8e1da7","","null","","","","","","","learning/Slide86.JPG","null","","","","","",""
"html-keyboard-response","263","258883","0.0-7.0-1.5","FL","w2brxm7ay2","1366","768","0","1","0","5f60713e595007000a8e1da7","","null","","","learningBlock2","","","","That was a tob.","null","","","","","",""
"html-keyboard-response","264","259888","0.0-7.0-2.5","FL","w2brxm7ay2","1366","768","0","1","0","5f60713e595007000a8e1da7","","null","","","learningBlock2","","","","<div style=""font-size:60px;""> </div>","null","FL","learning/Slide86.JPG","That was a tob.","","",""
"image-keyboard-response","265","260078","0.0-7.0-0.6","FL","w2brxm7ay2","1366","768","0","1","0","5f60713e595007000a8e1da7","","null","","","","","","","learning/Slide87.JPG","null","","","","","",""
"html-keyboard-response","266","261251","0.0-7.0-1.6","FL","w2brxm7ay2","1366","768","0","1","0","5f60713e595007000a8e1da7","","null","","","learningBlock2","","","","That was a wug.","null","","","","","",""
"html-keyboard-response","267","262255","0.0-7.0-2.6","FL","w2brxm7ay2","1366","768","0","1","0","5f60713e595007000a8e1da7","","null","","","learningBlock2","","","","<div style=""font-size:60px;""> </div>","null","FL","learning/Slide87.JPG","That was a wug.","","",""
"image-keyboard-response","268","262445","0.0-7.0-0.7","FL","w2brxm7ay2","1366","768","0","1","0","5f60713e595007000a8e1da7","","null","","","","","","","learning/Slide88.JPG","null","","","","","",""
"html-keyboard-response","269","263611","0.0-7.0-1.7","FL","w2brxm7ay2","1366","768","0","1","0","5f60713e595007000a8e1da7","","null","","","learningBlock2","","","","That was a tob.","null","","","","","",""
"html-keyboard-response","270","264618","0.0-7.0-2.7","FL","w2brxm7ay2","1366","768","0","1","0","5f60713e595007000a8e1da7","","null","","","learningBlock2","","","","<div style=""font-size:60px;""> </div>","null","FL","learning/Slide88.JPG","That was a tob.","","",""
"image-keyboard-response","271","264821","0.0-7.0-0.8","FL","w2brxm7ay2","1366","768","0","1","0","5f60713e595007000a8e1da7","","null","","","","","","","learning/Slide89.JPG","null","","","","","",""
"html-keyboard-response","272","265982","0.0-7.0-1.8","FL","w2brxm7ay2","1366","768","0","1","0","5f60713e595007000a8e1da7","","null","","","learningBlock2","","","","That was a bim.","null","","","","","",""
"html-keyboard-response","273","266991","0.0-7.0-2.8","FL","w2brxm7ay2","1366","768","0","1","0","5f60713e595007000a8e1da7","","null","","","learningBlock2","","","","<div style=""font-size:60px;""> </div>","null","FL","learning/Slide89.JPG","That was a bim.","","",""
"image-keyboard-response","274","267179","0.0-7.0-0.9","FL","w2brxm7ay2","1366","768","0","1","0","5f60713e595007000a8e1da7","","null","","","","","","","learning/Slide90.JPG","null","","","","","",""
"html-keyboard-response","275","268349","0.0-7.0-1.9","FL","w2brxm7ay2","1366","768","0","1","0","5f60713e595007000a8e1da7","","null","","","learningBlock2","","","","That was a dep.","null","","","","","",""
"html-keyboard-response","276","269366","0.0-7.0-2.9","FL","w2brxm7ay2","1366","768","0","1","0","5f60713e595007000a8e1da7","","null","","","learningBlock2","","","","<div style=""font-size:60px;""> </div>","null","FL","learning/Slide90.JPG","That was a dep.","","",""
"image-keyboard-response","277","269550","0.0-7.0-0.10","FL","w2brxm7ay2","1366","768","0","1","0","5f60713e595007000a8e1da7","","null","","","","","","","learning/Slide91.JPG","null","","","","","",""
"html-keyboard-response","278","270715","0.0-7.0-1.10","FL","w2brxm7ay2","1366","768","0","1","0","5f60713e595007000a8e1da7","","null","","","learningBlock2","","","","That was a wug.","null","","","","","",""
"html-keyboard-response","279","271730","0.0-7.0-2.10","FL","w2brxm7ay2","1366","768","0","1","0","5f60713e595007000a8e1da7","","null","","","learningBlock2","","","","<div style=""font-size:60px;""> </div>","null","FL","learning/Slide91.JPG","That was a wug.","","",""
"image-keyboard-response","280","271920","0.0-7.0-0.11","FL","w2brxm7ay2","1366","768","0","1","0","5f60713e595007000a8e1da7","","null","","","","","","","learning/Slide92.JPG","null","","","","","",""
"html-keyboard-response","281","273086","0.0-7.0-1.11","FL","w2brxm7ay2","1366","768","0","1","0","5f60713e595007000a8e1da7","","null","","","learningBlock2","","","","That was a tob.","null","","","","","",""
"html-keyboard-response","282","274089","0.0-7.0-2.11","FL","w2brxm7ay2","1366","768","0","1","0","5f60713e595007000a8e1da7","","null","","","learningBlock2","","","","<div style=""font-size:60px;""> </div>","null","FL","learning/Slide92.JPG","That was a tob.","","",""
"image-keyboard-response","283","274278","0.0-7.0-0.12","FL","w2brxm7ay2","1366","768","0","1","0","5f60713e595007000a8e1da7","","null","","","","","","","learning/Slide93.JPG","null","","","","","",""
"html-keyboard-response","284","275445","0.0-7.0-1.12","FL","w2brxm7ay2","1366","768","0","1","0","5f60713e595007000a8e1da7","","null","","","learningBlock2","","","","That was a bim.","null","","","","","",""
"html-keyboard-response","285","276448","0.0-7.0-2.12","FL","w2brxm7ay2","1366","768","0","1","0","5f60713e595007000a8e1da7","","null","","","learningBlock2","","","","<div style=""font-size:60px;""> </div>","null","FL","learning/Slide93.JPG","That was a bim.","","",""
"image-keyboard-response","286","276637","0.0-7.0-0.13","FL","w2brxm7ay2","1366","768","0","1","0","5f60713e595007000a8e1da7","","null","","","","","","","learning/Slide94.JPG","null","","","","","",""
"html-keyboard-response","287","277807","0.0-7.0-1.13","FL","w2brxm7ay2","1366","768","0","1","0","5f60713e595007000a8e1da7","","null","","","learningBlock2","","","","That was a tob.","null","","","","","",""
"html-keyboard-response","288","278822","0.0-7.0-2.13","FL","w2brxm7ay2","1366","768","0","1","0","5f60713e595007000a8e1da7","","null","","","learningBlock2","","","","<div style=""font-size:60px;""> </div>","null","FL","learning/Slide94.JPG","That was a tob.","","",""
"image-keyboard-response","289","279012","0.0-7.0-0.14","FL","w2brxm7ay2","1366","768","0","1","0","5f60713e595007000a8e1da7","","null","","","","","","","learning/Slide95.JPG","null","","","","","",""
"html-keyboard-response","290","280177","0.0-7.0-1.14","FL","w2brxm7ay2","1366","768","0","1","0","5f60713e595007000a8e1da7","","null","","","learningBlock2","","","","That was a wug.","null","","","","","",""
"html-keyboard-response","291","281192","0.0-7.0-2.14","FL","w2brxm7ay2","1366","768","0","1","0","5f60713e595007000a8e1da7","","null","","","learningBlock2","","","","<div style=""font-size:60px;""> </div>","null","FL","learning/Slide95.JPG","That was a wug.","","",""
"image-keyboard-response","292","281381","0.0-7.0-0.15","FL","w2brxm7ay2","1366","768","0","1","0","5f60713e595007000a8e1da7","","null","","","","","","","learning/Slide96.JPG","null","","","","","",""
"html-keyboard-response","293","282540","0.0-7.0-1.15","FL","w2brxm7ay2","1366","768","0","1","0","5f60713e595007000a8e1da7","","null","","","learningBlock2","","","","That was a tob.","null","","","","","",""
"html-keyboard-response","294","283544","0.0-7.0-2.15","FL","w2brxm7ay2","1366","768","0","1","0","5f60713e595007000a8e1da7","","null","","","learningBlock2","","","","<div style=""font-size:60px;""> </div>","null","FL","learning/Slide96.JPG","That was a tob.","","",""
"image-keyboard-response","295","283729","0.0-7.0-0.16","FL","w2brxm7ay2","1366","768","0","1","0","5f60713e595007000a8e1da7","","null","","","","","","","learning/Slide97.JPG","null","","","","","",""
"html-keyboard-response","296","284892","0.0-7.0-1.16","FL","w2brxm7ay2","1366","768","0","1","0","5f60713e595007000a8e1da7","","null","","","learningBlock2","","","","That was a dep.","null","","","","","",""
"html-keyboard-response","297","285898","0.0-7.0-2.16","FL","w2brxm7ay2","1366","768","0","1","0","5f60713e595007000a8e1da7","","null","","","learningBlock2","","","","<div style=""font-size:60px;""> </div>","null","FL","learning/Slide97.JPG","That was a dep.","","",""
"image-keyboard-response","298","286087","0.0-7.0-0.17","FL","w2brxm7ay2","1366","768","0","1","0","5f60713e595007000a8e1da7","","null","","","","","","","learning/Slide98.JPG","null","","","","","",""
"html-keyboard-response","299","287244","0.0-7.0-1.17","FL","w2brxm7ay2","1366","768","0","1","0","5f60713e595007000a8e1da7","","null","","","learningBlock2","","","","That was a bim.","null","","","","","",""
"html-keyboard-response","300","288247","0.0-7.0-2.17","FL","w2brxm7ay2","1366","768","0","1","0","5f60713e595007000a8e1da7","","null","","","learningBlock2","","","","<div style=""font-size:60px;""> </div>","null","FL","learning/Slide98.JPG","That was a bim.","","",""
"image-keyboard-response","301","288438","0.0-7.0-0.18","FL","w2brxm7ay2","1366","768","0","1","0","5f60713e595007000a8e1da7","","null","","","","","","","learning/Slide99.JPG","null","","","","","",""
"html-keyboard-response","302","289600","0.0-7.0-1.18","FL","w2brxm7ay2","1366","768","0","1","0","5f60713e595007000a8e1da7","","null","","","learningBlock2","","","","That was a dep.","null","","","","","",""
"html-keyboard-response","303","290605","0.0-7.0-2.18","FL","w2brxm7ay2","1366","768","0","1","0","5f60713e595007000a8e1da7","","null","","","learningBlock2","","","","<div style=""font-size:60px;""> </div>","null","FL","learning/Slide99.JPG","That was a dep.","","",""
"image-keyboard-response","304","290804","0.0-7.0-0.19","FL","w2brxm7ay2","1366","768","0","1","0","5f60713e595007000a8e1da7","","null","","","","","","","learning/Slide100.JPG","null","","","","","",""
"html-keyboard-response","305","291978","0.0-7.0-1.19","FL","w2brxm7ay2","1366","768","0","1","0","5f60713e595007000a8e1da7","","null","","","learningBlock2","","","","That was a bim.","null","","","","","",""
"html-keyboard-response","306","292996","0.0-7.0-2.19","FL","w2brxm7ay2","1366","768","0","1","0","5f60713e595007000a8e1da7","","null","","","learningBlock2","","","","<div style=""font-size:60px;""> </div>","null","FL","learning/Slide100.JPG","That was a bim.","","",""
"image-keyboard-response","307","293183","0.0-7.0-0.20","FL","w2brxm7ay2","1366","768","0","1","0","5f60713e595007000a8e1da7","","null","","","","","","","learning/Slide101.JPG","null","","","","","",""
"html-keyboard-response","308","294339","0.0-7.0-1.20","FL","w2brxm7ay2","1366","768","0","1","0","5f60713e595007000a8e1da7","","null","","","learningBlock2","","","","That was a tob.","null","","","","","",""
"html-keyboard-response","309","295351","0.0-7.0-2.20","FL","w2brxm7ay2","1366","768","0","1","0","5f60713e595007000a8e1da7","","null","","","learningBlock2","","","","<div style=""font-size:60px;""> </div>","null","FL","learning/Slide101.JPG","That was a tob.","","",""
"image-keyboard-response","310","295541","0.0-7.0-0.21","FL","w2brxm7ay2","1366","768","0","1","0","5f60713e595007000a8e1da7","","null","","","","","","","learning/Slide102.JPG","null","","","","","",""
"html-keyboard-response","311","296734","0.0-7.0-1.21","FL","w2brxm7ay2","1366","768","0","1","0","5f60713e595007000a8e1da7","","null","","","learningBlock2","","","","That was a bim.","null","","","","","",""
"html-keyboard-response","312","297739","0.0-7.0-2.21","FL","w2brxm7ay2","1366","768","0","1","0","5f60713e595007000a8e1da7","","null","","","learningBlock2","","","","<div style=""font-size:60px;""> </div>","null","FL","learning/Slide102.JPG","That was a bim.","","",""
"image-keyboard-response","313","297931","0.0-7.0-0.22","FL","w2brxm7ay2","1366","768","0","1","0","5f60713e595007000a8e1da7","","null","","","","","","","learning/Slide103.JPG","null","","","","","",""
"html-keyboard-response","314","299092","0.0-7.0-1.22","FL","w2brxm7ay2","1366","768","0","1","0","5f60713e595007000a8e1da7","","null","","","learningBlock2","","","","That was a dep.","null","","","","","",""
"html-keyboard-response","315","300098","0.0-7.0-2.22","FL","w2brxm7ay2","1366","768","0","1","0","5f60713e595007000a8e1da7","","null","","","learningBlock2","","","","<div style=""font-size:60px;""> </div>","null","FL","learning/Slide103.JPG","That was a dep.","","",""
"image-keyboard-response","316","300286","0.0-7.0-0.23","FL","w2brxm7ay2","1366","768","0","1","0","5f60713e595007000a8e1da7","","null","","","","","","","learning/Slide104.JPG","null","","","","","",""
"html-keyboard-response","317","301453","0.0-7.0-1.23","FL","w2brxm7ay2","1366","768","0","1","0","5f60713e595007000a8e1da7","","null","","","learningBlock2","","","","That was a tob.","null","","","","","",""
"html-keyboard-response","318","302463","0.0-7.0-2.23","FL","w2brxm7ay2","1366","768","0","1","0","5f60713e595007000a8e1da7","","null","","","learningBlock2","","","","<div style=""font-size:60px;""> </div>","null","FL","learning/Slide104.JPG","That was a tob.","","",""
"image-keyboard-response","319","302653","0.0-7.0-0.24","FL","w2brxm7ay2","1366","768","0","1","0","5f60713e595007000a8e1da7","","null","","","","","","","learning/Slide105.JPG","null","","","","","",""
"html-keyboard-response","320","303816","0.0-7.0-1.24","FL","w2brxm7ay2","1366","768","0","1","0","5f60713e595007000a8e1da7","","null","","","learningBlock2","","","","That was a dep.","null","","","","","",""
"html-keyboard-response","321","304817","0.0-7.0-2.24","FL","w2brxm7ay2","1366","768","0","1","0","5f60713e595007000a8e1da7","","null","","","learningBlock2","","","","<div style=""font-size:60px;""> </div>","null","FL","learning/Slide105.JPG","That was a dep.","","",""
"image-keyboard-response","322","305004","0.0-7.0-0.25","FL","w2brxm7ay2","1366","768","0","1","0","5f60713e595007000a8e1da7","","null","","","","","","","learning/Slide106.JPG","null","","","","","",""
"html-keyboard-response","323","306171","0.0-7.0-1.25","FL","w2brxm7ay2","1366","768","0","1","0","5f60713e595007000a8e1da7","","null","","","learningBlock2","","","","That was a wug.","null","","","","","",""
"html-keyboard-response","324","307174","0.0-7.0-2.25","FL","w2brxm7ay2","1366","768","0","1","0","5f60713e595007000a8e1da7","","null","","","learningBlock2","","","","<div style=""font-size:60px;""> </div>","null","FL","learning/Slide106.JPG","That was a wug.","","",""
"image-keyboard-response","325","307364","0.0-7.0-0.26","FL","w2brxm7ay2","1366","768","0","1","0","5f60713e595007000a8e1da7","","null","","","","","","","learning/Slide107.JPG","null","","","","","",""
"html-keyboard-response","326","308522","0.0-7.0-1.26","FL","w2brxm7ay2","1366","768","0","1","0","5f60713e595007000a8e1da7","","null","","","learningBlock2","","","","That was a bim.","null","","","","","",""
"html-keyboard-response","327","309526","0.0-7.0-2.26","FL","w2brxm7ay2","1366","768","0","1","0","5f60713e595007000a8e1da7","","null","","","learningBlock2","","","","<div style=""font-size:60px;""> </div>","null","FL","learning/Slide107.JPG","That was a bim.","","",""
"image-keyboard-response","328","309715","0.0-7.0-0.27","FL","w2brxm7ay2","1366","768","0","1","0","5f60713e595007000a8e1da7","","null","","","","","","","learning/Slide108.JPG","null","","","","","",""
"html-keyboard-response","329","310879","0.0-7.0-1.27","FL","w2brxm7ay2","1366","768","0","1","0","5f60713e595007000a8e1da7","","null","","","learningBlock2","","","","That was a dep.","null","","","","","",""
"html-keyboard-response","330","311893","0.0-7.0-2.27","FL","w2brxm7ay2","1366","768","0","1","0","5f60713e595007000a8e1da7","","null","","","learningBlock2","","","","<div style=""font-size:60px;""> </div>","null","FL","learning/Slide108.JPG","That was a dep.","","",""
"image-keyboard-response","331","312082","0.0-7.0-0.28","FL","w2brxm7ay2","1366","768","0","1","0","5f60713e595007000a8e1da7","","null","","","","","","","learning/Slide109.JPG","null","","","","","",""
"html-keyboard-response","332","313244","0.0-7.0-1.28","FL","w2brxm7ay2","1366","768","0","1","0","5f60713e595007000a8e1da7","","null","","","learningBlock2","","","","That was a wug.","null","","","","","",""
"html-keyboard-response","333","314253","0.0-7.0-2.28","FL","w2brxm7ay2","1366","768","0","1","0","5f60713e595007000a8e1da7","","null","","","learningBlock2","","","","<div style=""font-size:60px;""> </div>","null","FL","learning/Slide109.JPG","That was a wug.","","",""
"image-keyboard-response","334","314440","0.0-7.0-0.29","FL","w2brxm7ay2","1366","768","0","1","0","5f60713e595007000a8e1da7","","null","","","","","","","learning/Slide110.JPG","null","","","","","",""
"html-keyboard-response","335","315609","0.0-7.0-1.29","FL","w2brxm7ay2","1366","768","0","1","0","5f60713e595007000a8e1da7","","null","","","learningBlock2","","","","That was a bim.","null","","","","","",""
"html-keyboard-response","336","316617","0.0-7.0-2.29","FL","w2brxm7ay2","1366","768","0","1","0","5f60713e595007000a8e1da7","","null","","","learningBlock2","","","","<div style=""font-size:60px;""> </div>","null","FL","learning/Slide110.JPG","That was a bim.","","",""
"image-keyboard-response","337","316808","0.0-7.0-0.30","FL","w2brxm7ay2","1366","768","0","1","0","5f60713e595007000a8e1da7","","null","","","","","","","learning/Slide111.JPG","null","","","","","",""
"html-keyboard-response","338","317975","0.0-7.0-1.30","FL","w2brxm7ay2","1366","768","0","1","0","5f60713e595007000a8e1da7","","null","","","learningBlock2","","","","That was a tob.","null","","","","","",""
"html-keyboard-response","339","318986","0.0-7.0-2.30","FL","w2brxm7ay2","1366","768","0","1","0","5f60713e595007000a8e1da7","","null","","","learningBlock2","","","","<div style=""font-size:60px;""> </div>","null","FL","learning/Slide111.JPG","That was a tob.","","",""
"image-keyboard-response","340","319175","0.0-7.0-0.31","FL","w2brxm7ay2","1366","768","0","1","0","5f60713e595007000a8e1da7","","null","","","","","","","learning/Slide112.JPG","null","","","","","",""
"html-keyboard-response","341","320339","0.0-7.0-1.31","FL","w2brxm7ay2","1366","768","0","1","0","5f60713e595007000a8e1da7","","null","","","learningBlock2","","","","That was a wug.","null","","","","","",""
"html-keyboard-response","342","321347","0.0-7.0-2.31","FL","w2brxm7ay2","1366","768","0","1","0","5f60713e595007000a8e1da7","","null","","","learningBlock2","","","","<div style=""font-size:60px;""> </div>","null","FL","learning/Slide112.JPG","That was a wug.","","",""
"image-keyboard-response","343","321537","0.0-7.0-0.32","FL","w2brxm7ay2","1366","768","0","1","0","5f60713e595007000a8e1da7","","null","","","","","","","learning/Slide113.JPG","null","","","","","",""
"html-keyboard-response","344","322708","0.0-7.0-1.32","FL","w2brxm7ay2","1366","768","0","1","0","5f60713e595007000a8e1da7","","null","","","learningBlock2","","","","That was a tob.","null","","","","","",""
"html-keyboard-response","345","323718","0.0-7.0-2.32","FL","w2brxm7ay2","1366","768","0","1","0","5f60713e595007000a8e1da7","","null","","","learningBlock2","","","","<div style=""font-size:60px;""> </div>","null","FL","learning/Slide113.JPG","That was a tob.","","",""
"image-keyboard-response","346","323906","0.0-7.0-0.33","FL","w2brxm7ay2","1366","768","0","1","0","5f60713e595007000a8e1da7","","null","","","","","","","learning/Slide114.JPG","null","","","","","",""
"html-keyboard-response","347","325073","0.0-7.0-1.33","FL","w2brxm7ay2","1366","768","0","1","0","5f60713e595007000a8e1da7","","null","","","learningBlock2","","","","That was a wug.","null","","","","","",""
"html-keyboard-response","348","326075","0.0-7.0-2.33","FL","w2brxm7ay2","1366","768","0","1","0","5f60713e595007000a8e1da7","","null","","","learningBlock2","","","","<div style=""font-size:60px;""> </div>","null","FL","learning/Slide114.JPG","That was a wug.","","",""
"image-keyboard-response","349","326264","0.0-7.0-0.34","FL","w2brxm7ay2","1366","768","0","1","0","5f60713e595007000a8e1da7","","null","","","","","","","learning/Slide115.JPG","null","","","","","",""
"html-keyboard-response","350","327424","0.0-7.0-1.34","FL","w2brxm7ay2","1366","768","0","1","0","5f60713e595007000a8e1da7","","null","","","learningBlock2","","","","That was a bim.","null","","","","","",""
"html-keyboard-response","351","328431","0.0-7.0-2.34","FL","w2brxm7ay2","1366","768","0","1","0","5f60713e595007000a8e1da7","","null","","","learningBlock2","","","","<div style=""font-size:60px;""> </div>","null","FL","learning/Slide115.JPG","That was a bim.","","",""
"image-keyboard-response","352","328619","0.0-7.0-0.35","FL","w2brxm7ay2","1366","768","0","1","0","5f60713e595007000a8e1da7","","null","","","","","","","learning/Slide116.JPG","null","","","","","",""
"html-keyboard-response","353","329787","0.0-7.0-1.35","FL","w2brxm7ay2","1366","768","0","1","0","5f60713e595007000a8e1da7","","null","","","learningBlock2","","","","That was a dep.","null","","","","","",""
"html-keyboard-response","354","330790","0.0-7.0-2.35","FL","w2brxm7ay2","1366","768","0","1","0","5f60713e595007000a8e1da7","","null","","","learningBlock2","","","","<div style=""font-size:60px;""> </div>","null","FL","learning/Slide116.JPG","That was a dep.","","",""
"image-keyboard-response","355","330977","0.0-7.0-0.36","FL","w2brxm7ay2","1366","768","0","1","0","5f60713e595007000a8e1da7","","null","","","","","","","learning/Slide117.JPG","null","","","","","",""
"html-keyboard-response","356","332149","0.0-7.0-1.36","FL","w2brxm7ay2","1366","768","0","1","0","5f60713e595007000a8e1da7","","null","","","learningBlock2","","","","That was a tob.","null","","","","","",""
"html-keyboard-response","357","333151","0.0-7.0-2.36","FL","w2brxm7ay2","1366","768","0","1","0","5f60713e595007000a8e1da7","","null","","","learningBlock2","","","","<div style=""font-size:60px;""> </div>","null","FL","learning/Slide117.JPG","That was a tob.","","",""
"image-keyboard-response","358","333337","0.0-7.0-0.37","FL","w2brxm7ay2","1366","768","0","1","0","5f60713e595007000a8e1da7","","null","","","","","","","learning/Slide118.JPG","null","","","","","",""
"html-keyboard-response","359","334498","0.0-7.0-1.37","FL","w2brxm7ay2","1366","768","0","1","0","5f60713e595007000a8e1da7","","null","","","learningBlock2","","","","That was a dep.","null","","","","","",""
"html-keyboard-response","360","335512","0.0-7.0-2.37","FL","w2brxm7ay2","1366","768","0","1","0","5f60713e595007000a8e1da7","","null","","","learningBlock2","","","","<div style=""font-size:60px;""> </div>","null","FL","learning/Slide118.JPG","That was a dep.","","",""
"image-keyboard-response","361","335699","0.0-7.0-0.38","FL","w2brxm7ay2","1366","768","0","1","0","5f60713e595007000a8e1da7","","null","","","","","","","learning/Slide119.JPG","null","","","","","",""
"html-keyboard-response","362","336860","0.0-7.0-1.38","FL","w2brxm7ay2","1366","768","0","1","0","5f60713e595007000a8e1da7","","null","","","learningBlock2","","","","That was a wug.","null","","","","","",""
"html-keyboard-response","363","337871","0.0-7.0-2.38","FL","w2brxm7ay2","1366","768","0","1","0","5f60713e595007000a8e1da7","","null","","","learningBlock2","","","","<div style=""font-size:60px;""> </div>","null","FL","learning/Slide119.JPG","That was a wug.","","",""
"image-keyboard-response","364","338059","0.0-7.0-0.39","FL","w2brxm7ay2","1366","768","0","1","0","5f60713e595007000a8e1da7","","null","","","","","","","learning/Slide120.JPG","null","","","","","",""
"html-keyboard-response","365","339223","0.0-7.0-1.39","FL","w2brxm7ay2","1366","768","0","1","0","5f60713e595007000a8e1da7","","null","","","learningBlock2","","","","That was a dep.","null","","","","","",""
"html-keyboard-response","366","340236","0.0-7.0-2.39","FL","w2brxm7ay2","1366","768","0","1","0","5f60713e595007000a8e1da7","","null","","","learningBlock2","","","","<div style=""font-size:60px;""> </div>","null","FL","learning/Slide120.JPG","That was a dep.","","",""
"image-keyboard-response","367","340419","0.0-7.0-0.40","FL","w2brxm7ay2","1366","768","0","1","0","5f60713e595007000a8e1da7","","null","","","","","","","learning/Slide121.JPG","null","","","","","",""
"html-keyboard-response","368","341581","0.0-7.0-1.40","FL","w2brxm7ay2","1366","768","0","1","0","5f60713e595007000a8e1da7","","null","","","learningBlock2","","","","That was a bim.","null","","","","","",""
"html-keyboard-response","369","342592","0.0-7.0-2.40","FL","w2brxm7ay2","1366","768","0","1","0","5f60713e595007000a8e1da7","","null","","","learningBlock2","","","","<div style=""font-size:60px;""> </div>","null","FL","learning/Slide121.JPG","That was a bim.","","",""
"image-keyboard-response","370","342781","0.0-7.0-0.41","FL","w2brxm7ay2","1366","768","0","1","0","5f60713e595007000a8e1da7","","null","","","","","","","learning/Slide122.JPG","null","","","","","",""
"html-keyboard-response","371","343945","0.0-7.0-1.41","FL","w2brxm7ay2","1366","768","0","1","0","5f60713e595007000a8e1da7","","null","","","learningBlock2","","","","That was a wug.","null","","","","","",""
"html-keyboard-response","372","344948","0.0-7.0-2.41","FL","w2brxm7ay2","1366","768","0","1","0","5f60713e595007000a8e1da7","","null","","","learningBlock2","","","","<div style=""font-size:60px;""> </div>","null","FL","learning/Slide122.JPG","That was a wug.","","",""
"image-keyboard-response","373","345133","0.0-7.0-0.42","FL","w2brxm7ay2","1366","768","0","1","0","5f60713e595007000a8e1da7","","null","","","","","","","learning/Slide123.JPG","null","","","","","",""
"html-keyboard-response","374","346291","0.0-7.0-1.42","FL","w2brxm7ay2","1366","768","0","1","0","5f60713e595007000a8e1da7","","null","","","learningBlock2","","","","That was a bim.","null","","","","","",""
"html-keyboard-response","375","347293","0.0-7.0-2.42","FL","w2brxm7ay2","1366","768","0","1","0","5f60713e595007000a8e1da7","","null","","","learningBlock2","","","","<div style=""font-size:60px;""> </div>","null","FL","learning/Slide123.JPG","That was a bim.","","",""
"image-keyboard-response","376","347484","0.0-7.0-0.43","FL","w2brxm7ay2","1366","768","0","1","0","5f60713e595007000a8e1da7","","null","","","","","","","learning/Slide124.JPG","null","","","","","",""
"html-keyboard-response","377","348646","0.0-7.0-1.43","FL","w2brxm7ay2","1366","768","0","1","0","5f60713e595007000a8e1da7","","null","","","learningBlock2","","","","That was a tob.","null","","","","","",""
"html-keyboard-response","378","349646","0.0-7.0-2.43","FL","w2brxm7ay2","1366","768","0","1","0","5f60713e595007000a8e1da7","","null","","","learningBlock2","","","","<div style=""font-size:60px;""> </div>","null","FL","learning/Slide124.JPG","That was a tob.","","",""
"image-keyboard-response","379","349834","0.0-7.0-0.44","FL","w2brxm7ay2","1366","768","0","1","0","5f60713e595007000a8e1da7","","null","","","","","","","learning/Slide125.JPG","null","","","","","",""
"html-keyboard-response","380","350999","0.0-7.0-1.44","FL","w2brxm7ay2","1366","768","0","1","0","5f60713e595007000a8e1da7","","null","","","learningBlock2","","","","That was a bim.","null","","","","","",""
"html-keyboard-response","381","352007","0.0-7.0-2.44","FL","w2brxm7ay2","1366","768","0","1","0","5f60713e595007000a8e1da7","","null","","","learningBlock2","","","","<div style=""font-size:60px;""> </div>","null","FL","learning/Slide125.JPG","That was a bim.","","",""
"image-keyboard-response","382","352194","0.0-7.0-0.45","FL","w2brxm7ay2","1366","768","0","1","0","5f60713e595007000a8e1da7","","null","","","","","","","learning/Slide126.JPG","null","","","","","",""
"html-keyboard-response","383","353353","0.0-7.0-1.45","FL","w2brxm7ay2","1366","768","0","1","0","5f60713e595007000a8e1da7","","null","","","learningBlock2","","","","That was a tob.","null","","","","","",""
"html-keyboard-response","384","354359","0.0-7.0-2.45","FL","w2brxm7ay2","1366","768","0","1","0","5f60713e595007000a8e1da7","","null","","","learningBlock2","","","","<div style=""font-size:60px;""> </div>","null","FL","learning/Slide126.JPG","That was a tob.","","",""
"image-keyboard-response","385","354546","0.0-7.0-0.46","FL","w2brxm7ay2","1366","768","0","1","0","5f60713e595007000a8e1da7","","null","","","","","","","learning/Slide127.JPG","null","","","","","",""
"html-keyboard-response","386","355717","0.0-7.0-1.46","FL","w2brxm7ay2","1366","768","0","1","0","5f60713e595007000a8e1da7","","null","","","learningBlock2","","","","That was a dep.","null","","","","","",""
"html-keyboard-response","387","356727","0.0-7.0-2.46","FL","w2brxm7ay2","1366","768","0","1","0","5f60713e595007000a8e1da7","","null","","","learningBlock2","","","","<div style=""font-size:60px;""> </div>","null","FL","learning/Slide127.JPG","That was a dep.","","",""
"image-keyboard-response","388","356913","0.0-7.0-0.47","FL","w2brxm7ay2","1366","768","0","1","0","5f60713e595007000a8e1da7","","null","","","","","","","learning/Slide128.JPG","null","","","","","",""
"html-keyboard-response","389","358077","0.0-7.0-1.47","FL","w2brxm7ay2","1366","768","0","1","0","5f60713e595007000a8e1da7","","null","","","learningBlock2","","","","That was a wug.","null","","","","","",""
"html-keyboard-response","390","359092","0.0-7.0-2.47","FL","w2brxm7ay2","1366","768","0","1","0","5f60713e595007000a8e1da7","","null","","","learningBlock2","","","","<div style=""font-size:60px;""> </div>","null","FL","learning/Slide128.JPG","That was a wug.","","",""
"image-keyboard-response","391","359283","0.0-7.0-0.48","FL","w2brxm7ay2","1366","768","0","1","0","5f60713e595007000a8e1da7","","null","","","","","","","learning/Slide129.JPG","null","","","","","",""
"html-keyboard-response","392","360454","0.0-7.0-1.48","FL","w2brxm7ay2","1366","768","0","1","0","5f60713e595007000a8e1da7","","null","","","learningBlock2","","","","That was a tob.","null","","","","","",""
"html-keyboard-response","393","361456","0.0-7.0-2.48","FL","w2brxm7ay2","1366","768","0","1","0","5f60713e595007000a8e1da7","","null","","","learningBlock2","","","","<div style=""font-size:60px;""> </div>","null","FL","learning/Slide129.JPG","That was a tob.","","",""
"image-keyboard-response","394","361650","0.0-7.0-0.49","FL","w2brxm7ay2","1366","768","0","1","0","5f60713e595007000a8e1da7","","null","","","","","","","learning/Slide130.JPG","null","","","","","",""
"html-keyboard-response","395","362812","0.0-7.0-1.49","FL","w2brxm7ay2","1366","768","0","1","0","5f60713e595007000a8e1da7","","null","","","learningBlock2","","","","That was a wug.","null","","","","","",""
"html-keyboard-response","396","363818","0.0-7.0-2.49","FL","w2brxm7ay2","1366","768","0","1","0","5f60713e595007000a8e1da7","","null","","","learningBlock2","","","","<div style=""font-size:60px;""> </div>","null","FL","learning/Slide130.JPG","That was a wug.","","",""
"image-keyboard-response","397","364007","0.0-7.0-0.50","FL","w2brxm7ay2","1366","768","0","1","0","5f60713e595007000a8e1da7","","null","","","","","","","learning/Slide131.JPG","null","","","","","",""
"html-keyboard-response","398","365175","0.0-7.0-1.50","FL","w2brxm7ay2","1366","768","0","1","0","5f60713e595007000a8e1da7","","null","","","learningBlock2","","","","That was a bim.","null","","","","","",""
"html-keyboard-response","399","366180","0.0-7.0-2.50","FL","w2brxm7ay2","1366","768","0","1","0","5f60713e595007000a8e1da7","","null","","","learningBlock2","","","","<div style=""font-size:60px;""> </div>","null","FL","learning/Slide131.JPG","That was a bim.","","",""
"image-keyboard-response","400","366367","0.0-7.0-0.51","FL","w2brxm7ay2","1366","768","0","1","0","5f60713e595007000a8e1da7","","null","","","","","","","learning/Slide132.JPG","null","","","","","",""
"html-keyboard-response","401","367529","0.0-7.0-1.51","FL","w2brxm7ay2","1366","768","0","1","0","5f60713e595007000a8e1da7","","null","","","learningBlock2","","","","That was a dep.","null","","","","","",""
"html-keyboard-response","402","368534","0.0-7.0-2.51","FL","w2brxm7ay2","1366","768","0","1","0","5f60713e595007000a8e1da7","","null","","","learningBlock2","","","","<div style=""font-size:60px;""> </div>","null","FL","learning/Slide132.JPG","That was a dep.","","",""
"image-keyboard-response","403","368719","0.0-7.0-0.52","FL","w2brxm7ay2","1366","768","0","1","0","5f60713e595007000a8e1da7","","null","","","","","","","learning/Slide133.JPG","null","","","","","",""
"html-keyboard-response","404","369884","0.0-7.0-1.52","FL","w2brxm7ay2","1366","768","0","1","0","5f60713e595007000a8e1da7","","null","","","learningBlock2","","","","That was a tob.","null","","","","","",""
"html-keyboard-response","405","370892","0.0-7.0-2.52","FL","w2brxm7ay2","1366","768","0","1","0","5f60713e595007000a8e1da7","","null","","","learningBlock2","","","","<div style=""font-size:60px;""> </div>","null","FL","learning/Slide133.JPG","That was a tob.","","",""
"image-keyboard-response","406","371084","0.0-7.0-0.53","FL","w2brxm7ay2","1366","768","0","1","0","5f60713e595007000a8e1da7","","null","","","","","","","learning/Slide134.JPG","null","","","","","",""
"html-keyboard-response","407","372251","0.0-7.0-1.53","FL","w2brxm7ay2","1366","768","0","1","0","5f60713e595007000a8e1da7","","null","","","learningBlock2","","","","That was a dep.","null","","","","","",""
"html-keyboard-response","408","373267","0.0-7.0-2.53","FL","w2brxm7ay2","1366","768","0","1","0","5f60713e595007000a8e1da7","","null","","","learningBlock2","","","","<div style=""font-size:60px;""> </div>","null","FL","learning/Slide134.JPG","That was a dep.","","",""
"image-keyboard-response","409","373455","0.0-7.0-0.54","FL","w2brxm7ay2","1366","768","0","1","0","5f60713e595007000a8e1da7","","null","","","","","","","learning/Slide135.JPG","null","","","","","",""
"html-keyboard-response","410","374622","0.0-7.0-1.54","FL","w2brxm7ay2","1366","768","0","1","0","5f60713e595007000a8e1da7","","null","","","learningBlock2","","","","That was a tob.","null","","","","","",""
"html-keyboard-response","411","375630","0.0-7.0-2.54","FL","w2brxm7ay2","1366","768","0","1","0","5f60713e595007000a8e1da7","","null","","","learningBlock2","","","","<div style=""font-size:60px;""> </div>","null","FL","learning/Slide135.JPG","That was a tob.","","",""
"image-keyboard-response","412","375819","0.0-7.0-0.55","FL","w2brxm7ay2","1366","768","0","1","0","5f60713e595007000a8e1da7","","null","","","","","","","learning/Slide136.JPG","null","","","","","",""
"html-keyboard-response","413","376979","0.0-7.0-1.55","FL","w2brxm7ay2","1366","768","0","1","0","5f60713e595007000a8e1da7","","null","","","learningBlock2","","","","That was a wug.","null","","","","","",""
"html-keyboard-response","414","377985","0.0-7.0-2.55","FL","w2brxm7ay2","1366","768","0","1","0","5f60713e595007000a8e1da7","","null","","","learningBlock2","","","","<div style=""font-size:60px;""> </div>","null","FL","learning/Slide136.JPG","That was a wug.","","",""
"image-keyboard-response","415","378174","0.0-7.0-0.56","FL","w2brxm7ay2","1366","768","0","1","0","5f60713e595007000a8e1da7","","null","","","","","","","learning/Slide137.JPG","null","","","","","",""
"html-keyboard-response","416","379340","0.0-7.0-1.56","FL","w2brxm7ay2","1366","768","0","1","0","5f60713e595007000a8e1da7","","null","","","learningBlock2","","","","That was a tob.","null","","","","","",""
"html-keyboard-response","417","380345","0.0-7.0-2.56","FL","w2brxm7ay2","1366","768","0","1","0","5f60713e595007000a8e1da7","","null","","","learningBlock2","","","","<div style=""font-size:60px;""> </div>","null","FL","learning/Slide137.JPG","That was a tob.","","",""
"image-keyboard-response","418","380530","0.0-7.0-0.57","FL","w2brxm7ay2","1366","768","0","1","0","5f60713e595007000a8e1da7","","null","","","","","","","learning/Slide138.JPG","null","","","","","",""
"html-keyboard-response","419","381701","0.0-7.0-1.57","FL","w2brxm7ay2","1366","768","0","1","0","5f60713e595007000a8e1da7","","null","","","learningBlock2","","","","That was a bim.","null","","","","","",""
"html-keyboard-response","420","382717","0.0-7.0-2.57","FL","w2brxm7ay2","1366","768","0","1","0","5f60713e595007000a8e1da7","","null","","","learningBlock2","","","","<div style=""font-size:60px;""> </div>","null","FL","learning/Slide138.JPG","That was a bim.","","",""
"image-keyboard-response","421","382927","0.0-7.0-0.58","FL","w2brxm7ay2","1366","768","0","1","0","5f60713e595007000a8e1da7","","null","","","","","","","learning/Slide139.JPG","null","","","","","",""
"html-keyboard-response","422","384094","0.0-7.0-1.58","FL","w2brxm7ay2","1366","768","0","1","0","5f60713e595007000a8e1da7","","null","","","learningBlock2","","","","That was a wug.","null","","","","","",""
"html-keyboard-response","423","385102","0.0-7.0-2.58","FL","w2brxm7ay2","1366","768","0","1","0","5f60713e595007000a8e1da7","","null","","","learningBlock2","","","","<div style=""font-size:60px;""> </div>","null","FL","learning/Slide139.JPG","That was a wug.","","",""
"image-keyboard-response","424","385290","0.0-7.0-0.59","FL","w2brxm7ay2","1366","768","0","1","0","5f60713e595007000a8e1da7","","null","","","","","","","learning/Slide140.JPG","null","","","","","",""
"html-keyboard-response","425","386456","0.0-7.0-1.59","FL","w2brxm7ay2","1366","768","0","1","0","5f60713e595007000a8e1da7","","null","","","learningBlock2","","","","That was a dep.","null","","","","","",""
"html-keyboard-response","426","387458","0.0-7.0-2.59","FL","w2brxm7ay2","1366","768","0","1","0","5f60713e595007000a8e1da7","","null","","","learningBlock2","","","","<div style=""font-size:60px;""> </div>","null","FL","learning/Slide140.JPG","That was a dep.","","",""
"image-keyboard-response","427","387644","0.0-7.0-0.60","FL","w2brxm7ay2","1366","768","0","1","0","5f60713e595007000a8e1da7","","null","","","","","","","learning/Slide141.JPG","null","","","","","",""
"html-keyboard-response","428","388814","0.0-7.0-1.60","FL","w2brxm7ay2","1366","768","0","1","0","5f60713e595007000a8e1da7","","null","","","learningBlock2","","","","That was a tob.","null","","","","","",""
"html-keyboard-response","429","389821","0.0-7.0-2.60","FL","w2brxm7ay2","1366","768","0","1","0","5f60713e595007000a8e1da7","","null","","","learningBlock2","","","","<div style=""font-size:60px;""> </div>","null","FL","learning/Slide141.JPG","That was a tob.","","",""
"image-keyboard-response","430","390010","0.0-7.0-0.61","FL","w2brxm7ay2","1366","768","0","1","0","5f60713e595007000a8e1da7","","null","","","","","","","learning/Slide142.JPG","null","","","","","",""
"html-keyboard-response","431","391169","0.0-7.0-1.61","FL","w2brxm7ay2","1366","768","0","1","0","5f60713e595007000a8e1da7","","null","","","learningBlock2","","","","That was a wug.","null","","","","","",""
"html-keyboard-response","432","392173","0.0-7.0-2.61","FL","w2brxm7ay2","1366","768","0","1","0","5f60713e595007000a8e1da7","","null","","","learningBlock2","","","","<div style=""font-size:60px;""> </div>","null","FL","learning/Slide142.JPG","That was a wug.","","",""
"image-keyboard-response","433","392361","0.0-7.0-0.62","FL","w2brxm7ay2","1366","768","0","1","0","5f60713e595007000a8e1da7","","null","","","","","","","learning/Slide143.JPG","null","","","","","",""
"html-keyboard-response","434","393534","0.0-7.0-1.62","FL","w2brxm7ay2","1366","768","0","1","0","5f60713e595007000a8e1da7","","null","","","learningBlock2","","","","That was a bim.","null","","","","","",""
"html-keyboard-response","435","394540","0.0-7.0-2.62","FL","w2brxm7ay2","1366","768","0","1","0","5f60713e595007000a8e1da7","","null","","","learningBlock2","","","","<div style=""font-size:60px;""> </div>","null","FL","learning/Slide143.JPG","That was a bim.","","",""
"image-keyboard-response","436","394730","0.0-7.0-0.63","FL","w2brxm7ay2","1366","768","0","1","0","5f60713e595007000a8e1da7","","null","","","","","","","learning/Slide144.JPG","null","","","","","",""
"html-keyboard-response","437","395897","0.0-7.0-1.63","FL","w2brxm7ay2","1366","768","0","1","0","5f60713e595007000a8e1da7","","null","","","learningBlock2","","","","That was a dep.","null","","","","","",""
