"trial_type","trial_index","time_elapsed","internal_node_id","condition","subject","screen_width","screen_height","attention","distraction","conscientious","prolificID","success","rt","url","view_history","test_part","final_height_px","final_width_px","scale_factor","stimulus","key_press","learningType","presentedImage","presentedLabel","button_pressed","response","responses"
"pavlovia","0","4","0.0-0.0","FL","xekfnorue1","1920","1200","0","1","0","5a11a7d0f2e3460001edbe35","","","","","","","","","","","","","","","",""
"fullscreen","1","2369","0.0-1.0","FL","xekfnorue1","1920","1200","0","1","0","5a11a7d0f2e3460001edbe35","true","","","","","","","","","","","","","","",""
"external-html","2","6920","0.0-2.0-0.0","FL","xekfnorue1","1920","1200","0","1","0","5a11a7d0f2e3460001edbe35","","4447","text/information_english.html","","","","","","","","","","","","",""
"external-html","3","9979","0.0-2.0-1.0","FL","xekfnorue1","1920","1200","0","1","0","5a11a7d0f2e3460001edbe35","","2954","text/consent_english.html","","","","","","","","","","","","",""
"instructions","4","21116","0.0-3.0","FL","xekfnorue1","1920","1200","0","1","0","5a11a7d0f2e3460001edbe35","","NA","","[{""page_index"":0,""viewing_time"":2047},{""page_index"":1,""viewing_time"":9089}]","instructions","","","","","","","","","","",""
"resize","5","39867","0.0-4.0","FL","xekfnorue1","1920","1200","0","1","0","5a11a7d0f2e3460001edbe35","","","","","","","454","2.8825396825396825","","","","","","","",""
"image-keyboard-response","6","40044","0.0-5.0-0.0","FL","xekfnorue1","1920","1200","0","1","0","5a11a7d0f2e3460001edbe35","","null","","","","","","","learning/Slide1.JPG","null","","","","","",""
"html-keyboard-response","7","41198","0.0-5.0-1.0","FL","xekfnorue1","1920","1200","0","1","0","5a11a7d0f2e3460001edbe35","","null","","","learningBlock1","","","","That was a tob.","null","","","","","",""
"html-keyboard-response","8","42202","0.0-5.0-2.0","FL","xekfnorue1","1920","1200","0","1","0","5a11a7d0f2e3460001edbe35","","null","","","learningBlock1","","","","<div style=""font-size:60px;""> </div>","null","FL","learning/Slide1.JPG","That was a tob.","","",""
"image-keyboard-response","9","42380","0.0-5.0-0.1","FL","xekfnorue1","1920","1200","0","1","0","5a11a7d0f2e3460001edbe35","","null","","","","","","","learning/Slide2.JPG","null","","","","","",""
"html-keyboard-response","10","43534","0.0-5.0-1.1","FL","xekfnorue1","1920","1200","0","1","0","5a11a7d0f2e3460001edbe35","","null","","","learningBlock1","","","","That was a wug.","null","","","","","",""
"html-keyboard-response","11","44535","0.0-5.0-2.1","FL","xekfnorue1","1920","1200","0","1","0","5a11a7d0f2e3460001edbe35","","null","","","learningBlock1","","","","<div style=""font-size:60px;""> </div>","null","FL","learning/Slide2.JPG","That was a wug.","","",""
"image-keyboard-response","12","44711","0.0-5.0-0.2","FL","xekfnorue1","1920","1200","0","1","0","5a11a7d0f2e3460001edbe35","","null","","","","","","","learning/Slide3.JPG","null","","","","","",""
"html-keyboard-response","13","45864","0.0-5.0-1.2","FL","xekfnorue1","1920","1200","0","1","0","5a11a7d0f2e3460001edbe35","","null","","","learningBlock1","","","","That was a bim.","null","","","","","",""
"html-keyboard-response","14","46866","0.0-5.0-2.2","FL","xekfnorue1","1920","1200","0","1","0","5a11a7d0f2e3460001edbe35","","null","","","learningBlock1","","","","<div style=""font-size:60px;""> </div>","null","FL","learning/Slide3.JPG","That was a bim.","","",""
"image-keyboard-response","15","47048","0.0-5.0-0.3","FL","xekfnorue1","1920","1200","0","1","0","5a11a7d0f2e3460001edbe35","","null","","","","","","","learning/Slide4.JPG","null","","","","","",""
"html-keyboard-response","16","48202","0.0-5.0-1.3","FL","xekfnorue1","1920","1200","0","1","0","5a11a7d0f2e3460001edbe35","","null","","","learningBlock1","","","","That was a dep.","null","","","","","",""
"html-keyboard-response","17","49203","0.0-5.0-2.3","FL","xekfnorue1","1920","1200","0","1","0","5a11a7d0f2e3460001edbe35","","null","","","learningBlock1","","","","<div style=""font-size:60px;""> </div>","null","FL","learning/Slide4.JPG","That was a dep.","","",""
"image-keyboard-response","18","49383","0.0-5.0-0.4","FL","xekfnorue1","1920","1200","0","1","0","5a11a7d0f2e3460001edbe35","","null","","","","","","","learning/Slide5.JPG","null","","","","","",""
"html-keyboard-response","19","50535","0.0-5.0-1.4","FL","xekfnorue1","1920","1200","0","1","0","5a11a7d0f2e3460001edbe35","","null","","","learningBlock1","","","","That was a wug.","null","","","","","",""
"html-keyboard-response","20","51537","0.0-5.0-2.4","FL","xekfnorue1","1920","1200","0","1","0","5a11a7d0f2e3460001edbe35","","null","","","learningBlock1","","","","<div style=""font-size:60px;""> </div>","null","FL","learning/Slide5.JPG","That was a wug.","","",""
"image-keyboard-response","21","51716","0.0-5.0-0.5","FL","xekfnorue1","1920","1200","0","1","0","5a11a7d0f2e3460001edbe35","","null","","","","","","","learning/Slide6.JPG","null","","","","","",""
"html-keyboard-response","22","52869","0.0-5.0-1.5","FL","xekfnorue1","1920","1200","0","1","0","5a11a7d0f2e3460001edbe35","","null","","","learningBlock1","","","","That was a dep.","null","","","","","",""
"html-keyboard-response","23","53870","0.0-5.0-2.5","FL","xekfnorue1","1920","1200","0","1","0","5a11a7d0f2e3460001edbe35","","null","","","learningBlock1","","","","<div style=""font-size:60px;""> </div>","null","FL","learning/Slide6.JPG","That was a dep.","","",""
"image-keyboard-response","24","54047","0.0-5.0-0.6","FL","xekfnorue1","1920","1200","0","1","0","5a11a7d0f2e3460001edbe35","","null","","","","","","","learning/Slide7.JPG","null","","","","","",""
"html-keyboard-response","25","55203","0.0-5.0-1.6","FL","xekfnorue1","1920","1200","0","1","0","5a11a7d0f2e3460001edbe35","","null","","","learningBlock1","","","","That was a wug.","null","","","","","",""
"html-keyboard-response","26","56204","0.0-5.0-2.6","FL","xekfnorue1","1920","1200","0","1","0","5a11a7d0f2e3460001edbe35","","null","","","learningBlock1","","","","<div style=""font-size:60px;""> </div>","null","FL","learning/Slide7.JPG","That was a wug.","","",""
"image-keyboard-response","27","56383","0.0-5.0-0.7","FL","xekfnorue1","1920","1200","0","1","0","5a11a7d0f2e3460001edbe35","","null","","","","","","","learning/Slide8.JPG","null","","","","","",""
"html-keyboard-response","28","57535","0.0-5.0-1.7","FL","xekfnorue1","1920","1200","0","1","0","5a11a7d0f2e3460001edbe35","","null","","","learningBlock1","","","","That was a bim.","null","","","","","",""
"html-keyboard-response","29","58537","0.0-5.0-2.7","FL","xekfnorue1","1920","1200","0","1","0","5a11a7d0f2e3460001edbe35","","null","","","learningBlock1","","","","<div style=""font-size:60px;""> </div>","null","FL","learning/Slide8.JPG","That was a bim.","","",""
"image-keyboard-response","30","58714","0.0-5.0-0.8","FL","xekfnorue1","1920","1200","0","1","0","5a11a7d0f2e3460001edbe35","","null","","","","","","","learning/Slide9.JPG","null","","","","","",""
"html-keyboard-response","31","59869","0.0-5.0-1.8","FL","xekfnorue1","1920","1200","0","1","0","5a11a7d0f2e3460001edbe35","","null","","","learningBlock1","","","","That was a wug.","null","","","","","",""
"html-keyboard-response","32","60870","0.0-5.0-2.8","FL","xekfnorue1","1920","1200","0","1","0","5a11a7d0f2e3460001edbe35","","null","","","learningBlock1","","","","<div style=""font-size:60px;""> </div>","null","FL","learning/Slide9.JPG","That was a wug.","","",""
"image-keyboard-response","33","61050","0.0-5.0-0.9","FL","xekfnorue1","1920","1200","0","1","0","5a11a7d0f2e3460001edbe35","","null","","","","","","","learning/Slide10.JPG","null","","","","","",""
"html-keyboard-response","34","62203","0.0-5.0-1.9","FL","xekfnorue1","1920","1200","0","1","0","5a11a7d0f2e3460001edbe35","","null","","","learningBlock1","","","","That was a dep.","null","","","","","",""
"html-keyboard-response","35","63209","0.0-5.0-2.9","FL","xekfnorue1","1920","1200","0","1","0","5a11a7d0f2e3460001edbe35","","null","","","learningBlock1","","","","<div style=""font-size:60px;""> </div>","null","FL","learning/Slide10.JPG","That was a dep.","","",""
"image-keyboard-response","36","63387","0.0-5.0-0.10","FL","xekfnorue1","1920","1200","0","1","0","5a11a7d0f2e3460001edbe35","","null","","","","","","","learning/Slide11.JPG","null","","","","","",""
"html-keyboard-response","37","64539","0.0-5.0-1.10","FL","xekfnorue1","1920","1200","0","1","0","5a11a7d0f2e3460001edbe35","","null","","","learningBlock1","","","","That was a tob.","null","","","","","",""
"html-keyboard-response","38","65542","0.0-5.0-2.10","FL","xekfnorue1","1920","1200","0","1","0","5a11a7d0f2e3460001edbe35","","null","","","learningBlock1","","","","<div style=""font-size:60px;""> </div>","null","FL","learning/Slide11.JPG","That was a tob.","","",""
"image-keyboard-response","39","65720","0.0-5.0-0.11","FL","xekfnorue1","1920","1200","0","1","0","5a11a7d0f2e3460001edbe35","","null","","","","","","","learning/Slide12.JPG","null","","","","","",""
"html-keyboard-response","40","66873","0.0-5.0-1.11","FL","xekfnorue1","1920","1200","0","1","0","5a11a7d0f2e3460001edbe35","","null","","","learningBlock1","","","","That was a dep.","null","","","","","",""
"html-keyboard-response","41","67878","0.0-5.0-2.11","FL","xekfnorue1","1920","1200","0","1","0","5a11a7d0f2e3460001edbe35","","null","","","learningBlock1","","","","<div style=""font-size:60px;""> </div>","null","FL","learning/Slide12.JPG","That was a dep.","","",""
"image-keyboard-response","42","68054","0.0-5.0-0.12","FL","xekfnorue1","1920","1200","0","1","0","5a11a7d0f2e3460001edbe35","","null","","","","","","","learning/Slide13.JPG","null","","","","","",""
"html-keyboard-response","43","69206","0.0-5.0-1.12","FL","xekfnorue1","1920","1200","0","1","0","5a11a7d0f2e3460001edbe35","","null","","","learningBlock1","","","","That was a bim.","null","","","","","",""
"html-keyboard-response","44","70207","0.0-5.0-2.12","FL","xekfnorue1","1920","1200","0","1","0","5a11a7d0f2e3460001edbe35","","null","","","learningBlock1","","","","<div style=""font-size:60px;""> </div>","null","FL","learning/Slide13.JPG","That was a bim.","","",""
"image-keyboard-response","45","70384","0.0-5.0-0.13","FL","xekfnorue1","1920","1200","0","1","0","5a11a7d0f2e3460001edbe35","","null","","","","","","","learning/Slide14.JPG","null","","","","","",""
"html-keyboard-response","46","71539","0.0-5.0-1.13","FL","xekfnorue1","1920","1200","0","1","0","5a11a7d0f2e3460001edbe35","","null","","","learningBlock1","","","","That was a wug.","null","","","","","",""
"html-keyboard-response","47","72544","0.0-5.0-2.13","FL","xekfnorue1","1920","1200","0","1","0","5a11a7d0f2e3460001edbe35","","null","","","learningBlock1","","","","<div style=""font-size:60px;""> </div>","null","FL","learning/Slide14.JPG","That was a wug.","","",""
"image-keyboard-response","48","72721","0.0-5.0-0.14","FL","xekfnorue1","1920","1200","0","1","0","5a11a7d0f2e3460001edbe35","","null","","","","","","","learning/Slide15.JPG","null","","","","","",""
"html-keyboard-response","49","73873","0.0-5.0-1.14","FL","xekfnorue1","1920","1200","0","1","0","5a11a7d0f2e3460001edbe35","","null","","","learningBlock1","","","","That was a tob.","null","","","","","",""
"html-keyboard-response","50","74879","0.0-5.0-2.14","FL","xekfnorue1","1920","1200","0","1","0","5a11a7d0f2e3460001edbe35","","null","","","learningBlock1","","","","<div style=""font-size:60px;""> </div>","null","FL","learning/Slide15.JPG","That was a tob.","","",""
"image-keyboard-response","51","75057","0.0-5.0-0.15","FL","xekfnorue1","1920","1200","0","1","0","5a11a7d0f2e3460001edbe35","","null","","","","","","","learning/Slide16.JPG","null","","","","","",""
"html-keyboard-response","52","76210","0.0-5.0-1.15","FL","xekfnorue1","1920","1200","0","1","0","5a11a7d0f2e3460001edbe35","","null","","","learningBlock1","","","","That was a dep.","null","","","","","",""
"html-keyboard-response","53","77212","0.0-5.0-2.15","FL","xekfnorue1","1920","1200","0","1","0","5a11a7d0f2e3460001edbe35","","null","","","learningBlock1","","","","<div style=""font-size:60px;""> </div>","null","FL","learning/Slide16.JPG","That was a dep.","","",""
"image-keyboard-response","54","77391","0.0-5.0-0.16","FL","xekfnorue1","1920","1200","0","1","0","5a11a7d0f2e3460001edbe35","","null","","","","","","","learning/Slide17.JPG","null","","","","","",""
"html-keyboard-response","55","78543","0.0-5.0-1.16","FL","xekfnorue1","1920","1200","0","1","0","5a11a7d0f2e3460001edbe35","","null","","","learningBlock1","","","","That was a bim.","null","","","","","",""
"html-keyboard-response","56","79546","0.0-5.0-2.16","FL","xekfnorue1","1920","1200","0","1","0","5a11a7d0f2e3460001edbe35","","null","","","learningBlock1","","","","<div style=""font-size:60px;""> </div>","null","FL","learning/Slide17.JPG","That was a bim.","","",""
"image-keyboard-response","57","79724","0.0-5.0-0.17","FL","xekfnorue1","1920","1200","0","1","0","5a11a7d0f2e3460001edbe35","","null","","","","","","","learning/Slide18.JPG","null","","","","","",""
"html-keyboard-response","58","80880","0.0-5.0-1.17","FL","xekfnorue1","1920","1200","0","1","0","5a11a7d0f2e3460001edbe35","","null","","","learningBlock1","","","","That was a tob.","null","","","","","",""
"html-keyboard-response","59","81881","0.0-5.0-2.17","FL","xekfnorue1","1920","1200","0","1","0","5a11a7d0f2e3460001edbe35","","null","","","learningBlock1","","","","<div style=""font-size:60px;""> </div>","null","FL","learning/Slide18.JPG","That was a tob.","","",""
"image-keyboard-response","60","82058","0.0-5.0-0.18","FL","xekfnorue1","1920","1200","0","1","0","5a11a7d0f2e3460001edbe35","","null","","","","","","","learning/Slide19.JPG","null","","","","","",""
"html-keyboard-response","61","83209","0.0-5.0-1.18","FL","xekfnorue1","1920","1200","0","1","0","5a11a7d0f2e3460001edbe35","","null","","","learningBlock1","","","","That was a wug.","null","","","","","",""
"html-keyboard-response","62","84211","0.0-5.0-2.18","FL","xekfnorue1","1920","1200","0","1","0","5a11a7d0f2e3460001edbe35","","null","","","learningBlock1","","","","<div style=""font-size:60px;""> </div>","null","FL","learning/Slide19.JPG","That was a wug.","","",""
"image-keyboard-response","63","84388","0.0-5.0-0.19","FL","xekfnorue1","1920","1200","0","1","0","5a11a7d0f2e3460001edbe35","","null","","","","","","","learning/Slide20.JPG","null","","","","","",""
"html-keyboard-response","64","85541","0.0-5.0-1.19","FL","xekfnorue1","1920","1200","0","1","0","5a11a7d0f2e3460001edbe35","","null","","","learningBlock1","","","","That was a bim.","null","","","","","",""
"html-keyboard-response","65","86542","0.0-5.0-2.19","FL","xekfnorue1","1920","1200","0","1","0","5a11a7d0f2e3460001edbe35","","null","","","learningBlock1","","","","<div style=""font-size:60px;""> </div>","null","FL","learning/Slide20.JPG","That was a bim.","","",""
"image-keyboard-response","66","86722","0.0-5.0-0.20","FL","xekfnorue1","1920","1200","0","1","0","5a11a7d0f2e3460001edbe35","","null","","","","","","","learning/Slide21.JPG","null","","","","","",""
"html-keyboard-response","67","87874","0.0-5.0-1.20","FL","xekfnorue1","1920","1200","0","1","0","5a11a7d0f2e3460001edbe35","","null","","","learningBlock1","","","","That was a dep.","null","","","","","",""
"html-keyboard-response","68","88878","0.0-5.0-2.20","FL","xekfnorue1","1920","1200","0","1","0","5a11a7d0f2e3460001edbe35","","null","","","learningBlock1","","","","<div style=""font-size:60px;""> </div>","null","FL","learning/Slide21.JPG","That was a dep.","","",""
"image-keyboard-response","69","89057","0.0-5.0-0.21","FL","xekfnorue1","1920","1200","0","1","0","5a11a7d0f2e3460001edbe35","","null","","","","","","","learning/Slide22.JPG","null","","","","","",""
"html-keyboard-response","70","90208","0.0-5.0-1.21","FL","xekfnorue1","1920","1200","0","1","0","5a11a7d0f2e3460001edbe35","","null","","","learningBlock1","","","","That was a bim.","null","","","","","",""
"html-keyboard-response","71","91210","0.0-5.0-2.21","FL","xekfnorue1","1920","1200","0","1","0","5a11a7d0f2e3460001edbe35","","null","","","learningBlock1","","","","<div style=""font-size:60px;""> </div>","null","FL","learning/Slide22.JPG","That was a bim.","","",""
"image-keyboard-response","72","91389","0.0-5.0-0.22","FL","xekfnorue1","1920","1200","0","1","0","5a11a7d0f2e3460001edbe35","","null","","","","","","","learning/Slide23.JPG","null","","","","","",""
"html-keyboard-response","73","92541","0.0-5.0-1.22","FL","xekfnorue1","1920","1200","0","1","0","5a11a7d0f2e3460001edbe35","","null","","","learningBlock1","","","","That was a tob.","null","","","","","",""
"html-keyboard-response","74","93544","0.0-5.0-2.22","FL","xekfnorue1","1920","1200","0","1","0","5a11a7d0f2e3460001edbe35","","null","","","learningBlock1","","","","<div style=""font-size:60px;""> </div>","null","FL","learning/Slide23.JPG","That was a tob.","","",""
"image-keyboard-response","75","93720","0.0-5.0-0.23","FL","xekfnorue1","1920","1200","0","1","0","5a11a7d0f2e3460001edbe35","","null","","","","","","","learning/Slide24.JPG","null","","","","","",""
"html-keyboard-response","76","94875","0.0-5.0-1.23","FL","xekfnorue1","1920","1200","0","1","0","5a11a7d0f2e3460001edbe35","","null","","","learningBlock1","","","","That was a wug.","null","","","","","",""
"html-keyboard-response","77","95879","0.0-5.0-2.23","FL","xekfnorue1","1920","1200","0","1","0","5a11a7d0f2e3460001edbe35","","null","","","learningBlock1","","","","<div style=""font-size:60px;""> </div>","null","FL","learning/Slide24.JPG","That was a wug.","","",""
"image-keyboard-response","78","96056","0.0-5.0-0.24","FL","xekfnorue1","1920","1200","0","1","0","5a11a7d0f2e3460001edbe35","","null","","","","","","","learning/Slide25.JPG","null","","","","","",""
"html-keyboard-response","79","97211","0.0-5.0-1.24","FL","xekfnorue1","1920","1200","0","1","0","5a11a7d0f2e3460001edbe35","","null","","","learningBlock1","","","","That was a dep.","null","","","","","",""
"html-keyboard-response","80","98214","0.0-5.0-2.24","FL","xekfnorue1","1920","1200","0","1","0","5a11a7d0f2e3460001edbe35","","null","","","learningBlock1","","","","<div style=""font-size:60px;""> </div>","null","FL","learning/Slide25.JPG","That was a dep.","","",""
"image-keyboard-response","81","98393","0.0-5.0-0.25","FL","xekfnorue1","1920","1200","0","1","0","5a11a7d0f2e3460001edbe35","","null","","","","","","","learning/Slide26.JPG","null","","","","","",""
"html-keyboard-response","82","99548","0.0-5.0-1.25","FL","xekfnorue1","1920","1200","0","1","0","5a11a7d0f2e3460001edbe35","","null","","","learningBlock1","","","","That was a wug.","null","","","","","",""
"html-keyboard-response","83","100549","0.0-5.0-2.25","FL","xekfnorue1","1920","1200","0","1","0","5a11a7d0f2e3460001edbe35","","null","","","learningBlock1","","","","<div style=""font-size:60px;""> </div>","null","FL","learning/Slide26.JPG","That was a wug.","","",""
"image-keyboard-response","84","100727","0.0-5.0-0.26","FL","xekfnorue1","1920","1200","0","1","0","5a11a7d0f2e3460001edbe35","","null","","","","","","","learning/Slide27.JPG","null","","","","","",""
"html-keyboard-response","85","101881","0.0-5.0-1.26","FL","xekfnorue1","1920","1200","0","1","0","5a11a7d0f2e3460001edbe35","","null","","","learningBlock1","","","","That was a bim.","null","","","","","",""
"html-keyboard-response","86","102884","0.0-5.0-2.26","FL","xekfnorue1","1920","1200","0","1","0","5a11a7d0f2e3460001edbe35","","null","","","learningBlock1","","","","<div style=""font-size:60px;""> </div>","null","FL","learning/Slide27.JPG","That was a bim.","","",""
"image-keyboard-response","87","103061","0.0-5.0-0.27","FL","xekfnorue1","1920","1200","0","1","0","5a11a7d0f2e3460001edbe35","","null","","","","","","","learning/Slide28.JPG","null","","","","","",""
"html-keyboard-response","88","104221","0.0-5.0-1.27","FL","xekfnorue1","1920","1200","0","1","0","5a11a7d0f2e3460001edbe35","","null","","","learningBlock1","","","","That was a dep.","null","","","","","",""
"html-keyboard-response","89","105224","0.0-5.0-2.27","FL","xekfnorue1","1920","1200","0","1","0","5a11a7d0f2e3460001edbe35","","null","","","learningBlock1","","","","<div style=""font-size:60px;""> </div>","null","FL","learning/Slide28.JPG","That was a dep.","","",""
"image-keyboard-response","90","105401","0.0-5.0-0.28","FL","xekfnorue1","1920","1200","0","1","0","5a11a7d0f2e3460001edbe35","","null","","","","","","","learning/Slide29.JPG","null","","","","","",""
"html-keyboard-response","91","106555","0.0-5.0-1.28","FL","xekfnorue1","1920","1200","0","1","0","5a11a7d0f2e3460001edbe35","","null","","","learningBlock1","","","","That was a tob.","null","","","","","",""
"html-keyboard-response","92","107558","0.0-5.0-2.28","FL","xekfnorue1","1920","1200","0","1","0","5a11a7d0f2e3460001edbe35","","null","","","learningBlock1","","","","<div style=""font-size:60px;""> </div>","null","FL","learning/Slide29.JPG","That was a tob.","","",""
"image-keyboard-response","93","107736","0.0-5.0-0.29","FL","xekfnorue1","1920","1200","0","1","0","5a11a7d0f2e3460001edbe35","","null","","","","","","","learning/Slide30.JPG","null","","","","","",""
"html-keyboard-response","94","108887","0.0-5.0-1.29","FL","xekfnorue1","1920","1200","0","1","0","5a11a7d0f2e3460001edbe35","","null","","","learningBlock1","","","","That was a dep.","null","","","","","",""
"html-keyboard-response","95","109888","0.0-5.0-2.29","FL","xekfnorue1","1920","1200","0","1","0","5a11a7d0f2e3460001edbe35","","null","","","learningBlock1","","","","<div style=""font-size:60px;""> </div>","null","FL","learning/Slide30.JPG","That was a dep.","","",""
"image-keyboard-response","96","110068","0.0-5.0-0.30","FL","xekfnorue1","1920","1200","0","1","0","5a11a7d0f2e3460001edbe35","","null","","","","","","","learning/Slide31.JPG","null","","","","","",""
"html-keyboard-response","97","111224","0.0-5.0-1.30","FL","xekfnorue1","1920","1200","0","1","0","5a11a7d0f2e3460001edbe35","","null","","","learningBlock1","","","","That was a wug.","null","","","","","",""
"html-keyboard-response","98","112226","0.0-5.0-2.30","FL","xekfnorue1","1920","1200","0","1","0","5a11a7d0f2e3460001edbe35","","null","","","learningBlock1","","","","<div style=""font-size:60px;""> </div>","null","FL","learning/Slide31.JPG","That was a wug.","","",""
"image-keyboard-response","99","112405","0.0-5.0-0.31","FL","xekfnorue1","1920","1200","0","1","0","5a11a7d0f2e3460001edbe35","","null","","","","","","","learning/Slide32.JPG","null","","","","","",""
"html-keyboard-response","100","113557","0.0-5.0-1.31","FL","xekfnorue1","1920","1200","0","1","0","5a11a7d0f2e3460001edbe35","","null","","","learningBlock1","","","","That was a tob.","null","","","","","",""
"html-keyboard-response","101","114559","0.0-5.0-2.31","FL","xekfnorue1","1920","1200","0","1","0","5a11a7d0f2e3460001edbe35","","null","","","learningBlock1","","","","<div style=""font-size:60px;""> </div>","null","FL","learning/Slide32.JPG","That was a tob.","","",""
"image-keyboard-response","102","114735","0.0-5.0-0.32","FL","xekfnorue1","1920","1200","0","1","0","5a11a7d0f2e3460001edbe35","","null","","","","","","","learning/Slide33.JPG","null","","","","","",""
"html-keyboard-response","103","115891","0.0-5.0-1.32","FL","xekfnorue1","1920","1200","0","1","0","5a11a7d0f2e3460001edbe35","","null","","","learningBlock1","","","","That was a bim.","null","","","","","",""
"html-keyboard-response","104","116895","0.0-5.0-2.32","FL","xekfnorue1","1920","1200","0","1","0","5a11a7d0f2e3460001edbe35","","null","","","learningBlock1","","","","<div style=""font-size:60px;""> </div>","null","FL","learning/Slide33.JPG","That was a bim.","","",""
"image-keyboard-response","105","117075","0.0-5.0-0.33","FL","xekfnorue1","1920","1200","0","1","0","5a11a7d0f2e3460001edbe35","","null","","","","","","","learning/Slide34.JPG","null","","","","","",""
"html-keyboard-response","106","118227","0.0-5.0-1.33","FL","xekfnorue1","1920","1200","0","1","0","5a11a7d0f2e3460001edbe35","","null","","","learningBlock1","","","","That was a tob.","null","","","","","",""
"html-keyboard-response","107","119228","0.0-5.0-2.33","FL","xekfnorue1","1920","1200","0","1","0","5a11a7d0f2e3460001edbe35","","null","","","learningBlock1","","","","<div style=""font-size:60px;""> </div>","null","FL","learning/Slide34.JPG","That was a tob.","","",""
"image-keyboard-response","108","119405","0.0-5.0-0.34","FL","xekfnorue1","1920","1200","0","1","0","5a11a7d0f2e3460001edbe35","","null","","","","","","","learning/Slide35.JPG","null","","","","","",""
"html-keyboard-response","109","120561","0.0-5.0-1.34","FL","xekfnorue1","1920","1200","0","1","0","5a11a7d0f2e3460001edbe35","","null","","","learningBlock1","","","","That was a bim.","null","","","","","",""
"html-keyboard-response","110","121562","0.0-5.0-2.34","FL","xekfnorue1","1920","1200","0","1","0","5a11a7d0f2e3460001edbe35","","null","","","learningBlock1","","","","<div style=""font-size:60px;""> </div>","null","FL","learning/Slide35.JPG","That was a bim.","","",""
"image-keyboard-response","111","121737","0.0-5.0-0.35","FL","xekfnorue1","1920","1200","0","1","0","5a11a7d0f2e3460001edbe35","","null","","","","","","","learning/Slide36.JPG","null","","","","","",""
"html-keyboard-response","112","122891","0.0-5.0-1.35","FL","xekfnorue1","1920","1200","0","1","0","5a11a7d0f2e3460001edbe35","","null","","","learningBlock1","","","","That was a dep.","null","","","","","",""
"html-keyboard-response","113","123893","0.0-5.0-2.35","FL","xekfnorue1","1920","1200","0","1","0","5a11a7d0f2e3460001edbe35","","null","","","learningBlock1","","","","<div style=""font-size:60px;""> </div>","null","FL","learning/Slide36.JPG","That was a dep.","","",""
"image-keyboard-response","114","124069","0.0-5.0-0.36","FL","xekfnorue1","1920","1200","0","1","0","5a11a7d0f2e3460001edbe35","","null","","","","","","","learning/Slide37.JPG","null","","","","","",""
"html-keyboard-response","115","125225","0.0-5.0-1.36","FL","xekfnorue1","1920","1200","0","1","0","5a11a7d0f2e3460001edbe35","","null","","","learningBlock1","","","","That was a tob.","null","","","","","",""
"html-keyboard-response","116","126226","0.0-5.0-2.36","FL","xekfnorue1","1920","1200","0","1","0","5a11a7d0f2e3460001edbe35","","null","","","learningBlock1","","","","<div style=""font-size:60px;""> </div>","null","FL","learning/Slide37.JPG","That was a tob.","","",""
"image-keyboard-response","117","126407","0.0-5.0-0.37","FL","xekfnorue1","1920","1200","0","1","0","5a11a7d0f2e3460001edbe35","","null","","","","","","","learning/Slide38.JPG","null","","","","","",""
"html-keyboard-response","118","127564","0.0-5.0-1.37","FL","xekfnorue1","1920","1200","0","1","0","5a11a7d0f2e3460001edbe35","","null","","","learningBlock1","","","","That was a wug.","null","","","","","",""
"html-keyboard-response","119","128565","0.0-5.0-2.37","FL","xekfnorue1","1920","1200","0","1","0","5a11a7d0f2e3460001edbe35","","null","","","learningBlock1","","","","<div style=""font-size:60px;""> </div>","null","FL","learning/Slide38.JPG","That was a wug.","","",""
"image-keyboard-response","120","128746","0.0-5.0-0.38","FL","xekfnorue1","1920","1200","0","1","0","5a11a7d0f2e3460001edbe35","","null","","","","","","","learning/Slide39.JPG","null","","","","","",""
"html-keyboard-response","121","129900","0.0-5.0-1.38","FL","xekfnorue1","1920","1200","0","1","0","5a11a7d0f2e3460001edbe35","","null","","","learningBlock1","","","","That was a bim.","null","","","","","",""
"html-keyboard-response","122","130905","0.0-5.0-2.38","FL","xekfnorue1","1920","1200","0","1","0","5a11a7d0f2e3460001edbe35","","null","","","learningBlock1","","","","<div style=""font-size:60px;""> </div>","null","FL","learning/Slide39.JPG","That was a bim.","","",""
"image-keyboard-response","123","131082","0.0-5.0-0.39","FL","xekfnorue1","1920","1200","0","1","0","5a11a7d0f2e3460001edbe35","","null","","","","","","","learning/Slide40.JPG","null","","","","","",""
"html-keyboard-response","124","132233","0.0-5.0-1.39","FL","xekfnorue1","1920","1200","0","1","0","5a11a7d0f2e3460001edbe35","","null","","","learningBlock1","","","","That was a tob.","null","","","","","",""
"html-keyboard-response","125","133235","0.0-5.0-2.39","FL","xekfnorue1","1920","1200","0","1","0","5a11a7d0f2e3460001edbe35","","null","","","learningBlock1","","","","<div style=""font-size:60px;""> </div>","null","FL","learning/Slide40.JPG","That was a tob.","","",""
"image-keyboard-response","126","133412","0.0-5.0-0.40","FL","xekfnorue1","1920","1200","0","1","0","5a11a7d0f2e3460001edbe35","","null","","","","","","","learning/Slide41.JPG","null","","","","","",""
"html-keyboard-response","127","134568","0.0-5.0-1.40","FL","xekfnorue1","1920","1200","0","1","0","5a11a7d0f2e3460001edbe35","","null","","","learningBlock1","","","","That was a bim.","null","","","","","",""
"html-keyboard-response","128","135568","0.0-5.0-2.40","FL","xekfnorue1","1920","1200","0","1","0","5a11a7d0f2e3460001edbe35","","null","","","learningBlock1","","","","<div style=""font-size:60px;""> </div>","null","FL","learning/Slide41.JPG","That was a bim.","","",""
"image-keyboard-response","129","135746","0.0-5.0-0.41","FL","xekfnorue1","1920","1200","0","1","0","5a11a7d0f2e3460001edbe35","","null","","","","","","","learning/Slide42.JPG","null","","","","","",""
"html-keyboard-response","130","136901","0.0-5.0-1.41","FL","xekfnorue1","1920","1200","0","1","0","5a11a7d0f2e3460001edbe35","","null","","","learningBlock1","","","","That was a dep.","null","","","","","",""
"html-keyboard-response","131","137902","0.0-5.0-2.41","FL","xekfnorue1","1920","1200","0","1","0","5a11a7d0f2e3460001edbe35","","null","","","learningBlock1","","","","<div style=""font-size:60px;""> </div>","null","FL","learning/Slide42.JPG","That was a dep.","","",""
"image-keyboard-response","132","138078","0.0-5.0-0.42","FL","xekfnorue1","1920","1200","0","1","0","5a11a7d0f2e3460001edbe35","","null","","","","","","","learning/Slide43.JPG","null","","","","","",""
"html-keyboard-response","133","139232","0.0-5.0-1.42","FL","xekfnorue1","1920","1200","0","1","0","5a11a7d0f2e3460001edbe35","","null","","","learningBlock1","","","","That was a wug.","null","","","","","",""
"html-keyboard-response","134","140236","0.0-5.0-2.42","FL","xekfnorue1","1920","1200","0","1","0","5a11a7d0f2e3460001edbe35","","null","","","learningBlock1","","","","<div style=""font-size:60px;""> </div>","null","FL","learning/Slide43.JPG","That was a wug.","","",""
"image-keyboard-response","135","140413","0.0-5.0-0.43","FL","xekfnorue1","1920","1200","0","1","0","5a11a7d0f2e3460001edbe35","","null","","","","","","","learning/Slide44.JPG","null","","","","","",""
"html-keyboard-response","136","141568","0.0-5.0-1.43","FL","xekfnorue1","1920","1200","0","1","0","5a11a7d0f2e3460001edbe35","","null","","","learningBlock1","","","","That was a bim.","null","","","","","",""
"html-keyboard-response","137","142570","0.0-5.0-2.43","FL","xekfnorue1","1920","1200","0","1","0","5a11a7d0f2e3460001edbe35","","null","","","learningBlock1","","","","<div style=""font-size:60px;""> </div>","null","FL","learning/Slide44.JPG","That was a bim.","","",""
"image-keyboard-response","138","142747","0.0-5.0-0.44","FL","xekfnorue1","1920","1200","0","1","0","5a11a7d0f2e3460001edbe35","","null","","","","","","","learning/Slide45.JPG","null","","","","","",""
"html-keyboard-response","139","143902","0.0-5.0-1.44","FL","xekfnorue1","1920","1200","0","1","0","5a11a7d0f2e3460001edbe35","","null","","","learningBlock1","","","","That was a wug.","null","","","","","",""
"html-keyboard-response","140","144903","0.0-5.0-2.44","FL","xekfnorue1","1920","1200","0","1","0","5a11a7d0f2e3460001edbe35","","null","","","learningBlock1","","","","<div style=""font-size:60px;""> </div>","null","FL","learning/Slide45.JPG","That was a wug.","","",""
"image-keyboard-response","141","145083","0.0-5.0-0.45","FL","xekfnorue1","1920","1200","0","1","0","5a11a7d0f2e3460001edbe35","","null","","","","","","","learning/Slide46.JPG","null","","","","","",""
"html-keyboard-response","142","146235","0.0-5.0-1.45","FL","xekfnorue1","1920","1200","0","1","0","5a11a7d0f2e3460001edbe35","","null","","","learningBlock1","","","","That was a dep.","null","","","","","",""
"html-keyboard-response","143","147237","0.0-5.0-2.45","FL","xekfnorue1","1920","1200","0","1","0","5a11a7d0f2e3460001edbe35","","null","","","learningBlock1","","","","<div style=""font-size:60px;""> </div>","null","FL","learning/Slide46.JPG","That was a dep.","","",""
"image-keyboard-response","144","147413","0.0-5.0-0.46","FL","xekfnorue1","1920","1200","0","1","0","5a11a7d0f2e3460001edbe35","","null","","","","","","","learning/Slide47.JPG","null","","","","","",""
"html-keyboard-response","145","148565","0.0-5.0-1.46","FL","xekfnorue1","1920","1200","0","1","0","5a11a7d0f2e3460001edbe35","","null","","","learningBlock1","","","","That was a tob.","null","","","","","",""
"html-keyboard-response","146","149569","0.0-5.0-2.46","FL","xekfnorue1","1920","1200","0","1","0","5a11a7d0f2e3460001edbe35","","null","","","learningBlock1","","","","<div style=""font-size:60px;""> </div>","null","FL","learning/Slide47.JPG","That was a tob.","","",""
"image-keyboard-response","147","149747","0.0-5.0-0.47","FL","xekfnorue1","1920","1200","0","1","0","5a11a7d0f2e3460001edbe35","","null","","","","","","","learning/Slide48.JPG","null","","","","","",""
"html-keyboard-response","148","150900","0.0-5.0-1.47","FL","xekfnorue1","1920","1200","0","1","0","5a11a7d0f2e3460001edbe35","","null","","","learningBlock1","","","","That was a bim.","null","","","","","",""
"html-keyboard-response","149","151905","0.0-5.0-2.47","FL","xekfnorue1","1920","1200","0","1","0","5a11a7d0f2e3460001edbe35","","null","","","learningBlock1","","","","<div style=""font-size:60px;""> </div>","null","FL","learning/Slide48.JPG","That was a bim.","","",""
"image-keyboard-response","150","152083","0.0-5.0-0.48","FL","xekfnorue1","1920","1200","0","1","0","5a11a7d0f2e3460001edbe35","","null","","","","","","","learning/Slide49.JPG","null","","","","","",""
"html-keyboard-response","151","153236","0.0-5.0-1.48","FL","xekfnorue1","1920","1200","0","1","0","5a11a7d0f2e3460001edbe35","","null","","","learningBlock1","","","","That was a dep.","null","","","","","",""
"html-keyboard-response","152","154237","0.0-5.0-2.48","FL","xekfnorue1","1920","1200","0","1","0","5a11a7d0f2e3460001edbe35","","null","","","learningBlock1","","","","<div style=""font-size:60px;""> </div>","null","FL","learning/Slide49.JPG","That was a dep.","","",""
"image-keyboard-response","153","154414","0.0-5.0-0.49","FL","xekfnorue1","1920","1200","0","1","0","5a11a7d0f2e3460001edbe35","","null","","","","","","","learning/Slide50.JPG","null","","","","","",""
"html-keyboard-response","154","155571","0.0-5.0-1.49","FL","xekfnorue1","1920","1200","0","1","0","5a11a7d0f2e3460001edbe35","","null","","","learningBlock1","","","","That was a tob.","null","","","","","",""
"html-keyboard-response","155","156576","0.0-5.0-2.49","FL","xekfnorue1","1920","1200","0","1","0","5a11a7d0f2e3460001edbe35","","null","","","learningBlock1","","","","<div style=""font-size:60px;""> </div>","null","FL","learning/Slide50.JPG","That was a tob.","","",""
"image-keyboard-response","156","156754","0.0-5.0-0.50","FL","xekfnorue1","1920","1200","0","1","0","5a11a7d0f2e3460001edbe35","","null","","","","","","","learning/Slide51.JPG","null","","","","","",""
"html-keyboard-response","157","157910","0.0-5.0-1.50","FL","xekfnorue1","1920","1200","0","1","0","5a11a7d0f2e3460001edbe35","","null","","","learningBlock1","","","","That was a bim.","null","","","","","",""
"html-keyboard-response","158","158913","0.0-5.0-2.50","FL","xekfnorue1","1920","1200","0","1","0","5a11a7d0f2e3460001edbe35","","null","","","learningBlock1","","","","<div style=""font-size:60px;""> </div>","null","FL","learning/Slide51.JPG","That was a bim.","","",""
"image-keyboard-response","159","159090","0.0-5.0-0.51","FL","xekfnorue1","1920","1200","0","1","0","5a11a7d0f2e3460001edbe35","","null","","","","","","","learning/Slide52.JPG","null","","","","","",""
"html-keyboard-response","160","160242","0.0-5.0-1.51","FL","xekfnorue1","1920","1200","0","1","0","5a11a7d0f2e3460001edbe35","","null","","","learningBlock1","","","","That was a wug.","null","","","","","",""
"html-keyboard-response","161","161243","0.0-5.0-2.51","FL","xekfnorue1","1920","1200","0","1","0","5a11a7d0f2e3460001edbe35","","null","","","learningBlock1","","","","<div style=""font-size:60px;""> </div>","null","FL","learning/Slide52.JPG","That was a wug.","","",""
"image-keyboard-response","162","161423","0.0-5.0-0.52","FL","xekfnorue1","1920","1200","0","1","0","5a11a7d0f2e3460001edbe35","","null","","","","","","","learning/Slide53.JPG","null","","","","","",""
"html-keyboard-response","163","162579","0.0-5.0-1.52","FL","xekfnorue1","1920","1200","0","1","0","5a11a7d0f2e3460001edbe35","","null","","","learningBlock1","","","","That was a tob.","null","","","","","",""
"html-keyboard-response","164","163582","0.0-5.0-2.52","FL","xekfnorue1","1920","1200","0","1","0","5a11a7d0f2e3460001edbe35","","null","","","learningBlock1","","","","<div style=""font-size:60px;""> </div>","null","FL","learning/Slide53.JPG","That was a tob.","","",""
"image-keyboard-response","165","163760","0.0-5.0-0.53","FL","xekfnorue1","1920","1200","0","1","0","5a11a7d0f2e3460001edbe35","","null","","","","","","","learning/Slide54.JPG","null","","","","","",""
"html-keyboard-response","166","164912","0.0-5.0-1.53","FL","xekfnorue1","1920","1200","0","1","0","5a11a7d0f2e3460001edbe35","","null","","","learningBlock1","","","","That was a dep.","null","","","","","",""
"html-keyboard-response","167","165913","0.0-5.0-2.53","FL","xekfnorue1","1920","1200","0","1","0","5a11a7d0f2e3460001edbe35","","null","","","learningBlock1","","","","<div style=""font-size:60px;""> </div>","null","FL","learning/Slide54.JPG","That was a dep.","","",""
"image-keyboard-response","168","166091","0.0-5.0-0.54","FL","xekfnorue1","1920","1200","0","1","0","5a11a7d0f2e3460001edbe35","","null","","","","","","","learning/Slide55.JPG","null","","","","","",""
"html-keyboard-response","169","167247","0.0-5.0-1.54","FL","xekfnorue1","1920","1200","0","1","0","5a11a7d0f2e3460001edbe35","","null","","","learningBlock1","","","","That was a bim.","null","","","","","",""
"html-keyboard-response","170","168250","0.0-5.0-2.54","FL","xekfnorue1","1920","1200","0","1","0","5a11a7d0f2e3460001edbe35","","null","","","learningBlock1","","","","<div style=""font-size:60px;""> </div>","null","FL","learning/Slide55.JPG","That was a bim.","","",""
"image-keyboard-response","171","168427","0.0-5.0-0.55","FL","xekfnorue1","1920","1200","0","1","0","5a11a7d0f2e3460001edbe35","","null","","","","","","","learning/Slide56.JPG","null","","","","","",""
"html-keyboard-response","172","169582","0.0-5.0-1.55","FL","xekfnorue1","1920","1200","0","1","0","5a11a7d0f2e3460001edbe35","","null","","","learningBlock1","","","","That was a tob.","null","","","","","",""
"html-keyboard-response","173","170583","0.0-5.0-2.55","FL","xekfnorue1","1920","1200","0","1","0","5a11a7d0f2e3460001edbe35","","null","","","learningBlock1","","","","<div style=""font-size:60px;""> </div>","null","FL","learning/Slide56.JPG","That was a tob.","","",""
"image-keyboard-response","174","170763","0.0-5.0-0.56","FL","xekfnorue1","1920","1200","0","1","0","5a11a7d0f2e3460001edbe35","","null","","","","","","","learning/Slide57.JPG","null","","","","","",""
"html-keyboard-response","175","171920","0.0-5.0-1.56","FL","xekfnorue1","1920","1200","0","1","0","5a11a7d0f2e3460001edbe35","","null","","","learningBlock1","","","","That was a dep.","null","","","","","",""
"html-keyboard-response","176","172922","0.0-5.0-2.56","FL","xekfnorue1","1920","1200","0","1","0","5a11a7d0f2e3460001edbe35","","null","","","learningBlock1","","","","<div style=""font-size:60px;""> </div>","null","FL","learning/Slide57.JPG","That was a dep.","","",""
"image-keyboard-response","177","173099","0.0-5.0-0.57","FL","xekfnorue1","1920","1200","0","1","0","5a11a7d0f2e3460001edbe35","","null","","","","","","","learning/Slide58.JPG","null","","","","","",""
"html-keyboard-response","178","174256","0.0-5.0-1.57","FL","xekfnorue1","1920","1200","0","1","0","5a11a7d0f2e3460001edbe35","","null","","","learningBlock1","","","","That was a wug.","null","","","","","",""
"html-keyboard-response","179","175261","0.0-5.0-2.57","FL","xekfnorue1","1920","1200","0","1","0","5a11a7d0f2e3460001edbe35","","null","","","learningBlock1","","","","<div style=""font-size:60px;""> </div>","null","FL","learning/Slide58.JPG","That was a wug.","","",""
"image-keyboard-response","180","175442","0.0-5.0-0.58","FL","xekfnorue1","1920","1200","0","1","0","5a11a7d0f2e3460001edbe35","","null","","","","","","","learning/Slide59.JPG","null","","","","","",""
"html-keyboard-response","181","176597","0.0-5.0-1.58","FL","xekfnorue1","1920","1200","0","1","0","5a11a7d0f2e3460001edbe35","","null","","","learningBlock1","","","","That was a dep.","null","","","","","",""
"html-keyboard-response","182","177603","0.0-5.0-2.58","FL","xekfnorue1","1920","1200","0","1","0","5a11a7d0f2e3460001edbe35","","null","","","learningBlock1","","","","<div style=""font-size:60px;""> </div>","null","FL","learning/Slide59.JPG","That was a dep.","","",""
"image-keyboard-response","183","177778","0.0-5.0-0.59","FL","xekfnorue1","1920","1200","0","1","0","5a11a7d0f2e3460001edbe35","","null","","","","","","","learning/Slide60.JPG","null","","","","","",""
"html-keyboard-response","184","178931","0.0-5.0-1.59","FL","xekfnorue1","1920","1200","0","1","0","5a11a7d0f2e3460001edbe35","","null","","","learningBlock1","","","","That was a wug.","null","","","","","",""
"html-keyboard-response","185","179932","0.0-5.0-2.59","FL","xekfnorue1","1920","1200","0","1","0","5a11a7d0f2e3460001edbe35","","null","","","learningBlock1","","","","<div style=""font-size:60px;""> </div>","null","FL","learning/Slide60.JPG","That was a wug.","","",""
"image-keyboard-response","186","180112","0.0-5.0-0.60","FL","xekfnorue1","1920","1200","0","1","0","5a11a7d0f2e3460001edbe35","","null","","","","","","","learning/Slide61.JPG","null","","","","","",""
"html-keyboard-response","187","181271","0.0-5.0-1.60","FL","xekfnorue1","1920","1200","0","1","0","5a11a7d0f2e3460001edbe35","","null","","","learningBlock1","","","","That was a bim.","null","","","","","",""
"html-keyboard-response","188","182273","0.0-5.0-2.60","FL","xekfnorue1","1920","1200","0","1","0","5a11a7d0f2e3460001edbe35","","null","","","learningBlock1","","","","<div style=""font-size:60px;""> </div>","null","FL","learning/Slide61.JPG","That was a bim.","","",""
"image-keyboard-response","189","182451","0.0-5.0-0.61","FL","xekfnorue1","1920","1200","0","1","0","5a11a7d0f2e3460001edbe35","","null","","","","","","","learning/Slide62.JPG","null","","","","","",""
"html-keyboard-response","190","183604","0.0-5.0-1.61","FL","xekfnorue1","1920","1200","0","1","0","5a11a7d0f2e3460001edbe35","","null","","","learningBlock1","","","","That was a dep.","null","","","","","",""
"html-keyboard-response","191","184609","0.0-5.0-2.61","FL","xekfnorue1","1920","1200","0","1","0","5a11a7d0f2e3460001edbe35","","null","","","learningBlock1","","","","<div style=""font-size:60px;""> </div>","null","FL","learning/Slide62.JPG","That was a dep.","","",""
"image-keyboard-response","192","184788","0.0-5.0-0.62","FL","xekfnorue1","1920","1200","0","1","0","5a11a7d0f2e3460001edbe35","","null","","","","","","","learning/Slide63.JPG","null","","","","","",""
"html-keyboard-response","193","185943","0.0-5.0-1.62","FL","xekfnorue1","1920","1200","0","1","0","5a11a7d0f2e3460001edbe35","","null","","","learningBlock1","","","","That was a bim.","null","","","","","",""
"html-keyboard-response","194","186948","0.0-5.0-2.62","FL","xekfnorue1","1920","1200","0","1","0","5a11a7d0f2e3460001edbe35","","null","","","learningBlock1","","","","<div style=""font-size:60px;""> </div>","null","FL","learning/Slide63.JPG","That was a bim.","","",""
"image-keyboard-response","195","187124","0.0-5.0-0.63","FL","xekfnorue1","1920","1200","0","1","0","5a11a7d0f2e3460001edbe35","","null","","","","","","","learning/Slide64.JPG","null","","","","","",""
"html-keyboard-response","196","188280","0.0-5.0-1.63","FL","xekfnorue1","1920","1200","0","1","0","5a11a7d0f2e3460001edbe35","","null","","","learningBlock1","","","","That was a tob.","null","","","","","",""
"html-keyboard-response","197","189281","0.0-5.0-2.63","FL","xekfnorue1","1920","1200","0","1","0","5a11a7d0f2e3460001edbe35","","null","","","learningBlock1","","","","<div style=""font-size:60px;""> </div>","null","FL","learning/Slide64.JPG","That was a tob.","","",""
"image-keyboard-response","198","189458","0.0-5.0-0.64","FL","xekfnorue1","1920","1200","0","1","0","5a11a7d0f2e3460001edbe35","","null","","","","","","","learning/Slide65.JPG","null","","","","","",""
"html-keyboard-response","199","190613","0.0-5.0-1.64","FL","xekfnorue1","1920","1200","0","1","0","5a11a7d0f2e3460001edbe35","","null","","","learningBlock1","","","","That was a wug.","null","","","","","",""
"html-keyboard-response","200","191614","0.0-5.0-2.64","FL","xekfnorue1","1920","1200","0","1","0","5a11a7d0f2e3460001edbe35","","null","","","learningBlock1","","","","<div style=""font-size:60px;""> </div>","null","FL","learning/Slide65.JPG","That was a wug.","","",""
"image-keyboard-response","201","191791","0.0-5.0-0.65","FL","xekfnorue1","1920","1200","0","1","0","5a11a7d0f2e3460001edbe35","","null","","","","","","","learning/Slide66.JPG","null","","","","","",""
"html-keyboard-response","202","192942","0.0-5.0-1.65","FL","xekfnorue1","1920","1200","0","1","0","5a11a7d0f2e3460001edbe35","","null","","","learningBlock1","","","","That was a dep.","null","","","","","",""
"html-keyboard-response","203","193944","0.0-5.0-2.65","FL","xekfnorue1","1920","1200","0","1","0","5a11a7d0f2e3460001edbe35","","null","","","learningBlock1","","","","<div style=""font-size:60px;""> </div>","null","FL","learning/Slide66.JPG","That was a dep.","","",""
"image-keyboard-response","204","194121","0.0-5.0-0.66","FL","xekfnorue1","1920","1200","0","1","0","5a11a7d0f2e3460001edbe35","","null","","","","","","","learning/Slide67.JPG","null","","","","","",""
"html-keyboard-response","205","195275","0.0-5.0-1.66","FL","xekfnorue1","1920","1200","0","1","0","5a11a7d0f2e3460001edbe35","","null","","","learningBlock1","","","","That was a tob.","null","","","","","",""
"html-keyboard-response","206","196281","0.0-5.0-2.66","FL","xekfnorue1","1920","1200","0","1","0","5a11a7d0f2e3460001edbe35","","null","","","learningBlock1","","","","<div style=""font-size:60px;""> </div>","null","FL","learning/Slide67.JPG","That was a tob.","","",""
"image-keyboard-response","207","196458","0.0-5.0-0.67","FL","xekfnorue1","1920","1200","0","1","0","5a11a7d0f2e3460001edbe35","","null","","","","","","","learning/Slide68.JPG","null","","","","","",""
"html-keyboard-response","208","197610","0.0-5.0-1.67","FL","xekfnorue1","1920","1200","0","1","0","5a11a7d0f2e3460001edbe35","","null","","","learningBlock1","","","","That was a wug.","null","","","","","",""
"html-keyboard-response","209","198612","0.0-5.0-2.67","FL","xekfnorue1","1920","1200","0","1","0","5a11a7d0f2e3460001edbe35","","null","","","learningBlock1","","","","<div style=""font-size:60px;""> </div>","null","FL","learning/Slide68.JPG","That was a wug.","","",""
"image-keyboard-response","210","198792","0.0-5.0-0.68","FL","xekfnorue1","1920","1200","0","1","0","5a11a7d0f2e3460001edbe35","","null","","","","","","","learning/Slide69.JPG","null","","","","","",""
"html-keyboard-response","211","199944","0.0-5.0-1.68","FL","xekfnorue1","1920","1200","0","1","0","5a11a7d0f2e3460001edbe35","","null","","","learningBlock1","","","","That was a tob.","null","","","","","",""
"html-keyboard-response","212","200946","0.0-5.0-2.68","FL","xekfnorue1","1920","1200","0","1","0","5a11a7d0f2e3460001edbe35","","null","","","learningBlock1","","","","<div style=""font-size:60px;""> </div>","null","FL","learning/Slide69.JPG","That was a tob.","","",""
"image-keyboard-response","213","201127","0.0-5.0-0.69","FL","xekfnorue1","1920","1200","0","1","0","5a11a7d0f2e3460001edbe35","","null","","","","","","","learning/Slide70.JPG","null","","","","","",""
"html-keyboard-response","214","202279","0.0-5.0-1.69","FL","xekfnorue1","1920","1200","0","1","0","5a11a7d0f2e3460001edbe35","","null","","","learningBlock1","","","","That was a dep.","null","","","","","",""
"html-keyboard-response","215","203284","0.0-5.0-2.69","FL","xekfnorue1","1920","1200","0","1","0","5a11a7d0f2e3460001edbe35","","null","","","learningBlock1","","","","<div style=""font-size:60px;""> </div>","null","FL","learning/Slide70.JPG","That was a dep.","","",""
"image-keyboard-response","216","203461","0.0-5.0-0.70","FL","xekfnorue1","1920","1200","0","1","0","5a11a7d0f2e3460001edbe35","","null","","","","","","","learning/Slide71.JPG","null","","","","","",""
"html-keyboard-response","217","204613","0.0-5.0-1.70","FL","xekfnorue1","1920","1200","0","1","0","5a11a7d0f2e3460001edbe35","","null","","","learningBlock1","","","","That was a wug.","null","","","","","",""
"html-keyboard-response","218","205618","0.0-5.0-2.70","FL","xekfnorue1","1920","1200","0","1","0","5a11a7d0f2e3460001edbe35","","null","","","learningBlock1","","","","<div style=""font-size:60px;""> </div>","null","FL","learning/Slide71.JPG","That was a wug.","","",""
"image-keyboard-response","219","205795","0.0-5.0-0.71","FL","xekfnorue1","1920","1200","0","1","0","5a11a7d0f2e3460001edbe35","","null","","","","","","","learning/Slide72.JPG","null","","","","","",""
"html-keyboard-response","220","206946","0.0-5.0-1.71","FL","xekfnorue1","1920","1200","0","1","0","5a11a7d0f2e3460001edbe35","","null","","","learningBlock1","","","","That was a bim.","null","","","","","",""
"html-keyboard-response","221","207947","0.0-5.0-2.71","FL","xekfnorue1","1920","1200","0","1","0","5a11a7d0f2e3460001edbe35","","null","","","learningBlock1","","","","<div style=""font-size:60px;""> </div>","null","FL","learning/Slide72.JPG","That was a bim.","","",""
"image-keyboard-response","222","208124","0.0-5.0-0.72","FL","xekfnorue1","1920","1200","0","1","0","5a11a7d0f2e3460001edbe35","","null","","","","","","","learning/Slide73.JPG","null","","","","","",""
"html-keyboard-response","223","209275","0.0-5.0-1.72","FL","xekfnorue1","1920","1200","0","1","0","5a11a7d0f2e3460001edbe35","","null","","","learningBlock1","","","","That was a wug.","null","","","","","",""
"html-keyboard-response","224","210277","0.0-5.0-2.72","FL","xekfnorue1","1920","1200","0","1","0","5a11a7d0f2e3460001edbe35","","null","","","learningBlock1","","","","<div style=""font-size:60px;""> </div>","null","FL","learning/Slide73.JPG","That was a wug.","","",""
"image-keyboard-response","225","210457","0.0-5.0-0.73","FL","xekfnorue1","1920","1200","0","1","0","5a11a7d0f2e3460001edbe35","","null","","","","","","","learning/Slide74.JPG","null","","","","","",""
"html-keyboard-response","226","211610","0.0-5.0-1.73","FL","xekfnorue1","1920","1200","0","1","0","5a11a7d0f2e3460001edbe35","","null","","","learningBlock1","","","","That was a dep.","null","","","","","",""
"html-keyboard-response","227","212611","0.0-5.0-2.73","FL","xekfnorue1","1920","1200","0","1","0","5a11a7d0f2e3460001edbe35","","null","","","learningBlock1","","","","<div style=""font-size:60px;""> </div>","null","FL","learning/Slide74.JPG","That was a dep.","","",""
"image-keyboard-response","228","212790","0.0-5.0-0.74","FL","xekfnorue1","1920","1200","0","1","0","5a11a7d0f2e3460001edbe35","","null","","","","","","","learning/Slide75.JPG","null","","","","","",""
"html-keyboard-response","229","213942","0.0-5.0-1.74","FL","xekfnorue1","1920","1200","0","1","0","5a11a7d0f2e3460001edbe35","","null","","","learningBlock1","","","","That was a tob.","null","","","","","",""
"html-keyboard-response","230","214946","0.0-5.0-2.74","FL","xekfnorue1","1920","1200","0","1","0","5a11a7d0f2e3460001edbe35","","null","","","learningBlock1","","","","<div style=""font-size:60px;""> </div>","null","FL","learning/Slide75.JPG","That was a tob.","","",""
"image-keyboard-response","231","215126","0.0-5.0-0.75","FL","xekfnorue1","1920","1200","0","1","0","5a11a7d0f2e3460001edbe35","","null","","","","","","","learning/Slide76.JPG","null","","","","","",""
"html-keyboard-response","232","216279","0.0-5.0-1.75","FL","xekfnorue1","1920","1200","0","1","0","5a11a7d0f2e3460001edbe35","","null","","","learningBlock1","","","","That was a bim.","null","","","","","",""
"html-keyboard-response","233","217282","0.0-5.0-2.75","FL","xekfnorue1","1920","1200","0","1","0","5a11a7d0f2e3460001edbe35","","null","","","learningBlock1","","","","<div style=""font-size:60px;""> </div>","null","FL","learning/Slide76.JPG","That was a bim.","","",""
"image-keyboard-response","234","217460","0.0-5.0-0.76","FL","xekfnorue1","1920","1200","0","1","0","5a11a7d0f2e3460001edbe35","","null","","","","","","","learning/Slide77.JPG","null","","","","","",""
"html-keyboard-response","235","218618","0.0-5.0-1.76","FL","xekfnorue1","1920","1200","0","1","0","5a11a7d0f2e3460001edbe35","","null","","","learningBlock1","","","","That was a tob.","null","","","","","",""
"html-keyboard-response","236","219619","0.0-5.0-2.76","FL","xekfnorue1","1920","1200","0","1","0","5a11a7d0f2e3460001edbe35","","null","","","learningBlock1","","","","<div style=""font-size:60px;""> </div>","null","FL","learning/Slide77.JPG","That was a tob.","","",""
"image-keyboard-response","237","219796","0.0-5.0-0.77","FL","xekfnorue1","1920","1200","0","1","0","5a11a7d0f2e3460001edbe35","","null","","","","","","","learning/Slide78.JPG","null","","","","","",""
"html-keyboard-response","238","220951","0.0-5.0-1.77","FL","xekfnorue1","1920","1200","0","1","0","5a11a7d0f2e3460001edbe35","","null","","","learningBlock1","","","","That was a wug.","null","","","","","",""
"html-keyboard-response","239","221954","0.0-5.0-2.77","FL","xekfnorue1","1920","1200","0","1","0","5a11a7d0f2e3460001edbe35","","null","","","learningBlock1","","","","<div style=""font-size:60px;""> </div>","null","FL","learning/Slide78.JPG","That was a wug.","","",""
"image-keyboard-response","240","222135","0.0-5.0-0.78","FL","xekfnorue1","1920","1200","0","1","0","5a11a7d0f2e3460001edbe35","","null","","","","","","","learning/Slide79.JPG","null","","","","","",""
"html-keyboard-response","241","223288","0.0-5.0-1.78","FL","xekfnorue1","1920","1200","0","1","0","5a11a7d0f2e3460001edbe35","","null","","","learningBlock1","","","","That was a bim.","null","","","","","",""
"html-keyboard-response","242","224292","0.0-5.0-2.78","FL","xekfnorue1","1920","1200","0","1","0","5a11a7d0f2e3460001edbe35","","null","","","learningBlock1","","","","<div style=""font-size:60px;""> </div>","null","FL","learning/Slide79.JPG","That was a bim.","","",""
"image-keyboard-response","243","224472","0.0-5.0-0.79","FL","xekfnorue1","1920","1200","0","1","0","5a11a7d0f2e3460001edbe35","","null","","","","","","","learning/Slide80.JPG","null","","","","","",""
"html-keyboard-response","244","225623","0.0-5.0-1.79","FL","xekfnorue1","1920","1200","0","1","0","5a11a7d0f2e3460001edbe35","","null","","","learningBlock1","","","","That was a tob.","null","","","","","",""
"html-keyboard-response","245","226625","0.0-5.0-2.79","FL","xekfnorue1","1920","1200","0","1","0","5a11a7d0f2e3460001edbe35","","null","","","learningBlock1","","","","<div style=""font-size:60px;""> </div>","null","FL","learning/Slide80.JPG","That was a tob.","","",""
"instructions","246","232972","0.0-6.0","FL","xekfnorue1","1920","1200","0","1","0","5a11a7d0f2e3460001edbe35","","NA","","[{""page_index"":0,""viewing_time"":6347}]","instructions","","","","","","","","","","",""
"image-keyboard-response","247","233153","0.0-7.0-0.0","FL","xekfnorue1","1920","1200","0","1","0","5a11a7d0f2e3460001edbe35","","null","","","","","","","learning/Slide81.JPG","null","","","","","",""
"html-keyboard-response","248","234305","0.0-7.0-1.0","FL","xekfnorue1","1920","1200","0","1","0","5a11a7d0f2e3460001edbe35","","null","","","learningBlock2","","","","That was a wug.","null","","","","","",""
"html-keyboard-response","249","235306","0.0-7.0-2.0","FL","xekfnorue1","1920","1200","0","1","0","5a11a7d0f2e3460001edbe35","","null","","","learningBlock2","","","","<div style=""font-size:60px;""> </div>","null","FL","learning/Slide81.JPG","That was a wug.","","",""
"image-keyboard-response","250","235486","0.0-7.0-0.1","FL","xekfnorue1","1920","1200","0","1","0","5a11a7d0f2e3460001edbe35","","null","","","","","","","learning/Slide82.JPG","null","","","","","",""
"html-keyboard-response","251","236704","0.0-7.0-1.1","FL","xekfnorue1","1920","1200","0","1","0","5a11a7d0f2e3460001edbe35","","null","","","learningBlock2","","","","That was a bim.","null","","","","","",""
"html-keyboard-response","252","237705","0.0-7.0-2.1","FL","xekfnorue1","1920","1200","0","1","0","5a11a7d0f2e3460001edbe35","","null","","","learningBlock2","","","","<div style=""font-size:60px;""> </div>","null","FL","learning/Slide82.JPG","That was a bim.","","",""
"image-keyboard-response","253","237880","0.0-7.0-0.2","FL","xekfnorue1","1920","1200","0","1","0","5a11a7d0f2e3460001edbe35","","null","","","","","","","learning/Slide83.JPG","null","","","","","",""
"html-keyboard-response","254","239039","0.0-7.0-1.2","FL","xekfnorue1","1920","1200","0","1","0","5a11a7d0f2e3460001edbe35","","null","","","learningBlock2","","","","That was a wug.","null","","","","","",""
"html-keyboard-response","255","240040","0.0-7.0-2.2","FL","xekfnorue1","1920","1200","0","1","0","5a11a7d0f2e3460001edbe35","","null","","","learningBlock2","","","","<div style=""font-size:60px;""> </div>","null","FL","learning/Slide83.JPG","That was a wug.","","",""
"image-keyboard-response","256","240217","0.0-7.0-0.3","FL","xekfnorue1","1920","1200","0","1","0","5a11a7d0f2e3460001edbe35","","null","","","","","","","learning/Slide84.JPG","null","","","","","",""
"html-keyboard-response","257","241372","0.0-7.0-1.3","FL","xekfnorue1","1920","1200","0","1","0","5a11a7d0f2e3460001edbe35","","null","","","learningBlock2","","","","That was a dep.","null","","","","","",""
"html-keyboard-response","258","242377","0.0-7.0-2.3","FL","xekfnorue1","1920","1200","0","1","0","5a11a7d0f2e3460001edbe35","","null","","","learningBlock2","","","","<div style=""font-size:60px;""> </div>","null","FL","learning/Slide84.JPG","That was a dep.","","",""
"image-keyboard-response","259","242557","0.0-7.0-0.4","FL","xekfnorue1","1920","1200","0","1","0","5a11a7d0f2e3460001edbe35","","null","","","","","","","learning/Slide85.JPG","null","","","","","",""
"html-keyboard-response","260","243709","0.0-7.0-1.4","FL","xekfnorue1","1920","1200","0","1","0","5a11a7d0f2e3460001edbe35","","null","","","learningBlock2","","","","That was a bim.","null","","","","","",""
"html-keyboard-response","261","244711","0.0-7.0-2.4","FL","xekfnorue1","1920","1200","0","1","0","5a11a7d0f2e3460001edbe35","","null","","","learningBlock2","","","","<div style=""font-size:60px;""> </div>","null","FL","learning/Slide85.JPG","That was a bim.","","",""
"image-keyboard-response","262","244887","0.0-7.0-0.5","FL","xekfnorue1","1920","1200","0","1","0","5a11a7d0f2e3460001edbe35","","null","","","","","","","learning/Slide86.JPG","null","","","","","",""
"html-keyboard-response","263","246039","0.0-7.0-1.5","FL","xekfnorue1","1920","1200","0","1","0","5a11a7d0f2e3460001edbe35","","null","","","learningBlock2","","","","That was a tob.","null","","","","","",""
"html-keyboard-response","264","247041","0.0-7.0-2.5","FL","xekfnorue1","1920","1200","0","1","0","5a11a7d0f2e3460001edbe35","","null","","","learningBlock2","","","","<div style=""font-size:60px;""> </div>","null","FL","learning/Slide86.JPG","That was a tob.","","",""
"image-keyboard-response","265","247217","0.0-7.0-0.6","FL","xekfnorue1","1920","1200","0","1","0","5a11a7d0f2e3460001edbe35","","null","","","","","","","learning/Slide87.JPG","null","","","","","",""
"html-keyboard-response","266","248368","0.0-7.0-1.6","FL","xekfnorue1","1920","1200","0","1","0","5a11a7d0f2e3460001edbe35","","null","","","learningBlock2","","","","That was a wug.","null","","","","","",""
"html-keyboard-response","267","249371","0.0-7.0-2.6","FL","xekfnorue1","1920","1200","0","1","0","5a11a7d0f2e3460001edbe35","","null","","","learningBlock2","","","","<div style=""font-size:60px;""> </div>","null","FL","learning/Slide87.JPG","That was a wug.","","",""
"image-keyboard-response","268","249547","0.0-7.0-0.7","FL","xekfnorue1","1920","1200","0","1","0","5a11a7d0f2e3460001edbe35","","null","","","","","","","learning/Slide88.JPG","null","","","","","",""
"html-keyboard-response","269","250698","0.0-7.0-1.7","FL","xekfnorue1","1920","1200","0","1","0","5a11a7d0f2e3460001edbe35","","null","","","learningBlock2","","","","That was a tob.","null","","","","","",""
"html-keyboard-response","270","251702","0.0-7.0-2.7","FL","xekfnorue1","1920","1200","0","1","0","5a11a7d0f2e3460001edbe35","","null","","","learningBlock2","","","","<div style=""font-size:60px;""> </div>","null","FL","learning/Slide88.JPG","That was a tob.","","",""
"image-keyboard-response","271","251879","0.0-7.0-0.8","FL","xekfnorue1","1920","1200","0","1","0","5a11a7d0f2e3460001edbe35","","null","","","","","","","learning/Slide89.JPG","null","","","","","",""
"html-keyboard-response","272","253031","0.0-7.0-1.8","FL","xekfnorue1","1920","1200","0","1","0","5a11a7d0f2e3460001edbe35","","null","","","learningBlock2","","","","That was a bim.","null","","","","","",""
"html-keyboard-response","273","254035","0.0-7.0-2.8","FL","xekfnorue1","1920","1200","0","1","0","5a11a7d0f2e3460001edbe35","","null","","","learningBlock2","","","","<div style=""font-size:60px;""> </div>","null","FL","learning/Slide89.JPG","That was a bim.","","",""
"image-keyboard-response","274","254212","0.0-7.0-0.9","FL","xekfnorue1","1920","1200","0","1","0","5a11a7d0f2e3460001edbe35","","null","","","","","","","learning/Slide90.JPG","null","","","","","",""
"html-keyboard-response","275","255365","0.0-7.0-1.9","FL","xekfnorue1","1920","1200","0","1","0","5a11a7d0f2e3460001edbe35","","null","","","learningBlock2","","","","That was a dep.","null","","","","","",""
"html-keyboard-response","276","256366","0.0-7.0-2.9","FL","xekfnorue1","1920","1200","0","1","0","5a11a7d0f2e3460001edbe35","","null","","","learningBlock2","","","","<div style=""font-size:60px;""> </div>","null","FL","learning/Slide90.JPG","That was a dep.","","",""
"image-keyboard-response","277","256547","0.0-7.0-0.10","FL","xekfnorue1","1920","1200","0","1","0","5a11a7d0f2e3460001edbe35","","null","","","","","","","learning/Slide91.JPG","null","","","","","",""
"html-keyboard-response","278","257703","0.0-7.0-1.10","FL","xekfnorue1","1920","1200","0","1","0","5a11a7d0f2e3460001edbe35","","null","","","learningBlock2","","","","That was a wug.","null","","","","","",""
"html-keyboard-response","279","258706","0.0-7.0-2.10","FL","xekfnorue1","1920","1200","0","1","0","5a11a7d0f2e3460001edbe35","","null","","","learningBlock2","","","","<div style=""font-size:60px;""> </div>","null","FL","learning/Slide91.JPG","That was a wug.","","",""
"image-keyboard-response","280","258885","0.0-7.0-0.11","FL","xekfnorue1","1920","1200","0","1","0","5a11a7d0f2e3460001edbe35","","null","","","","","","","learning/Slide92.JPG","null","","","","","",""
"html-keyboard-response","281","260047","0.0-7.0-1.11","FL","xekfnorue1","1920","1200","0","1","0","5a11a7d0f2e3460001edbe35","","null","","","learningBlock2","","","","That was a tob.","null","","","","","",""
"html-keyboard-response","282","261051","0.0-7.0-2.11","FL","xekfnorue1","1920","1200","0","1","0","5a11a7d0f2e3460001edbe35","","null","","","learningBlock2","","","","<div style=""font-size:60px;""> </div>","null","FL","learning/Slide92.JPG","That was a tob.","","",""
"image-keyboard-response","283","261231","0.0-7.0-0.12","FL","xekfnorue1","1920","1200","0","1","0","5a11a7d0f2e3460001edbe35","","null","","","","","","","learning/Slide93.JPG","null","","","","","",""
"html-keyboard-response","284","262386","0.0-7.0-1.12","FL","xekfnorue1","1920","1200","0","1","0","5a11a7d0f2e3460001edbe35","","null","","","learningBlock2","","","","That was a bim.","null","","","","","",""
"html-keyboard-response","285","263390","0.0-7.0-2.12","FL","xekfnorue1","1920","1200","0","1","0","5a11a7d0f2e3460001edbe35","","null","","","learningBlock2","","","","<div style=""font-size:60px;""> </div>","null","FL","learning/Slide93.JPG","That was a bim.","","",""
"image-keyboard-response","286","263570","0.0-7.0-0.13","FL","xekfnorue1","1920","1200","0","1","0","5a11a7d0f2e3460001edbe35","","null","","","","","","","learning/Slide94.JPG","null","","","","","",""
"html-keyboard-response","287","264723","0.0-7.0-1.13","FL","xekfnorue1","1920","1200","0","1","0","5a11a7d0f2e3460001edbe35","","null","","","learningBlock2","","","","That was a tob.","null","","","","","",""
"html-keyboard-response","288","265724","0.0-7.0-2.13","FL","xekfnorue1","1920","1200","0","1","0","5a11a7d0f2e3460001edbe35","","null","","","learningBlock2","","","","<div style=""font-size:60px;""> </div>","null","FL","learning/Slide94.JPG","That was a tob.","","",""
"image-keyboard-response","289","265903","0.0-7.0-0.14","FL","xekfnorue1","1920","1200","0","1","0","5a11a7d0f2e3460001edbe35","","null","","","","","","","learning/Slide95.JPG","null","","","","","",""
"html-keyboard-response","290","267059","0.0-7.0-1.14","FL","xekfnorue1","1920","1200","0","1","0","5a11a7d0f2e3460001edbe35","","null","","","learningBlock2","","","","That was a wug.","null","","","","","",""
"html-keyboard-response","291","268062","0.0-7.0-2.14","FL","xekfnorue1","1920","1200","0","1","0","5a11a7d0f2e3460001edbe35","","null","","","learningBlock2","","","","<div style=""font-size:60px;""> </div>","null","FL","learning/Slide95.JPG","That was a wug.","","",""
"image-keyboard-response","292","268240","0.0-7.0-0.15","FL","xekfnorue1","1920","1200","0","1","0","5a11a7d0f2e3460001edbe35","","null","","","","","","","learning/Slide96.JPG","null","","","","","",""
"html-keyboard-response","293","269397","0.0-7.0-1.15","FL","xekfnorue1","1920","1200","0","1","0","5a11a7d0f2e3460001edbe35","","null","","","learningBlock2","","","","That was a tob.","null","","","","","",""
"html-keyboard-response","294","270401","0.0-7.0-2.15","FL","xekfnorue1","1920","1200","0","1","0","5a11a7d0f2e3460001edbe35","","null","","","learningBlock2","","","","<div style=""font-size:60px;""> </div>","null","FL","learning/Slide96.JPG","That was a tob.","","",""
"image-keyboard-response","295","270579","0.0-7.0-0.16","FL","xekfnorue1","1920","1200","0","1","0","5a11a7d0f2e3460001edbe35","","null","","","","","","","learning/Slide97.JPG","null","","","","","",""
"html-keyboard-response","296","271734","0.0-7.0-1.16","FL","xekfnorue1","1920","1200","0","1","0","5a11a7d0f2e3460001edbe35","","null","","","learningBlock2","","","","That was a dep.","null","","","","","",""
"html-keyboard-response","297","272736","0.0-7.0-2.16","FL","xekfnorue1","1920","1200","0","1","0","5a11a7d0f2e3460001edbe35","","null","","","learningBlock2","","","","<div style=""font-size:60px;""> </div>","null","FL","learning/Slide97.JPG","That was a dep.","","",""
"image-keyboard-response","298","272912","0.0-7.0-0.17","FL","xekfnorue1","1920","1200","0","1","0","5a11a7d0f2e3460001edbe35","","null","","","","","","","learning/Slide98.JPG","null","","","","","",""
"html-keyboard-response","299","274068","0.0-7.0-1.17","FL","xekfnorue1","1920","1200","0","1","0","5a11a7d0f2e3460001edbe35","","null","","","learningBlock2","","","","That was a bim.","null","","","","","",""
"html-keyboard-response","300","275072","0.0-7.0-2.17","FL","xekfnorue1","1920","1200","0","1","0","5a11a7d0f2e3460001edbe35","","null","","","learningBlock2","","","","<div style=""font-size:60px;""> </div>","null","FL","learning/Slide98.JPG","That was a bim.","","",""
"image-keyboard-response","301","275251","0.0-7.0-0.18","FL","xekfnorue1","1920","1200","0","1","0","5a11a7d0f2e3460001edbe35","","null","","","","","","","learning/Slide99.JPG","null","","","","","",""
"html-keyboard-response","302","276404","0.0-7.0-1.18","FL","xekfnorue1","1920","1200","0","1","0","5a11a7d0f2e3460001edbe35","","null","","","learningBlock2","","","","That was a dep.","null","","","","","",""
"html-keyboard-response","303","277405","0.0-7.0-2.18","FL","xekfnorue1","1920","1200","0","1","0","5a11a7d0f2e3460001edbe35","","null","","","learningBlock2","","","","<div style=""font-size:60px;""> </div>","null","FL","learning/Slide99.JPG","That was a dep.","","",""
"image-keyboard-response","304","277586","0.0-7.0-0.19","FL","xekfnorue1","1920","1200","0","1","0","5a11a7d0f2e3460001edbe35","","null","","","","","","","learning/Slide100.JPG","null","","","","","",""
"html-keyboard-response","305","278736","0.0-7.0-1.19","FL","xekfnorue1","1920","1200","0","1","0","5a11a7d0f2e3460001edbe35","","null","","","learningBlock2","","","","That was a bim.","null","","","","","",""
"html-keyboard-response","306","279737","0.0-7.0-2.19","FL","xekfnorue1","1920","1200","0","1","0","5a11a7d0f2e3460001edbe35","","null","","","learningBlock2","","","","<div style=""font-size:60px;""> </div>","null","FL","learning/Slide100.JPG","That was a bim.","","",""
"image-keyboard-response","307","279913","0.0-7.0-0.20","FL","xekfnorue1","1920","1200","0","1","0","5a11a7d0f2e3460001edbe35","","null","","","","","","","learning/Slide101.JPG","null","","","","","",""
"html-keyboard-response","308","281068","0.0-7.0-1.20","FL","xekfnorue1","1920","1200","0","1","0","5a11a7d0f2e3460001edbe35","","null","","","learningBlock2","","","","That was a tob.","null","","","","","",""
"html-keyboard-response","309","282070","0.0-7.0-2.20","FL","xekfnorue1","1920","1200","0","1","0","5a11a7d0f2e3460001edbe35","","null","","","learningBlock2","","","","<div style=""font-size:60px;""> </div>","null","FL","learning/Slide101.JPG","That was a tob.","","",""
"image-keyboard-response","310","282246","0.0-7.0-0.21","FL","xekfnorue1","1920","1200","0","1","0","5a11a7d0f2e3460001edbe35","","null","","","","","","","learning/Slide102.JPG","null","","","","","",""
"html-keyboard-response","311","283399","0.0-7.0-1.21","FL","xekfnorue1","1920","1200","0","1","0","5a11a7d0f2e3460001edbe35","","null","","","learningBlock2","","","","That was a bim.","null","","","","","",""
"html-keyboard-response","312","284401","0.0-7.0-2.21","FL","xekfnorue1","1920","1200","0","1","0","5a11a7d0f2e3460001edbe35","","null","","","learningBlock2","","","","<div style=""font-size:60px;""> </div>","null","FL","learning/Slide102.JPG","That was a bim.","","",""
"image-keyboard-response","313","284577","0.0-7.0-0.22","FL","xekfnorue1","1920","1200","0","1","0","5a11a7d0f2e3460001edbe35","","null","","","","","","","learning/Slide103.JPG","null","","","","","",""
"html-keyboard-response","314","285729","0.0-7.0-1.22","FL","xekfnorue1","1920","1200","0","1","0","5a11a7d0f2e3460001edbe35","","null","","","learningBlock2","","","","That was a dep.","null","","","","","",""
"html-keyboard-response","315","286734","0.0-7.0-2.22","FL","xekfnorue1","1920","1200","0","1","0","5a11a7d0f2e3460001edbe35","","null","","","learningBlock2","","","","<div style=""font-size:60px;""> </div>","null","FL","learning/Slide103.JPG","That was a dep.","","",""
"image-keyboard-response","316","286911","0.0-7.0-0.23","FL","xekfnorue1","1920","1200","0","1","0","5a11a7d0f2e3460001edbe35","","null","","","","","","","learning/Slide104.JPG","null","","","","","",""
"html-keyboard-response","317","288063","0.0-7.0-1.23","FL","xekfnorue1","1920","1200","0","1","0","5a11a7d0f2e3460001edbe35","","null","","","learningBlock2","","","","That was a tob.","null","","","","","",""
"html-keyboard-response","318","289064","0.0-7.0-2.23","FL","xekfnorue1","1920","1200","0","1","0","5a11a7d0f2e3460001edbe35","","null","","","learningBlock2","","","","<div style=""font-size:60px;""> </div>","null","FL","learning/Slide104.JPG","That was a tob.","","",""
"image-keyboard-response","319","289242","0.0-7.0-0.24","FL","xekfnorue1","1920","1200","0","1","0","5a11a7d0f2e3460001edbe35","","null","","","","","","","learning/Slide105.JPG","null","","","","","",""
"html-keyboard-response","320","290397","0.0-7.0-1.24","FL","xekfnorue1","1920","1200","0","1","0","5a11a7d0f2e3460001edbe35","","null","","","learningBlock2","","","","That was a dep.","null","","","","","",""
"html-keyboard-response","321","291399","0.0-7.0-2.24","FL","xekfnorue1","1920","1200","0","1","0","5a11a7d0f2e3460001edbe35","","null","","","learningBlock2","","","","<div style=""font-size:60px;""> </div>","null","FL","learning/Slide105.JPG","That was a dep.","","",""
"image-keyboard-response","322","291575","0.0-7.0-0.25","FL","xekfnorue1","1920","1200","0","1","0","5a11a7d0f2e3460001edbe35","","null","","","","","","","learning/Slide106.JPG","null","","","","","",""
"html-keyboard-response","323","292727","0.0-7.0-1.25","FL","xekfnorue1","1920","1200","0","1","0","5a11a7d0f2e3460001edbe35","","null","","","learningBlock2","","","","That was a wug.","null","","","","","",""
"html-keyboard-response","324","293728","0.0-7.0-2.25","FL","xekfnorue1","1920","1200","0","1","0","5a11a7d0f2e3460001edbe35","","null","","","learningBlock2","","","","<div style=""font-size:60px;""> </div>","null","FL","learning/Slide106.JPG","That was a wug.","","",""
"image-keyboard-response","325","293908","0.0-7.0-0.26","FL","xekfnorue1","1920","1200","0","1","0","5a11a7d0f2e3460001edbe35","","null","","","","","","","learning/Slide107.JPG","null","","","","","",""
"html-keyboard-response","326","295061","0.0-7.0-1.26","FL","xekfnorue1","1920","1200","0","1","0","5a11a7d0f2e3460001edbe35","","null","","","learningBlock2","","","","That was a bim.","null","","","","","",""
"html-keyboard-response","327","296062","0.0-7.0-2.26","FL","xekfnorue1","1920","1200","0","1","0","5a11a7d0f2e3460001edbe35","","null","","","learningBlock2","","","","<div style=""font-size:60px;""> </div>","null","FL","learning/Slide107.JPG","That was a bim.","","",""
"image-keyboard-response","328","296239","0.0-7.0-0.27","FL","xekfnorue1","1920","1200","0","1","0","5a11a7d0f2e3460001edbe35","","null","","","","","","","learning/Slide108.JPG","null","","","","","",""
"html-keyboard-response","329","297392","0.0-7.0-1.27","FL","xekfnorue1","1920","1200","0","1","0","5a11a7d0f2e3460001edbe35","","null","","","learningBlock2","","","","That was a dep.","null","","","","","",""
"html-keyboard-response","330","298393","0.0-7.0-2.27","FL","xekfnorue1","1920","1200","0","1","0","5a11a7d0f2e3460001edbe35","","null","","","learningBlock2","","","","<div style=""font-size:60px;""> </div>","null","FL","learning/Slide108.JPG","That was a dep.","","",""
"image-keyboard-response","331","298573","0.0-7.0-0.28","FL","xekfnorue1","1920","1200","0","1","0","5a11a7d0f2e3460001edbe35","","null","","","","","","","learning/Slide109.JPG","null","","","","","",""
"html-keyboard-response","332","299727","0.0-7.0-1.28","FL","xekfnorue1","1920","1200","0","1","0","5a11a7d0f2e3460001edbe35","","null","","","learningBlock2","","","","That was a wug.","null","","","","","",""
"html-keyboard-response","333","300729","0.0-7.0-2.28","FL","xekfnorue1","1920","1200","0","1","0","5a11a7d0f2e3460001edbe35","","null","","","learningBlock2","","","","<div style=""font-size:60px;""> </div>","null","FL","learning/Slide109.JPG","That was a wug.","","",""
"image-keyboard-response","334","300909","0.0-7.0-0.29","FL","xekfnorue1","1920","1200","0","1","0","5a11a7d0f2e3460001edbe35","","null","","","","","","","learning/Slide110.JPG","null","","","","","",""
"html-keyboard-response","335","302062","0.0-7.0-1.29","FL","xekfnorue1","1920","1200","0","1","0","5a11a7d0f2e3460001edbe35","","null","","","learningBlock2","","","","That was a bim.","null","","","","","",""
"html-keyboard-response","336","303062","0.0-7.0-2.29","FL","xekfnorue1","1920","1200","0","1","0","5a11a7d0f2e3460001edbe35","","null","","","learningBlock2","","","","<div style=""font-size:60px;""> </div>","null","FL","learning/Slide110.JPG","That was a bim.","","",""
"image-keyboard-response","337","303239","0.0-7.0-0.30","FL","xekfnorue1","1920","1200","0","1","0","5a11a7d0f2e3460001edbe35","","null","","","","","","","learning/Slide111.JPG","null","","","","","",""
"html-keyboard-response","338","304391","0.0-7.0-1.30","FL","xekfnorue1","1920","1200","0","1","0","5a11a7d0f2e3460001edbe35","","null","","","learningBlock2","","","","That was a tob.","null","","","","","",""
"html-keyboard-response","339","305392","0.0-7.0-2.30","FL","xekfnorue1","1920","1200","0","1","0","5a11a7d0f2e3460001edbe35","","null","","","learningBlock2","","","","<div style=""font-size:60px;""> </div>","null","FL","learning/Slide111.JPG","That was a tob.","","",""
"image-keyboard-response","340","305569","0.0-7.0-0.31","FL","xekfnorue1","1920","1200","0","1","0","5a11a7d0f2e3460001edbe35","","null","","","","","","","learning/Slide112.JPG","null","","","","","",""
"html-keyboard-response","341","306721","0.0-7.0-1.31","FL","xekfnorue1","1920","1200","0","1","0","5a11a7d0f2e3460001edbe35","","null","","","learningBlock2","","","","That was a wug.","null","","","","","",""
"html-keyboard-response","342","307725","0.0-7.0-2.31","FL","xekfnorue1","1920","1200","0","1","0","5a11a7d0f2e3460001edbe35","","null","","","learningBlock2","","","","<div style=""font-size:60px;""> </div>","null","FL","learning/Slide112.JPG","That was a wug.","","",""
"image-keyboard-response","343","307900","0.0-7.0-0.32","FL","xekfnorue1","1920","1200","0","1","0","5a11a7d0f2e3460001edbe35","","null","","","","","","","learning/Slide113.JPG","null","","","","","",""
"html-keyboard-response","344","309056","0.0-7.0-1.32","FL","xekfnorue1","1920","1200","0","1","0","5a11a7d0f2e3460001edbe35","","null","","","learningBlock2","","","","That was a tob.","null","","","","","",""
"html-keyboard-response","345","310061","0.0-7.0-2.32","FL","xekfnorue1","1920","1200","0","1","0","5a11a7d0f2e3460001edbe35","","null","","","learningBlock2","","","","<div style=""font-size:60px;""> </div>","null","FL","learning/Slide113.JPG","That was a tob.","","",""
"image-keyboard-response","346","310241","0.0-7.0-0.33","FL","xekfnorue1","1920","1200","0","1","0","5a11a7d0f2e3460001edbe35","","null","","","","","","","learning/Slide114.JPG","null","","","","","",""
"html-keyboard-response","347","311395","0.0-7.0-1.33","FL","xekfnorue1","1920","1200","0","1","0","5a11a7d0f2e3460001edbe35","","null","","","learningBlock2","","","","That was a wug.","null","","","","","",""
"html-keyboard-response","348","312400","0.0-7.0-2.33","FL","xekfnorue1","1920","1200","0","1","0","5a11a7d0f2e3460001edbe35","","null","","","learningBlock2","","","","<div style=""font-size:60px;""> </div>","null","FL","learning/Slide114.JPG","That was a wug.","","",""
"image-keyboard-response","349","312576","0.0-7.0-0.34","FL","xekfnorue1","1920","1200","0","1","0","5a11a7d0f2e3460001edbe35","","null","","","","","","","learning/Slide115.JPG","null","","","","","",""
"html-keyboard-response","350","313732","0.0-7.0-1.34","FL","xekfnorue1","1920","1200","0","1","0","5a11a7d0f2e3460001edbe35","","null","","","learningBlock2","","","","That was a bim.","null","","","","","",""
"html-keyboard-response","351","314735","0.0-7.0-2.34","FL","xekfnorue1","1920","1200","0","1","0","5a11a7d0f2e3460001edbe35","","null","","","learningBlock2","","","","<div style=""font-size:60px;""> </div>","null","FL","learning/Slide115.JPG","That was a bim.","","",""
"image-keyboard-response","352","314912","0.0-7.0-0.35","FL","xekfnorue1","1920","1200","0","1","0","5a11a7d0f2e3460001edbe35","","null","","","","","","","learning/Slide116.JPG","null","","","","","",""
"html-keyboard-response","353","316068","0.0-7.0-1.35","FL","xekfnorue1","1920","1200","0","1","0","5a11a7d0f2e3460001edbe35","","null","","","learningBlock2","","","","That was a dep.","null","","","","","",""
"html-keyboard-response","354","317069","0.0-7.0-2.35","FL","xekfnorue1","1920","1200","0","1","0","5a11a7d0f2e3460001edbe35","","null","","","learningBlock2","","","","<div style=""font-size:60px;""> </div>","null","FL","learning/Slide116.JPG","That was a dep.","","",""
"image-keyboard-response","355","317247","0.0-7.0-0.36","FL","xekfnorue1","1920","1200","0","1","0","5a11a7d0f2e3460001edbe35","","null","","","","","","","learning/Slide117.JPG","null","","","","","",""
"html-keyboard-response","356","318398","0.0-7.0-1.36","FL","xekfnorue1","1920","1200","0","1","0","5a11a7d0f2e3460001edbe35","","null","","","learningBlock2","","","","That was a tob.","null","","","","","",""
"html-keyboard-response","357","319403","0.0-7.0-2.36","FL","xekfnorue1","1920","1200","0","1","0","5a11a7d0f2e3460001edbe35","","null","","","learningBlock2","","","","<div style=""font-size:60px;""> </div>","null","FL","learning/Slide117.JPG","That was a tob.","","",""
"image-keyboard-response","358","319580","0.0-7.0-0.37","FL","xekfnorue1","1920","1200","0","1","0","5a11a7d0f2e3460001edbe35","","null","","","","","","","learning/Slide118.JPG","null","","","","","",""
"html-keyboard-response","359","320735","0.0-7.0-1.37","FL","xekfnorue1","1920","1200","0","1","0","5a11a7d0f2e3460001edbe35","","null","","","learningBlock2","","","","That was a dep.","null","","","","","",""
"html-keyboard-response","360","321735","0.0-7.0-2.37","FL","xekfnorue1","1920","1200","0","1","0","5a11a7d0f2e3460001edbe35","","null","","","learningBlock2","","","","<div style=""font-size:60px;""> </div>","null","FL","learning/Slide118.JPG","That was a dep.","","",""
"image-keyboard-response","361","321913","0.0-7.0-0.38","FL","xekfnorue1","1920","1200","0","1","0","5a11a7d0f2e3460001edbe35","","null","","","","","","","learning/Slide119.JPG","null","","","","","",""
"html-keyboard-response","362","323065","0.0-7.0-1.38","FL","xekfnorue1","1920","1200","0","1","0","5a11a7d0f2e3460001edbe35","","null","","","learningBlock2","","","","That was a wug.","null","","","","","",""
"html-keyboard-response","363","324066","0.0-7.0-2.38","FL","xekfnorue1","1920","1200","0","1","0","5a11a7d0f2e3460001edbe35","","null","","","learningBlock2","","","","<div style=""font-size:60px;""> </div>","null","FL","learning/Slide119.JPG","That was a wug.","","",""
"image-keyboard-response","364","324244","0.0-7.0-0.39","FL","xekfnorue1","1920","1200","0","1","0","5a11a7d0f2e3460001edbe35","","null","","","","","","","learning/Slide120.JPG","null","","","","","",""
"html-keyboard-response","365","325399","0.0-7.0-1.39","FL","xekfnorue1","1920","1200","0","1","0","5a11a7d0f2e3460001edbe35","","null","","","learningBlock2","","","","That was a dep.","null","","","","","",""
"html-keyboard-response","366","326401","0.0-7.0-2.39","FL","xekfnorue1","1920","1200","0","1","0","5a11a7d0f2e3460001edbe35","","null","","","learningBlock2","","","","<div style=""font-size:60px;""> </div>","null","FL","learning/Slide120.JPG","That was a dep.","","",""
"image-keyboard-response","367","326577","0.0-7.0-0.40","FL","xekfnorue1","1920","1200","0","1","0","5a11a7d0f2e3460001edbe35","","null","","","","","","","learning/Slide121.JPG","null","","","","","",""
"html-keyboard-response","368","327733","0.0-7.0-1.40","FL","xekfnorue1","1920","1200","0","1","0","5a11a7d0f2e3460001edbe35","","null","","","learningBlock2","","","","That was a bim.","null","","","","","",""
"html-keyboard-response","369","328734","0.0-7.0-2.40","FL","xekfnorue1","1920","1200","0","1","0","5a11a7d0f2e3460001edbe35","","null","","","learningBlock2","","","","<div style=""font-size:60px;""> </div>","null","FL","learning/Slide121.JPG","That was a bim.","","",""
"image-keyboard-response","370","328911","0.0-7.0-0.41","FL","xekfnorue1","1920","1200","0","1","0","5a11a7d0f2e3460001edbe35","","null","","","","","","","learning/Slide122.JPG","null","","","","","",""
"html-keyboard-response","371","330067","0.0-7.0-1.41","FL","xekfnorue1","1920","1200","0","1","0","5a11a7d0f2e3460001edbe35","","null","","","learningBlock2","","","","That was a wug.","null","","","","","",""
"html-keyboard-response","372","331071","0.0-7.0-2.41","FL","xekfnorue1","1920","1200","0","1","0","5a11a7d0f2e3460001edbe35","","null","","","learningBlock2","","","","<div style=""font-size:60px;""> </div>","null","FL","learning/Slide122.JPG","That was a wug.","","",""
"image-keyboard-response","373","331247","0.0-7.0-0.42","FL","xekfnorue1","1920","1200","0","1","0","5a11a7d0f2e3460001edbe35","","null","","","","","","","learning/Slide123.JPG","null","","","","","",""
"html-keyboard-response","374","332402","0.0-7.0-1.42","FL","xekfnorue1","1920","1200","0","1","0","5a11a7d0f2e3460001edbe35","","null","","","learningBlock2","","","","That was a bim.","null","","","","","",""
"html-keyboard-response","375","333407","0.0-7.0-2.42","FL","xekfnorue1","1920","1200","0","1","0","5a11a7d0f2e3460001edbe35","","null","","","learningBlock2","","","","<div style=""font-size:60px;""> </div>","null","FL","learning/Slide123.JPG","That was a bim.","","",""
"image-keyboard-response","376","333583","0.0-7.0-0.43","FL","xekfnorue1","1920","1200","0","1","0","5a11a7d0f2e3460001edbe35","","null","","","","","","","learning/Slide124.JPG","null","","","","","",""
"html-keyboard-response","377","334736","0.0-7.0-1.43","FL","xekfnorue1","1920","1200","0","1","0","5a11a7d0f2e3460001edbe35","","null","","","learningBlock2","","","","That was a tob.","null","","","","","",""
"html-keyboard-response","378","335741","0.0-7.0-2.43","FL","xekfnorue1","1920","1200","0","1","0","5a11a7d0f2e3460001edbe35","","null","","","learningBlock2","","","","<div style=""font-size:60px;""> </div>","null","FL","learning/Slide124.JPG","That was a tob.","","",""
"image-keyboard-response","379","335918","0.0-7.0-0.44","FL","xekfnorue1","1920","1200","0","1","0","5a11a7d0f2e3460001edbe35","","null","","","","","","","learning/Slide125.JPG","null","","","","","",""
"html-keyboard-response","380","337073","0.0-7.0-1.44","FL","xekfnorue1","1920","1200","0","1","0","5a11a7d0f2e3460001edbe35","","null","","","learningBlock2","","","","That was a bim.","null","","","","","",""
"html-keyboard-response","381","338077","0.0-7.0-2.44","FL","xekfnorue1","1920","1200","0","1","0","5a11a7d0f2e3460001edbe35","","null","","","learningBlock2","","","","<div style=""font-size:60px;""> </div>","null","FL","learning/Slide125.JPG","That was a bim.","","",""
"image-keyboard-response","382","338253","0.0-7.0-0.45","FL","xekfnorue1","1920","1200","0","1","0","5a11a7d0f2e3460001edbe35","","null","","","","","","","learning/Slide126.JPG","null","","","","","",""
"html-keyboard-response","383","339409","0.0-7.0-1.45","FL","xekfnorue1","1920","1200","0","1","0","5a11a7d0f2e3460001edbe35","","null","","","learningBlock2","","","","That was a tob.","null","","","","","",""
"html-keyboard-response","384","340411","0.0-7.0-2.45","FL","xekfnorue1","1920","1200","0","1","0","5a11a7d0f2e3460001edbe35","","null","","","learningBlock2","","","","<div style=""font-size:60px;""> </div>","null","FL","learning/Slide126.JPG","That was a tob.","","",""
"image-keyboard-response","385","340589","0.0-7.0-0.46","FL","xekfnorue1","1920","1200","0","1","0","5a11a7d0f2e3460001edbe35","","null","","","","","","","learning/Slide127.JPG","null","","","","","",""
"html-keyboard-response","386","341741","0.0-7.0-1.46","FL","xekfnorue1","1920","1200","0","1","0","5a11a7d0f2e3460001edbe35","","null","","","learningBlock2","","","","That was a dep.","null","","","","","",""
"html-keyboard-response","387","342746","0.0-7.0-2.46","FL","xekfnorue1","1920","1200","0","1","0","5a11a7d0f2e3460001edbe35","","null","","","learningBlock2","","","","<div style=""font-size:60px;""> </div>","null","FL","learning/Slide127.JPG","That was a dep.","","",""
"image-keyboard-response","388","342924","0.0-7.0-0.47","FL","xekfnorue1","1920","1200","0","1","0","5a11a7d0f2e3460001edbe35","","null","","","","","","","learning/Slide128.JPG","null","","","","","",""
"html-keyboard-response","389","344076","0.0-7.0-1.47","FL","xekfnorue1","1920","1200","0","1","0","5a11a7d0f2e3460001edbe35","","null","","","learningBlock2","","","","That was a wug.","null","","","","","",""
"html-keyboard-response","390","345077","0.0-7.0-2.47","FL","xekfnorue1","1920","1200","0","1","0","5a11a7d0f2e3460001edbe35","","null","","","learningBlock2","","","","<div style=""font-size:60px;""> </div>","null","FL","learning/Slide128.JPG","That was a wug.","","",""
"image-keyboard-response","391","345258","0.0-7.0-0.48","FL","xekfnorue1","1920","1200","0","1","0","5a11a7d0f2e3460001edbe35","","null","","","","","","","learning/Slide129.JPG","null","","","","","",""
"html-keyboard-response","392","346418","0.0-7.0-1.48","FL","xekfnorue1","1920","1200","0","1","0","5a11a7d0f2e3460001edbe35","","null","","","learningBlock2","","","","That was a tob.","null","","","","","",""
"html-keyboard-response","393","347420","0.0-7.0-2.48","FL","xekfnorue1","1920","1200","0","1","0","5a11a7d0f2e3460001edbe35","","null","","","learningBlock2","","","","<div style=""font-size:60px;""> </div>","null","FL","learning/Slide129.JPG","That was a tob.","","",""
"image-keyboard-response","394","347595","0.0-7.0-0.49","FL","xekfnorue1","1920","1200","0","1","0","5a11a7d0f2e3460001edbe35","","null","","","","","","","learning/Slide130.JPG","null","","","","","",""
"html-keyboard-response","395","348751","0.0-7.0-1.49","FL","xekfnorue1","1920","1200","0","1","0","5a11a7d0f2e3460001edbe35","","null","","","learningBlock2","","","","That was a wug.","null","","","","","",""
"html-keyboard-response","396","349752","0.0-7.0-2.49","FL","xekfnorue1","1920","1200","0","1","0","5a11a7d0f2e3460001edbe35","","null","","","learningBlock2","","","","<div style=""font-size:60px;""> </div>","null","FL","learning/Slide130.JPG","That was a wug.","","",""
"image-keyboard-response","397","349929","0.0-7.0-0.50","FL","xekfnorue1","1920","1200","0","1","0","5a11a7d0f2e3460001edbe35","","null","","","","","","","learning/Slide131.JPG","null","","","","","",""
"html-keyboard-response","398","351082","0.0-7.0-1.50","FL","xekfnorue1","1920","1200","0","1","0","5a11a7d0f2e3460001edbe35","","null","","","learningBlock2","","","","That was a bim.","null","","","","","",""
"html-keyboard-response","399","352084","0.0-7.0-2.50","FL","xekfnorue1","1920","1200","0","1","0","5a11a7d0f2e3460001edbe35","","null","","","learningBlock2","","","","<div style=""font-size:60px;""> </div>","null","FL","learning/Slide131.JPG","That was a bim.","","",""
"image-keyboard-response","400","352265","0.0-7.0-0.51","FL","xekfnorue1","1920","1200","0","1","0","5a11a7d0f2e3460001edbe35","","null","","","","","","","learning/Slide132.JPG","null","","","","","",""
"html-keyboard-response","401","353419","0.0-7.0-1.51","FL","xekfnorue1","1920","1200","0","1","0","5a11a7d0f2e3460001edbe35","","null","","","learningBlock2","","","","That was a dep.","null","","","","","",""
"html-keyboard-response","402","354422","0.0-7.0-2.51","FL","xekfnorue1","1920","1200","0","1","0","5a11a7d0f2e3460001edbe35","","null","","","learningBlock2","","","","<div style=""font-size:60px;""> </div>","null","FL","learning/Slide132.JPG","That was a dep.","","",""
"image-keyboard-response","403","354601","0.0-7.0-0.52","FL","xekfnorue1","1920","1200","0","1","0","5a11a7d0f2e3460001edbe35","","null","","","","","","","learning/Slide133.JPG","null","","","","","",""
"html-keyboard-response","404","355754","0.0-7.0-1.52","FL","xekfnorue1","1920","1200","0","1","0","5a11a7d0f2e3460001edbe35","","null","","","learningBlock2","","","","That was a tob.","null","","","","","",""
"html-keyboard-response","405","356755","0.0-7.0-2.52","FL","xekfnorue1","1920","1200","0","1","0","5a11a7d0f2e3460001edbe35","","null","","","learningBlock2","","","","<div style=""font-size:60px;""> </div>","null","FL","learning/Slide133.JPG","That was a tob.","","",""
"image-keyboard-response","406","356933","0.0-7.0-0.53","FL","xekfnorue1","1920","1200","0","1","0","5a11a7d0f2e3460001edbe35","","null","","","","","","","learning/Slide134.JPG","null","","","","","",""
"html-keyboard-response","407","358089","0.0-7.0-1.53","FL","xekfnorue1","1920","1200","0","1","0","5a11a7d0f2e3460001edbe35","","null","","","learningBlock2","","","","That was a dep.","null","","","","","",""
"html-keyboard-response","408","359093","0.0-7.0-2.53","FL","xekfnorue1","1920","1200","0","1","0","5a11a7d0f2e3460001edbe35","","null","","","learningBlock2","","","","<div style=""font-size:60px;""> </div>","null","FL","learning/Slide134.JPG","That was a dep.","","",""
"image-keyboard-response","409","359272","0.0-7.0-0.54","FL","xekfnorue1","1920","1200","0","1","0","5a11a7d0f2e3460001edbe35","","null","","","","","","","learning/Slide135.JPG","null","","","","","",""
"html-keyboard-response","410","360428","0.0-7.0-1.54","FL","xekfnorue1","1920","1200","0","1","0","5a11a7d0f2e3460001edbe35","","null","","","learningBlock2","","","","That was a tob.","null","","","","","",""
"html-keyboard-response","411","361432","0.0-7.0-2.54","FL","xekfnorue1","1920","1200","0","1","0","5a11a7d0f2e3460001edbe35","","null","","","learningBlock2","","","","<div style=""font-size:60px;""> </div>","null","FL","learning/Slide135.JPG","That was a tob.","","",""
"image-keyboard-response","412","361609","0.0-7.0-0.55","FL","xekfnorue1","1920","1200","0","1","0","5a11a7d0f2e3460001edbe35","","null","","","","","","","learning/Slide136.JPG","null","","","","","",""
"html-keyboard-response","413","362766","0.0-7.0-1.55","FL","xekfnorue1","1920","1200","0","1","0","5a11a7d0f2e3460001edbe35","","null","","","learningBlock2","","","","That was a wug.","null","","","","","",""
"html-keyboard-response","414","363769","0.0-7.0-2.55","FL","xekfnorue1","1920","1200","0","1","0","5a11a7d0f2e3460001edbe35","","null","","","learningBlock2","","","","<div style=""font-size:60px;""> </div>","null","FL","learning/Slide136.JPG","That was a wug.","","",""
"image-keyboard-response","415","363946","0.0-7.0-0.56","FL","xekfnorue1","1920","1200","0","1","0","5a11a7d0f2e3460001edbe35","","null","","","","","","","learning/Slide137.JPG","null","","","","","",""
"html-keyboard-response","416","365100","0.0-7.0-1.56","FL","xekfnorue1","1920","1200","0","1","0","5a11a7d0f2e3460001edbe35","","null","","","learningBlock2","","","","That was a tob.","null","","","","","",""
"html-keyboard-response","417","366102","0.0-7.0-2.56","FL","xekfnorue1","1920","1200","0","1","0","5a11a7d0f2e3460001edbe35","","null","","","learningBlock2","","","","<div style=""font-size:60px;""> </div>","null","FL","learning/Slide137.JPG","That was a tob.","","",""
"image-keyboard-response","418","366282","0.0-7.0-0.57","FL","xekfnorue1","1920","1200","0","1","0","5a11a7d0f2e3460001edbe35","","null","","","","","","","learning/Slide138.JPG","null","","","","","",""
"html-keyboard-response","419","367438","0.0-7.0-1.57","FL","xekfnorue1","1920","1200","0","1","0","5a11a7d0f2e3460001edbe35","","null","","","learningBlock2","","","","That was a bim.","null","","","","","",""
"html-keyboard-response","420","368441","0.0-7.0-2.57","FL","xekfnorue1","1920","1200","0","1","0","5a11a7d0f2e3460001edbe35","","null","","","learningBlock2","","","","<div style=""font-size:60px;""> </div>","null","FL","learning/Slide138.JPG","That was a bim.","","",""
"image-keyboard-response","421","368618","0.0-7.0-0.58","FL","xekfnorue1","1920","1200","0","1","0","5a11a7d0f2e3460001edbe35","","null","","","","","","","learning/Slide139.JPG","null","","","","","",""
"html-keyboard-response","422","369773","0.0-7.0-1.58","FL","xekfnorue1","1920","1200","0","1","0","5a11a7d0f2e3460001edbe35","","null","","","learningBlock2","","","","That was a wug.","null","","","","","",""
"html-keyboard-response","423","370775","0.0-7.0-2.58","FL","xekfnorue1","1920","1200","0","1","0","5a11a7d0f2e3460001edbe35","","null","","","learningBlock2","","","","<div style=""font-size:60px;""> </div>","null","FL","learning/Slide139.JPG","That was a wug.","","",""
"image-keyboard-response","424","370951","0.0-7.0-0.59","FL","xekfnorue1","1920","1200","0","1","0","5a11a7d0f2e3460001edbe35","","null","","","","","","","learning/Slide140.JPG","null","","","","","",""
"html-keyboard-response","425","372107","0.0-7.0-1.59","FL","xekfnorue1","1920","1200","0","1","0","5a11a7d0f2e3460001edbe35","","null","","","learningBlock2","","","","That was a dep.","null","","","","","",""
"html-keyboard-response","426","373108","0.0-7.0-2.59","FL","xekfnorue1","1920","1200","0","1","0","5a11a7d0f2e3460001edbe35","","null","","","learningBlock2","","","","<div style=""font-size:60px;""> </div>","null","FL","learning/Slide140.JPG","That was a dep.","","",""
"image-keyboard-response","427","373285","0.0-7.0-0.60","FL","xekfnorue1","1920","1200","0","1","0","5a11a7d0f2e3460001edbe35","","null","","","","","","","learning/Slide141.JPG","null","","","","","",""
"html-keyboard-response","428","374440","0.0-7.0-1.60","FL","xekfnorue1","1920","1200","0","1","0","5a11a7d0f2e3460001edbe35","","null","","","learningBlock2","","","","That was a tob.","null","","","","","",""
"html-keyboard-response","429","375442","0.0-7.0-2.60","FL","xekfnorue1","1920","1200","0","1","0","5a11a7d0f2e3460001edbe35","","null","","","learningBlock2","","","","<div style=""font-size:60px;""> </div>","null","FL","learning/Slide141.JPG","That was a tob.","","",""
"image-keyboard-response","430","375622","0.0-7.0-0.61","FL","xekfnorue1","1920","1200","0","1","0","5a11a7d0f2e3460001edbe35","","null","","","","","","","learning/Slide142.JPG","null","","","","","",""
"html-keyboard-response","431","376777","0.0-7.0-1.61","FL","xekfnorue1","1920","1200","0","1","0","5a11a7d0f2e3460001edbe35","","null","","","learningBlock2","","","","That was a wug.","null","","","","","",""
"html-keyboard-response","432","377781","0.0-7.0-2.61","FL","xekfnorue1","1920","1200","0","1","0","5a11a7d0f2e3460001edbe35","","null","","","learningBlock2","","","","<div style=""font-size:60px;""> </div>","null","FL","learning/Slide142.JPG","That was a wug.","","",""
"image-keyboard-response","433","377960","0.0-7.0-0.62","FL","xekfnorue1","1920","1200","0","1","0","5a11a7d0f2e3460001edbe35","","null","","","","","","","learning/Slide143.JPG","null","","","","","",""
"html-keyboard-response","434","379116","0.0-7.0-1.62","FL","xekfnorue1","1920","1200","0","1","0","5a11a7d0f2e3460001edbe35","","null","","","learningBlock2","","","","That was a bim.","null","","","","","",""
"html-keyboard-response","435","380117","0.0-7.0-2.62","FL","xekfnorue1","1920","1200","0","1","0","5a11a7d0f2e3460001edbe35","","null","","","learningBlock2","","","","<div style=""font-size:60px;""> </div>","null","FL","learning/Slide143.JPG","That was a bim.","","",""
