"trial_type","trial_index","time_elapsed","internal_node_id","condition","subject","screen_width","screen_height","attention","distraction","conscientious","prolificID","success","rt","url","view_history","test_part","final_height_px","final_width_px","scale_factor","stimulus","key_press","learningType","presentedImage","presentedLabel","button_pressed","response","responses"
"pavlovia","0","14","0.0-0.0","LF","sxbrz00bs5","1536","864","0","1","0","5ee7335388010f4c1b6bbdc2","","","","","","","","","","","","","","","",""
"fullscreen","1","7007","0.0-1.0","LF","sxbrz00bs5","1536","864","0","1","0","5ee7335388010f4c1b6bbdc2","true","","","","","","","","","","","","","","",""
"external-html","2","23539","0.0-2.0-0.0","LF","sxbrz00bs5","1536","864","0","1","0","5ee7335388010f4c1b6bbdc2","","16370","text/information_english.html","","","","","","","","","","","","",""
"external-html","3","42467","0.0-2.0-1.0","LF","sxbrz00bs5","1536","864","0","1","0","5ee7335388010f4c1b6bbdc2","","18841","text/consent_english.html","","","","","","","","","","","","",""
"instructions","4","59371","0.0-3.0","LF","sxbrz00bs5","1536","864","0","1","0","5ee7335388010f4c1b6bbdc2","","NA","","[{""page_index"":0,""viewing_time"":3291},{""page_index"":1,""viewing_time"":13610}]","instructions","","","","","","","","","","",""
"resize","5","135382","0.0-4.0","LF","sxbrz00bs5","1536","864","0","1","0","5ee7335388010f4c1b6bbdc2","","","","","","","380","2.4126984126984126","","","","","","","",""
"html-keyboard-response","6","136391","0.0-5.0-0.0","LF","sxbrz00bs5","1536","864","0","1","0","5ee7335388010f4c1b6bbdc2","","null","","","learningBlock1","","","","This is a tob:","null","","","","","",""
"image-keyboard-response","7","136731","0.0-5.0-1.0","LF","sxbrz00bs5","1536","864","0","1","0","5ee7335388010f4c1b6bbdc2","","null","","","","","","","learning/Slide1.JPG","null","","","","","",""
"html-keyboard-response","8","137741","0.0-5.0-2.0","LF","sxbrz00bs5","1536","864","0","1","0","5ee7335388010f4c1b6bbdc2","","null","","","learningBlock1","","","","<div style=""font-size:60px;""> </div>","null","LF","learning/Slide1.JPG","This is a tob:","","",""
"html-keyboard-response","9","138751","0.0-5.0-0.1","LF","sxbrz00bs5","1536","864","0","1","0","5ee7335388010f4c1b6bbdc2","","null","","","learningBlock1","","","","This is a wug:","null","","","","","",""
"image-keyboard-response","10","139091","0.0-5.0-1.1","LF","sxbrz00bs5","1536","864","0","1","0","5ee7335388010f4c1b6bbdc2","","null","","","","","","","learning/Slide2.JPG","null","","","","","",""
"html-keyboard-response","11","140102","0.0-5.0-2.1","LF","sxbrz00bs5","1536","864","0","1","0","5ee7335388010f4c1b6bbdc2","","null","","","learningBlock1","","","","<div style=""font-size:60px;""> </div>","null","LF","learning/Slide2.JPG","This is a wug:","","",""
"html-keyboard-response","12","141111","0.0-5.0-0.2","LF","sxbrz00bs5","1536","864","0","1","0","5ee7335388010f4c1b6bbdc2","","null","","","learningBlock1","","","","This is a bim:","null","","","","","",""
"image-keyboard-response","13","141451","0.0-5.0-1.2","LF","sxbrz00bs5","1536","864","0","1","0","5ee7335388010f4c1b6bbdc2","","null","","","","","","","learning/Slide3.JPG","null","","","","","",""
"html-keyboard-response","14","142461","0.0-5.0-2.2","LF","sxbrz00bs5","1536","864","0","1","0","5ee7335388010f4c1b6bbdc2","","null","","","learningBlock1","","","","<div style=""font-size:60px;""> </div>","null","LF","learning/Slide3.JPG","This is a bim:","","",""
"html-keyboard-response","15","143462","0.0-5.0-0.3","LF","sxbrz00bs5","1536","864","0","1","0","5ee7335388010f4c1b6bbdc2","","null","","","learningBlock1","","","","This is a dep:","null","","","","","",""
"image-keyboard-response","16","143802","0.0-5.0-1.3","LF","sxbrz00bs5","1536","864","0","1","0","5ee7335388010f4c1b6bbdc2","","null","","","","","","","learning/Slide4.JPG","null","","","","","",""
"html-keyboard-response","17","144812","0.0-5.0-2.3","LF","sxbrz00bs5","1536","864","0","1","0","5ee7335388010f4c1b6bbdc2","","null","","","learningBlock1","","","","<div style=""font-size:60px;""> </div>","null","LF","learning/Slide4.JPG","This is a dep:","","",""
"html-keyboard-response","18","145822","0.0-5.0-0.4","LF","sxbrz00bs5","1536","864","0","1","0","5ee7335388010f4c1b6bbdc2","","null","","","learningBlock1","","","","This is a wug:","null","","","","","",""
"image-keyboard-response","19","146162","0.0-5.0-1.4","LF","sxbrz00bs5","1536","864","0","1","0","5ee7335388010f4c1b6bbdc2","","null","","","","","","","learning/Slide5.JPG","null","","","","","",""
"html-keyboard-response","20","147172","0.0-5.0-2.4","LF","sxbrz00bs5","1536","864","0","1","0","5ee7335388010f4c1b6bbdc2","","null","","","learningBlock1","","","","<div style=""font-size:60px;""> </div>","null","LF","learning/Slide5.JPG","This is a wug:","","",""
"html-keyboard-response","21","148183","0.0-5.0-0.5","LF","sxbrz00bs5","1536","864","0","1","0","5ee7335388010f4c1b6bbdc2","","null","","","learningBlock1","","","","This is a dep:","null","","","","","",""
"image-keyboard-response","22","148522","0.0-5.0-1.5","LF","sxbrz00bs5","1536","864","0","1","0","5ee7335388010f4c1b6bbdc2","","null","","","","","","","learning/Slide6.JPG","null","","","","","",""
"html-keyboard-response","23","149532","0.0-5.0-2.5","LF","sxbrz00bs5","1536","864","0","1","0","5ee7335388010f4c1b6bbdc2","","null","","","learningBlock1","","","","<div style=""font-size:60px;""> </div>","null","LF","learning/Slide6.JPG","This is a dep:","","",""
"html-keyboard-response","24","150542","0.0-5.0-0.6","LF","sxbrz00bs5","1536","864","0","1","0","5ee7335388010f4c1b6bbdc2","","null","","","learningBlock1","","","","This is a wug:","null","","","","","",""
"image-keyboard-response","25","150872","0.0-5.0-1.6","LF","sxbrz00bs5","1536","864","0","1","0","5ee7335388010f4c1b6bbdc2","","null","","","","","","","learning/Slide7.JPG","null","","","","","",""
"html-keyboard-response","26","151882","0.0-5.0-2.6","LF","sxbrz00bs5","1536","864","0","1","0","5ee7335388010f4c1b6bbdc2","","null","","","learningBlock1","","","","<div style=""font-size:60px;""> </div>","null","LF","learning/Slide7.JPG","This is a wug:","","",""
"html-keyboard-response","27","152892","0.0-5.0-0.7","LF","sxbrz00bs5","1536","864","0","1","0","5ee7335388010f4c1b6bbdc2","","null","","","learningBlock1","","","","This is a bim:","null","","","","","",""
"image-keyboard-response","28","153232","0.0-5.0-1.7","LF","sxbrz00bs5","1536","864","0","1","0","5ee7335388010f4c1b6bbdc2","","null","","","","","","","learning/Slide8.JPG","null","","","","","",""
"html-keyboard-response","29","154242","0.0-5.0-2.7","LF","sxbrz00bs5","1536","864","0","1","0","5ee7335388010f4c1b6bbdc2","","null","","","learningBlock1","","","","<div style=""font-size:60px;""> </div>","null","LF","learning/Slide8.JPG","This is a bim:","","",""
"html-keyboard-response","30","155252","0.0-5.0-0.8","LF","sxbrz00bs5","1536","864","0","1","0","5ee7335388010f4c1b6bbdc2","","null","","","learningBlock1","","","","This is a wug:","null","","","","","",""
"image-keyboard-response","31","155592","0.0-5.0-1.8","LF","sxbrz00bs5","1536","864","0","1","0","5ee7335388010f4c1b6bbdc2","","null","","","","","","","learning/Slide9.JPG","null","","","","","",""
"html-keyboard-response","32","156602","0.0-5.0-2.8","LF","sxbrz00bs5","1536","864","0","1","0","5ee7335388010f4c1b6bbdc2","","null","","","learningBlock1","","","","<div style=""font-size:60px;""> </div>","null","LF","learning/Slide9.JPG","This is a wug:","","",""
"html-keyboard-response","33","157603","0.0-5.0-0.9","LF","sxbrz00bs5","1536","864","0","1","0","5ee7335388010f4c1b6bbdc2","","null","","","learningBlock1","","","","This is a dep:","null","","","","","",""
"image-keyboard-response","34","157943","0.0-5.0-1.9","LF","sxbrz00bs5","1536","864","0","1","0","5ee7335388010f4c1b6bbdc2","","null","","","","","","","learning/Slide10.JPG","null","","","","","",""
"html-keyboard-response","35","158953","0.0-5.0-2.9","LF","sxbrz00bs5","1536","864","0","1","0","5ee7335388010f4c1b6bbdc2","","null","","","learningBlock1","","","","<div style=""font-size:60px;""> </div>","null","LF","learning/Slide10.JPG","This is a dep:","","",""
"html-keyboard-response","36","159963","0.0-5.0-0.10","LF","sxbrz00bs5","1536","864","0","1","0","5ee7335388010f4c1b6bbdc2","","null","","","learningBlock1","","","","This is a tob:","null","","","","","",""
"image-keyboard-response","37","160303","0.0-5.0-1.10","LF","sxbrz00bs5","1536","864","0","1","0","5ee7335388010f4c1b6bbdc2","","null","","","","","","","learning/Slide11.JPG","null","","","","","",""
"html-keyboard-response","38","161313","0.0-5.0-2.10","LF","sxbrz00bs5","1536","864","0","1","0","5ee7335388010f4c1b6bbdc2","","null","","","learningBlock1","","","","<div style=""font-size:60px;""> </div>","null","LF","learning/Slide11.JPG","This is a tob:","","",""
"html-keyboard-response","39","162323","0.0-5.0-0.11","LF","sxbrz00bs5","1536","864","0","1","0","5ee7335388010f4c1b6bbdc2","","null","","","learningBlock1","","","","This is a dep:","null","","","","","",""
"image-keyboard-response","40","162653","0.0-5.0-1.11","LF","sxbrz00bs5","1536","864","0","1","0","5ee7335388010f4c1b6bbdc2","","null","","","","","","","learning/Slide12.JPG","null","","","","","",""
"html-keyboard-response","41","163663","0.0-5.0-2.11","LF","sxbrz00bs5","1536","864","0","1","0","5ee7335388010f4c1b6bbdc2","","null","","","learningBlock1","","","","<div style=""font-size:60px;""> </div>","null","LF","learning/Slide12.JPG","This is a dep:","","",""
"html-keyboard-response","42","164672","0.0-5.0-0.12","LF","sxbrz00bs5","1536","864","0","1","0","5ee7335388010f4c1b6bbdc2","","null","","","learningBlock1","","","","This is a bim:","null","","","","","",""
"image-keyboard-response","43","165003","0.0-5.0-1.12","LF","sxbrz00bs5","1536","864","0","1","0","5ee7335388010f4c1b6bbdc2","","null","","","","","","","learning/Slide13.JPG","null","","","","","",""
"html-keyboard-response","44","166013","0.0-5.0-2.12","LF","sxbrz00bs5","1536","864","0","1","0","5ee7335388010f4c1b6bbdc2","","null","","","learningBlock1","","","","<div style=""font-size:60px;""> </div>","null","LF","learning/Slide13.JPG","This is a bim:","","",""
"html-keyboard-response","45","167022","0.0-5.0-0.13","LF","sxbrz00bs5","1536","864","0","1","0","5ee7335388010f4c1b6bbdc2","","null","","","learningBlock1","","","","This is a wug:","null","","","","","",""
"image-keyboard-response","46","167363","0.0-5.0-1.13","LF","sxbrz00bs5","1536","864","0","1","0","5ee7335388010f4c1b6bbdc2","","null","","","","","","","learning/Slide14.JPG","null","","","","","",""
"html-keyboard-response","47","168372","0.0-5.0-2.13","LF","sxbrz00bs5","1536","864","0","1","0","5ee7335388010f4c1b6bbdc2","","null","","","learningBlock1","","","","<div style=""font-size:60px;""> </div>","null","LF","learning/Slide14.JPG","This is a wug:","","",""
"html-keyboard-response","48","169382","0.0-5.0-0.14","LF","sxbrz00bs5","1536","864","0","1","0","5ee7335388010f4c1b6bbdc2","","null","","","learningBlock1","","","","This is a tob:","null","","","","","",""
"image-keyboard-response","49","169713","0.0-5.0-1.14","LF","sxbrz00bs5","1536","864","0","1","0","5ee7335388010f4c1b6bbdc2","","null","","","","","","","learning/Slide15.JPG","null","","","","","",""
"html-keyboard-response","50","170723","0.0-5.0-2.14","LF","sxbrz00bs5","1536","864","0","1","0","5ee7335388010f4c1b6bbdc2","","null","","","learningBlock1","","","","<div style=""font-size:60px;""> </div>","null","LF","learning/Slide15.JPG","This is a tob:","","",""
"html-keyboard-response","51","171733","0.0-5.0-0.15","LF","sxbrz00bs5","1536","864","0","1","0","5ee7335388010f4c1b6bbdc2","","null","","","learningBlock1","","","","This is a dep:","null","","","","","",""
"image-keyboard-response","52","172073","0.0-5.0-1.15","LF","sxbrz00bs5","1536","864","0","1","0","5ee7335388010f4c1b6bbdc2","","null","","","","","","","learning/Slide16.JPG","null","","","","","",""
"html-keyboard-response","53","173074","0.0-5.0-2.15","LF","sxbrz00bs5","1536","864","0","1","0","5ee7335388010f4c1b6bbdc2","","null","","","learningBlock1","","","","<div style=""font-size:60px;""> </div>","null","LF","learning/Slide16.JPG","This is a dep:","","",""
"html-keyboard-response","54","174084","0.0-5.0-0.16","LF","sxbrz00bs5","1536","864","0","1","0","5ee7335388010f4c1b6bbdc2","","null","","","learningBlock1","","","","This is a bim:","null","","","","","",""
"image-keyboard-response","55","174424","0.0-5.0-1.16","LF","sxbrz00bs5","1536","864","0","1","0","5ee7335388010f4c1b6bbdc2","","null","","","","","","","learning/Slide17.JPG","null","","","","","",""
"html-keyboard-response","56","175434","0.0-5.0-2.16","LF","sxbrz00bs5","1536","864","0","1","0","5ee7335388010f4c1b6bbdc2","","null","","","learningBlock1","","","","<div style=""font-size:60px;""> </div>","null","LF","learning/Slide17.JPG","This is a bim:","","",""
"html-keyboard-response","57","176444","0.0-5.0-0.17","LF","sxbrz00bs5","1536","864","0","1","0","5ee7335388010f4c1b6bbdc2","","null","","","learningBlock1","","","","This is a tob:","null","","","","","",""
"image-keyboard-response","58","176784","0.0-5.0-1.17","LF","sxbrz00bs5","1536","864","0","1","0","5ee7335388010f4c1b6bbdc2","","null","","","","","","","learning/Slide18.JPG","null","","","","","",""
"html-keyboard-response","59","177794","0.0-5.0-2.17","LF","sxbrz00bs5","1536","864","0","1","0","5ee7335388010f4c1b6bbdc2","","null","","","learningBlock1","","","","<div style=""font-size:60px;""> </div>","null","LF","learning/Slide18.JPG","This is a tob:","","",""
"html-keyboard-response","60","178804","0.0-5.0-0.18","LF","sxbrz00bs5","1536","864","0","1","0","5ee7335388010f4c1b6bbdc2","","null","","","learningBlock1","","","","This is a wug:","null","","","","","",""
"image-keyboard-response","61","179144","0.0-5.0-1.18","LF","sxbrz00bs5","1536","864","0","1","0","5ee7335388010f4c1b6bbdc2","","null","","","","","","","learning/Slide19.JPG","null","","","","","",""
"html-keyboard-response","62","180154","0.0-5.0-2.18","LF","sxbrz00bs5","1536","864","0","1","0","5ee7335388010f4c1b6bbdc2","","null","","","learningBlock1","","","","<div style=""font-size:60px;""> </div>","null","LF","learning/Slide19.JPG","This is a wug:","","",""
"html-keyboard-response","63","181164","0.0-5.0-0.19","LF","sxbrz00bs5","1536","864","0","1","0","5ee7335388010f4c1b6bbdc2","","null","","","learningBlock1","","","","This is a bim:","null","","","","","",""
"image-keyboard-response","64","181494","0.0-5.0-1.19","LF","sxbrz00bs5","1536","864","0","1","0","5ee7335388010f4c1b6bbdc2","","null","","","","","","","learning/Slide20.JPG","null","","","","","",""
"html-keyboard-response","65","182503","0.0-5.0-2.19","LF","sxbrz00bs5","1536","864","0","1","0","5ee7335388010f4c1b6bbdc2","","null","","","learningBlock1","","","","<div style=""font-size:60px;""> </div>","null","LF","learning/Slide20.JPG","This is a bim:","","",""
"html-keyboard-response","66","183514","0.0-5.0-0.20","LF","sxbrz00bs5","1536","864","0","1","0","5ee7335388010f4c1b6bbdc2","","null","","","learningBlock1","","","","This is a dep:","null","","","","","",""
"image-keyboard-response","67","183853","0.0-5.0-1.20","LF","sxbrz00bs5","1536","864","0","1","0","5ee7335388010f4c1b6bbdc2","","null","","","","","","","learning/Slide21.JPG","null","","","","","",""
"html-keyboard-response","68","184864","0.0-5.0-2.20","LF","sxbrz00bs5","1536","864","0","1","0","5ee7335388010f4c1b6bbdc2","","null","","","learningBlock1","","","","<div style=""font-size:60px;""> </div>","null","LF","learning/Slide21.JPG","This is a dep:","","",""
"html-keyboard-response","69","185874","0.0-5.0-0.21","LF","sxbrz00bs5","1536","864","0","1","0","5ee7335388010f4c1b6bbdc2","","null","","","learningBlock1","","","","This is a bim:","null","","","","","",""
"image-keyboard-response","70","186214","0.0-5.0-1.21","LF","sxbrz00bs5","1536","864","0","1","0","5ee7335388010f4c1b6bbdc2","","null","","","","","","","learning/Slide22.JPG","null","","","","","",""
"html-keyboard-response","71","187223","0.0-5.0-2.21","LF","sxbrz00bs5","1536","864","0","1","0","5ee7335388010f4c1b6bbdc2","","null","","","learningBlock1","","","","<div style=""font-size:60px;""> </div>","null","LF","learning/Slide22.JPG","This is a bim:","","",""
"html-keyboard-response","72","188234","0.0-5.0-0.22","LF","sxbrz00bs5","1536","864","0","1","0","5ee7335388010f4c1b6bbdc2","","null","","","learningBlock1","","","","This is a tob:","null","","","","","",""
"image-keyboard-response","73","188574","0.0-5.0-1.22","LF","sxbrz00bs5","1536","864","0","1","0","5ee7335388010f4c1b6bbdc2","","null","","","","","","","learning/Slide23.JPG","null","","","","","",""
"html-keyboard-response","74","189584","0.0-5.0-2.22","LF","sxbrz00bs5","1536","864","0","1","0","5ee7335388010f4c1b6bbdc2","","null","","","learningBlock1","","","","<div style=""font-size:60px;""> </div>","null","LF","learning/Slide23.JPG","This is a tob:","","",""
"html-keyboard-response","75","190593","0.0-5.0-0.23","LF","sxbrz00bs5","1536","864","0","1","0","5ee7335388010f4c1b6bbdc2","","null","","","learningBlock1","","","","This is a wug:","null","","","","","",""
"image-keyboard-response","76","190933","0.0-5.0-1.23","LF","sxbrz00bs5","1536","864","0","1","0","5ee7335388010f4c1b6bbdc2","","null","","","","","","","learning/Slide24.JPG","null","","","","","",""
"html-keyboard-response","77","191944","0.0-5.0-2.23","LF","sxbrz00bs5","1536","864","0","1","0","5ee7335388010f4c1b6bbdc2","","null","","","learningBlock1","","","","<div style=""font-size:60px;""> </div>","null","LF","learning/Slide24.JPG","This is a wug:","","",""
"html-keyboard-response","78","192953","0.0-5.0-0.24","LF","sxbrz00bs5","1536","864","0","1","0","5ee7335388010f4c1b6bbdc2","","null","","","learningBlock1","","","","This is a dep:","null","","","","","",""
"image-keyboard-response","79","193284","0.0-5.0-1.24","LF","sxbrz00bs5","1536","864","0","1","0","5ee7335388010f4c1b6bbdc2","","null","","","","","","","learning/Slide25.JPG","null","","","","","",""
"html-keyboard-response","80","194284","0.0-5.0-2.24","LF","sxbrz00bs5","1536","864","0","1","0","5ee7335388010f4c1b6bbdc2","","null","","","learningBlock1","","","","<div style=""font-size:60px;""> </div>","null","LF","learning/Slide25.JPG","This is a dep:","","",""
"html-keyboard-response","81","195294","0.0-5.0-0.25","LF","sxbrz00bs5","1536","864","0","1","0","5ee7335388010f4c1b6bbdc2","","null","","","learningBlock1","","","","This is a wug:","null","","","","","",""
"image-keyboard-response","82","195634","0.0-5.0-1.25","LF","sxbrz00bs5","1536","864","0","1","0","5ee7335388010f4c1b6bbdc2","","null","","","","","","","learning/Slide26.JPG","null","","","","","",""
"html-keyboard-response","83","196643","0.0-5.0-2.25","LF","sxbrz00bs5","1536","864","0","1","0","5ee7335388010f4c1b6bbdc2","","null","","","learningBlock1","","","","<div style=""font-size:60px;""> </div>","null","LF","learning/Slide26.JPG","This is a wug:","","",""
"html-keyboard-response","84","197654","0.0-5.0-0.26","LF","sxbrz00bs5","1536","864","0","1","0","5ee7335388010f4c1b6bbdc2","","null","","","learningBlock1","","","","This is a bim:","null","","","","","",""
"image-keyboard-response","85","197994","0.0-5.0-1.26","LF","sxbrz00bs5","1536","864","0","1","0","5ee7335388010f4c1b6bbdc2","","null","","","","","","","learning/Slide27.JPG","null","","","","","",""
"html-keyboard-response","86","199004","0.0-5.0-2.26","LF","sxbrz00bs5","1536","864","0","1","0","5ee7335388010f4c1b6bbdc2","","null","","","learningBlock1","","","","<div style=""font-size:60px;""> </div>","null","LF","learning/Slide27.JPG","This is a bim:","","",""
"html-keyboard-response","87","200014","0.0-5.0-0.27","LF","sxbrz00bs5","1536","864","0","1","0","5ee7335388010f4c1b6bbdc2","","null","","","learningBlock1","","","","This is a dep:","null","","","","","",""
"image-keyboard-response","88","200353","0.0-5.0-1.27","LF","sxbrz00bs5","1536","864","0","1","0","5ee7335388010f4c1b6bbdc2","","null","","","","","","","learning/Slide28.JPG","null","","","","","",""
"html-keyboard-response","89","201363","0.0-5.0-2.27","LF","sxbrz00bs5","1536","864","0","1","0","5ee7335388010f4c1b6bbdc2","","null","","","learningBlock1","","","","<div style=""font-size:60px;""> </div>","null","LF","learning/Slide28.JPG","This is a dep:","","",""
"html-keyboard-response","90","202373","0.0-5.0-0.28","LF","sxbrz00bs5","1536","864","0","1","0","5ee7335388010f4c1b6bbdc2","","null","","","learningBlock1","","","","This is a tob:","null","","","","","",""
"image-keyboard-response","91","202706","0.0-5.0-1.28","LF","sxbrz00bs5","1536","864","0","1","0","5ee7335388010f4c1b6bbdc2","","null","","","","","","","learning/Slide29.JPG","null","","","","","",""
"html-keyboard-response","92","203716","0.0-5.0-2.28","LF","sxbrz00bs5","1536","864","0","1","0","5ee7335388010f4c1b6bbdc2","","null","","","learningBlock1","","","","<div style=""font-size:60px;""> </div>","null","LF","learning/Slide29.JPG","This is a tob:","","",""
"html-keyboard-response","93","204725","0.0-5.0-0.29","LF","sxbrz00bs5","1536","864","0","1","0","5ee7335388010f4c1b6bbdc2","","null","","","learningBlock1","","","","This is a dep:","null","","","","","",""
"image-keyboard-response","94","205065","0.0-5.0-1.29","LF","sxbrz00bs5","1536","864","0","1","0","5ee7335388010f4c1b6bbdc2","","null","","","","","","","learning/Slide30.JPG","null","","","","","",""
"html-keyboard-response","95","206076","0.0-5.0-2.29","LF","sxbrz00bs5","1536","864","0","1","0","5ee7335388010f4c1b6bbdc2","","null","","","learningBlock1","","","","<div style=""font-size:60px;""> </div>","null","LF","learning/Slide30.JPG","This is a dep:","","",""
"html-keyboard-response","96","207078","0.0-5.0-0.30","LF","sxbrz00bs5","1536","864","0","1","0","5ee7335388010f4c1b6bbdc2","","null","","","learningBlock1","","","","This is a wug:","null","","","","","",""
"image-keyboard-response","97","207415","0.0-5.0-1.30","LF","sxbrz00bs5","1536","864","0","1","0","5ee7335388010f4c1b6bbdc2","","null","","","","","","","learning/Slide31.JPG","null","","","","","",""
"html-keyboard-response","98","208425","0.0-5.0-2.30","LF","sxbrz00bs5","1536","864","0","1","0","5ee7335388010f4c1b6bbdc2","","null","","","learningBlock1","","","","<div style=""font-size:60px;""> </div>","null","LF","learning/Slide31.JPG","This is a wug:","","",""
"html-keyboard-response","99","209436","0.0-5.0-0.31","LF","sxbrz00bs5","1536","864","0","1","0","5ee7335388010f4c1b6bbdc2","","null","","","learningBlock1","","","","This is a tob:","null","","","","","",""
"image-keyboard-response","100","209775","0.0-5.0-1.31","LF","sxbrz00bs5","1536","864","0","1","0","5ee7335388010f4c1b6bbdc2","","null","","","","","","","learning/Slide32.JPG","null","","","","","",""
"html-keyboard-response","101","210786","0.0-5.0-2.31","LF","sxbrz00bs5","1536","864","0","1","0","5ee7335388010f4c1b6bbdc2","","null","","","learningBlock1","","","","<div style=""font-size:60px;""> </div>","null","LF","learning/Slide32.JPG","This is a tob:","","",""
"html-keyboard-response","102","211795","0.0-5.0-0.32","LF","sxbrz00bs5","1536","864","0","1","0","5ee7335388010f4c1b6bbdc2","","null","","","learningBlock1","","","","This is a bim:","null","","","","","",""
"image-keyboard-response","103","212136","0.0-5.0-1.32","LF","sxbrz00bs5","1536","864","0","1","0","5ee7335388010f4c1b6bbdc2","","null","","","","","","","learning/Slide33.JPG","null","","","","","",""
"html-keyboard-response","104","213145","0.0-5.0-2.32","LF","sxbrz00bs5","1536","864","0","1","0","5ee7335388010f4c1b6bbdc2","","null","","","learningBlock1","","","","<div style=""font-size:60px;""> </div>","null","LF","learning/Slide33.JPG","This is a bim:","","",""
"html-keyboard-response","105","214156","0.0-5.0-0.33","LF","sxbrz00bs5","1536","864","0","1","0","5ee7335388010f4c1b6bbdc2","","null","","","learningBlock1","","","","This is a tob:","null","","","","","",""
"image-keyboard-response","106","214495","0.0-5.0-1.33","LF","sxbrz00bs5","1536","864","0","1","0","5ee7335388010f4c1b6bbdc2","","null","","","","","","","learning/Slide34.JPG","null","","","","","",""
"html-keyboard-response","107","215506","0.0-5.0-2.33","LF","sxbrz00bs5","1536","864","0","1","0","5ee7335388010f4c1b6bbdc2","","null","","","learningBlock1","","","","<div style=""font-size:60px;""> </div>","null","LF","learning/Slide34.JPG","This is a tob:","","",""
"html-keyboard-response","108","216516","0.0-5.0-0.34","LF","sxbrz00bs5","1536","864","0","1","0","5ee7335388010f4c1b6bbdc2","","null","","","learningBlock1","","","","This is a bim:","null","","","","","",""
"image-keyboard-response","109","216856","0.0-5.0-1.34","LF","sxbrz00bs5","1536","864","0","1","0","5ee7335388010f4c1b6bbdc2","","null","","","","","","","learning/Slide35.JPG","null","","","","","",""
"html-keyboard-response","110","217866","0.0-5.0-2.34","LF","sxbrz00bs5","1536","864","0","1","0","5ee7335388010f4c1b6bbdc2","","null","","","learningBlock1","","","","<div style=""font-size:60px;""> </div>","null","LF","learning/Slide35.JPG","This is a bim:","","",""
"html-keyboard-response","111","218876","0.0-5.0-0.35","LF","sxbrz00bs5","1536","864","0","1","0","5ee7335388010f4c1b6bbdc2","","null","","","learningBlock1","","","","This is a dep:","null","","","","","",""
"image-keyboard-response","112","219205","0.0-5.0-1.35","LF","sxbrz00bs5","1536","864","0","1","0","5ee7335388010f4c1b6bbdc2","","null","","","","","","","learning/Slide36.JPG","null","","","","","",""
"html-keyboard-response","113","220216","0.0-5.0-2.35","LF","sxbrz00bs5","1536","864","0","1","0","5ee7335388010f4c1b6bbdc2","","null","","","learningBlock1","","","","<div style=""font-size:60px;""> </div>","null","LF","learning/Slide36.JPG","This is a dep:","","",""
"html-keyboard-response","114","221226","0.0-5.0-0.36","LF","sxbrz00bs5","1536","864","0","1","0","5ee7335388010f4c1b6bbdc2","","null","","","learningBlock1","","","","This is a tob:","null","","","","","",""
"image-keyboard-response","115","221566","0.0-5.0-1.36","LF","sxbrz00bs5","1536","864","0","1","0","5ee7335388010f4c1b6bbdc2","","null","","","","","","","learning/Slide37.JPG","null","","","","","",""
"html-keyboard-response","116","222575","0.0-5.0-2.36","LF","sxbrz00bs5","1536","864","0","1","0","5ee7335388010f4c1b6bbdc2","","null","","","learningBlock1","","","","<div style=""font-size:60px;""> </div>","null","LF","learning/Slide37.JPG","This is a tob:","","",""
"html-keyboard-response","117","223585","0.0-5.0-0.37","LF","sxbrz00bs5","1536","864","0","1","0","5ee7335388010f4c1b6bbdc2","","null","","","learningBlock1","","","","This is a wug:","null","","","","","",""
"image-keyboard-response","118","223926","0.0-5.0-1.37","LF","sxbrz00bs5","1536","864","0","1","0","5ee7335388010f4c1b6bbdc2","","null","","","","","","","learning/Slide38.JPG","null","","","","","",""
"html-keyboard-response","119","224935","0.0-5.0-2.37","LF","sxbrz00bs5","1536","864","0","1","0","5ee7335388010f4c1b6bbdc2","","null","","","learningBlock1","","","","<div style=""font-size:60px;""> </div>","null","LF","learning/Slide38.JPG","This is a wug:","","",""
"html-keyboard-response","120","225946","0.0-5.0-0.38","LF","sxbrz00bs5","1536","864","0","1","0","5ee7335388010f4c1b6bbdc2","","null","","","learningBlock1","","","","This is a bim:","null","","","","","",""
"image-keyboard-response","121","226285","0.0-5.0-1.38","LF","sxbrz00bs5","1536","864","0","1","0","5ee7335388010f4c1b6bbdc2","","null","","","","","","","learning/Slide39.JPG","null","","","","","",""
"html-keyboard-response","122","227295","0.0-5.0-2.38","LF","sxbrz00bs5","1536","864","0","1","0","5ee7335388010f4c1b6bbdc2","","null","","","learningBlock1","","","","<div style=""font-size:60px;""> </div>","null","LF","learning/Slide39.JPG","This is a bim:","","",""
"html-keyboard-response","123","228302","0.0-5.0-0.39","LF","sxbrz00bs5","1536","864","0","1","0","5ee7335388010f4c1b6bbdc2","","null","","","learningBlock1","","","","This is a tob:","null","","","","","",""
"image-keyboard-response","124","228635","0.0-5.0-1.39","LF","sxbrz00bs5","1536","864","0","1","0","5ee7335388010f4c1b6bbdc2","","null","","","","","","","learning/Slide40.JPG","null","","","","","",""
"html-keyboard-response","125","229645","0.0-5.0-2.39","LF","sxbrz00bs5","1536","864","0","1","0","5ee7335388010f4c1b6bbdc2","","null","","","learningBlock1","","","","<div style=""font-size:60px;""> </div>","null","LF","learning/Slide40.JPG","This is a tob:","","",""
"html-keyboard-response","126","230656","0.0-5.0-0.40","LF","sxbrz00bs5","1536","864","0","1","0","5ee7335388010f4c1b6bbdc2","","null","","","learningBlock1","","","","This is a bim:","null","","","","","",""
"image-keyboard-response","127","230995","0.0-5.0-1.40","LF","sxbrz00bs5","1536","864","0","1","0","5ee7335388010f4c1b6bbdc2","","null","","","","","","","learning/Slide41.JPG","null","","","","","",""
"html-keyboard-response","128","232006","0.0-5.0-2.40","LF","sxbrz00bs5","1536","864","0","1","0","5ee7335388010f4c1b6bbdc2","","null","","","learningBlock1","","","","<div style=""font-size:60px;""> </div>","null","LF","learning/Slide41.JPG","This is a bim:","","",""
"html-keyboard-response","129","233006","0.0-5.0-0.41","LF","sxbrz00bs5","1536","864","0","1","0","5ee7335388010f4c1b6bbdc2","","null","","","learningBlock1","","","","This is a dep:","null","","","","","",""
"image-keyboard-response","130","233345","0.0-5.0-1.41","LF","sxbrz00bs5","1536","864","0","1","0","5ee7335388010f4c1b6bbdc2","","null","","","","","","","learning/Slide42.JPG","null","","","","","",""
"html-keyboard-response","131","234356","0.0-5.0-2.41","LF","sxbrz00bs5","1536","864","0","1","0","5ee7335388010f4c1b6bbdc2","","null","","","learningBlock1","","","","<div style=""font-size:60px;""> </div>","null","LF","learning/Slide42.JPG","This is a dep:","","",""
"html-keyboard-response","132","235365","0.0-5.0-0.42","LF","sxbrz00bs5","1536","864","0","1","0","5ee7335388010f4c1b6bbdc2","","null","","","learningBlock1","","","","This is a wug:","null","","","","","",""
"image-keyboard-response","133","235705","0.0-5.0-1.42","LF","sxbrz00bs5","1536","864","0","1","0","5ee7335388010f4c1b6bbdc2","","null","","","","","","","learning/Slide43.JPG","null","","","","","",""
"html-keyboard-response","134","236716","0.0-5.0-2.42","LF","sxbrz00bs5","1536","864","0","1","0","5ee7335388010f4c1b6bbdc2","","null","","","learningBlock1","","","","<div style=""font-size:60px;""> </div>","null","LF","learning/Slide43.JPG","This is a wug:","","",""
"html-keyboard-response","135","237726","0.0-5.0-0.43","LF","sxbrz00bs5","1536","864","0","1","0","5ee7335388010f4c1b6bbdc2","","null","","","learningBlock1","","","","This is a bim:","null","","","","","",""
"image-keyboard-response","136","238066","0.0-5.0-1.43","LF","sxbrz00bs5","1536","864","0","1","0","5ee7335388010f4c1b6bbdc2","","null","","","","","","","learning/Slide44.JPG","null","","","","","",""
"html-keyboard-response","137","239075","0.0-5.0-2.43","LF","sxbrz00bs5","1536","864","0","1","0","5ee7335388010f4c1b6bbdc2","","null","","","learningBlock1","","","","<div style=""font-size:60px;""> </div>","null","LF","learning/Slide44.JPG","This is a bim:","","",""
"html-keyboard-response","138","240085","0.0-5.0-0.44","LF","sxbrz00bs5","1536","864","0","1","0","5ee7335388010f4c1b6bbdc2","","null","","","learningBlock1","","","","This is a wug:","null","","","","","",""
"image-keyboard-response","139","240425","0.0-5.0-1.44","LF","sxbrz00bs5","1536","864","0","1","0","5ee7335388010f4c1b6bbdc2","","null","","","","","","","learning/Slide45.JPG","null","","","","","",""
"html-keyboard-response","140","241435","0.0-5.0-2.44","LF","sxbrz00bs5","1536","864","0","1","0","5ee7335388010f4c1b6bbdc2","","null","","","learningBlock1","","","","<div style=""font-size:60px;""> </div>","null","LF","learning/Slide45.JPG","This is a wug:","","",""
"html-keyboard-response","141","242445","0.0-5.0-0.45","LF","sxbrz00bs5","1536","864","0","1","0","5ee7335388010f4c1b6bbdc2","","null","","","learningBlock1","","","","This is a dep:","null","","","","","",""
"image-keyboard-response","142","242785","0.0-5.0-1.45","LF","sxbrz00bs5","1536","864","0","1","0","5ee7335388010f4c1b6bbdc2","","null","","","","","","","learning/Slide46.JPG","null","","","","","",""
"html-keyboard-response","143","243795","0.0-5.0-2.45","LF","sxbrz00bs5","1536","864","0","1","0","5ee7335388010f4c1b6bbdc2","","null","","","learningBlock1","","","","<div style=""font-size:60px;""> </div>","null","LF","learning/Slide46.JPG","This is a dep:","","",""
"html-keyboard-response","144","244805","0.0-5.0-0.46","LF","sxbrz00bs5","1536","864","0","1","0","5ee7335388010f4c1b6bbdc2","","null","","","learningBlock1","","","","This is a tob:","null","","","","","",""
"image-keyboard-response","145","245145","0.0-5.0-1.46","LF","sxbrz00bs5","1536","864","0","1","0","5ee7335388010f4c1b6bbdc2","","null","","","","","","","learning/Slide47.JPG","null","","","","","",""
"html-keyboard-response","146","246156","0.0-5.0-2.46","LF","sxbrz00bs5","1536","864","0","1","0","5ee7335388010f4c1b6bbdc2","","null","","","learningBlock1","","","","<div style=""font-size:60px;""> </div>","null","LF","learning/Slide47.JPG","This is a tob:","","",""
"html-keyboard-response","147","247165","0.0-5.0-0.47","LF","sxbrz00bs5","1536","864","0","1","0","5ee7335388010f4c1b6bbdc2","","null","","","learningBlock1","","","","This is a bim:","null","","","","","",""
"image-keyboard-response","148","247505","0.0-5.0-1.47","LF","sxbrz00bs5","1536","864","0","1","0","5ee7335388010f4c1b6bbdc2","","null","","","","","","","learning/Slide48.JPG","null","","","","","",""
"html-keyboard-response","149","248507","0.0-5.0-2.47","LF","sxbrz00bs5","1536","864","0","1","0","5ee7335388010f4c1b6bbdc2","","null","","","learningBlock1","","","","<div style=""font-size:60px;""> </div>","null","LF","learning/Slide48.JPG","This is a bim:","","",""
"html-keyboard-response","150","249516","0.0-5.0-0.48","LF","sxbrz00bs5","1536","864","0","1","0","5ee7335388010f4c1b6bbdc2","","null","","","learningBlock1","","","","This is a dep:","null","","","","","",""
"image-keyboard-response","151","249846","0.0-5.0-1.48","LF","sxbrz00bs5","1536","864","0","1","0","5ee7335388010f4c1b6bbdc2","","null","","","","","","","learning/Slide49.JPG","null","","","","","",""
"html-keyboard-response","152","250856","0.0-5.0-2.48","LF","sxbrz00bs5","1536","864","0","1","0","5ee7335388010f4c1b6bbdc2","","null","","","learningBlock1","","","","<div style=""font-size:60px;""> </div>","null","LF","learning/Slide49.JPG","This is a dep:","","",""
"html-keyboard-response","153","251866","0.0-5.0-0.49","LF","sxbrz00bs5","1536","864","0","1","0","5ee7335388010f4c1b6bbdc2","","null","","","learningBlock1","","","","This is a tob:","null","","","","","",""
"image-keyboard-response","154","252206","0.0-5.0-1.49","LF","sxbrz00bs5","1536","864","0","1","0","5ee7335388010f4c1b6bbdc2","","null","","","","","","","learning/Slide50.JPG","null","","","","","",""
"html-keyboard-response","155","253216","0.0-5.0-2.49","LF","sxbrz00bs5","1536","864","0","1","0","5ee7335388010f4c1b6bbdc2","","null","","","learningBlock1","","","","<div style=""font-size:60px;""> </div>","null","LF","learning/Slide50.JPG","This is a tob:","","",""
"html-keyboard-response","156","254226","0.0-5.0-0.50","LF","sxbrz00bs5","1536","864","0","1","0","5ee7335388010f4c1b6bbdc2","","null","","","learningBlock1","","","","This is a bim:","null","","","","","",""
"image-keyboard-response","157","254566","0.0-5.0-1.50","LF","sxbrz00bs5","1536","864","0","1","0","5ee7335388010f4c1b6bbdc2","","null","","","","","","","learning/Slide51.JPG","null","","","","","",""
"html-keyboard-response","158","255576","0.0-5.0-2.50","LF","sxbrz00bs5","1536","864","0","1","0","5ee7335388010f4c1b6bbdc2","","null","","","learningBlock1","","","","<div style=""font-size:60px;""> </div>","null","LF","learning/Slide51.JPG","This is a bim:","","",""
"html-keyboard-response","159","256586","0.0-5.0-0.51","LF","sxbrz00bs5","1536","864","0","1","0","5ee7335388010f4c1b6bbdc2","","null","","","learningBlock1","","","","This is a wug:","null","","","","","",""
"image-keyboard-response","160","256926","0.0-5.0-1.51","LF","sxbrz00bs5","1536","864","0","1","0","5ee7335388010f4c1b6bbdc2","","null","","","","","","","learning/Slide52.JPG","null","","","","","",""
"html-keyboard-response","161","257936","0.0-5.0-2.51","LF","sxbrz00bs5","1536","864","0","1","0","5ee7335388010f4c1b6bbdc2","","null","","","learningBlock1","","","","<div style=""font-size:60px;""> </div>","null","LF","learning/Slide52.JPG","This is a wug:","","",""
"html-keyboard-response","162","258946","0.0-5.0-0.52","LF","sxbrz00bs5","1536","864","0","1","0","5ee7335388010f4c1b6bbdc2","","null","","","learningBlock1","","","","This is a tob:","null","","","","","",""
"image-keyboard-response","163","259286","0.0-5.0-1.52","LF","sxbrz00bs5","1536","864","0","1","0","5ee7335388010f4c1b6bbdc2","","null","","","","","","","learning/Slide53.JPG","null","","","","","",""
"html-keyboard-response","164","260296","0.0-5.0-2.52","LF","sxbrz00bs5","1536","864","0","1","0","5ee7335388010f4c1b6bbdc2","","null","","","learningBlock1","","","","<div style=""font-size:60px;""> </div>","null","LF","learning/Slide53.JPG","This is a tob:","","",""
"html-keyboard-response","165","261306","0.0-5.0-0.53","LF","sxbrz00bs5","1536","864","0","1","0","5ee7335388010f4c1b6bbdc2","","null","","","learningBlock1","","","","This is a dep:","null","","","","","",""
"image-keyboard-response","166","261646","0.0-5.0-1.53","LF","sxbrz00bs5","1536","864","0","1","0","5ee7335388010f4c1b6bbdc2","","null","","","","","","","learning/Slide54.JPG","null","","","","","",""
"html-keyboard-response","167","262647","0.0-5.0-2.53","LF","sxbrz00bs5","1536","864","0","1","0","5ee7335388010f4c1b6bbdc2","","null","","","learningBlock1","","","","<div style=""font-size:60px;""> </div>","null","LF","learning/Slide54.JPG","This is a dep:","","",""
"html-keyboard-response","168","263657","0.0-5.0-0.54","LF","sxbrz00bs5","1536","864","0","1","0","5ee7335388010f4c1b6bbdc2","","null","","","learningBlock1","","","","This is a bim:","null","","","","","",""
"image-keyboard-response","169","263997","0.0-5.0-1.54","LF","sxbrz00bs5","1536","864","0","1","0","5ee7335388010f4c1b6bbdc2","","null","","","","","","","learning/Slide55.JPG","null","","","","","",""
"html-keyboard-response","170","265008","0.0-5.0-2.54","LF","sxbrz00bs5","1536","864","0","1","0","5ee7335388010f4c1b6bbdc2","","null","","","learningBlock1","","","","<div style=""font-size:60px;""> </div>","null","LF","learning/Slide55.JPG","This is a bim:","","",""
"html-keyboard-response","171","266017","0.0-5.0-0.55","LF","sxbrz00bs5","1536","864","0","1","0","5ee7335388010f4c1b6bbdc2","","null","","","learningBlock1","","","","This is a tob:","null","","","","","",""
"image-keyboard-response","172","266357","0.0-5.0-1.55","LF","sxbrz00bs5","1536","864","0","1","0","5ee7335388010f4c1b6bbdc2","","null","","","","","","","learning/Slide56.JPG","null","","","","","",""
"html-keyboard-response","173","267367","0.0-5.0-2.55","LF","sxbrz00bs5","1536","864","0","1","0","5ee7335388010f4c1b6bbdc2","","null","","","learningBlock1","","","","<div style=""font-size:60px;""> </div>","null","LF","learning/Slide56.JPG","This is a tob:","","",""
"html-keyboard-response","174","268377","0.0-5.0-0.56","LF","sxbrz00bs5","1536","864","0","1","0","5ee7335388010f4c1b6bbdc2","","null","","","learningBlock1","","","","This is a dep:","null","","","","","",""
"image-keyboard-response","175","268717","0.0-5.0-1.56","LF","sxbrz00bs5","1536","864","0","1","0","5ee7335388010f4c1b6bbdc2","","null","","","","","","","learning/Slide57.JPG","null","","","","","",""
"html-keyboard-response","176","269727","0.0-5.0-2.56","LF","sxbrz00bs5","1536","864","0","1","0","5ee7335388010f4c1b6bbdc2","","null","","","learningBlock1","","","","<div style=""font-size:60px;""> </div>","null","LF","learning/Slide57.JPG","This is a dep:","","",""
"html-keyboard-response","177","270737","0.0-5.0-0.57","LF","sxbrz00bs5","1536","864","0","1","0","5ee7335388010f4c1b6bbdc2","","null","","","learningBlock1","","","","This is a wug:","null","","","","","",""
"image-keyboard-response","178","271077","0.0-5.0-1.57","LF","sxbrz00bs5","1536","864","0","1","0","5ee7335388010f4c1b6bbdc2","","null","","","","","","","learning/Slide58.JPG","null","","","","","",""
"html-keyboard-response","179","272087","0.0-5.0-2.57","LF","sxbrz00bs5","1536","864","0","1","0","5ee7335388010f4c1b6bbdc2","","null","","","learningBlock1","","","","<div style=""font-size:60px;""> </div>","null","LF","learning/Slide58.JPG","This is a wug:","","",""
"html-keyboard-response","180","273097","0.0-5.0-0.58","LF","sxbrz00bs5","1536","864","0","1","0","5ee7335388010f4c1b6bbdc2","","null","","","learningBlock1","","","","This is a dep:","null","","","","","",""
"image-keyboard-response","181","273437","0.0-5.0-1.58","LF","sxbrz00bs5","1536","864","0","1","0","5ee7335388010f4c1b6bbdc2","","null","","","","","","","learning/Slide59.JPG","null","","","","","",""
"html-keyboard-response","182","274448","0.0-5.0-2.58","LF","sxbrz00bs5","1536","864","0","1","0","5ee7335388010f4c1b6bbdc2","","null","","","learningBlock1","","","","<div style=""font-size:60px;""> </div>","null","LF","learning/Slide59.JPG","This is a dep:","","",""
"html-keyboard-response","183","275457","0.0-5.0-0.59","LF","sxbrz00bs5","1536","864","0","1","0","5ee7335388010f4c1b6bbdc2","","null","","","learningBlock1","","","","This is a wug:","null","","","","","",""
"image-keyboard-response","184","275797","0.0-5.0-1.59","LF","sxbrz00bs5","1536","864","0","1","0","5ee7335388010f4c1b6bbdc2","","null","","","","","","","learning/Slide60.JPG","null","","","","","",""
"html-keyboard-response","185","276807","0.0-5.0-2.59","LF","sxbrz00bs5","1536","864","0","1","0","5ee7335388010f4c1b6bbdc2","","null","","","learningBlock1","","","","<div style=""font-size:60px;""> </div>","null","LF","learning/Slide60.JPG","This is a wug:","","",""
"html-keyboard-response","186","277817","0.0-5.0-0.60","LF","sxbrz00bs5","1536","864","0","1","0","5ee7335388010f4c1b6bbdc2","","null","","","learningBlock1","","","","This is a bim:","null","","","","","",""
"image-keyboard-response","187","278157","0.0-5.0-1.60","LF","sxbrz00bs5","1536","864","0","1","0","5ee7335388010f4c1b6bbdc2","","null","","","","","","","learning/Slide61.JPG","null","","","","","",""
"html-keyboard-response","188","279167","0.0-5.0-2.60","LF","sxbrz00bs5","1536","864","0","1","0","5ee7335388010f4c1b6bbdc2","","null","","","learningBlock1","","","","<div style=""font-size:60px;""> </div>","null","LF","learning/Slide61.JPG","This is a bim:","","",""
"html-keyboard-response","189","280177","0.0-5.0-0.61","LF","sxbrz00bs5","1536","864","0","1","0","5ee7335388010f4c1b6bbdc2","","null","","","learningBlock1","","","","This is a dep:","null","","","","","",""
"image-keyboard-response","190","280517","0.0-5.0-1.61","LF","sxbrz00bs5","1536","864","0","1","0","5ee7335388010f4c1b6bbdc2","","null","","","","","","","learning/Slide62.JPG","null","","","","","",""
"html-keyboard-response","191","281527","0.0-5.0-2.61","LF","sxbrz00bs5","1536","864","0","1","0","5ee7335388010f4c1b6bbdc2","","null","","","learningBlock1","","","","<div style=""font-size:60px;""> </div>","null","LF","learning/Slide62.JPG","This is a dep:","","",""
"html-keyboard-response","192","282537","0.0-5.0-0.62","LF","sxbrz00bs5","1536","864","0","1","0","5ee7335388010f4c1b6bbdc2","","null","","","learningBlock1","","","","This is a bim:","null","","","","","",""
"image-keyboard-response","193","282877","0.0-5.0-1.62","LF","sxbrz00bs5","1536","864","0","1","0","5ee7335388010f4c1b6bbdc2","","null","","","","","","","learning/Slide63.JPG","null","","","","","",""
"html-keyboard-response","194","283887","0.0-5.0-2.62","LF","sxbrz00bs5","1536","864","0","1","0","5ee7335388010f4c1b6bbdc2","","null","","","learningBlock1","","","","<div style=""font-size:60px;""> </div>","null","LF","learning/Slide63.JPG","This is a bim:","","",""
"html-keyboard-response","195","284897","0.0-5.0-0.63","LF","sxbrz00bs5","1536","864","0","1","0","5ee7335388010f4c1b6bbdc2","","null","","","learningBlock1","","","","This is a tob:","null","","","","","",""
"image-keyboard-response","196","285237","0.0-5.0-1.63","LF","sxbrz00bs5","1536","864","0","1","0","5ee7335388010f4c1b6bbdc2","","null","","","","","","","learning/Slide64.JPG","null","","","","","",""
"html-keyboard-response","197","286247","0.0-5.0-2.63","LF","sxbrz00bs5","1536","864","0","1","0","5ee7335388010f4c1b6bbdc2","","null","","","learningBlock1","","","","<div style=""font-size:60px;""> </div>","null","LF","learning/Slide64.JPG","This is a tob:","","",""
"html-keyboard-response","198","287257","0.0-5.0-0.64","LF","sxbrz00bs5","1536","864","0","1","0","5ee7335388010f4c1b6bbdc2","","null","","","learningBlock1","","","","This is a wug:","null","","","","","",""
"image-keyboard-response","199","287597","0.0-5.0-1.64","LF","sxbrz00bs5","1536","864","0","1","0","5ee7335388010f4c1b6bbdc2","","null","","","","","","","learning/Slide65.JPG","null","","","","","",""
"html-keyboard-response","200","288607","0.0-5.0-2.64","LF","sxbrz00bs5","1536","864","0","1","0","5ee7335388010f4c1b6bbdc2","","null","","","learningBlock1","","","","<div style=""font-size:60px;""> </div>","null","LF","learning/Slide65.JPG","This is a wug:","","",""
"html-keyboard-response","201","289617","0.0-5.0-0.65","LF","sxbrz00bs5","1536","864","0","1","0","5ee7335388010f4c1b6bbdc2","","null","","","learningBlock1","","","","This is a dep:","null","","","","","",""
"image-keyboard-response","202","289957","0.0-5.0-1.65","LF","sxbrz00bs5","1536","864","0","1","0","5ee7335388010f4c1b6bbdc2","","null","","","","","","","learning/Slide66.JPG","null","","","","","",""
"html-keyboard-response","203","290967","0.0-5.0-2.65","LF","sxbrz00bs5","1536","864","0","1","0","5ee7335388010f4c1b6bbdc2","","null","","","learningBlock1","","","","<div style=""font-size:60px;""> </div>","null","LF","learning/Slide66.JPG","This is a dep:","","",""
"html-keyboard-response","204","291977","0.0-5.0-0.66","LF","sxbrz00bs5","1536","864","0","1","0","5ee7335388010f4c1b6bbdc2","","null","","","learningBlock1","","","","This is a tob:","null","","","","","",""
"image-keyboard-response","205","292307","0.0-5.0-1.66","LF","sxbrz00bs5","1536","864","0","1","0","5ee7335388010f4c1b6bbdc2","","null","","","","","","","learning/Slide67.JPG","null","","","","","",""
"html-keyboard-response","206","293308","0.0-5.0-2.66","LF","sxbrz00bs5","1536","864","0","1","0","5ee7335388010f4c1b6bbdc2","","null","","","learningBlock1","","","","<div style=""font-size:60px;""> </div>","null","LF","learning/Slide67.JPG","This is a tob:","","",""
"html-keyboard-response","207","294318","0.0-5.0-0.67","LF","sxbrz00bs5","1536","864","0","1","0","5ee7335388010f4c1b6bbdc2","","null","","","learningBlock1","","","","This is a wug:","null","","","","","",""
"image-keyboard-response","208","294657","0.0-5.0-1.67","LF","sxbrz00bs5","1536","864","0","1","0","5ee7335388010f4c1b6bbdc2","","null","","","","","","","learning/Slide68.JPG","null","","","","","",""
"html-keyboard-response","209","295668","0.0-5.0-2.67","LF","sxbrz00bs5","1536","864","0","1","0","5ee7335388010f4c1b6bbdc2","","null","","","learningBlock1","","","","<div style=""font-size:60px;""> </div>","null","LF","learning/Slide68.JPG","This is a wug:","","",""
"html-keyboard-response","210","296677","0.0-5.0-0.68","LF","sxbrz00bs5","1536","864","0","1","0","5ee7335388010f4c1b6bbdc2","","null","","","learningBlock1","","","","This is a tob:","null","","","","","",""
"image-keyboard-response","211","297018","0.0-5.0-1.68","LF","sxbrz00bs5","1536","864","0","1","0","5ee7335388010f4c1b6bbdc2","","null","","","","","","","learning/Slide69.JPG","null","","","","","",""
"html-keyboard-response","212","298028","0.0-5.0-2.68","LF","sxbrz00bs5","1536","864","0","1","0","5ee7335388010f4c1b6bbdc2","","null","","","learningBlock1","","","","<div style=""font-size:60px;""> </div>","null","LF","learning/Slide69.JPG","This is a tob:","","",""
"html-keyboard-response","213","299037","0.0-5.0-0.69","LF","sxbrz00bs5","1536","864","0","1","0","5ee7335388010f4c1b6bbdc2","","null","","","learningBlock1","","","","This is a dep:","null","","","","","",""
"image-keyboard-response","214","299368","0.0-5.0-1.69","LF","sxbrz00bs5","1536","864","0","1","0","5ee7335388010f4c1b6bbdc2","","null","","","","","","","learning/Slide70.JPG","null","","","","","",""
"html-keyboard-response","215","300378","0.0-5.0-2.69","LF","sxbrz00bs5","1536","864","0","1","0","5ee7335388010f4c1b6bbdc2","","null","","","learningBlock1","","","","<div style=""font-size:60px;""> </div>","null","LF","learning/Slide70.JPG","This is a dep:","","",""
"html-keyboard-response","216","301388","0.0-5.0-0.70","LF","sxbrz00bs5","1536","864","0","1","0","5ee7335388010f4c1b6bbdc2","","null","","","learningBlock1","","","","This is a wug:","null","","","","","",""
"image-keyboard-response","217","301718","0.0-5.0-1.70","LF","sxbrz00bs5","1536","864","0","1","0","5ee7335388010f4c1b6bbdc2","","null","","","","","","","learning/Slide71.JPG","null","","","","","",""
"html-keyboard-response","218","302727","0.0-5.0-2.70","LF","sxbrz00bs5","1536","864","0","1","0","5ee7335388010f4c1b6bbdc2","","null","","","learningBlock1","","","","<div style=""font-size:60px;""> </div>","null","LF","learning/Slide71.JPG","This is a wug:","","",""
"html-keyboard-response","219","303738","0.0-5.0-0.71","LF","sxbrz00bs5","1536","864","0","1","0","5ee7335388010f4c1b6bbdc2","","null","","","learningBlock1","","","","This is a bim:","null","","","","","",""
"image-keyboard-response","220","304077","0.0-5.0-1.71","LF","sxbrz00bs5","1536","864","0","1","0","5ee7335388010f4c1b6bbdc2","","null","","","","","","","learning/Slide72.JPG","null","","","","","",""
"html-keyboard-response","221","305088","0.0-5.0-2.71","LF","sxbrz00bs5","1536","864","0","1","0","5ee7335388010f4c1b6bbdc2","","null","","","learningBlock1","","","","<div style=""font-size:60px;""> </div>","null","LF","learning/Slide72.JPG","This is a bim:","","",""
"html-keyboard-response","222","306095","0.0-5.0-0.72","LF","sxbrz00bs5","1536","864","0","1","0","5ee7335388010f4c1b6bbdc2","","null","","","learningBlock1","","","","This is a wug:","null","","","","","",""
"image-keyboard-response","223","306428","0.0-5.0-1.72","LF","sxbrz00bs5","1536","864","0","1","0","5ee7335388010f4c1b6bbdc2","","null","","","","","","","learning/Slide73.JPG","null","","","","","",""
"html-keyboard-response","224","307429","0.0-5.0-2.72","LF","sxbrz00bs5","1536","864","0","1","0","5ee7335388010f4c1b6bbdc2","","null","","","learningBlock1","","","","<div style=""font-size:60px;""> </div>","null","LF","learning/Slide73.JPG","This is a wug:","","",""
"html-keyboard-response","225","308437","0.0-5.0-0.73","LF","sxbrz00bs5","1536","864","0","1","0","5ee7335388010f4c1b6bbdc2","","null","","","learningBlock1","","","","This is a dep:","null","","","","","",""
"image-keyboard-response","226","308778","0.0-5.0-1.73","LF","sxbrz00bs5","1536","864","0","1","0","5ee7335388010f4c1b6bbdc2","","null","","","","","","","learning/Slide74.JPG","null","","","","","",""
"html-keyboard-response","227","309787","0.0-5.0-2.73","LF","sxbrz00bs5","1536","864","0","1","0","5ee7335388010f4c1b6bbdc2","","null","","","learningBlock1","","","","<div style=""font-size:60px;""> </div>","null","LF","learning/Slide74.JPG","This is a dep:","","",""
"html-keyboard-response","228","310798","0.0-5.0-0.74","LF","sxbrz00bs5","1536","864","0","1","0","5ee7335388010f4c1b6bbdc2","","null","","","learningBlock1","","","","This is a tob:","null","","","","","",""
"image-keyboard-response","229","311138","0.0-5.0-1.74","LF","sxbrz00bs5","1536","864","0","1","0","5ee7335388010f4c1b6bbdc2","","null","","","","","","","learning/Slide75.JPG","null","","","","","",""
"html-keyboard-response","230","312139","0.0-5.0-2.74","LF","sxbrz00bs5","1536","864","0","1","0","5ee7335388010f4c1b6bbdc2","","null","","","learningBlock1","","","","<div style=""font-size:60px;""> </div>","null","LF","learning/Slide75.JPG","This is a tob:","","",""
"html-keyboard-response","231","313148","0.0-5.0-0.75","LF","sxbrz00bs5","1536","864","0","1","0","5ee7335388010f4c1b6bbdc2","","null","","","learningBlock1","","","","This is a bim:","null","","","","","",""
"image-keyboard-response","232","313487","0.0-5.0-1.75","LF","sxbrz00bs5","1536","864","0","1","0","5ee7335388010f4c1b6bbdc2","","null","","","","","","","learning/Slide76.JPG","null","","","","","",""
"html-keyboard-response","233","314488","0.0-5.0-2.75","LF","sxbrz00bs5","1536","864","0","1","0","5ee7335388010f4c1b6bbdc2","","null","","","learningBlock1","","","","<div style=""font-size:60px;""> </div>","null","LF","learning/Slide76.JPG","This is a bim:","","",""
"html-keyboard-response","234","315497","0.0-5.0-0.76","LF","sxbrz00bs5","1536","864","0","1","0","5ee7335388010f4c1b6bbdc2","","null","","","learningBlock1","","","","This is a tob:","null","","","","","",""
"image-keyboard-response","235","315838","0.0-5.0-1.76","LF","sxbrz00bs5","1536","864","0","1","0","5ee7335388010f4c1b6bbdc2","","null","","","","","","","learning/Slide77.JPG","null","","","","","",""
"html-keyboard-response","236","316848","0.0-5.0-2.76","LF","sxbrz00bs5","1536","864","0","1","0","5ee7335388010f4c1b6bbdc2","","null","","","learningBlock1","","","","<div style=""font-size:60px;""> </div>","null","LF","learning/Slide77.JPG","This is a tob:","","",""
"html-keyboard-response","237","317858","0.0-5.0-0.77","LF","sxbrz00bs5","1536","864","0","1","0","5ee7335388010f4c1b6bbdc2","","null","","","learningBlock1","","","","This is a wug:","null","","","","","",""
"image-keyboard-response","238","318198","0.0-5.0-1.77","LF","sxbrz00bs5","1536","864","0","1","0","5ee7335388010f4c1b6bbdc2","","null","","","","","","","learning/Slide78.JPG","null","","","","","",""
"html-keyboard-response","239","319207","0.0-5.0-2.77","LF","sxbrz00bs5","1536","864","0","1","0","5ee7335388010f4c1b6bbdc2","","null","","","learningBlock1","","","","<div style=""font-size:60px;""> </div>","null","LF","learning/Slide78.JPG","This is a wug:","","",""
"html-keyboard-response","240","320218","0.0-5.0-0.78","LF","sxbrz00bs5","1536","864","0","1","0","5ee7335388010f4c1b6bbdc2","","null","","","learningBlock1","","","","This is a bim:","null","","","","","",""
"image-keyboard-response","241","320558","0.0-5.0-1.78","LF","sxbrz00bs5","1536","864","0","1","0","5ee7335388010f4c1b6bbdc2","","null","","","","","","","learning/Slide79.JPG","null","","","","","",""
"html-keyboard-response","242","321567","0.0-5.0-2.78","LF","sxbrz00bs5","1536","864","0","1","0","5ee7335388010f4c1b6bbdc2","","null","","","learningBlock1","","","","<div style=""font-size:60px;""> </div>","null","LF","learning/Slide79.JPG","This is a bim:","","",""
"html-keyboard-response","243","322578","0.0-5.0-0.79","LF","sxbrz00bs5","1536","864","0","1","0","5ee7335388010f4c1b6bbdc2","","null","","","learningBlock1","","","","This is a tob:","null","","","","","",""
"image-keyboard-response","244","322909","0.0-5.0-1.79","LF","sxbrz00bs5","1536","864","0","1","0","5ee7335388010f4c1b6bbdc2","","null","","","","","","","learning/Slide80.JPG","null","","","","","",""
"html-keyboard-response","245","323920","0.0-5.0-2.79","LF","sxbrz00bs5","1536","864","0","1","0","5ee7335388010f4c1b6bbdc2","","null","","","learningBlock1","","","","<div style=""font-size:60px;""> </div>","null","LF","learning/Slide80.JPG","This is a tob:","","",""
"instructions","246","328387","0.0-6.0","LF","sxbrz00bs5","1536","864","0","1","0","5ee7335388010f4c1b6bbdc2","","NA","","[{""page_index"":0,""viewing_time"":4467}]","instructions","","","","","","","","","","",""
"html-keyboard-response","247","329388","0.0-7.0-0.0","LF","sxbrz00bs5","1536","864","0","1","0","5ee7335388010f4c1b6bbdc2","","null","","","learningBlock2","","","","This is a wug:","null","","","","","",""
"image-keyboard-response","248","329729","0.0-7.0-1.0","LF","sxbrz00bs5","1536","864","0","1","0","5ee7335388010f4c1b6bbdc2","","null","","","","","","","learning/Slide81.JPG","null","","","","","",""
"html-keyboard-response","249","330739","0.0-7.0-2.0","LF","sxbrz00bs5","1536","864","0","1","0","5ee7335388010f4c1b6bbdc2","","null","","","learningBlock2","","","","<div style=""font-size:60px;""> </div>","null","LF","learning/Slide81.JPG","This is a wug:","","",""
"html-keyboard-response","250","331749","0.0-7.0-0.1","LF","sxbrz00bs5","1536","864","0","1","0","5ee7335388010f4c1b6bbdc2","","null","","","learningBlock2","","","","This is a bim:","null","","","","","",""
"image-keyboard-response","251","332089","0.0-7.0-1.1","LF","sxbrz00bs5","1536","864","0","1","0","5ee7335388010f4c1b6bbdc2","","null","","","","","","","learning/Slide82.JPG","null","","","","","",""
"html-keyboard-response","252","333098","0.0-7.0-2.1","LF","sxbrz00bs5","1536","864","0","1","0","5ee7335388010f4c1b6bbdc2","","null","","","learningBlock2","","","","<div style=""font-size:60px;""> </div>","null","LF","learning/Slide82.JPG","This is a bim:","","",""
"html-keyboard-response","253","334108","0.0-7.0-0.2","LF","sxbrz00bs5","1536","864","0","1","0","5ee7335388010f4c1b6bbdc2","","null","","","learningBlock2","","","","This is a wug:","null","","","","","",""
"image-keyboard-response","254","334449","0.0-7.0-1.2","LF","sxbrz00bs5","1536","864","0","1","0","5ee7335388010f4c1b6bbdc2","","null","","","","","","","learning/Slide83.JPG","null","","","","","",""
"html-keyboard-response","255","335459","0.0-7.0-2.2","LF","sxbrz00bs5","1536","864","0","1","0","5ee7335388010f4c1b6bbdc2","","null","","","learningBlock2","","","","<div style=""font-size:60px;""> </div>","null","LF","learning/Slide83.JPG","This is a wug:","","",""
"html-keyboard-response","256","336469","0.0-7.0-0.3","LF","sxbrz00bs5","1536","864","0","1","0","5ee7335388010f4c1b6bbdc2","","null","","","learningBlock2","","","","This is a dep:","null","","","","","",""
"image-keyboard-response","257","336808","0.0-7.0-1.3","LF","sxbrz00bs5","1536","864","0","1","0","5ee7335388010f4c1b6bbdc2","","null","","","","","","","learning/Slide84.JPG","null","","","","","",""
"html-keyboard-response","258","337809","0.0-7.0-2.3","LF","sxbrz00bs5","1536","864","0","1","0","5ee7335388010f4c1b6bbdc2","","null","","","learningBlock2","","","","<div style=""font-size:60px;""> </div>","null","LF","learning/Slide84.JPG","This is a dep:","","",""
"html-keyboard-response","259","338819","0.0-7.0-0.4","LF","sxbrz00bs5","1536","864","0","1","0","5ee7335388010f4c1b6bbdc2","","null","","","learningBlock2","","","","This is a bim:","null","","","","","",""
"image-keyboard-response","260","339159","0.0-7.0-1.4","LF","sxbrz00bs5","1536","864","0","1","0","5ee7335388010f4c1b6bbdc2","","null","","","","","","","learning/Slide85.JPG","null","","","","","",""
"html-keyboard-response","261","340169","0.0-7.0-2.4","LF","sxbrz00bs5","1536","864","0","1","0","5ee7335388010f4c1b6bbdc2","","null","","","learningBlock2","","","","<div style=""font-size:60px;""> </div>","null","LF","learning/Slide85.JPG","This is a bim:","","",""
"html-keyboard-response","262","341180","0.0-7.0-0.5","LF","sxbrz00bs5","1536","864","0","1","0","5ee7335388010f4c1b6bbdc2","","null","","","learningBlock2","","","","This is a tob:","null","","","","","",""
"image-keyboard-response","263","341519","0.0-7.0-1.5","LF","sxbrz00bs5","1536","864","0","1","0","5ee7335388010f4c1b6bbdc2","","null","","","","","","","learning/Slide86.JPG","null","","","","","",""
"html-keyboard-response","264","342529","0.0-7.0-2.5","LF","sxbrz00bs5","1536","864","0","1","0","5ee7335388010f4c1b6bbdc2","","null","","","learningBlock2","","","","<div style=""font-size:60px;""> </div>","null","LF","learning/Slide86.JPG","This is a tob:","","",""
"html-keyboard-response","265","343535","0.0-7.0-0.6","LF","sxbrz00bs5","1536","864","0","1","0","5ee7335388010f4c1b6bbdc2","","null","","","learningBlock2","","","","This is a wug:","null","","","","","",""
"image-keyboard-response","266","343870","0.0-7.0-1.6","LF","sxbrz00bs5","1536","864","0","1","0","5ee7335388010f4c1b6bbdc2","","null","","","","","","","learning/Slide87.JPG","null","","","","","",""
"html-keyboard-response","267","344880","0.0-7.0-2.6","LF","sxbrz00bs5","1536","864","0","1","0","5ee7335388010f4c1b6bbdc2","","null","","","learningBlock2","","","","<div style=""font-size:60px;""> </div>","null","LF","learning/Slide87.JPG","This is a wug:","","",""
"html-keyboard-response","268","345890","0.0-7.0-0.7","LF","sxbrz00bs5","1536","864","0","1","0","5ee7335388010f4c1b6bbdc2","","null","","","learningBlock2","","","","This is a tob:","null","","","","","",""
"image-keyboard-response","269","346230","0.0-7.0-1.7","LF","sxbrz00bs5","1536","864","0","1","0","5ee7335388010f4c1b6bbdc2","","null","","","","","","","learning/Slide88.JPG","null","","","","","",""
"html-keyboard-response","270","347240","0.0-7.0-2.7","LF","sxbrz00bs5","1536","864","0","1","0","5ee7335388010f4c1b6bbdc2","","null","","","learningBlock2","","","","<div style=""font-size:60px;""> </div>","null","LF","learning/Slide88.JPG","This is a tob:","","",""
"html-keyboard-response","271","348249","0.0-7.0-0.8","LF","sxbrz00bs5","1536","864","0","1","0","5ee7335388010f4c1b6bbdc2","","null","","","learningBlock2","","","","This is a bim:","null","","","","","",""
"image-keyboard-response","272","348589","0.0-7.0-1.8","LF","sxbrz00bs5","1536","864","0","1","0","5ee7335388010f4c1b6bbdc2","","null","","","","","","","learning/Slide89.JPG","null","","","","","",""
"html-keyboard-response","273","349599","0.0-7.0-2.8","LF","sxbrz00bs5","1536","864","0","1","0","5ee7335388010f4c1b6bbdc2","","null","","","learningBlock2","","","","<div style=""font-size:60px;""> </div>","null","LF","learning/Slide89.JPG","This is a bim:","","",""
"html-keyboard-response","274","350609","0.0-7.0-0.9","LF","sxbrz00bs5","1536","864","0","1","0","5ee7335388010f4c1b6bbdc2","","null","","","learningBlock2","","","","This is a dep:","null","","","","","",""
"image-keyboard-response","275","350950","0.0-7.0-1.9","LF","sxbrz00bs5","1536","864","0","1","0","5ee7335388010f4c1b6bbdc2","","null","","","","","","","learning/Slide90.JPG","null","","","","","",""
"html-keyboard-response","276","351958","0.0-7.0-2.9","LF","sxbrz00bs5","1536","864","0","1","0","5ee7335388010f4c1b6bbdc2","","null","","","learningBlock2","","","","<div style=""font-size:60px;""> </div>","null","LF","learning/Slide90.JPG","This is a dep:","","",""
"html-keyboard-response","277","352960","0.0-7.0-0.10","LF","sxbrz00bs5","1536","864","0","1","0","5ee7335388010f4c1b6bbdc2","","null","","","learningBlock2","","","","This is a wug:","null","","","","","",""
"image-keyboard-response","278","353300","0.0-7.0-1.10","LF","sxbrz00bs5","1536","864","0","1","0","5ee7335388010f4c1b6bbdc2","","null","","","","","","","learning/Slide91.JPG","null","","","","","",""
"html-keyboard-response","279","354310","0.0-7.0-2.10","LF","sxbrz00bs5","1536","864","0","1","0","5ee7335388010f4c1b6bbdc2","","null","","","learningBlock2","","","","<div style=""font-size:60px;""> </div>","null","LF","learning/Slide91.JPG","This is a wug:","","",""
"html-keyboard-response","280","355320","0.0-7.0-0.11","LF","sxbrz00bs5","1536","864","0","1","0","5ee7335388010f4c1b6bbdc2","","null","","","learningBlock2","","","","This is a tob:","null","","","","","",""
"image-keyboard-response","281","355660","0.0-7.0-1.11","LF","sxbrz00bs5","1536","864","0","1","0","5ee7335388010f4c1b6bbdc2","","null","","","","","","","learning/Slide92.JPG","null","","","","","",""
"html-keyboard-response","282","356669","0.0-7.0-2.11","LF","sxbrz00bs5","1536","864","0","1","0","5ee7335388010f4c1b6bbdc2","","null","","","learningBlock2","","","","<div style=""font-size:60px;""> </div>","null","LF","learning/Slide92.JPG","This is a tob:","","",""
"html-keyboard-response","283","357679","0.0-7.0-0.12","LF","sxbrz00bs5","1536","864","0","1","0","5ee7335388010f4c1b6bbdc2","","null","","","learningBlock2","","","","This is a bim:","null","","","","","",""
"image-keyboard-response","284","358020","0.0-7.0-1.12","LF","sxbrz00bs5","1536","864","0","1","0","5ee7335388010f4c1b6bbdc2","","null","","","","","","","learning/Slide93.JPG","null","","","","","",""
"html-keyboard-response","285","359029","0.0-7.0-2.12","LF","sxbrz00bs5","1536","864","0","1","0","5ee7335388010f4c1b6bbdc2","","null","","","learningBlock2","","","","<div style=""font-size:60px;""> </div>","null","LF","learning/Slide93.JPG","This is a bim:","","",""
"html-keyboard-response","286","360039","0.0-7.0-0.13","LF","sxbrz00bs5","1536","864","0","1","0","5ee7335388010f4c1b6bbdc2","","null","","","learningBlock2","","","","This is a tob:","null","","","","","",""
"image-keyboard-response","287","360379","0.0-7.0-1.13","LF","sxbrz00bs5","1536","864","0","1","0","5ee7335388010f4c1b6bbdc2","","null","","","","","","","learning/Slide94.JPG","null","","","","","",""
"html-keyboard-response","288","361389","0.0-7.0-2.13","LF","sxbrz00bs5","1536","864","0","1","0","5ee7335388010f4c1b6bbdc2","","null","","","learningBlock2","","","","<div style=""font-size:60px;""> </div>","null","LF","learning/Slide94.JPG","This is a tob:","","",""
"html-keyboard-response","289","362399","0.0-7.0-0.14","LF","sxbrz00bs5","1536","864","0","1","0","5ee7335388010f4c1b6bbdc2","","null","","","learningBlock2","","","","This is a wug:","null","","","","","",""
"image-keyboard-response","290","362740","0.0-7.0-1.14","LF","sxbrz00bs5","1536","864","0","1","0","5ee7335388010f4c1b6bbdc2","","null","","","","","","","learning/Slide95.JPG","null","","","","","",""
"html-keyboard-response","291","363750","0.0-7.0-2.14","LF","sxbrz00bs5","1536","864","0","1","0","5ee7335388010f4c1b6bbdc2","","null","","","learningBlock2","","","","<div style=""font-size:60px;""> </div>","null","LF","learning/Slide95.JPG","This is a wug:","","",""
"html-keyboard-response","292","364760","0.0-7.0-0.15","LF","sxbrz00bs5","1536","864","0","1","0","5ee7335388010f4c1b6bbdc2","","null","","","learningBlock2","","","","This is a tob:","null","","","","","",""
"image-keyboard-response","293","365100","0.0-7.0-1.15","LF","sxbrz00bs5","1536","864","0","1","0","5ee7335388010f4c1b6bbdc2","","null","","","","","","","learning/Slide96.JPG","null","","","","","",""
"html-keyboard-response","294","366109","0.0-7.0-2.15","LF","sxbrz00bs5","1536","864","0","1","0","5ee7335388010f4c1b6bbdc2","","null","","","learningBlock2","","","","<div style=""font-size:60px;""> </div>","null","LF","learning/Slide96.JPG","This is a tob:","","",""
"html-keyboard-response","295","367119","0.0-7.0-0.16","LF","sxbrz00bs5","1536","864","0","1","0","5ee7335388010f4c1b6bbdc2","","null","","","learningBlock2","","","","This is a dep:","null","","","","","",""
"image-keyboard-response","296","367449","0.0-7.0-1.16","LF","sxbrz00bs5","1536","864","0","1","0","5ee7335388010f4c1b6bbdc2","","null","","","","","","","learning/Slide97.JPG","null","","","","","",""
"html-keyboard-response","297","368459","0.0-7.0-2.16","LF","sxbrz00bs5","1536","864","0","1","0","5ee7335388010f4c1b6bbdc2","","null","","","learningBlock2","","","","<div style=""font-size:60px;""> </div>","null","LF","learning/Slide97.JPG","This is a dep:","","",""
"html-keyboard-response","298","369469","0.0-7.0-0.17","LF","sxbrz00bs5","1536","864","0","1","0","5ee7335388010f4c1b6bbdc2","","null","","","learningBlock2","","","","This is a bim:","null","","","","","",""
"image-keyboard-response","299","369810","0.0-7.0-1.17","LF","sxbrz00bs5","1536","864","0","1","0","5ee7335388010f4c1b6bbdc2","","null","","","","","","","learning/Slide98.JPG","null","","","","","",""
"html-keyboard-response","300","370819","0.0-7.0-2.17","LF","sxbrz00bs5","1536","864","0","1","0","5ee7335388010f4c1b6bbdc2","","null","","","learningBlock2","","","","<div style=""font-size:60px;""> </div>","null","LF","learning/Slide98.JPG","This is a bim:","","",""
"html-keyboard-response","301","371829","0.0-7.0-0.18","LF","sxbrz00bs5","1536","864","0","1","0","5ee7335388010f4c1b6bbdc2","","null","","","learningBlock2","","","","This is a dep:","null","","","","","",""
"image-keyboard-response","302","372169","0.0-7.0-1.18","LF","sxbrz00bs5","1536","864","0","1","0","5ee7335388010f4c1b6bbdc2","","null","","","","","","","learning/Slide99.JPG","null","","","","","",""
"html-keyboard-response","303","373180","0.0-7.0-2.18","LF","sxbrz00bs5","1536","864","0","1","0","5ee7335388010f4c1b6bbdc2","","null","","","learningBlock2","","","","<div style=""font-size:60px;""> </div>","null","LF","learning/Slide99.JPG","This is a dep:","","",""
"html-keyboard-response","304","374189","0.0-7.0-0.19","LF","sxbrz00bs5","1536","864","0","1","0","5ee7335388010f4c1b6bbdc2","","null","","","learningBlock2","","","","This is a bim:","null","","","","","",""
"image-keyboard-response","305","374530","0.0-7.0-1.19","LF","sxbrz00bs5","1536","864","0","1","0","5ee7335388010f4c1b6bbdc2","","null","","","","","","","learning/Slide100.JPG","null","","","","","",""
"html-keyboard-response","306","375539","0.0-7.0-2.19","LF","sxbrz00bs5","1536","864","0","1","0","5ee7335388010f4c1b6bbdc2","","null","","","learningBlock2","","","","<div style=""font-size:60px;""> </div>","null","LF","learning/Slide100.JPG","This is a bim:","","",""
"html-keyboard-response","307","376549","0.0-7.0-0.20","LF","sxbrz00bs5","1536","864","0","1","0","5ee7335388010f4c1b6bbdc2","","null","","","learningBlock2","","","","This is a tob:","null","","","","","",""
"image-keyboard-response","308","376889","0.0-7.0-1.20","LF","sxbrz00bs5","1536","864","0","1","0","5ee7335388010f4c1b6bbdc2","","null","","","","","","","learning/Slide101.JPG","null","","","","","",""
"html-keyboard-response","309","377899","0.0-7.0-2.20","LF","sxbrz00bs5","1536","864","0","1","0","5ee7335388010f4c1b6bbdc2","","null","","","learningBlock2","","","","<div style=""font-size:60px;""> </div>","null","LF","learning/Slide101.JPG","This is a tob:","","",""
"html-keyboard-response","310","378909","0.0-7.0-0.21","LF","sxbrz00bs5","1536","864","0","1","0","5ee7335388010f4c1b6bbdc2","","null","","","learningBlock2","","","","This is a bim:","null","","","","","",""
"image-keyboard-response","311","379239","0.0-7.0-1.21","LF","sxbrz00bs5","1536","864","0","1","0","5ee7335388010f4c1b6bbdc2","","null","","","","","","","learning/Slide102.JPG","null","","","","","",""
"html-keyboard-response","312","380250","0.0-7.0-2.21","LF","sxbrz00bs5","1536","864","0","1","0","5ee7335388010f4c1b6bbdc2","","null","","","learningBlock2","","","","<div style=""font-size:60px;""> </div>","null","LF","learning/Slide102.JPG","This is a bim:","","",""
"html-keyboard-response","313","381259","0.0-7.0-0.22","LF","sxbrz00bs5","1536","864","0","1","0","5ee7335388010f4c1b6bbdc2","","null","","","learningBlock2","","","","This is a dep:","null","","","","","",""
"image-keyboard-response","314","381600","0.0-7.0-1.22","LF","sxbrz00bs5","1536","864","0","1","0","5ee7335388010f4c1b6bbdc2","","null","","","","","","","learning/Slide103.JPG","null","","","","","",""
"html-keyboard-response","315","382600","0.0-7.0-2.22","LF","sxbrz00bs5","1536","864","0","1","0","5ee7335388010f4c1b6bbdc2","","null","","","learningBlock2","","","","<div style=""font-size:60px;""> </div>","null","LF","learning/Slide103.JPG","This is a dep:","","",""
"html-keyboard-response","316","383601","0.0-7.0-0.23","LF","sxbrz00bs5","1536","864","0","1","0","5ee7335388010f4c1b6bbdc2","","null","","","learningBlock2","","","","This is a tob:","null","","","","","",""
"image-keyboard-response","317","383941","0.0-7.0-1.23","LF","sxbrz00bs5","1536","864","0","1","0","5ee7335388010f4c1b6bbdc2","","null","","","","","","","learning/Slide104.JPG","null","","","","","",""
"html-keyboard-response","318","384951","0.0-7.0-2.23","LF","sxbrz00bs5","1536","864","0","1","0","5ee7335388010f4c1b6bbdc2","","null","","","learningBlock2","","","","<div style=""font-size:60px;""> </div>","null","LF","learning/Slide104.JPG","This is a tob:","","",""
"html-keyboard-response","319","385961","0.0-7.0-0.24","LF","sxbrz00bs5","1536","864","0","1","0","5ee7335388010f4c1b6bbdc2","","null","","","learningBlock2","","","","This is a dep:","null","","","","","",""
"image-keyboard-response","320","386302","0.0-7.0-1.24","LF","sxbrz00bs5","1536","864","0","1","0","5ee7335388010f4c1b6bbdc2","","null","","","","","","","learning/Slide105.JPG","null","","","","","",""
"html-keyboard-response","321","387311","0.0-7.0-2.24","LF","sxbrz00bs5","1536","864","0","1","0","5ee7335388010f4c1b6bbdc2","","null","","","learningBlock2","","","","<div style=""font-size:60px;""> </div>","null","LF","learning/Slide105.JPG","This is a dep:","","",""
"html-keyboard-response","322","388321","0.0-7.0-0.25","LF","sxbrz00bs5","1536","864","0","1","0","5ee7335388010f4c1b6bbdc2","","null","","","learningBlock2","","","","This is a wug:","null","","","","","",""
"image-keyboard-response","323","388662","0.0-7.0-1.25","LF","sxbrz00bs5","1536","864","0","1","0","5ee7335388010f4c1b6bbdc2","","null","","","","","","","learning/Slide106.JPG","null","","","","","",""
"html-keyboard-response","324","389671","0.0-7.0-2.25","LF","sxbrz00bs5","1536","864","0","1","0","5ee7335388010f4c1b6bbdc2","","null","","","learningBlock2","","","","<div style=""font-size:60px;""> </div>","null","LF","learning/Slide106.JPG","This is a wug:","","",""
"html-keyboard-response","325","390681","0.0-7.0-0.26","LF","sxbrz00bs5","1536","864","0","1","0","5ee7335388010f4c1b6bbdc2","","null","","","learningBlock2","","","","This is a bim:","null","","","","","",""
"image-keyboard-response","326","391021","0.0-7.0-1.26","LF","sxbrz00bs5","1536","864","0","1","0","5ee7335388010f4c1b6bbdc2","","null","","","","","","","learning/Slide107.JPG","null","","","","","",""
"html-keyboard-response","327","392031","0.0-7.0-2.26","LF","sxbrz00bs5","1536","864","0","1","0","5ee7335388010f4c1b6bbdc2","","null","","","learningBlock2","","","","<div style=""font-size:60px;""> </div>","null","LF","learning/Slide107.JPG","This is a bim:","","",""
"html-keyboard-response","328","393041","0.0-7.0-0.27","LF","sxbrz00bs5","1536","864","0","1","0","5ee7335388010f4c1b6bbdc2","","null","","","learningBlock2","","","","This is a dep:","null","","","","","",""
"image-keyboard-response","329","393381","0.0-7.0-1.27","LF","sxbrz00bs5","1536","864","0","1","0","5ee7335388010f4c1b6bbdc2","","null","","","","","","","learning/Slide108.JPG","null","","","","","",""
"html-keyboard-response","330","394391","0.0-7.0-2.27","LF","sxbrz00bs5","1536","864","0","1","0","5ee7335388010f4c1b6bbdc2","","null","","","learningBlock2","","","","<div style=""font-size:60px;""> </div>","null","LF","learning/Slide108.JPG","This is a dep:","","",""
"html-keyboard-response","331","395401","0.0-7.0-0.28","LF","sxbrz00bs5","1536","864","0","1","0","5ee7335388010f4c1b6bbdc2","","null","","","learningBlock2","","","","This is a wug:","null","","","","","",""
"image-keyboard-response","332","395741","0.0-7.0-1.28","LF","sxbrz00bs5","1536","864","0","1","0","5ee7335388010f4c1b6bbdc2","","null","","","","","","","learning/Slide109.JPG","null","","","","","",""
"html-keyboard-response","333","396751","0.0-7.0-2.28","LF","sxbrz00bs5","1536","864","0","1","0","5ee7335388010f4c1b6bbdc2","","null","","","learningBlock2","","","","<div style=""font-size:60px;""> </div>","null","LF","learning/Slide109.JPG","This is a wug:","","",""
"html-keyboard-response","334","397761","0.0-7.0-0.29","LF","sxbrz00bs5","1536","864","0","1","0","5ee7335388010f4c1b6bbdc2","","null","","","learningBlock2","","","","This is a bim:","null","","","","","",""
"image-keyboard-response","335","398101","0.0-7.0-1.29","LF","sxbrz00bs5","1536","864","0","1","0","5ee7335388010f4c1b6bbdc2","","null","","","","","","","learning/Slide110.JPG","null","","","","","",""
"html-keyboard-response","336","399104","0.0-7.0-2.29","LF","sxbrz00bs5","1536","864","0","1","0","5ee7335388010f4c1b6bbdc2","","null","","","learningBlock2","","","","<div style=""font-size:60px;""> </div>","null","LF","learning/Slide110.JPG","This is a bim:","","",""
"html-keyboard-response","337","400111","0.0-7.0-0.30","LF","sxbrz00bs5","1536","864","0","1","0","5ee7335388010f4c1b6bbdc2","","null","","","learningBlock2","","","","This is a tob:","null","","","","","",""
"image-keyboard-response","338","400451","0.0-7.0-1.30","LF","sxbrz00bs5","1536","864","0","1","0","5ee7335388010f4c1b6bbdc2","","null","","","","","","","learning/Slide111.JPG","null","","","","","",""
"html-keyboard-response","339","401451","0.0-7.0-2.30","LF","sxbrz00bs5","1536","864","0","1","0","5ee7335388010f4c1b6bbdc2","","null","","","learningBlock2","","","","<div style=""font-size:60px;""> </div>","null","LF","learning/Slide111.JPG","This is a tob:","","",""
"html-keyboard-response","340","402461","0.0-7.0-0.31","LF","sxbrz00bs5","1536","864","0","1","0","5ee7335388010f4c1b6bbdc2","","null","","","learningBlock2","","","","This is a wug:","null","","","","","",""
"image-keyboard-response","341","402801","0.0-7.0-1.31","LF","sxbrz00bs5","1536","864","0","1","0","5ee7335388010f4c1b6bbdc2","","null","","","","","","","learning/Slide112.JPG","null","","","","","",""
"html-keyboard-response","342","403811","0.0-7.0-2.31","LF","sxbrz00bs5","1536","864","0","1","0","5ee7335388010f4c1b6bbdc2","","null","","","learningBlock2","","","","<div style=""font-size:60px;""> </div>","null","LF","learning/Slide112.JPG","This is a wug:","","",""
"html-keyboard-response","343","404814","0.0-7.0-0.32","LF","sxbrz00bs5","1536","864","0","1","0","5ee7335388010f4c1b6bbdc2","","null","","","learningBlock2","","","","This is a tob:","null","","","","","",""
"image-keyboard-response","344","405151","0.0-7.0-1.32","LF","sxbrz00bs5","1536","864","0","1","0","5ee7335388010f4c1b6bbdc2","","null","","","","","","","learning/Slide113.JPG","null","","","","","",""
"html-keyboard-response","345","406161","0.0-7.0-2.32","LF","sxbrz00bs5","1536","864","0","1","0","5ee7335388010f4c1b6bbdc2","","null","","","learningBlock2","","","","<div style=""font-size:60px;""> </div>","null","LF","learning/Slide113.JPG","This is a tob:","","",""
"html-keyboard-response","346","407171","0.0-7.0-0.33","LF","sxbrz00bs5","1536","864","0","1","0","5ee7335388010f4c1b6bbdc2","","null","","","learningBlock2","","","","This is a wug:","null","","","","","",""
"image-keyboard-response","347","407511","0.0-7.0-1.33","LF","sxbrz00bs5","1536","864","0","1","0","5ee7335388010f4c1b6bbdc2","","null","","","","","","","learning/Slide114.JPG","null","","","","","",""
"html-keyboard-response","348","408520","0.0-7.0-2.33","LF","sxbrz00bs5","1536","864","0","1","0","5ee7335388010f4c1b6bbdc2","","null","","","learningBlock2","","","","<div style=""font-size:60px;""> </div>","null","LF","learning/Slide114.JPG","This is a wug:","","",""
"html-keyboard-response","349","409531","0.0-7.0-0.34","LF","sxbrz00bs5","1536","864","0","1","0","5ee7335388010f4c1b6bbdc2","","null","","","learningBlock2","","","","This is a bim:","null","","","","","",""
"image-keyboard-response","350","409871","0.0-7.0-1.34","LF","sxbrz00bs5","1536","864","0","1","0","5ee7335388010f4c1b6bbdc2","","null","","","","","","","learning/Slide115.JPG","null","","","","","",""
"html-keyboard-response","351","410881","0.0-7.0-2.34","LF","sxbrz00bs5","1536","864","0","1","0","5ee7335388010f4c1b6bbdc2","","null","","","learningBlock2","","","","<div style=""font-size:60px;""> </div>","null","LF","learning/Slide115.JPG","This is a bim:","","",""
"html-keyboard-response","352","411891","0.0-7.0-0.35","LF","sxbrz00bs5","1536","864","0","1","0","5ee7335388010f4c1b6bbdc2","","null","","","learningBlock2","","","","This is a dep:","null","","","","","",""
"image-keyboard-response","353","412231","0.0-7.0-1.35","LF","sxbrz00bs5","1536","864","0","1","0","5ee7335388010f4c1b6bbdc2","","null","","","","","","","learning/Slide116.JPG","null","","","","","",""
"html-keyboard-response","354","413241","0.0-7.0-2.35","LF","sxbrz00bs5","1536","864","0","1","0","5ee7335388010f4c1b6bbdc2","","null","","","learningBlock2","","","","<div style=""font-size:60px;""> </div>","null","LF","learning/Slide116.JPG","This is a dep:","","",""
"html-keyboard-response","355","414251","0.0-7.0-0.36","LF","sxbrz00bs5","1536","864","0","1","0","5ee7335388010f4c1b6bbdc2","","null","","","learningBlock2","","","","This is a tob:","null","","","","","",""
"image-keyboard-response","356","414581","0.0-7.0-1.36","LF","sxbrz00bs5","1536","864","0","1","0","5ee7335388010f4c1b6bbdc2","","null","","","","","","","learning/Slide117.JPG","null","","","","","",""
"html-keyboard-response","357","415591","0.0-7.0-2.36","LF","sxbrz00bs5","1536","864","0","1","0","5ee7335388010f4c1b6bbdc2","","null","","","learningBlock2","","","","<div style=""font-size:60px;""> </div>","null","LF","learning/Slide117.JPG","This is a tob:","","",""
"html-keyboard-response","358","416601","0.0-7.0-0.37","LF","sxbrz00bs5","1536","864","0","1","0","5ee7335388010f4c1b6bbdc2","","null","","","learningBlock2","","","","This is a dep:","null","","","","","",""
"image-keyboard-response","359","416940","0.0-7.0-1.37","LF","sxbrz00bs5","1536","864","0","1","0","5ee7335388010f4c1b6bbdc2","","null","","","","","","","learning/Slide118.JPG","null","","","","","",""
"html-keyboard-response","360","417950","0.0-7.0-2.37","LF","sxbrz00bs5","1536","864","0","1","0","5ee7335388010f4c1b6bbdc2","","null","","","learningBlock2","","","","<div style=""font-size:60px;""> </div>","null","LF","learning/Slide118.JPG","This is a dep:","","",""
"html-keyboard-response","361","418961","0.0-7.0-0.38","LF","sxbrz00bs5","1536","864","0","1","0","5ee7335388010f4c1b6bbdc2","","null","","","learningBlock2","","","","This is a wug:","null","","","","","",""
"image-keyboard-response","362","419301","0.0-7.0-1.38","LF","sxbrz00bs5","1536","864","0","1","0","5ee7335388010f4c1b6bbdc2","","null","","","","","","","learning/Slide119.JPG","null","","","","","",""
"html-keyboard-response","363","420311","0.0-7.0-2.38","LF","sxbrz00bs5","1536","864","0","1","0","5ee7335388010f4c1b6bbdc2","","null","","","learningBlock2","","","","<div style=""font-size:60px;""> </div>","null","LF","learning/Slide119.JPG","This is a wug:","","",""
"html-keyboard-response","364","421321","0.0-7.0-0.39","LF","sxbrz00bs5","1536","864","0","1","0","5ee7335388010f4c1b6bbdc2","","null","","","learningBlock2","","","","This is a dep:","null","","","","","",""
"image-keyboard-response","365","421661","0.0-7.0-1.39","LF","sxbrz00bs5","1536","864","0","1","0","5ee7335388010f4c1b6bbdc2","","null","","","","","","","learning/Slide120.JPG","null","","","","","",""
"html-keyboard-response","366","422670","0.0-7.0-2.39","LF","sxbrz00bs5","1536","864","0","1","0","5ee7335388010f4c1b6bbdc2","","null","","","learningBlock2","","","","<div style=""font-size:60px;""> </div>","null","LF","learning/Slide120.JPG","This is a dep:","","",""
"html-keyboard-response","367","423681","0.0-7.0-0.40","LF","sxbrz00bs5","1536","864","0","1","0","5ee7335388010f4c1b6bbdc2","","null","","","learningBlock2","","","","This is a bim:","null","","","","","",""
"image-keyboard-response","368","424021","0.0-7.0-1.40","LF","sxbrz00bs5","1536","864","0","1","0","5ee7335388010f4c1b6bbdc2","","null","","","","","","","learning/Slide121.JPG","null","","","","","",""
"html-keyboard-response","369","425031","0.0-7.0-2.40","LF","sxbrz00bs5","1536","864","0","1","0","5ee7335388010f4c1b6bbdc2","","null","","","learningBlock2","","","","<div style=""font-size:60px;""> </div>","null","LF","learning/Slide121.JPG","This is a bim:","","",""
"html-keyboard-response","370","426041","0.0-7.0-0.41","LF","sxbrz00bs5","1536","864","0","1","0","5ee7335388010f4c1b6bbdc2","","null","","","learningBlock2","","","","This is a wug:","null","","","","","",""
"image-keyboard-response","371","426380","0.0-7.0-1.41","LF","sxbrz00bs5","1536","864","0","1","0","5ee7335388010f4c1b6bbdc2","","null","","","","","","","learning/Slide122.JPG","null","","","","","",""
"html-keyboard-response","372","427391","0.0-7.0-2.41","LF","sxbrz00bs5","1536","864","0","1","0","5ee7335388010f4c1b6bbdc2","","null","","","learningBlock2","","","","<div style=""font-size:60px;""> </div>","null","LF","learning/Slide122.JPG","This is a wug:","","",""
"html-keyboard-response","373","428393","0.0-7.0-0.42","LF","sxbrz00bs5","1536","864","0","1","0","5ee7335388010f4c1b6bbdc2","","null","","","learningBlock2","","","","This is a bim:","null","","","","","",""
"image-keyboard-response","374","428723","0.0-7.0-1.42","LF","sxbrz00bs5","1536","864","0","1","0","5ee7335388010f4c1b6bbdc2","","null","","","","","","","learning/Slide123.JPG","null","","","","","",""
"html-keyboard-response","375","429733","0.0-7.0-2.42","LF","sxbrz00bs5","1536","864","0","1","0","5ee7335388010f4c1b6bbdc2","","null","","","learningBlock2","","","","<div style=""font-size:60px;""> </div>","null","LF","learning/Slide123.JPG","This is a bim:","","",""
"html-keyboard-response","376","430744","0.0-7.0-0.43","LF","sxbrz00bs5","1536","864","0","1","0","5ee7335388010f4c1b6bbdc2","","null","","","learningBlock2","","","","This is a tob:","null","","","","","",""
"image-keyboard-response","377","431083","0.0-7.0-1.43","LF","sxbrz00bs5","1536","864","0","1","0","5ee7335388010f4c1b6bbdc2","","null","","","","","","","learning/Slide124.JPG","null","","","","","",""
"html-keyboard-response","378","432093","0.0-7.0-2.43","LF","sxbrz00bs5","1536","864","0","1","0","5ee7335388010f4c1b6bbdc2","","null","","","learningBlock2","","","","<div style=""font-size:60px;""> </div>","null","LF","learning/Slide124.JPG","This is a tob:","","",""
"html-keyboard-response","379","433103","0.0-7.0-0.44","LF","sxbrz00bs5","1536","864","0","1","0","5ee7335388010f4c1b6bbdc2","","null","","","learningBlock2","","","","This is a bim:","null","","","","","",""
"image-keyboard-response","380","433443","0.0-7.0-1.44","LF","sxbrz00bs5","1536","864","0","1","0","5ee7335388010f4c1b6bbdc2","","null","","","","","","","learning/Slide125.JPG","null","","","","","",""
"html-keyboard-response","381","434454","0.0-7.0-2.44","LF","sxbrz00bs5","1536","864","0","1","0","5ee7335388010f4c1b6bbdc2","","null","","","learningBlock2","","","","<div style=""font-size:60px;""> </div>","null","LF","learning/Slide125.JPG","This is a bim:","","",""
"html-keyboard-response","382","435463","0.0-7.0-0.45","LF","sxbrz00bs5","1536","864","0","1","0","5ee7335388010f4c1b6bbdc2","","null","","","learningBlock2","","","","This is a tob:","null","","","","","",""
"image-keyboard-response","383","435803","0.0-7.0-1.45","LF","sxbrz00bs5","1536","864","0","1","0","5ee7335388010f4c1b6bbdc2","","null","","","","","","","learning/Slide126.JPG","null","","","","","",""
"html-keyboard-response","384","436814","0.0-7.0-2.45","LF","sxbrz00bs5","1536","864","0","1","0","5ee7335388010f4c1b6bbdc2","","null","","","learningBlock2","","","","<div style=""font-size:60px;""> </div>","null","LF","learning/Slide126.JPG","This is a tob:","","",""
"html-keyboard-response","385","437823","0.0-7.0-0.46","LF","sxbrz00bs5","1536","864","0","1","0","5ee7335388010f4c1b6bbdc2","","null","","","learningBlock2","","","","This is a dep:","null","","","","","",""
"image-keyboard-response","386","438159","0.0-7.0-1.46","LF","sxbrz00bs5","1536","864","0","1","0","5ee7335388010f4c1b6bbdc2","","null","","","","","","","learning/Slide127.JPG","null","","","","","",""
"html-keyboard-response","387","439163","0.0-7.0-2.46","LF","sxbrz00bs5","1536","864","0","1","0","5ee7335388010f4c1b6bbdc2","","null","","","learningBlock2","","","","<div style=""font-size:60px;""> </div>","null","LF","learning/Slide127.JPG","This is a dep:","","",""
"html-keyboard-response","388","440174","0.0-7.0-0.47","LF","sxbrz00bs5","1536","864","0","1","0","5ee7335388010f4c1b6bbdc2","","null","","","learningBlock2","","","","This is a wug:","null","","","","","",""
"image-keyboard-response","389","440512","0.0-7.0-1.47","LF","sxbrz00bs5","1536","864","0","1","0","5ee7335388010f4c1b6bbdc2","","null","","","","","","","learning/Slide128.JPG","null","","","","","",""
"html-keyboard-response","390","441523","0.0-7.0-2.47","LF","sxbrz00bs5","1536","864","0","1","0","5ee7335388010f4c1b6bbdc2","","null","","","learningBlock2","","","","<div style=""font-size:60px;""> </div>","null","LF","learning/Slide128.JPG","This is a wug:","","",""
"html-keyboard-response","391","442533","0.0-7.0-0.48","LF","sxbrz00bs5","1536","864","0","1","0","5ee7335388010f4c1b6bbdc2","","null","","","learningBlock2","","","","This is a tob:","null","","","","","",""
"image-keyboard-response","392","442864","0.0-7.0-1.48","LF","sxbrz00bs5","1536","864","0","1","0","5ee7335388010f4c1b6bbdc2","","null","","","","","","","learning/Slide129.JPG","null","","","","","",""
"html-keyboard-response","393","443874","0.0-7.0-2.48","LF","sxbrz00bs5","1536","864","0","1","0","5ee7335388010f4c1b6bbdc2","","null","","","learningBlock2","","","","<div style=""font-size:60px;""> </div>","null","LF","learning/Slide129.JPG","This is a tob:","","",""
"html-keyboard-response","394","444884","0.0-7.0-0.49","LF","sxbrz00bs5","1536","864","0","1","0","5ee7335388010f4c1b6bbdc2","","null","","","learningBlock2","","","","This is a wug:","null","","","","","",""
"image-keyboard-response","395","445224","0.0-7.0-1.49","LF","sxbrz00bs5","1536","864","0","1","0","5ee7335388010f4c1b6bbdc2","","null","","","","","","","learning/Slide130.JPG","null","","","","","",""
"html-keyboard-response","396","446233","0.0-7.0-2.49","LF","sxbrz00bs5","1536","864","0","1","0","5ee7335388010f4c1b6bbdc2","","null","","","learningBlock2","","","","<div style=""font-size:60px;""> </div>","null","LF","learning/Slide130.JPG","This is a wug:","","",""
"html-keyboard-response","397","447244","0.0-7.0-0.50","LF","sxbrz00bs5","1536","864","0","1","0","5ee7335388010f4c1b6bbdc2","","null","","","learningBlock2","","","","This is a bim:","null","","","","","",""
"image-keyboard-response","398","447583","0.0-7.0-1.50","LF","sxbrz00bs5","1536","864","0","1","0","5ee7335388010f4c1b6bbdc2","","null","","","","","","","learning/Slide131.JPG","null","","","","","",""
"html-keyboard-response","399","448594","0.0-7.0-2.50","LF","sxbrz00bs5","1536","864","0","1","0","5ee7335388010f4c1b6bbdc2","","null","","","learningBlock2","","","","<div style=""font-size:60px;""> </div>","null","LF","learning/Slide131.JPG","This is a bim:","","",""
"html-keyboard-response","400","449603","0.0-7.0-0.51","LF","sxbrz00bs5","1536","864","0","1","0","5ee7335388010f4c1b6bbdc2","","null","","","learningBlock2","","","","This is a dep:","null","","","","","",""
"image-keyboard-response","401","449943","0.0-7.0-1.51","LF","sxbrz00bs5","1536","864","0","1","0","5ee7335388010f4c1b6bbdc2","","null","","","","","","","learning/Slide132.JPG","null","","","","","",""
"html-keyboard-response","402","450954","0.0-7.0-2.51","LF","sxbrz00bs5","1536","864","0","1","0","5ee7335388010f4c1b6bbdc2","","null","","","learningBlock2","","","","<div style=""font-size:60px;""> </div>","null","LF","learning/Slide132.JPG","This is a dep:","","",""
"html-keyboard-response","403","451963","0.0-7.0-0.52","LF","sxbrz00bs5","1536","864","0","1","0","5ee7335388010f4c1b6bbdc2","","null","","","learningBlock2","","","","This is a tob:","null","","","","","",""
"image-keyboard-response","404","452304","0.0-7.0-1.52","LF","sxbrz00bs5","1536","864","0","1","0","5ee7335388010f4c1b6bbdc2","","null","","","","","","","learning/Slide133.JPG","null","","","","","",""
"html-keyboard-response","405","453314","0.0-7.0-2.52","LF","sxbrz00bs5","1536","864","0","1","0","5ee7335388010f4c1b6bbdc2","","null","","","learningBlock2","","","","<div style=""font-size:60px;""> </div>","null","LF","learning/Slide133.JPG","This is a tob:","","",""
"html-keyboard-response","406","454324","0.0-7.0-0.53","LF","sxbrz00bs5","1536","864","0","1","0","5ee7335388010f4c1b6bbdc2","","null","","","learningBlock2","","","","This is a dep:","null","","","","","",""
"image-keyboard-response","407","454664","0.0-7.0-1.53","LF","sxbrz00bs5","1536","864","0","1","0","5ee7335388010f4c1b6bbdc2","","null","","","","","","","learning/Slide134.JPG","null","","","","","",""
"html-keyboard-response","408","455674","0.0-7.0-2.53","LF","sxbrz00bs5","1536","864","0","1","0","5ee7335388010f4c1b6bbdc2","","null","","","learningBlock2","","","","<div style=""font-size:60px;""> </div>","null","LF","learning/Slide134.JPG","This is a dep:","","",""
"html-keyboard-response","409","456684","0.0-7.0-0.54","LF","sxbrz00bs5","1536","864","0","1","0","5ee7335388010f4c1b6bbdc2","","null","","","learningBlock2","","","","This is a tob:","null","","","","","",""
"image-keyboard-response","410","457014","0.0-7.0-1.54","LF","sxbrz00bs5","1536","864","0","1","0","5ee7335388010f4c1b6bbdc2","","null","","","","","","","learning/Slide135.JPG","null","","","","","",""
"html-keyboard-response","411","458024","0.0-7.0-2.54","LF","sxbrz00bs5","1536","864","0","1","0","5ee7335388010f4c1b6bbdc2","","null","","","learningBlock2","","","","<div style=""font-size:60px;""> </div>","null","LF","learning/Slide135.JPG","This is a tob:","","",""
"html-keyboard-response","412","459033","0.0-7.0-0.55","LF","sxbrz00bs5","1536","864","0","1","0","5ee7335388010f4c1b6bbdc2","","null","","","learningBlock2","","","","This is a wug:","null","","","","","",""
"image-keyboard-response","413","459373","0.0-7.0-1.55","LF","sxbrz00bs5","1536","864","0","1","0","5ee7335388010f4c1b6bbdc2","","null","","","","","","","learning/Slide136.JPG","null","","","","","",""
"html-keyboard-response","414","460383","0.0-7.0-2.55","LF","sxbrz00bs5","1536","864","0","1","0","5ee7335388010f4c1b6bbdc2","","null","","","learningBlock2","","","","<div style=""font-size:60px;""> </div>","null","LF","learning/Slide136.JPG","This is a wug:","","",""
"html-keyboard-response","415","461394","0.0-7.0-0.56","LF","sxbrz00bs5","1536","864","0","1","0","5ee7335388010f4c1b6bbdc2","","null","","","learningBlock2","","","","This is a tob:","null","","","","","",""
"image-keyboard-response","416","461733","0.0-7.0-1.56","LF","sxbrz00bs5","1536","864","0","1","0","5ee7335388010f4c1b6bbdc2","","null","","","","","","","learning/Slide137.JPG","null","","","","","",""
"html-keyboard-response","417","462744","0.0-7.0-2.56","LF","sxbrz00bs5","1536","864","0","1","0","5ee7335388010f4c1b6bbdc2","","null","","","learningBlock2","","","","<div style=""font-size:60px;""> </div>","null","LF","learning/Slide137.JPG","This is a tob:","","",""
"html-keyboard-response","418","463754","0.0-7.0-0.57","LF","sxbrz00bs5","1536","864","0","1","0","5ee7335388010f4c1b6bbdc2","","null","","","learningBlock2","","","","This is a bim:","null","","","","","",""
"image-keyboard-response","419","464093","0.0-7.0-1.57","LF","sxbrz00bs5","1536","864","0","1","0","5ee7335388010f4c1b6bbdc2","","null","","","","","","","learning/Slide138.JPG","null","","","","","",""
"html-keyboard-response","420","465104","0.0-7.0-2.57","LF","sxbrz00bs5","1536","864","0","1","0","5ee7335388010f4c1b6bbdc2","","null","","","learningBlock2","","","","<div style=""font-size:60px;""> </div>","null","LF","learning/Slide138.JPG","This is a bim:","","",""
"html-keyboard-response","421","466114","0.0-7.0-0.58","LF","sxbrz00bs5","1536","864","0","1","0","5ee7335388010f4c1b6bbdc2","","null","","","learningBlock2","","","","This is a wug:","null","","","","","",""
"image-keyboard-response","422","466453","0.0-7.0-1.58","LF","sxbrz00bs5","1536","864","0","1","0","5ee7335388010f4c1b6bbdc2","","null","","","","","","","learning/Slide139.JPG","null","","","","","",""
"html-keyboard-response","423","467463","0.0-7.0-2.58","LF","sxbrz00bs5","1536","864","0","1","0","5ee7335388010f4c1b6bbdc2","","null","","","learningBlock2","","","","<div style=""font-size:60px;""> </div>","null","LF","learning/Slide139.JPG","This is a wug:","","",""
"html-keyboard-response","424","468473","0.0-7.0-0.59","LF","sxbrz00bs5","1536","864","0","1","0","5ee7335388010f4c1b6bbdc2","","null","","","learningBlock2","","","","This is a dep:","null","","","","","",""
"image-keyboard-response","425","468804","0.0-7.0-1.59","LF","sxbrz00bs5","1536","864","0","1","0","5ee7335388010f4c1b6bbdc2","","null","","","","","","","learning/Slide140.JPG","null","","","","","",""
"html-keyboard-response","426","469814","0.0-7.0-2.59","LF","sxbrz00bs5","1536","864","0","1","0","5ee7335388010f4c1b6bbdc2","","null","","","learningBlock2","","","","<div style=""font-size:60px;""> </div>","null","LF","learning/Slide140.JPG","This is a dep:","","",""
"html-keyboard-response","427","470823","0.0-7.0-0.60","LF","sxbrz00bs5","1536","864","0","1","0","5ee7335388010f4c1b6bbdc2","","null","","","learningBlock2","","","","This is a tob:","null","","","","","",""
"image-keyboard-response","428","471163","0.0-7.0-1.60","LF","sxbrz00bs5","1536","864","0","1","0","5ee7335388010f4c1b6bbdc2","","null","","","","","","","learning/Slide141.JPG","null","","","","","",""
"html-keyboard-response","429","472173","0.0-7.0-2.60","LF","sxbrz00bs5","1536","864","0","1","0","5ee7335388010f4c1b6bbdc2","","null","","","learningBlock2","","","","<div style=""font-size:60px;""> </div>","null","LF","learning/Slide141.JPG","This is a tob:","","",""
"html-keyboard-response","430","473174","0.0-7.0-0.61","LF","sxbrz00bs5","1536","864","0","1","0","5ee7335388010f4c1b6bbdc2","","null","","","learningBlock2","","","","This is a wug:","null","","","","","",""
"image-keyboard-response","431","473514","0.0-7.0-1.61","LF","sxbrz00bs5","1536","864","0","1","0","5ee7335388010f4c1b6bbdc2","","null","","","","","","","learning/Slide142.JPG","null","","","","","",""
"html-keyboard-response","432","474517","0.0-7.0-2.61","LF","sxbrz00bs5","1536","864","0","1","0","5ee7335388010f4c1b6bbdc2","","null","","","learningBlock2","","","","<div style=""font-size:60px;""> </div>","null","LF","learning/Slide142.JPG","This is a wug:","","",""
"html-keyboard-response","433","475525","0.0-7.0-0.62","LF","sxbrz00bs5","1536","864","0","1","0","5ee7335388010f4c1b6bbdc2","","null","","","learningBlock2","","","","This is a bim:","null","","","","","",""
"image-keyboard-response","434","475865","0.0-7.0-1.62","LF","sxbrz00bs5","1536","864","0","1","0","5ee7335388010f4c1b6bbdc2","","null","","","","","","","learning/Slide143.JPG","null","","","","","",""
"html-keyboard-response","435","476875","0.0-7.0-2.62","LF","sxbrz00bs5","1536","864","0","1","0","5ee7335388010f4c1b6bbdc2","","null","","","learningBlock2","","","","<div style=""font-size:60px;""> </div>","null","LF","learning/Slide143.JPG","This is a bim:","","",""
"html-keyboard-response","436","477884","0.0-7.0-0.63","LF","sxbrz00bs5","1536","864","0","1","0","5ee7335388010f4c1b6bbdc2","","null","","","learningBlock2","","","","This is a dep:","null","","","","","",""
"image-keyboard-response","437","478224","0.0-7.0-1.63","LF","sxbrz00bs5","1536","864","0","1","0","5ee7335388010f4c1b6bbdc2","","null","","","","","","","learning/Slide144.JPG","null","","","","","",""
"html-keyboard-response","438","479234","0.0-7.0-2.63","LF","sxbrz00bs5","1536","864","0","1","0","5ee7335388010f4c1b6bbdc2","","null","","","learningBlock2","","","","<div style=""font-size:60px;""> </div>","null","LF","learning/Slide144.JPG","This is a dep:","","",""
