"trial_type","trial_index","time_elapsed","internal_node_id","condition","subject","screen_width","screen_height","attention","distraction","conscientious","prolificID","success","rt","url","view_history","test_part","final_height_px","final_width_px","scale_factor","stimulus","key_press","learningType","presentedImage","presentedLabel","button_pressed","response","responses"
"pavlovia","0","18","0.0-0.0","LF","67zqwpqc3v","1440","900","0","1","0","5ea3066769713007dfc5f1c3","","","","","","","","","","","","","","","",""
"fullscreen","1","5346","0.0-1.0","LF","67zqwpqc3v","1440","900","0","1","0","5ea3066769713007dfc5f1c3","true","","","","","","","","","","","","","","",""
"external-html","2","26942","0.0-2.0-0.0","LF","67zqwpqc3v","1440","900","0","1","0","5ea3066769713007dfc5f1c3","","21530.74000001652","text/information_english.html","","","","","","","","","","","","",""
"external-html","3","70858","0.0-2.0-1.0","LF","67zqwpqc3v","1440","900","0","1","0","5ea3066769713007dfc5f1c3","","43849.94000001461","text/consent_english.html","","","","","","","","","","","","",""
"instructions","4","80088","0.0-3.0","LF","67zqwpqc3v","1440","900","0","1","0","5ea3066769713007dfc5f1c3","","NA","","[{""page_index"":0,""viewing_time"":2790.0450000015553},{""page_index"":1,""viewing_time"":6434.045000001788}]","instructions","","","","","","","","","","",""
"resize","5","97545","0.0-4.0","LF","67zqwpqc3v","1440","900","0","1","0","5ea3066769713007dfc5f1c3","","","","","","","380","2.4126984126984126","","","","","","","",""
"html-keyboard-response","6","98549","0.0-5.0-0.0","LF","67zqwpqc3v","1440","900","0","1","0","5ea3066769713007dfc5f1c3","","null","","","learningBlock1","","","","This is a tob:","null","","","","","",""
"image-keyboard-response","7","98885","0.0-5.0-1.0","LF","67zqwpqc3v","1440","900","0","1","0","5ea3066769713007dfc5f1c3","","null","","","","","","","learning/Slide1.JPG","null","","","","","",""
"html-keyboard-response","8","99892","0.0-5.0-2.0","LF","67zqwpqc3v","1440","900","0","1","0","5ea3066769713007dfc5f1c3","","null","","","learningBlock1","","","","<div style=""font-size:60px;""> </div>","null","LF","learning/Slide1.JPG","This is a tob:","","",""
"html-keyboard-response","9","100894","0.0-5.0-0.1","LF","67zqwpqc3v","1440","900","0","1","0","5ea3066769713007dfc5f1c3","","null","","","learningBlock1","","","","This is a wug:","null","","","","","",""
"image-keyboard-response","10","101222","0.0-5.0-1.1","LF","67zqwpqc3v","1440","900","0","1","0","5ea3066769713007dfc5f1c3","","null","","","","","","","learning/Slide2.JPG","null","","","","","",""
"html-keyboard-response","11","102228","0.0-5.0-2.1","LF","67zqwpqc3v","1440","900","0","1","0","5ea3066769713007dfc5f1c3","","null","","","learningBlock1","","","","<div style=""font-size:60px;""> </div>","null","LF","learning/Slide2.JPG","This is a wug:","","",""
"html-keyboard-response","12","103234","0.0-5.0-0.2","LF","67zqwpqc3v","1440","900","0","1","0","5ea3066769713007dfc5f1c3","","null","","","learningBlock1","","","","This is a bim:","null","","","","","",""
"image-keyboard-response","13","103567","0.0-5.0-1.2","LF","67zqwpqc3v","1440","900","0","1","0","5ea3066769713007dfc5f1c3","","null","","","","","","","learning/Slide3.JPG","null","","","","","",""
"html-keyboard-response","14","104570","0.0-5.0-2.2","LF","67zqwpqc3v","1440","900","0","1","0","5ea3066769713007dfc5f1c3","","null","","","learningBlock1","","","","<div style=""font-size:60px;""> </div>","null","LF","learning/Slide3.JPG","This is a bim:","","",""
"html-keyboard-response","15","105573","0.0-5.0-0.3","LF","67zqwpqc3v","1440","900","0","1","0","5ea3066769713007dfc5f1c3","","null","","","learningBlock1","","","","This is a dep:","null","","","","","",""
"image-keyboard-response","16","105908","0.0-5.0-1.3","LF","67zqwpqc3v","1440","900","0","1","0","5ea3066769713007dfc5f1c3","","null","","","","","","","learning/Slide4.JPG","null","","","","","",""
"html-keyboard-response","17","106912","0.0-5.0-2.3","LF","67zqwpqc3v","1440","900","0","1","0","5ea3066769713007dfc5f1c3","","null","","","learningBlock1","","","","<div style=""font-size:60px;""> </div>","null","LF","learning/Slide4.JPG","This is a dep:","","",""
"html-keyboard-response","18","107917","0.0-5.0-0.4","LF","67zqwpqc3v","1440","900","0","1","0","5ea3066769713007dfc5f1c3","","null","","","learningBlock1","","","","This is a wug:","null","","","","","",""
"image-keyboard-response","19","108251","0.0-5.0-1.4","LF","67zqwpqc3v","1440","900","0","1","0","5ea3066769713007dfc5f1c3","","null","","","","","","","learning/Slide5.JPG","null","","","","","",""
"html-keyboard-response","20","109254","0.0-5.0-2.4","LF","67zqwpqc3v","1440","900","0","1","0","5ea3066769713007dfc5f1c3","","null","","","learningBlock1","","","","<div style=""font-size:60px;""> </div>","null","LF","learning/Slide5.JPG","This is a wug:","","",""
"html-keyboard-response","21","110258","0.0-5.0-0.5","LF","67zqwpqc3v","1440","900","0","1","0","5ea3066769713007dfc5f1c3","","null","","","learningBlock1","","","","This is a dep:","null","","","","","",""
"image-keyboard-response","22","110591","0.0-5.0-1.5","LF","67zqwpqc3v","1440","900","0","1","0","5ea3066769713007dfc5f1c3","","null","","","","","","","learning/Slide6.JPG","null","","","","","",""
"html-keyboard-response","23","111595","0.0-5.0-2.5","LF","67zqwpqc3v","1440","900","0","1","0","5ea3066769713007dfc5f1c3","","null","","","learningBlock1","","","","<div style=""font-size:60px;""> </div>","null","LF","learning/Slide6.JPG","This is a dep:","","",""
"html-keyboard-response","24","112600","0.0-5.0-0.6","LF","67zqwpqc3v","1440","900","0","1","0","5ea3066769713007dfc5f1c3","","null","","","learningBlock1","","","","This is a wug:","null","","","","","",""
"image-keyboard-response","25","112931","0.0-5.0-1.6","LF","67zqwpqc3v","1440","900","0","1","0","5ea3066769713007dfc5f1c3","","null","","","","","","","learning/Slide7.JPG","null","","","","","",""
"html-keyboard-response","26","113938","0.0-5.0-2.6","LF","67zqwpqc3v","1440","900","0","1","0","5ea3066769713007dfc5f1c3","","null","","","learningBlock1","","","","<div style=""font-size:60px;""> </div>","null","LF","learning/Slide7.JPG","This is a wug:","","",""
"html-keyboard-response","27","114942","0.0-5.0-0.7","LF","67zqwpqc3v","1440","900","0","1","0","5ea3066769713007dfc5f1c3","","null","","","learningBlock1","","","","This is a bim:","null","","","","","",""
"image-keyboard-response","28","115278","0.0-5.0-1.7","LF","67zqwpqc3v","1440","900","0","1","0","5ea3066769713007dfc5f1c3","","null","","","","","","","learning/Slide8.JPG","null","","","","","",""
"html-keyboard-response","29","116280","0.0-5.0-2.7","LF","67zqwpqc3v","1440","900","0","1","0","5ea3066769713007dfc5f1c3","","null","","","learningBlock1","","","","<div style=""font-size:60px;""> </div>","null","LF","learning/Slide8.JPG","This is a bim:","","",""
"html-keyboard-response","30","117283","0.0-5.0-0.8","LF","67zqwpqc3v","1440","900","0","1","0","5ea3066769713007dfc5f1c3","","null","","","learningBlock1","","","","This is a wug:","null","","","","","",""
"image-keyboard-response","31","117620","0.0-5.0-1.8","LF","67zqwpqc3v","1440","900","0","1","0","5ea3066769713007dfc5f1c3","","null","","","","","","","learning/Slide9.JPG","null","","","","","",""
"html-keyboard-response","32","118624","0.0-5.0-2.8","LF","67zqwpqc3v","1440","900","0","1","0","5ea3066769713007dfc5f1c3","","null","","","learningBlock1","","","","<div style=""font-size:60px;""> </div>","null","LF","learning/Slide9.JPG","This is a wug:","","",""
"html-keyboard-response","33","119630","0.0-5.0-0.9","LF","67zqwpqc3v","1440","900","0","1","0","5ea3066769713007dfc5f1c3","","null","","","learningBlock1","","","","This is a dep:","null","","","","","",""
"image-keyboard-response","34","119968","0.0-5.0-1.9","LF","67zqwpqc3v","1440","900","0","1","0","5ea3066769713007dfc5f1c3","","null","","","","","","","learning/Slide10.JPG","null","","","","","",""
"html-keyboard-response","35","120975","0.0-5.0-2.9","LF","67zqwpqc3v","1440","900","0","1","0","5ea3066769713007dfc5f1c3","","null","","","learningBlock1","","","","<div style=""font-size:60px;""> </div>","null","LF","learning/Slide10.JPG","This is a dep:","","",""
"html-keyboard-response","36","121981","0.0-5.0-0.10","LF","67zqwpqc3v","1440","900","0","1","0","5ea3066769713007dfc5f1c3","","null","","","learningBlock1","","","","This is a tob:","null","","","","","",""
"image-keyboard-response","37","122313","0.0-5.0-1.10","LF","67zqwpqc3v","1440","900","0","1","0","5ea3066769713007dfc5f1c3","","null","","","","","","","learning/Slide11.JPG","null","","","","","",""
"html-keyboard-response","38","123319","0.0-5.0-2.10","LF","67zqwpqc3v","1440","900","0","1","0","5ea3066769713007dfc5f1c3","","null","","","learningBlock1","","","","<div style=""font-size:60px;""> </div>","null","LF","learning/Slide11.JPG","This is a tob:","","",""
"html-keyboard-response","39","124324","0.0-5.0-0.11","LF","67zqwpqc3v","1440","900","0","1","0","5ea3066769713007dfc5f1c3","","null","","","learningBlock1","","","","This is a dep:","null","","","","","",""
"image-keyboard-response","40","124659","0.0-5.0-1.11","LF","67zqwpqc3v","1440","900","0","1","0","5ea3066769713007dfc5f1c3","","null","","","","","","","learning/Slide12.JPG","null","","","","","",""
"html-keyboard-response","41","125667","0.0-5.0-2.11","LF","67zqwpqc3v","1440","900","0","1","0","5ea3066769713007dfc5f1c3","","null","","","learningBlock1","","","","<div style=""font-size:60px;""> </div>","null","LF","learning/Slide12.JPG","This is a dep:","","",""
"html-keyboard-response","42","126673","0.0-5.0-0.12","LF","67zqwpqc3v","1440","900","0","1","0","5ea3066769713007dfc5f1c3","","null","","","learningBlock1","","","","This is a bim:","null","","","","","",""
"image-keyboard-response","43","127006","0.0-5.0-1.12","LF","67zqwpqc3v","1440","900","0","1","0","5ea3066769713007dfc5f1c3","","null","","","","","","","learning/Slide13.JPG","null","","","","","",""
"html-keyboard-response","44","128013","0.0-5.0-2.12","LF","67zqwpqc3v","1440","900","0","1","0","5ea3066769713007dfc5f1c3","","null","","","learningBlock1","","","","<div style=""font-size:60px;""> </div>","null","LF","learning/Slide13.JPG","This is a bim:","","",""
"html-keyboard-response","45","129019","0.0-5.0-0.13","LF","67zqwpqc3v","1440","900","0","1","0","5ea3066769713007dfc5f1c3","","null","","","learningBlock1","","","","This is a wug:","null","","","","","",""
"image-keyboard-response","46","129353","0.0-5.0-1.13","LF","67zqwpqc3v","1440","900","0","1","0","5ea3066769713007dfc5f1c3","","null","","","","","","","learning/Slide14.JPG","null","","","","","",""
"html-keyboard-response","47","130360","0.0-5.0-2.13","LF","67zqwpqc3v","1440","900","0","1","0","5ea3066769713007dfc5f1c3","","null","","","learningBlock1","","","","<div style=""font-size:60px;""> </div>","null","LF","learning/Slide14.JPG","This is a wug:","","",""
"html-keyboard-response","48","131364","0.0-5.0-0.14","LF","67zqwpqc3v","1440","900","0","1","0","5ea3066769713007dfc5f1c3","","null","","","learningBlock1","","","","This is a tob:","null","","","","","",""
"image-keyboard-response","49","131698","0.0-5.0-1.14","LF","67zqwpqc3v","1440","900","0","1","0","5ea3066769713007dfc5f1c3","","null","","","","","","","learning/Slide15.JPG","null","","","","","",""
"html-keyboard-response","50","132704","0.0-5.0-2.14","LF","67zqwpqc3v","1440","900","0","1","0","5ea3066769713007dfc5f1c3","","null","","","learningBlock1","","","","<div style=""font-size:60px;""> </div>","null","LF","learning/Slide15.JPG","This is a tob:","","",""
"html-keyboard-response","51","133710","0.0-5.0-0.15","LF","67zqwpqc3v","1440","900","0","1","0","5ea3066769713007dfc5f1c3","","null","","","learningBlock1","","","","This is a dep:","null","","","","","",""
"image-keyboard-response","52","134045","0.0-5.0-1.15","LF","67zqwpqc3v","1440","900","0","1","0","5ea3066769713007dfc5f1c3","","null","","","","","","","learning/Slide16.JPG","null","","","","","",""
"html-keyboard-response","53","135051","0.0-5.0-2.15","LF","67zqwpqc3v","1440","900","0","1","0","5ea3066769713007dfc5f1c3","","null","","","learningBlock1","","","","<div style=""font-size:60px;""> </div>","null","LF","learning/Slide16.JPG","This is a dep:","","",""
"html-keyboard-response","54","136054","0.0-5.0-0.16","LF","67zqwpqc3v","1440","900","0","1","0","5ea3066769713007dfc5f1c3","","null","","","learningBlock1","","","","This is a bim:","null","","","","","",""
"image-keyboard-response","55","136381","0.0-5.0-1.16","LF","67zqwpqc3v","1440","900","0","1","0","5ea3066769713007dfc5f1c3","","null","","","","","","","learning/Slide17.JPG","null","","","","","",""
"html-keyboard-response","56","137384","0.0-5.0-2.16","LF","67zqwpqc3v","1440","900","0","1","0","5ea3066769713007dfc5f1c3","","null","","","learningBlock1","","","","<div style=""font-size:60px;""> </div>","null","LF","learning/Slide17.JPG","This is a bim:","","",""
"html-keyboard-response","57","138390","0.0-5.0-0.17","LF","67zqwpqc3v","1440","900","0","1","0","5ea3066769713007dfc5f1c3","","null","","","learningBlock1","","","","This is a tob:","null","","","","","",""
"image-keyboard-response","58","138720","0.0-5.0-1.17","LF","67zqwpqc3v","1440","900","0","1","0","5ea3066769713007dfc5f1c3","","null","","","","","","","learning/Slide18.JPG","null","","","","","",""
"html-keyboard-response","59","139726","0.0-5.0-2.17","LF","67zqwpqc3v","1440","900","0","1","0","5ea3066769713007dfc5f1c3","","null","","","learningBlock1","","","","<div style=""font-size:60px;""> </div>","null","LF","learning/Slide18.JPG","This is a tob:","","",""
"html-keyboard-response","60","140729","0.0-5.0-0.18","LF","67zqwpqc3v","1440","900","0","1","0","5ea3066769713007dfc5f1c3","","null","","","learningBlock1","","","","This is a wug:","null","","","","","",""
"image-keyboard-response","61","141066","0.0-5.0-1.18","LF","67zqwpqc3v","1440","900","0","1","0","5ea3066769713007dfc5f1c3","","null","","","","","","","learning/Slide19.JPG","null","","","","","",""
"html-keyboard-response","62","142069","0.0-5.0-2.18","LF","67zqwpqc3v","1440","900","0","1","0","5ea3066769713007dfc5f1c3","","null","","","learningBlock1","","","","<div style=""font-size:60px;""> </div>","null","LF","learning/Slide19.JPG","This is a wug:","","",""
"html-keyboard-response","63","143075","0.0-5.0-0.19","LF","67zqwpqc3v","1440","900","0","1","0","5ea3066769713007dfc5f1c3","","null","","","learningBlock1","","","","This is a bim:","null","","","","","",""
"image-keyboard-response","64","143408","0.0-5.0-1.19","LF","67zqwpqc3v","1440","900","0","1","0","5ea3066769713007dfc5f1c3","","null","","","","","","","learning/Slide20.JPG","null","","","","","",""
"html-keyboard-response","65","144415","0.0-5.0-2.19","LF","67zqwpqc3v","1440","900","0","1","0","5ea3066769713007dfc5f1c3","","null","","","learningBlock1","","","","<div style=""font-size:60px;""> </div>","null","LF","learning/Slide20.JPG","This is a bim:","","",""
"html-keyboard-response","66","145417","0.0-5.0-0.20","LF","67zqwpqc3v","1440","900","0","1","0","5ea3066769713007dfc5f1c3","","null","","","learningBlock1","","","","This is a dep:","null","","","","","",""
"image-keyboard-response","67","145752","0.0-5.0-1.20","LF","67zqwpqc3v","1440","900","0","1","0","5ea3066769713007dfc5f1c3","","null","","","","","","","learning/Slide21.JPG","null","","","","","",""
"html-keyboard-response","68","146756","0.0-5.0-2.20","LF","67zqwpqc3v","1440","900","0","1","0","5ea3066769713007dfc5f1c3","","null","","","learningBlock1","","","","<div style=""font-size:60px;""> </div>","null","LF","learning/Slide21.JPG","This is a dep:","","",""
"html-keyboard-response","69","147764","0.0-5.0-0.21","LF","67zqwpqc3v","1440","900","0","1","0","5ea3066769713007dfc5f1c3","","null","","","learningBlock1","","","","This is a bim:","null","","","","","",""
"image-keyboard-response","70","148099","0.0-5.0-1.21","LF","67zqwpqc3v","1440","900","0","1","0","5ea3066769713007dfc5f1c3","","null","","","","","","","learning/Slide22.JPG","null","","","","","",""
"html-keyboard-response","71","149102","0.0-5.0-2.21","LF","67zqwpqc3v","1440","900","0","1","0","5ea3066769713007dfc5f1c3","","null","","","learningBlock1","","","","<div style=""font-size:60px;""> </div>","null","LF","learning/Slide22.JPG","This is a bim:","","",""
"html-keyboard-response","72","150108","0.0-5.0-0.22","LF","67zqwpqc3v","1440","900","0","1","0","5ea3066769713007dfc5f1c3","","null","","","learningBlock1","","","","This is a tob:","null","","","","","",""
"image-keyboard-response","73","150446","0.0-5.0-1.22","LF","67zqwpqc3v","1440","900","0","1","0","5ea3066769713007dfc5f1c3","","null","","","","","","","learning/Slide23.JPG","null","","","","","",""
"html-keyboard-response","74","151451","0.0-5.0-2.22","LF","67zqwpqc3v","1440","900","0","1","0","5ea3066769713007dfc5f1c3","","null","","","learningBlock1","","","","<div style=""font-size:60px;""> </div>","null","LF","learning/Slide23.JPG","This is a tob:","","",""
"html-keyboard-response","75","152457","0.0-5.0-0.23","LF","67zqwpqc3v","1440","900","0","1","0","5ea3066769713007dfc5f1c3","","null","","","learningBlock1","","","","This is a wug:","null","","","","","",""
"image-keyboard-response","76","152794","0.0-5.0-1.23","LF","67zqwpqc3v","1440","900","0","1","0","5ea3066769713007dfc5f1c3","","null","","","","","","","learning/Slide24.JPG","null","","","","","",""
"html-keyboard-response","77","153801","0.0-5.0-2.23","LF","67zqwpqc3v","1440","900","0","1","0","5ea3066769713007dfc5f1c3","","null","","","learningBlock1","","","","<div style=""font-size:60px;""> </div>","null","LF","learning/Slide24.JPG","This is a wug:","","",""
"html-keyboard-response","78","154807","0.0-5.0-0.24","LF","67zqwpqc3v","1440","900","0","1","0","5ea3066769713007dfc5f1c3","","null","","","learningBlock1","","","","This is a dep:","null","","","","","",""
"image-keyboard-response","79","155134","0.0-5.0-1.24","LF","67zqwpqc3v","1440","900","0","1","0","5ea3066769713007dfc5f1c3","","null","","","","","","","learning/Slide25.JPG","null","","","","","",""
"html-keyboard-response","80","156140","0.0-5.0-2.24","LF","67zqwpqc3v","1440","900","0","1","0","5ea3066769713007dfc5f1c3","","null","","","learningBlock1","","","","<div style=""font-size:60px;""> </div>","null","LF","learning/Slide25.JPG","This is a dep:","","",""
"html-keyboard-response","81","157144","0.0-5.0-0.25","LF","67zqwpqc3v","1440","900","0","1","0","5ea3066769713007dfc5f1c3","","null","","","learningBlock1","","","","This is a wug:","null","","","","","",""
"image-keyboard-response","82","157480","0.0-5.0-1.25","LF","67zqwpqc3v","1440","900","0","1","0","5ea3066769713007dfc5f1c3","","null","","","","","","","learning/Slide26.JPG","null","","","","","",""
"html-keyboard-response","83","158482","0.0-5.0-2.25","LF","67zqwpqc3v","1440","900","0","1","0","5ea3066769713007dfc5f1c3","","null","","","learningBlock1","","","","<div style=""font-size:60px;""> </div>","null","LF","learning/Slide26.JPG","This is a wug:","","",""
"html-keyboard-response","84","159487","0.0-5.0-0.26","LF","67zqwpqc3v","1440","900","0","1","0","5ea3066769713007dfc5f1c3","","null","","","learningBlock1","","","","This is a bim:","null","","","","","",""
"image-keyboard-response","85","159818","0.0-5.0-1.26","LF","67zqwpqc3v","1440","900","0","1","0","5ea3066769713007dfc5f1c3","","null","","","","","","","learning/Slide27.JPG","null","","","","","",""
"html-keyboard-response","86","160820","0.0-5.0-2.26","LF","67zqwpqc3v","1440","900","0","1","0","5ea3066769713007dfc5f1c3","","null","","","learningBlock1","","","","<div style=""font-size:60px;""> </div>","null","LF","learning/Slide27.JPG","This is a bim:","","",""
"html-keyboard-response","87","161822","0.0-5.0-0.27","LF","67zqwpqc3v","1440","900","0","1","0","5ea3066769713007dfc5f1c3","","null","","","learningBlock1","","","","This is a dep:","null","","","","","",""
"image-keyboard-response","88","162155","0.0-5.0-1.27","LF","67zqwpqc3v","1440","900","0","1","0","5ea3066769713007dfc5f1c3","","null","","","","","","","learning/Slide28.JPG","null","","","","","",""
"html-keyboard-response","89","163157","0.0-5.0-2.27","LF","67zqwpqc3v","1440","900","0","1","0","5ea3066769713007dfc5f1c3","","null","","","learningBlock1","","","","<div style=""font-size:60px;""> </div>","null","LF","learning/Slide28.JPG","This is a dep:","","",""
"html-keyboard-response","90","164164","0.0-5.0-0.28","LF","67zqwpqc3v","1440","900","0","1","0","5ea3066769713007dfc5f1c3","","null","","","learningBlock1","","","","This is a tob:","null","","","","","",""
"image-keyboard-response","91","164499","0.0-5.0-1.28","LF","67zqwpqc3v","1440","900","0","1","0","5ea3066769713007dfc5f1c3","","null","","","","","","","learning/Slide29.JPG","null","","","","","",""
"html-keyboard-response","92","165504","0.0-5.0-2.28","LF","67zqwpqc3v","1440","900","0","1","0","5ea3066769713007dfc5f1c3","","null","","","learningBlock1","","","","<div style=""font-size:60px;""> </div>","null","LF","learning/Slide29.JPG","This is a tob:","","",""
"html-keyboard-response","93","166509","0.0-5.0-0.29","LF","67zqwpqc3v","1440","900","0","1","0","5ea3066769713007dfc5f1c3","","null","","","learningBlock1","","","","This is a dep:","null","","","","","",""
"image-keyboard-response","94","166840","0.0-5.0-1.29","LF","67zqwpqc3v","1440","900","0","1","0","5ea3066769713007dfc5f1c3","","null","","","","","","","learning/Slide30.JPG","null","","","","","",""
"html-keyboard-response","95","167847","0.0-5.0-2.29","LF","67zqwpqc3v","1440","900","0","1","0","5ea3066769713007dfc5f1c3","","null","","","learningBlock1","","","","<div style=""font-size:60px;""> </div>","null","LF","learning/Slide30.JPG","This is a dep:","","",""
"html-keyboard-response","96","168848","0.0-5.0-0.30","LF","67zqwpqc3v","1440","900","0","1","0","5ea3066769713007dfc5f1c3","","null","","","learningBlock1","","","","This is a wug:","null","","","","","",""
"image-keyboard-response","97","169185","0.0-5.0-1.30","LF","67zqwpqc3v","1440","900","0","1","0","5ea3066769713007dfc5f1c3","","null","","","","","","","learning/Slide31.JPG","null","","","","","",""
"html-keyboard-response","98","170191","0.0-5.0-2.30","LF","67zqwpqc3v","1440","900","0","1","0","5ea3066769713007dfc5f1c3","","null","","","learningBlock1","","","","<div style=""font-size:60px;""> </div>","null","LF","learning/Slide31.JPG","This is a wug:","","",""
"html-keyboard-response","99","171196","0.0-5.0-0.31","LF","67zqwpqc3v","1440","900","0","1","0","5ea3066769713007dfc5f1c3","","null","","","learningBlock1","","","","This is a tob:","null","","","","","",""
"image-keyboard-response","100","171532","0.0-5.0-1.31","LF","67zqwpqc3v","1440","900","0","1","0","5ea3066769713007dfc5f1c3","","null","","","","","","","learning/Slide32.JPG","null","","","","","",""
"html-keyboard-response","101","172536","0.0-5.0-2.31","LF","67zqwpqc3v","1440","900","0","1","0","5ea3066769713007dfc5f1c3","","null","","","learningBlock1","","","","<div style=""font-size:60px;""> </div>","null","LF","learning/Slide32.JPG","This is a tob:","","",""
"html-keyboard-response","102","173542","0.0-5.0-0.32","LF","67zqwpqc3v","1440","900","0","1","0","5ea3066769713007dfc5f1c3","","null","","","learningBlock1","","","","This is a bim:","null","","","","","",""
"image-keyboard-response","103","173879","0.0-5.0-1.32","LF","67zqwpqc3v","1440","900","0","1","0","5ea3066769713007dfc5f1c3","","null","","","","","","","learning/Slide33.JPG","null","","","","","",""
"html-keyboard-response","104","174883","0.0-5.0-2.32","LF","67zqwpqc3v","1440","900","0","1","0","5ea3066769713007dfc5f1c3","","null","","","learningBlock1","","","","<div style=""font-size:60px;""> </div>","null","LF","learning/Slide33.JPG","This is a bim:","","",""
"html-keyboard-response","105","175886","0.0-5.0-0.33","LF","67zqwpqc3v","1440","900","0","1","0","5ea3066769713007dfc5f1c3","","null","","","learningBlock1","","","","This is a tob:","null","","","","","",""
"image-keyboard-response","106","176223","0.0-5.0-1.33","LF","67zqwpqc3v","1440","900","0","1","0","5ea3066769713007dfc5f1c3","","null","","","","","","","learning/Slide34.JPG","null","","","","","",""
"html-keyboard-response","107","177229","0.0-5.0-2.33","LF","67zqwpqc3v","1440","900","0","1","0","5ea3066769713007dfc5f1c3","","null","","","learningBlock1","","","","<div style=""font-size:60px;""> </div>","null","LF","learning/Slide34.JPG","This is a tob:","","",""
"html-keyboard-response","108","178231","0.0-5.0-0.34","LF","67zqwpqc3v","1440","900","0","1","0","5ea3066769713007dfc5f1c3","","null","","","learningBlock1","","","","This is a bim:","null","","","","","",""
"image-keyboard-response","109","178564","0.0-5.0-1.34","LF","67zqwpqc3v","1440","900","0","1","0","5ea3066769713007dfc5f1c3","","null","","","","","","","learning/Slide35.JPG","null","","","","","",""
"html-keyboard-response","110","179568","0.0-5.0-2.34","LF","67zqwpqc3v","1440","900","0","1","0","5ea3066769713007dfc5f1c3","","null","","","learningBlock1","","","","<div style=""font-size:60px;""> </div>","null","LF","learning/Slide35.JPG","This is a bim:","","",""
"html-keyboard-response","111","180573","0.0-5.0-0.35","LF","67zqwpqc3v","1440","900","0","1","0","5ea3066769713007dfc5f1c3","","null","","","learningBlock1","","","","This is a dep:","null","","","","","",""
"image-keyboard-response","112","180906","0.0-5.0-1.35","LF","67zqwpqc3v","1440","900","0","1","0","5ea3066769713007dfc5f1c3","","null","","","","","","","learning/Slide36.JPG","null","","","","","",""
"html-keyboard-response","113","181912","0.0-5.0-2.35","LF","67zqwpqc3v","1440","900","0","1","0","5ea3066769713007dfc5f1c3","","null","","","learningBlock1","","","","<div style=""font-size:60px;""> </div>","null","LF","learning/Slide36.JPG","This is a dep:","","",""
"html-keyboard-response","114","182919","0.0-5.0-0.36","LF","67zqwpqc3v","1440","900","0","1","0","5ea3066769713007dfc5f1c3","","null","","","learningBlock1","","","","This is a tob:","null","","","","","",""
"image-keyboard-response","115","183254","0.0-5.0-1.36","LF","67zqwpqc3v","1440","900","0","1","0","5ea3066769713007dfc5f1c3","","null","","","","","","","learning/Slide37.JPG","null","","","","","",""
"html-keyboard-response","116","184260","0.0-5.0-2.36","LF","67zqwpqc3v","1440","900","0","1","0","5ea3066769713007dfc5f1c3","","null","","","learningBlock1","","","","<div style=""font-size:60px;""> </div>","null","LF","learning/Slide37.JPG","This is a tob:","","",""
"html-keyboard-response","117","185265","0.0-5.0-0.37","LF","67zqwpqc3v","1440","900","0","1","0","5ea3066769713007dfc5f1c3","","null","","","learningBlock1","","","","This is a wug:","null","","","","","",""
"image-keyboard-response","118","185598","0.0-5.0-1.37","LF","67zqwpqc3v","1440","900","0","1","0","5ea3066769713007dfc5f1c3","","null","","","","","","","learning/Slide38.JPG","null","","","","","",""
"html-keyboard-response","119","186604","0.0-5.0-2.37","LF","67zqwpqc3v","1440","900","0","1","0","5ea3066769713007dfc5f1c3","","null","","","learningBlock1","","","","<div style=""font-size:60px;""> </div>","null","LF","learning/Slide38.JPG","This is a wug:","","",""
"html-keyboard-response","120","187607","0.0-5.0-0.38","LF","67zqwpqc3v","1440","900","0","1","0","5ea3066769713007dfc5f1c3","","null","","","learningBlock1","","","","This is a bim:","null","","","","","",""
"image-keyboard-response","121","187938","0.0-5.0-1.38","LF","67zqwpqc3v","1440","900","0","1","0","5ea3066769713007dfc5f1c3","","null","","","","","","","learning/Slide39.JPG","null","","","","","",""
"html-keyboard-response","122","188945","0.0-5.0-2.38","LF","67zqwpqc3v","1440","900","0","1","0","5ea3066769713007dfc5f1c3","","null","","","learningBlock1","","","","<div style=""font-size:60px;""> </div>","null","LF","learning/Slide39.JPG","This is a bim:","","",""
"html-keyboard-response","123","189951","0.0-5.0-0.39","LF","67zqwpqc3v","1440","900","0","1","0","5ea3066769713007dfc5f1c3","","null","","","learningBlock1","","","","This is a tob:","null","","","","","",""
"image-keyboard-response","124","190286","0.0-5.0-1.39","LF","67zqwpqc3v","1440","900","0","1","0","5ea3066769713007dfc5f1c3","","null","","","","","","","learning/Slide40.JPG","null","","","","","",""
"html-keyboard-response","125","191292","0.0-5.0-2.39","LF","67zqwpqc3v","1440","900","0","1","0","5ea3066769713007dfc5f1c3","","null","","","learningBlock1","","","","<div style=""font-size:60px;""> </div>","null","LF","learning/Slide40.JPG","This is a tob:","","",""
"html-keyboard-response","126","192299","0.0-5.0-0.40","LF","67zqwpqc3v","1440","900","0","1","0","5ea3066769713007dfc5f1c3","","null","","","learningBlock1","","","","This is a bim:","null","","","","","",""
"image-keyboard-response","127","192635","0.0-5.0-1.40","LF","67zqwpqc3v","1440","900","0","1","0","5ea3066769713007dfc5f1c3","","null","","","","","","","learning/Slide41.JPG","null","","","","","",""
"html-keyboard-response","128","193642","0.0-5.0-2.40","LF","67zqwpqc3v","1440","900","0","1","0","5ea3066769713007dfc5f1c3","","null","","","learningBlock1","","","","<div style=""font-size:60px;""> </div>","null","LF","learning/Slide41.JPG","This is a bim:","","",""
"html-keyboard-response","129","194649","0.0-5.0-0.41","LF","67zqwpqc3v","1440","900","0","1","0","5ea3066769713007dfc5f1c3","","null","","","learningBlock1","","","","This is a dep:","null","","","","","",""
"image-keyboard-response","130","194985","0.0-5.0-1.41","LF","67zqwpqc3v","1440","900","0","1","0","5ea3066769713007dfc5f1c3","","null","","","","","","","learning/Slide42.JPG","null","","","","","",""
"html-keyboard-response","131","195987","0.0-5.0-2.41","LF","67zqwpqc3v","1440","900","0","1","0","5ea3066769713007dfc5f1c3","","null","","","learningBlock1","","","","<div style=""font-size:60px;""> </div>","null","LF","learning/Slide42.JPG","This is a dep:","","",""
"html-keyboard-response","132","196993","0.0-5.0-0.42","LF","67zqwpqc3v","1440","900","0","1","0","5ea3066769713007dfc5f1c3","","null","","","learningBlock1","","","","This is a wug:","null","","","","","",""
"image-keyboard-response","133","197327","0.0-5.0-1.42","LF","67zqwpqc3v","1440","900","0","1","0","5ea3066769713007dfc5f1c3","","null","","","","","","","learning/Slide43.JPG","null","","","","","",""
"html-keyboard-response","134","198334","0.0-5.0-2.42","LF","67zqwpqc3v","1440","900","0","1","0","5ea3066769713007dfc5f1c3","","null","","","learningBlock1","","","","<div style=""font-size:60px;""> </div>","null","LF","learning/Slide43.JPG","This is a wug:","","",""
"html-keyboard-response","135","199335","0.0-5.0-0.43","LF","67zqwpqc3v","1440","900","0","1","0","5ea3066769713007dfc5f1c3","","null","","","learningBlock1","","","","This is a bim:","null","","","","","",""
"image-keyboard-response","136","199672","0.0-5.0-1.43","LF","67zqwpqc3v","1440","900","0","1","0","5ea3066769713007dfc5f1c3","","null","","","","","","","learning/Slide44.JPG","null","","","","","",""
"html-keyboard-response","137","200678","0.0-5.0-2.43","LF","67zqwpqc3v","1440","900","0","1","0","5ea3066769713007dfc5f1c3","","null","","","learningBlock1","","","","<div style=""font-size:60px;""> </div>","null","LF","learning/Slide44.JPG","This is a bim:","","",""
"html-keyboard-response","138","201681","0.0-5.0-0.44","LF","67zqwpqc3v","1440","900","0","1","0","5ea3066769713007dfc5f1c3","","null","","","learningBlock1","","","","This is a wug:","null","","","","","",""
"image-keyboard-response","139","202015","0.0-5.0-1.44","LF","67zqwpqc3v","1440","900","0","1","0","5ea3066769713007dfc5f1c3","","null","","","","","","","learning/Slide45.JPG","null","","","","","",""
"html-keyboard-response","140","203022","0.0-5.0-2.44","LF","67zqwpqc3v","1440","900","0","1","0","5ea3066769713007dfc5f1c3","","null","","","learningBlock1","","","","<div style=""font-size:60px;""> </div>","null","LF","learning/Slide45.JPG","This is a wug:","","",""
"html-keyboard-response","141","204024","0.0-5.0-0.45","LF","67zqwpqc3v","1440","900","0","1","0","5ea3066769713007dfc5f1c3","","null","","","learningBlock1","","","","This is a dep:","null","","","","","",""
"image-keyboard-response","142","204358","0.0-5.0-1.45","LF","67zqwpqc3v","1440","900","0","1","0","5ea3066769713007dfc5f1c3","","null","","","","","","","learning/Slide46.JPG","null","","","","","",""
"html-keyboard-response","143","205361","0.0-5.0-2.45","LF","67zqwpqc3v","1440","900","0","1","0","5ea3066769713007dfc5f1c3","","null","","","learningBlock1","","","","<div style=""font-size:60px;""> </div>","null","LF","learning/Slide46.JPG","This is a dep:","","",""
"html-keyboard-response","144","206367","0.0-5.0-0.46","LF","67zqwpqc3v","1440","900","0","1","0","5ea3066769713007dfc5f1c3","","null","","","learningBlock1","","","","This is a tob:","null","","","","","",""
"image-keyboard-response","145","206696","0.0-5.0-1.46","LF","67zqwpqc3v","1440","900","0","1","0","5ea3066769713007dfc5f1c3","","null","","","","","","","learning/Slide47.JPG","null","","","","","",""
"html-keyboard-response","146","207702","0.0-5.0-2.46","LF","67zqwpqc3v","1440","900","0","1","0","5ea3066769713007dfc5f1c3","","null","","","learningBlock1","","","","<div style=""font-size:60px;""> </div>","null","LF","learning/Slide47.JPG","This is a tob:","","",""
"html-keyboard-response","147","208706","0.0-5.0-0.47","LF","67zqwpqc3v","1440","900","0","1","0","5ea3066769713007dfc5f1c3","","null","","","learningBlock1","","","","This is a bim:","null","","","","","",""
"image-keyboard-response","148","209039","0.0-5.0-1.47","LF","67zqwpqc3v","1440","900","0","1","0","5ea3066769713007dfc5f1c3","","null","","","","","","","learning/Slide48.JPG","null","","","","","",""
"html-keyboard-response","149","210045","0.0-5.0-2.47","LF","67zqwpqc3v","1440","900","0","1","0","5ea3066769713007dfc5f1c3","","null","","","learningBlock1","","","","<div style=""font-size:60px;""> </div>","null","LF","learning/Slide48.JPG","This is a bim:","","",""
"html-keyboard-response","150","211052","0.0-5.0-0.48","LF","67zqwpqc3v","1440","900","0","1","0","5ea3066769713007dfc5f1c3","","null","","","learningBlock1","","","","This is a dep:","null","","","","","",""
"image-keyboard-response","151","211385","0.0-5.0-1.48","LF","67zqwpqc3v","1440","900","0","1","0","5ea3066769713007dfc5f1c3","","null","","","","","","","learning/Slide49.JPG","null","","","","","",""
"html-keyboard-response","152","212392","0.0-5.0-2.48","LF","67zqwpqc3v","1440","900","0","1","0","5ea3066769713007dfc5f1c3","","null","","","learningBlock1","","","","<div style=""font-size:60px;""> </div>","null","LF","learning/Slide49.JPG","This is a dep:","","",""
"html-keyboard-response","153","213398","0.0-5.0-0.49","LF","67zqwpqc3v","1440","900","0","1","0","5ea3066769713007dfc5f1c3","","null","","","learningBlock1","","","","This is a tob:","null","","","","","",""
"image-keyboard-response","154","213730","0.0-5.0-1.49","LF","67zqwpqc3v","1440","900","0","1","0","5ea3066769713007dfc5f1c3","","null","","","","","","","learning/Slide50.JPG","null","","","","","",""
"html-keyboard-response","155","214735","0.0-5.0-2.49","LF","67zqwpqc3v","1440","900","0","1","0","5ea3066769713007dfc5f1c3","","null","","","learningBlock1","","","","<div style=""font-size:60px;""> </div>","null","LF","learning/Slide50.JPG","This is a tob:","","",""
"html-keyboard-response","156","215742","0.0-5.0-0.50","LF","67zqwpqc3v","1440","900","0","1","0","5ea3066769713007dfc5f1c3","","null","","","learningBlock1","","","","This is a bim:","null","","","","","",""
"image-keyboard-response","157","216074","0.0-5.0-1.50","LF","67zqwpqc3v","1440","900","0","1","0","5ea3066769713007dfc5f1c3","","null","","","","","","","learning/Slide51.JPG","null","","","","","",""
"html-keyboard-response","158","217079","0.0-5.0-2.50","LF","67zqwpqc3v","1440","900","0","1","0","5ea3066769713007dfc5f1c3","","null","","","learningBlock1","","","","<div style=""font-size:60px;""> </div>","null","LF","learning/Slide51.JPG","This is a bim:","","",""
"html-keyboard-response","159","218086","0.0-5.0-0.51","LF","67zqwpqc3v","1440","900","0","1","0","5ea3066769713007dfc5f1c3","","null","","","learningBlock1","","","","This is a wug:","null","","","","","",""
"image-keyboard-response","160","218420","0.0-5.0-1.51","LF","67zqwpqc3v","1440","900","0","1","0","5ea3066769713007dfc5f1c3","","null","","","","","","","learning/Slide52.JPG","null","","","","","",""
"html-keyboard-response","161","219422","0.0-5.0-2.51","LF","67zqwpqc3v","1440","900","0","1","0","5ea3066769713007dfc5f1c3","","null","","","learningBlock1","","","","<div style=""font-size:60px;""> </div>","null","LF","learning/Slide52.JPG","This is a wug:","","",""
"html-keyboard-response","162","220424","0.0-5.0-0.52","LF","67zqwpqc3v","1440","900","0","1","0","5ea3066769713007dfc5f1c3","","null","","","learningBlock1","","","","This is a tob:","null","","","","","",""
"image-keyboard-response","163","220756","0.0-5.0-1.52","LF","67zqwpqc3v","1440","900","0","1","0","5ea3066769713007dfc5f1c3","","null","","","","","","","learning/Slide53.JPG","null","","","","","",""
"html-keyboard-response","164","221759","0.0-5.0-2.52","LF","67zqwpqc3v","1440","900","0","1","0","5ea3066769713007dfc5f1c3","","null","","","learningBlock1","","","","<div style=""font-size:60px;""> </div>","null","LF","learning/Slide53.JPG","This is a tob:","","",""
"html-keyboard-response","165","222761","0.0-5.0-0.53","LF","67zqwpqc3v","1440","900","0","1","0","5ea3066769713007dfc5f1c3","","null","","","learningBlock1","","","","This is a dep:","null","","","","","",""
"image-keyboard-response","166","223095","0.0-5.0-1.53","LF","67zqwpqc3v","1440","900","0","1","0","5ea3066769713007dfc5f1c3","","null","","","","","","","learning/Slide54.JPG","null","","","","","",""
"html-keyboard-response","167","224101","0.0-5.0-2.53","LF","67zqwpqc3v","1440","900","0","1","0","5ea3066769713007dfc5f1c3","","null","","","learningBlock1","","","","<div style=""font-size:60px;""> </div>","null","LF","learning/Slide54.JPG","This is a dep:","","",""
"html-keyboard-response","168","225107","0.0-5.0-0.54","LF","67zqwpqc3v","1440","900","0","1","0","5ea3066769713007dfc5f1c3","","null","","","learningBlock1","","","","This is a bim:","null","","","","","",""
"image-keyboard-response","169","225440","0.0-5.0-1.54","LF","67zqwpqc3v","1440","900","0","1","0","5ea3066769713007dfc5f1c3","","null","","","","","","","learning/Slide55.JPG","null","","","","","",""
"html-keyboard-response","170","226447","0.0-5.0-2.54","LF","67zqwpqc3v","1440","900","0","1","0","5ea3066769713007dfc5f1c3","","null","","","learningBlock1","","","","<div style=""font-size:60px;""> </div>","null","LF","learning/Slide55.JPG","This is a bim:","","",""
"html-keyboard-response","171","227452","0.0-5.0-0.55","LF","67zqwpqc3v","1440","900","0","1","0","5ea3066769713007dfc5f1c3","","null","","","learningBlock1","","","","This is a tob:","null","","","","","",""
"image-keyboard-response","172","227784","0.0-5.0-1.55","LF","67zqwpqc3v","1440","900","0","1","0","5ea3066769713007dfc5f1c3","","null","","","","","","","learning/Slide56.JPG","null","","","","","",""
"html-keyboard-response","173","228791","0.0-5.0-2.55","LF","67zqwpqc3v","1440","900","0","1","0","5ea3066769713007dfc5f1c3","","null","","","learningBlock1","","","","<div style=""font-size:60px;""> </div>","null","LF","learning/Slide56.JPG","This is a tob:","","",""
"html-keyboard-response","174","229798","0.0-5.0-0.56","LF","67zqwpqc3v","1440","900","0","1","0","5ea3066769713007dfc5f1c3","","null","","","learningBlock1","","","","This is a dep:","null","","","","","",""
"image-keyboard-response","175","230130","0.0-5.0-1.56","LF","67zqwpqc3v","1440","900","0","1","0","5ea3066769713007dfc5f1c3","","null","","","","","","","learning/Slide57.JPG","null","","","","","",""
"html-keyboard-response","176","231131","0.0-5.0-2.56","LF","67zqwpqc3v","1440","900","0","1","0","5ea3066769713007dfc5f1c3","","null","","","learningBlock1","","","","<div style=""font-size:60px;""> </div>","null","LF","learning/Slide57.JPG","This is a dep:","","",""
"html-keyboard-response","177","232138","0.0-5.0-0.57","LF","67zqwpqc3v","1440","900","0","1","0","5ea3066769713007dfc5f1c3","","null","","","learningBlock1","","","","This is a wug:","null","","","","","",""
"image-keyboard-response","178","232475","0.0-5.0-1.57","LF","67zqwpqc3v","1440","900","0","1","0","5ea3066769713007dfc5f1c3","","null","","","","","","","learning/Slide58.JPG","null","","","","","",""
"html-keyboard-response","179","233481","0.0-5.0-2.57","LF","67zqwpqc3v","1440","900","0","1","0","5ea3066769713007dfc5f1c3","","null","","","learningBlock1","","","","<div style=""font-size:60px;""> </div>","null","LF","learning/Slide58.JPG","This is a wug:","","",""
"html-keyboard-response","180","234483","0.0-5.0-0.58","LF","67zqwpqc3v","1440","900","0","1","0","5ea3066769713007dfc5f1c3","","null","","","learningBlock1","","","","This is a dep:","null","","","","","",""
"image-keyboard-response","181","234817","0.0-5.0-1.58","LF","67zqwpqc3v","1440","900","0","1","0","5ea3066769713007dfc5f1c3","","null","","","","","","","learning/Slide59.JPG","null","","","","","",""
"html-keyboard-response","182","235820","0.0-5.0-2.58","LF","67zqwpqc3v","1440","900","0","1","0","5ea3066769713007dfc5f1c3","","null","","","learningBlock1","","","","<div style=""font-size:60px;""> </div>","null","LF","learning/Slide59.JPG","This is a dep:","","",""
"html-keyboard-response","183","236827","0.0-5.0-0.59","LF","67zqwpqc3v","1440","900","0","1","0","5ea3066769713007dfc5f1c3","","null","","","learningBlock1","","","","This is a wug:","null","","","","","",""
"image-keyboard-response","184","237153","0.0-5.0-1.59","LF","67zqwpqc3v","1440","900","0","1","0","5ea3066769713007dfc5f1c3","","null","","","","","","","learning/Slide60.JPG","null","","","","","",""
"html-keyboard-response","185","238156","0.0-5.0-2.59","LF","67zqwpqc3v","1440","900","0","1","0","5ea3066769713007dfc5f1c3","","null","","","learningBlock1","","","","<div style=""font-size:60px;""> </div>","null","LF","learning/Slide60.JPG","This is a wug:","","",""
"html-keyboard-response","186","239158","0.0-5.0-0.60","LF","67zqwpqc3v","1440","900","0","1","0","5ea3066769713007dfc5f1c3","","null","","","learningBlock1","","","","This is a bim:","null","","","","","",""
"image-keyboard-response","187","239493","0.0-5.0-1.60","LF","67zqwpqc3v","1440","900","0","1","0","5ea3066769713007dfc5f1c3","","null","","","","","","","learning/Slide61.JPG","null","","","","","",""
"html-keyboard-response","188","240499","0.0-5.0-2.60","LF","67zqwpqc3v","1440","900","0","1","0","5ea3066769713007dfc5f1c3","","null","","","learningBlock1","","","","<div style=""font-size:60px;""> </div>","null","LF","learning/Slide61.JPG","This is a bim:","","",""
"html-keyboard-response","189","241504","0.0-5.0-0.61","LF","67zqwpqc3v","1440","900","0","1","0","5ea3066769713007dfc5f1c3","","null","","","learningBlock1","","","","This is a dep:","null","","","","","",""
"image-keyboard-response","190","241838","0.0-5.0-1.61","LF","67zqwpqc3v","1440","900","0","1","0","5ea3066769713007dfc5f1c3","","null","","","","","","","learning/Slide62.JPG","null","","","","","",""
"html-keyboard-response","191","242840","0.0-5.0-2.61","LF","67zqwpqc3v","1440","900","0","1","0","5ea3066769713007dfc5f1c3","","null","","","learningBlock1","","","","<div style=""font-size:60px;""> </div>","null","LF","learning/Slide62.JPG","This is a dep:","","",""
"html-keyboard-response","192","243844","0.0-5.0-0.62","LF","67zqwpqc3v","1440","900","0","1","0","5ea3066769713007dfc5f1c3","","null","","","learningBlock1","","","","This is a bim:","null","","","","","",""
"image-keyboard-response","193","244182","0.0-5.0-1.62","LF","67zqwpqc3v","1440","900","0","1","0","5ea3066769713007dfc5f1c3","","null","","","","","","","learning/Slide63.JPG","null","","","","","",""
"html-keyboard-response","194","245188","0.0-5.0-2.62","LF","67zqwpqc3v","1440","900","0","1","0","5ea3066769713007dfc5f1c3","","null","","","learningBlock1","","","","<div style=""font-size:60px;""> </div>","null","LF","learning/Slide63.JPG","This is a bim:","","",""
"html-keyboard-response","195","246192","0.0-5.0-0.63","LF","67zqwpqc3v","1440","900","0","1","0","5ea3066769713007dfc5f1c3","","null","","","learningBlock1","","","","This is a tob:","null","","","","","",""
"image-keyboard-response","196","246525","0.0-5.0-1.63","LF","67zqwpqc3v","1440","900","0","1","0","5ea3066769713007dfc5f1c3","","null","","","","","","","learning/Slide64.JPG","null","","","","","",""
"html-keyboard-response","197","247531","0.0-5.0-2.63","LF","67zqwpqc3v","1440","900","0","1","0","5ea3066769713007dfc5f1c3","","null","","","learningBlock1","","","","<div style=""font-size:60px;""> </div>","null","LF","learning/Slide64.JPG","This is a tob:","","",""
"html-keyboard-response","198","248533","0.0-5.0-0.64","LF","67zqwpqc3v","1440","900","0","1","0","5ea3066769713007dfc5f1c3","","null","","","learningBlock1","","","","This is a wug:","null","","","","","",""
"image-keyboard-response","199","248869","0.0-5.0-1.64","LF","67zqwpqc3v","1440","900","0","1","0","5ea3066769713007dfc5f1c3","","null","","","","","","","learning/Slide65.JPG","null","","","","","",""
"html-keyboard-response","200","249873","0.0-5.0-2.64","LF","67zqwpqc3v","1440","900","0","1","0","5ea3066769713007dfc5f1c3","","null","","","learningBlock1","","","","<div style=""font-size:60px;""> </div>","null","LF","learning/Slide65.JPG","This is a wug:","","",""
"html-keyboard-response","201","250874","0.0-5.0-0.65","LF","67zqwpqc3v","1440","900","0","1","0","5ea3066769713007dfc5f1c3","","null","","","learningBlock1","","","","This is a dep:","null","","","","","",""
"image-keyboard-response","202","251209","0.0-5.0-1.65","LF","67zqwpqc3v","1440","900","0","1","0","5ea3066769713007dfc5f1c3","","null","","","","","","","learning/Slide66.JPG","null","","","","","",""
"html-keyboard-response","203","252216","0.0-5.0-2.65","LF","67zqwpqc3v","1440","900","0","1","0","5ea3066769713007dfc5f1c3","","null","","","learningBlock1","","","","<div style=""font-size:60px;""> </div>","null","LF","learning/Slide66.JPG","This is a dep:","","",""
"html-keyboard-response","204","253222","0.0-5.0-0.66","LF","67zqwpqc3v","1440","900","0","1","0","5ea3066769713007dfc5f1c3","","null","","","learningBlock1","","","","This is a tob:","null","","","","","",""
"image-keyboard-response","205","253557","0.0-5.0-1.66","LF","67zqwpqc3v","1440","900","0","1","0","5ea3066769713007dfc5f1c3","","null","","","","","","","learning/Slide67.JPG","null","","","","","",""
"html-keyboard-response","206","254564","0.0-5.0-2.66","LF","67zqwpqc3v","1440","900","0","1","0","5ea3066769713007dfc5f1c3","","null","","","learningBlock1","","","","<div style=""font-size:60px;""> </div>","null","LF","learning/Slide67.JPG","This is a tob:","","",""
"html-keyboard-response","207","255570","0.0-5.0-0.67","LF","67zqwpqc3v","1440","900","0","1","0","5ea3066769713007dfc5f1c3","","null","","","learningBlock1","","","","This is a wug:","null","","","","","",""
"image-keyboard-response","208","255907","0.0-5.0-1.67","LF","67zqwpqc3v","1440","900","0","1","0","5ea3066769713007dfc5f1c3","","null","","","","","","","learning/Slide68.JPG","null","","","","","",""
"html-keyboard-response","209","256914","0.0-5.0-2.67","LF","67zqwpqc3v","1440","900","0","1","0","5ea3066769713007dfc5f1c3","","null","","","learningBlock1","","","","<div style=""font-size:60px;""> </div>","null","LF","learning/Slide68.JPG","This is a wug:","","",""
"html-keyboard-response","210","257916","0.0-5.0-0.68","LF","67zqwpqc3v","1440","900","0","1","0","5ea3066769713007dfc5f1c3","","null","","","learningBlock1","","","","This is a tob:","null","","","","","",""
"image-keyboard-response","211","258253","0.0-5.0-1.68","LF","67zqwpqc3v","1440","900","0","1","0","5ea3066769713007dfc5f1c3","","null","","","","","","","learning/Slide69.JPG","null","","","","","",""
"html-keyboard-response","212","259260","0.0-5.0-2.68","LF","67zqwpqc3v","1440","900","0","1","0","5ea3066769713007dfc5f1c3","","null","","","learningBlock1","","","","<div style=""font-size:60px;""> </div>","null","LF","learning/Slide69.JPG","This is a tob:","","",""
"html-keyboard-response","213","260261","0.0-5.0-0.69","LF","67zqwpqc3v","1440","900","0","1","0","5ea3066769713007dfc5f1c3","","null","","","learningBlock1","","","","This is a dep:","null","","","","","",""
"image-keyboard-response","214","260590","0.0-5.0-1.69","LF","67zqwpqc3v","1440","900","0","1","0","5ea3066769713007dfc5f1c3","","null","","","","","","","learning/Slide70.JPG","null","","","","","",""
"html-keyboard-response","215","261596","0.0-5.0-2.69","LF","67zqwpqc3v","1440","900","0","1","0","5ea3066769713007dfc5f1c3","","null","","","learningBlock1","","","","<div style=""font-size:60px;""> </div>","null","LF","learning/Slide70.JPG","This is a dep:","","",""
"html-keyboard-response","216","262600","0.0-5.0-0.70","LF","67zqwpqc3v","1440","900","0","1","0","5ea3066769713007dfc5f1c3","","null","","","learningBlock1","","","","This is a wug:","null","","","","","",""
"image-keyboard-response","217","262935","0.0-5.0-1.70","LF","67zqwpqc3v","1440","900","0","1","0","5ea3066769713007dfc5f1c3","","null","","","","","","","learning/Slide71.JPG","null","","","","","",""
"html-keyboard-response","218","263938","0.0-5.0-2.70","LF","67zqwpqc3v","1440","900","0","1","0","5ea3066769713007dfc5f1c3","","null","","","learningBlock1","","","","<div style=""font-size:60px;""> </div>","null","LF","learning/Slide71.JPG","This is a wug:","","",""
"html-keyboard-response","219","264944","0.0-5.0-0.71","LF","67zqwpqc3v","1440","900","0","1","0","5ea3066769713007dfc5f1c3","","null","","","learningBlock1","","","","This is a bim:","null","","","","","",""
"image-keyboard-response","220","265281","0.0-5.0-1.71","LF","67zqwpqc3v","1440","900","0","1","0","5ea3066769713007dfc5f1c3","","null","","","","","","","learning/Slide72.JPG","null","","","","","",""
"html-keyboard-response","221","266286","0.0-5.0-2.71","LF","67zqwpqc3v","1440","900","0","1","0","5ea3066769713007dfc5f1c3","","null","","","learningBlock1","","","","<div style=""font-size:60px;""> </div>","null","LF","learning/Slide72.JPG","This is a bim:","","",""
"html-keyboard-response","222","267292","0.0-5.0-0.72","LF","67zqwpqc3v","1440","900","0","1","0","5ea3066769713007dfc5f1c3","","null","","","learningBlock1","","","","This is a wug:","null","","","","","",""
"image-keyboard-response","223","267622","0.0-5.0-1.72","LF","67zqwpqc3v","1440","900","0","1","0","5ea3066769713007dfc5f1c3","","null","","","","","","","learning/Slide73.JPG","null","","","","","",""
"html-keyboard-response","224","268625","0.0-5.0-2.72","LF","67zqwpqc3v","1440","900","0","1","0","5ea3066769713007dfc5f1c3","","null","","","learningBlock1","","","","<div style=""font-size:60px;""> </div>","null","LF","learning/Slide73.JPG","This is a wug:","","",""
"html-keyboard-response","225","269631","0.0-5.0-0.73","LF","67zqwpqc3v","1440","900","0","1","0","5ea3066769713007dfc5f1c3","","null","","","learningBlock1","","","","This is a dep:","null","","","","","",""
"image-keyboard-response","226","269967","0.0-5.0-1.73","LF","67zqwpqc3v","1440","900","0","1","0","5ea3066769713007dfc5f1c3","","null","","","","","","","learning/Slide74.JPG","null","","","","","",""
"html-keyboard-response","227","270971","0.0-5.0-2.73","LF","67zqwpqc3v","1440","900","0","1","0","5ea3066769713007dfc5f1c3","","null","","","learningBlock1","","","","<div style=""font-size:60px;""> </div>","null","LF","learning/Slide74.JPG","This is a dep:","","",""
"html-keyboard-response","228","271972","0.0-5.0-0.74","LF","67zqwpqc3v","1440","900","0","1","0","5ea3066769713007dfc5f1c3","","null","","","learningBlock1","","","","This is a tob:","null","","","","","",""
"image-keyboard-response","229","272309","0.0-5.0-1.74","LF","67zqwpqc3v","1440","900","0","1","0","5ea3066769713007dfc5f1c3","","null","","","","","","","learning/Slide75.JPG","null","","","","","",""
"html-keyboard-response","230","273310","0.0-5.0-2.74","LF","67zqwpqc3v","1440","900","0","1","0","5ea3066769713007dfc5f1c3","","null","","","learningBlock1","","","","<div style=""font-size:60px;""> </div>","null","LF","learning/Slide75.JPG","This is a tob:","","",""
"html-keyboard-response","231","274316","0.0-5.0-0.75","LF","67zqwpqc3v","1440","900","0","1","0","5ea3066769713007dfc5f1c3","","null","","","learningBlock1","","","","This is a bim:","null","","","","","",""
"image-keyboard-response","232","274647","0.0-5.0-1.75","LF","67zqwpqc3v","1440","900","0","1","0","5ea3066769713007dfc5f1c3","","null","","","","","","","learning/Slide76.JPG","null","","","","","",""
"html-keyboard-response","233","275652","0.0-5.0-2.75","LF","67zqwpqc3v","1440","900","0","1","0","5ea3066769713007dfc5f1c3","","null","","","learningBlock1","","","","<div style=""font-size:60px;""> </div>","null","LF","learning/Slide76.JPG","This is a bim:","","",""
"html-keyboard-response","234","276658","0.0-5.0-0.76","LF","67zqwpqc3v","1440","900","0","1","0","5ea3066769713007dfc5f1c3","","null","","","learningBlock1","","","","This is a tob:","null","","","","","",""
"image-keyboard-response","235","276992","0.0-5.0-1.76","LF","67zqwpqc3v","1440","900","0","1","0","5ea3066769713007dfc5f1c3","","null","","","","","","","learning/Slide77.JPG","null","","","","","",""
"html-keyboard-response","236","277998","0.0-5.0-2.76","LF","67zqwpqc3v","1440","900","0","1","0","5ea3066769713007dfc5f1c3","","null","","","learningBlock1","","","","<div style=""font-size:60px;""> </div>","null","LF","learning/Slide77.JPG","This is a tob:","","",""
"html-keyboard-response","237","279003","0.0-5.0-0.77","LF","67zqwpqc3v","1440","900","0","1","0","5ea3066769713007dfc5f1c3","","null","","","learningBlock1","","","","This is a wug:","null","","","","","",""
"image-keyboard-response","238","279335","0.0-5.0-1.77","LF","67zqwpqc3v","1440","900","0","1","0","5ea3066769713007dfc5f1c3","","null","","","","","","","learning/Slide78.JPG","null","","","","","",""
"html-keyboard-response","239","280341","0.0-5.0-2.77","LF","67zqwpqc3v","1440","900","0","1","0","5ea3066769713007dfc5f1c3","","null","","","learningBlock1","","","","<div style=""font-size:60px;""> </div>","null","LF","learning/Slide78.JPG","This is a wug:","","",""
"html-keyboard-response","240","281345","0.0-5.0-0.78","LF","67zqwpqc3v","1440","900","0","1","0","5ea3066769713007dfc5f1c3","","null","","","learningBlock1","","","","This is a bim:","null","","","","","",""
"image-keyboard-response","241","281682","0.0-5.0-1.78","LF","67zqwpqc3v","1440","900","0","1","0","5ea3066769713007dfc5f1c3","","null","","","","","","","learning/Slide79.JPG","null","","","","","",""
"html-keyboard-response","242","282689","0.0-5.0-2.78","LF","67zqwpqc3v","1440","900","0","1","0","5ea3066769713007dfc5f1c3","","null","","","learningBlock1","","","","<div style=""font-size:60px;""> </div>","null","LF","learning/Slide79.JPG","This is a bim:","","",""
"html-keyboard-response","243","283694","0.0-5.0-0.79","LF","67zqwpqc3v","1440","900","0","1","0","5ea3066769713007dfc5f1c3","","null","","","learningBlock1","","","","This is a tob:","null","","","","","",""
"image-keyboard-response","244","284031","0.0-5.0-1.79","LF","67zqwpqc3v","1440","900","0","1","0","5ea3066769713007dfc5f1c3","","null","","","","","","","learning/Slide80.JPG","null","","","","","",""
"html-keyboard-response","245","285037","0.0-5.0-2.79","LF","67zqwpqc3v","1440","900","0","1","0","5ea3066769713007dfc5f1c3","","null","","","learningBlock1","","","","<div style=""font-size:60px;""> </div>","null","LF","learning/Slide80.JPG","This is a tob:","","",""
"instructions","246","287780","0.0-6.0","LF","67zqwpqc3v","1440","900","0","1","0","5ea3066769713007dfc5f1c3","","NA","","[{""page_index"":0,""viewing_time"":2741.8950000137556}]","instructions","","","","","","","","","","",""
"html-keyboard-response","247","288783","0.0-7.0-0.0","LF","67zqwpqc3v","1440","900","0","1","0","5ea3066769713007dfc5f1c3","","null","","","learningBlock2","","","","This is a wug:","null","","","","","",""
"image-keyboard-response","248","289120","0.0-7.0-1.0","LF","67zqwpqc3v","1440","900","0","1","0","5ea3066769713007dfc5f1c3","","null","","","","","","","learning/Slide81.JPG","null","","","","","",""
"html-keyboard-response","249","290122","0.0-7.0-2.0","LF","67zqwpqc3v","1440","900","0","1","0","5ea3066769713007dfc5f1c3","","null","","","learningBlock2","","","","<div style=""font-size:60px;""> </div>","null","LF","learning/Slide81.JPG","This is a wug:","","",""
"html-keyboard-response","250","291129","0.0-7.0-0.1","LF","67zqwpqc3v","1440","900","0","1","0","5ea3066769713007dfc5f1c3","","null","","","learningBlock2","","","","This is a bim:","null","","","","","",""
"image-keyboard-response","251","291460","0.0-7.0-1.1","LF","67zqwpqc3v","1440","900","0","1","0","5ea3066769713007dfc5f1c3","","null","","","","","","","learning/Slide82.JPG","null","","","","","",""
"html-keyboard-response","252","292467","0.0-7.0-2.1","LF","67zqwpqc3v","1440","900","0","1","0","5ea3066769713007dfc5f1c3","","null","","","learningBlock2","","","","<div style=""font-size:60px;""> </div>","null","LF","learning/Slide82.JPG","This is a bim:","","",""
"html-keyboard-response","253","293472","0.0-7.0-0.2","LF","67zqwpqc3v","1440","900","0","1","0","5ea3066769713007dfc5f1c3","","null","","","learningBlock2","","","","This is a wug:","null","","","","","",""
"image-keyboard-response","254","293808","0.0-7.0-1.2","LF","67zqwpqc3v","1440","900","0","1","0","5ea3066769713007dfc5f1c3","","null","","","","","","","learning/Slide83.JPG","null","","","","","",""
"html-keyboard-response","255","294814","0.0-7.0-2.2","LF","67zqwpqc3v","1440","900","0","1","0","5ea3066769713007dfc5f1c3","","null","","","learningBlock2","","","","<div style=""font-size:60px;""> </div>","null","LF","learning/Slide83.JPG","This is a wug:","","",""
"html-keyboard-response","256","295820","0.0-7.0-0.3","LF","67zqwpqc3v","1440","900","0","1","0","5ea3066769713007dfc5f1c3","","null","","","learningBlock2","","","","This is a dep:","null","","","","","",""
"image-keyboard-response","257","296157","0.0-7.0-1.3","LF","67zqwpqc3v","1440","900","0","1","0","5ea3066769713007dfc5f1c3","","null","","","","","","","learning/Slide84.JPG","null","","","","","",""
"html-keyboard-response","258","297164","0.0-7.0-2.3","LF","67zqwpqc3v","1440","900","0","1","0","5ea3066769713007dfc5f1c3","","null","","","learningBlock2","","","","<div style=""font-size:60px;""> </div>","null","LF","learning/Slide84.JPG","This is a dep:","","",""
"html-keyboard-response","259","298167","0.0-7.0-0.4","LF","67zqwpqc3v","1440","900","0","1","0","5ea3066769713007dfc5f1c3","","null","","","learningBlock2","","","","This is a bim:","null","","","","","",""
"image-keyboard-response","260","298497","0.0-7.0-1.4","LF","67zqwpqc3v","1440","900","0","1","0","5ea3066769713007dfc5f1c3","","null","","","","","","","learning/Slide85.JPG","null","","","","","",""
"html-keyboard-response","261","299504","0.0-7.0-2.4","LF","67zqwpqc3v","1440","900","0","1","0","5ea3066769713007dfc5f1c3","","null","","","learningBlock2","","","","<div style=""font-size:60px;""> </div>","null","LF","learning/Slide85.JPG","This is a bim:","","",""
"html-keyboard-response","262","300510","0.0-7.0-0.5","LF","67zqwpqc3v","1440","900","0","1","0","5ea3066769713007dfc5f1c3","","null","","","learningBlock2","","","","This is a tob:","null","","","","","",""
"image-keyboard-response","263","300837","0.0-7.0-1.5","LF","67zqwpqc3v","1440","900","0","1","0","5ea3066769713007dfc5f1c3","","null","","","","","","","learning/Slide86.JPG","null","","","","","",""
"html-keyboard-response","264","301844","0.0-7.0-2.5","LF","67zqwpqc3v","1440","900","0","1","0","5ea3066769713007dfc5f1c3","","null","","","learningBlock2","","","","<div style=""font-size:60px;""> </div>","null","LF","learning/Slide86.JPG","This is a tob:","","",""
"html-keyboard-response","265","302849","0.0-7.0-0.6","LF","67zqwpqc3v","1440","900","0","1","0","5ea3066769713007dfc5f1c3","","null","","","learningBlock2","","","","This is a wug:","null","","","","","",""
"image-keyboard-response","266","303182","0.0-7.0-1.6","LF","67zqwpqc3v","1440","900","0","1","0","5ea3066769713007dfc5f1c3","","null","","","","","","","learning/Slide87.JPG","null","","","","","",""
"html-keyboard-response","267","304188","0.0-7.0-2.6","LF","67zqwpqc3v","1440","900","0","1","0","5ea3066769713007dfc5f1c3","","null","","","learningBlock2","","","","<div style=""font-size:60px;""> </div>","null","LF","learning/Slide87.JPG","This is a wug:","","",""
"html-keyboard-response","268","305194","0.0-7.0-0.7","LF","67zqwpqc3v","1440","900","0","1","0","5ea3066769713007dfc5f1c3","","null","","","learningBlock2","","","","This is a tob:","null","","","","","",""
"image-keyboard-response","269","305531","0.0-7.0-1.7","LF","67zqwpqc3v","1440","900","0","1","0","5ea3066769713007dfc5f1c3","","null","","","","","","","learning/Slide88.JPG","null","","","","","",""
"html-keyboard-response","270","306537","0.0-7.0-2.7","LF","67zqwpqc3v","1440","900","0","1","0","5ea3066769713007dfc5f1c3","","null","","","learningBlock2","","","","<div style=""font-size:60px;""> </div>","null","LF","learning/Slide88.JPG","This is a tob:","","",""
"html-keyboard-response","271","307541","0.0-7.0-0.8","LF","67zqwpqc3v","1440","900","0","1","0","5ea3066769713007dfc5f1c3","","null","","","learningBlock2","","","","This is a bim:","null","","","","","",""
"image-keyboard-response","272","307877","0.0-7.0-1.8","LF","67zqwpqc3v","1440","900","0","1","0","5ea3066769713007dfc5f1c3","","null","","","","","","","learning/Slide89.JPG","null","","","","","",""
"html-keyboard-response","273","308883","0.0-7.0-2.8","LF","67zqwpqc3v","1440","900","0","1","0","5ea3066769713007dfc5f1c3","","null","","","learningBlock2","","","","<div style=""font-size:60px;""> </div>","null","LF","learning/Slide89.JPG","This is a bim:","","",""
"html-keyboard-response","274","309889","0.0-7.0-0.9","LF","67zqwpqc3v","1440","900","0","1","0","5ea3066769713007dfc5f1c3","","null","","","learningBlock2","","","","This is a dep:","null","","","","","",""
"image-keyboard-response","275","310227","0.0-7.0-1.9","LF","67zqwpqc3v","1440","900","0","1","0","5ea3066769713007dfc5f1c3","","null","","","","","","","learning/Slide90.JPG","null","","","","","",""
"html-keyboard-response","276","311233","0.0-7.0-2.9","LF","67zqwpqc3v","1440","900","0","1","0","5ea3066769713007dfc5f1c3","","null","","","learningBlock2","","","","<div style=""font-size:60px;""> </div>","null","LF","learning/Slide90.JPG","This is a dep:","","",""
"html-keyboard-response","277","312236","0.0-7.0-0.10","LF","67zqwpqc3v","1440","900","0","1","0","5ea3066769713007dfc5f1c3","","null","","","learningBlock2","","","","This is a wug:","null","","","","","",""
"image-keyboard-response","278","312570","0.0-7.0-1.10","LF","67zqwpqc3v","1440","900","0","1","0","5ea3066769713007dfc5f1c3","","null","","","","","","","learning/Slide91.JPG","null","","","","","",""
"html-keyboard-response","279","313573","0.0-7.0-2.10","LF","67zqwpqc3v","1440","900","0","1","0","5ea3066769713007dfc5f1c3","","null","","","learningBlock2","","","","<div style=""font-size:60px;""> </div>","null","LF","learning/Slide91.JPG","This is a wug:","","",""
"html-keyboard-response","280","314578","0.0-7.0-0.11","LF","67zqwpqc3v","1440","900","0","1","0","5ea3066769713007dfc5f1c3","","null","","","learningBlock2","","","","This is a tob:","null","","","","","",""
"image-keyboard-response","281","314911","0.0-7.0-1.11","LF","67zqwpqc3v","1440","900","0","1","0","5ea3066769713007dfc5f1c3","","null","","","","","","","learning/Slide92.JPG","null","","","","","",""
"html-keyboard-response","282","315914","0.0-7.0-2.11","LF","67zqwpqc3v","1440","900","0","1","0","5ea3066769713007dfc5f1c3","","null","","","learningBlock2","","","","<div style=""font-size:60px;""> </div>","null","LF","learning/Slide92.JPG","This is a tob:","","",""
"html-keyboard-response","283","316920","0.0-7.0-0.12","LF","67zqwpqc3v","1440","900","0","1","0","5ea3066769713007dfc5f1c3","","null","","","learningBlock2","","","","This is a bim:","null","","","","","",""
"image-keyboard-response","284","317255","0.0-7.0-1.12","LF","67zqwpqc3v","1440","900","0","1","0","5ea3066769713007dfc5f1c3","","null","","","","","","","learning/Slide93.JPG","null","","","","","",""
"html-keyboard-response","285","318256","0.0-7.0-2.12","LF","67zqwpqc3v","1440","900","0","1","0","5ea3066769713007dfc5f1c3","","null","","","learningBlock2","","","","<div style=""font-size:60px;""> </div>","null","LF","learning/Slide93.JPG","This is a bim:","","",""
"html-keyboard-response","286","319263","0.0-7.0-0.13","LF","67zqwpqc3v","1440","900","0","1","0","5ea3066769713007dfc5f1c3","","null","","","learningBlock2","","","","This is a tob:","null","","","","","",""
"image-keyboard-response","287","319593","0.0-7.0-1.13","LF","67zqwpqc3v","1440","900","0","1","0","5ea3066769713007dfc5f1c3","","null","","","","","","","learning/Slide94.JPG","null","","","","","",""
"html-keyboard-response","288","320600","0.0-7.0-2.13","LF","67zqwpqc3v","1440","900","0","1","0","5ea3066769713007dfc5f1c3","","null","","","learningBlock2","","","","<div style=""font-size:60px;""> </div>","null","LF","learning/Slide94.JPG","This is a tob:","","",""
"html-keyboard-response","289","321606","0.0-7.0-0.14","LF","67zqwpqc3v","1440","900","0","1","0","5ea3066769713007dfc5f1c3","","null","","","learningBlock2","","","","This is a wug:","null","","","","","",""
"image-keyboard-response","290","321940","0.0-7.0-1.14","LF","67zqwpqc3v","1440","900","0","1","0","5ea3066769713007dfc5f1c3","","null","","","","","","","learning/Slide95.JPG","null","","","","","",""
"html-keyboard-response","291","322947","0.0-7.0-2.14","LF","67zqwpqc3v","1440","900","0","1","0","5ea3066769713007dfc5f1c3","","null","","","learningBlock2","","","","<div style=""font-size:60px;""> </div>","null","LF","learning/Slide95.JPG","This is a wug:","","",""
"html-keyboard-response","292","323951","0.0-7.0-0.15","LF","67zqwpqc3v","1440","900","0","1","0","5ea3066769713007dfc5f1c3","","null","","","learningBlock2","","","","This is a tob:","null","","","","","",""
"image-keyboard-response","293","324283","0.0-7.0-1.15","LF","67zqwpqc3v","1440","900","0","1","0","5ea3066769713007dfc5f1c3","","null","","","","","","","learning/Slide96.JPG","null","","","","","",""
"html-keyboard-response","294","325289","0.0-7.0-2.15","LF","67zqwpqc3v","1440","900","0","1","0","5ea3066769713007dfc5f1c3","","null","","","learningBlock2","","","","<div style=""font-size:60px;""> </div>","null","LF","learning/Slide96.JPG","This is a tob:","","",""
"html-keyboard-response","295","326296","0.0-7.0-0.16","LF","67zqwpqc3v","1440","900","0","1","0","5ea3066769713007dfc5f1c3","","null","","","learningBlock2","","","","This is a dep:","null","","","","","",""
"image-keyboard-response","296","326629","0.0-7.0-1.16","LF","67zqwpqc3v","1440","900","0","1","0","5ea3066769713007dfc5f1c3","","null","","","","","","","learning/Slide97.JPG","null","","","","","",""
"html-keyboard-response","297","327633","0.0-7.0-2.16","LF","67zqwpqc3v","1440","900","0","1","0","5ea3066769713007dfc5f1c3","","null","","","learningBlock2","","","","<div style=""font-size:60px;""> </div>","null","LF","learning/Slide97.JPG","This is a dep:","","",""
"html-keyboard-response","298","328635","0.0-7.0-0.17","LF","67zqwpqc3v","1440","900","0","1","0","5ea3066769713007dfc5f1c3","","null","","","learningBlock2","","","","This is a bim:","null","","","","","",""
"image-keyboard-response","299","328963","0.0-7.0-1.17","LF","67zqwpqc3v","1440","900","0","1","0","5ea3066769713007dfc5f1c3","","null","","","","","","","learning/Slide98.JPG","null","","","","","",""
"html-keyboard-response","300","329970","0.0-7.0-2.17","LF","67zqwpqc3v","1440","900","0","1","0","5ea3066769713007dfc5f1c3","","null","","","learningBlock2","","","","<div style=""font-size:60px;""> </div>","null","LF","learning/Slide98.JPG","This is a bim:","","",""
"html-keyboard-response","301","330972","0.0-7.0-0.18","LF","67zqwpqc3v","1440","900","0","1","0","5ea3066769713007dfc5f1c3","","null","","","learningBlock2","","","","This is a dep:","null","","","","","",""
"image-keyboard-response","302","331300","0.0-7.0-1.18","LF","67zqwpqc3v","1440","900","0","1","0","5ea3066769713007dfc5f1c3","","null","","","","","","","learning/Slide99.JPG","null","","","","","",""
"html-keyboard-response","303","332305","0.0-7.0-2.18","LF","67zqwpqc3v","1440","900","0","1","0","5ea3066769713007dfc5f1c3","","null","","","learningBlock2","","","","<div style=""font-size:60px;""> </div>","null","LF","learning/Slide99.JPG","This is a dep:","","",""
"html-keyboard-response","304","333312","0.0-7.0-0.19","LF","67zqwpqc3v","1440","900","0","1","0","5ea3066769713007dfc5f1c3","","null","","","learningBlock2","","","","This is a bim:","null","","","","","",""
"image-keyboard-response","305","333649","0.0-7.0-1.19","LF","67zqwpqc3v","1440","900","0","1","0","5ea3066769713007dfc5f1c3","","null","","","","","","","learning/Slide100.JPG","null","","","","","",""
"html-keyboard-response","306","334655","0.0-7.0-2.19","LF","67zqwpqc3v","1440","900","0","1","0","5ea3066769713007dfc5f1c3","","null","","","learningBlock2","","","","<div style=""font-size:60px;""> </div>","null","LF","learning/Slide100.JPG","This is a bim:","","",""
"html-keyboard-response","307","335662","0.0-7.0-0.20","LF","67zqwpqc3v","1440","900","0","1","0","5ea3066769713007dfc5f1c3","","null","","","learningBlock2","","","","This is a tob:","null","","","","","",""
"image-keyboard-response","308","335999","0.0-7.0-1.20","LF","67zqwpqc3v","1440","900","0","1","0","5ea3066769713007dfc5f1c3","","null","","","","","","","learning/Slide101.JPG","null","","","","","",""
"html-keyboard-response","309","337005","0.0-7.0-2.20","LF","67zqwpqc3v","1440","900","0","1","0","5ea3066769713007dfc5f1c3","","null","","","learningBlock2","","","","<div style=""font-size:60px;""> </div>","null","LF","learning/Slide101.JPG","This is a tob:","","",""
"html-keyboard-response","310","338011","0.0-7.0-0.21","LF","67zqwpqc3v","1440","900","0","1","0","5ea3066769713007dfc5f1c3","","null","","","learningBlock2","","","","This is a bim:","null","","","","","",""
"image-keyboard-response","311","338339","0.0-7.0-1.21","LF","67zqwpqc3v","1440","900","0","1","0","5ea3066769713007dfc5f1c3","","null","","","","","","","learning/Slide102.JPG","null","","","","","",""
"html-keyboard-response","312","339345","0.0-7.0-2.21","LF","67zqwpqc3v","1440","900","0","1","0","5ea3066769713007dfc5f1c3","","null","","","learningBlock2","","","","<div style=""font-size:60px;""> </div>","null","LF","learning/Slide102.JPG","This is a bim:","","",""
"html-keyboard-response","313","340351","0.0-7.0-0.22","LF","67zqwpqc3v","1440","900","0","1","0","5ea3066769713007dfc5f1c3","","null","","","learningBlock2","","","","This is a dep:","null","","","","","",""
"image-keyboard-response","314","340688","0.0-7.0-1.22","LF","67zqwpqc3v","1440","900","0","1","0","5ea3066769713007dfc5f1c3","","null","","","","","","","learning/Slide103.JPG","null","","","","","",""
"html-keyboard-response","315","341695","0.0-7.0-2.22","LF","67zqwpqc3v","1440","900","0","1","0","5ea3066769713007dfc5f1c3","","null","","","learningBlock2","","","","<div style=""font-size:60px;""> </div>","null","LF","learning/Slide103.JPG","This is a dep:","","",""
"html-keyboard-response","316","342701","0.0-7.0-0.23","LF","67zqwpqc3v","1440","900","0","1","0","5ea3066769713007dfc5f1c3","","null","","","learningBlock2","","","","This is a tob:","null","","","","","",""
"image-keyboard-response","317","343037","0.0-7.0-1.23","LF","67zqwpqc3v","1440","900","0","1","0","5ea3066769713007dfc5f1c3","","null","","","","","","","learning/Slide104.JPG","null","","","","","",""
"html-keyboard-response","318","344042","0.0-7.0-2.23","LF","67zqwpqc3v","1440","900","0","1","0","5ea3066769713007dfc5f1c3","","null","","","learningBlock2","","","","<div style=""font-size:60px;""> </div>","null","LF","learning/Slide104.JPG","This is a tob:","","",""
"html-keyboard-response","319","345046","0.0-7.0-0.24","LF","67zqwpqc3v","1440","900","0","1","0","5ea3066769713007dfc5f1c3","","null","","","learningBlock2","","","","This is a dep:","null","","","","","",""
"image-keyboard-response","320","345382","0.0-7.0-1.24","LF","67zqwpqc3v","1440","900","0","1","0","5ea3066769713007dfc5f1c3","","null","","","","","","","learning/Slide105.JPG","null","","","","","",""
"html-keyboard-response","321","346388","0.0-7.0-2.24","LF","67zqwpqc3v","1440","900","0","1","0","5ea3066769713007dfc5f1c3","","null","","","learningBlock2","","","","<div style=""font-size:60px;""> </div>","null","LF","learning/Slide105.JPG","This is a dep:","","",""
"html-keyboard-response","322","347391","0.0-7.0-0.25","LF","67zqwpqc3v","1440","900","0","1","0","5ea3066769713007dfc5f1c3","","null","","","learningBlock2","","","","This is a wug:","null","","","","","",""
"image-keyboard-response","323","347728","0.0-7.0-1.25","LF","67zqwpqc3v","1440","900","0","1","0","5ea3066769713007dfc5f1c3","","null","","","","","","","learning/Slide106.JPG","null","","","","","",""
"html-keyboard-response","324","348734","0.0-7.0-2.25","LF","67zqwpqc3v","1440","900","0","1","0","5ea3066769713007dfc5f1c3","","null","","","learningBlock2","","","","<div style=""font-size:60px;""> </div>","null","LF","learning/Slide106.JPG","This is a wug:","","",""
"html-keyboard-response","325","349739","0.0-7.0-0.26","LF","67zqwpqc3v","1440","900","0","1","0","5ea3066769713007dfc5f1c3","","null","","","learningBlock2","","","","This is a bim:","null","","","","","",""
"image-keyboard-response","326","350073","0.0-7.0-1.26","LF","67zqwpqc3v","1440","900","0","1","0","5ea3066769713007dfc5f1c3","","null","","","","","","","learning/Slide107.JPG","null","","","","","",""
"html-keyboard-response","327","351079","0.0-7.0-2.26","LF","67zqwpqc3v","1440","900","0","1","0","5ea3066769713007dfc5f1c3","","null","","","learningBlock2","","","","<div style=""font-size:60px;""> </div>","null","LF","learning/Slide107.JPG","This is a bim:","","",""
"html-keyboard-response","328","352086","0.0-7.0-0.27","LF","67zqwpqc3v","1440","900","0","1","0","5ea3066769713007dfc5f1c3","","null","","","learningBlock2","","","","This is a dep:","null","","","","","",""
"image-keyboard-response","329","352423","0.0-7.0-1.27","LF","67zqwpqc3v","1440","900","0","1","0","5ea3066769713007dfc5f1c3","","null","","","","","","","learning/Slide108.JPG","null","","","","","",""
"html-keyboard-response","330","353429","0.0-7.0-2.27","LF","67zqwpqc3v","1440","900","0","1","0","5ea3066769713007dfc5f1c3","","null","","","learningBlock2","","","","<div style=""font-size:60px;""> </div>","null","LF","learning/Slide108.JPG","This is a dep:","","",""
"html-keyboard-response","331","354433","0.0-7.0-0.28","LF","67zqwpqc3v","1440","900","0","1","0","5ea3066769713007dfc5f1c3","","null","","","learningBlock2","","","","This is a wug:","null","","","","","",""
"image-keyboard-response","332","354769","0.0-7.0-1.28","LF","67zqwpqc3v","1440","900","0","1","0","5ea3066769713007dfc5f1c3","","null","","","","","","","learning/Slide109.JPG","null","","","","","",""
"html-keyboard-response","333","355776","0.0-7.0-2.28","LF","67zqwpqc3v","1440","900","0","1","0","5ea3066769713007dfc5f1c3","","null","","","learningBlock2","","","","<div style=""font-size:60px;""> </div>","null","LF","learning/Slide109.JPG","This is a wug:","","",""
"html-keyboard-response","334","356780","0.0-7.0-0.29","LF","67zqwpqc3v","1440","900","0","1","0","5ea3066769713007dfc5f1c3","","null","","","learningBlock2","","","","This is a bim:","null","","","","","",""
"image-keyboard-response","335","357107","0.0-7.0-1.29","LF","67zqwpqc3v","1440","900","0","1","0","5ea3066769713007dfc5f1c3","","null","","","","","","","learning/Slide110.JPG","null","","","","","",""
"html-keyboard-response","336","358113","0.0-7.0-2.29","LF","67zqwpqc3v","1440","900","0","1","0","5ea3066769713007dfc5f1c3","","null","","","learningBlock2","","","","<div style=""font-size:60px;""> </div>","null","LF","learning/Slide110.JPG","This is a bim:","","",""
"html-keyboard-response","337","359119","0.0-7.0-0.30","LF","67zqwpqc3v","1440","900","0","1","0","5ea3066769713007dfc5f1c3","","null","","","learningBlock2","","","","This is a tob:","null","","","","","",""
"image-keyboard-response","338","359456","0.0-7.0-1.30","LF","67zqwpqc3v","1440","900","0","1","0","5ea3066769713007dfc5f1c3","","null","","","","","","","learning/Slide111.JPG","null","","","","","",""
"html-keyboard-response","339","360463","0.0-7.0-2.30","LF","67zqwpqc3v","1440","900","0","1","0","5ea3066769713007dfc5f1c3","","null","","","learningBlock2","","","","<div style=""font-size:60px;""> </div>","null","LF","learning/Slide111.JPG","This is a tob:","","",""
"html-keyboard-response","340","361465","0.0-7.0-0.31","LF","67zqwpqc3v","1440","900","0","1","0","5ea3066769713007dfc5f1c3","","null","","","learningBlock2","","","","This is a wug:","null","","","","","",""
"image-keyboard-response","341","361801","0.0-7.0-1.31","LF","67zqwpqc3v","1440","900","0","1","0","5ea3066769713007dfc5f1c3","","null","","","","","","","learning/Slide112.JPG","null","","","","","",""
"html-keyboard-response","342","362804","0.0-7.0-2.31","LF","67zqwpqc3v","1440","900","0","1","0","5ea3066769713007dfc5f1c3","","null","","","learningBlock2","","","","<div style=""font-size:60px;""> </div>","null","LF","learning/Slide112.JPG","This is a wug:","","",""
"html-keyboard-response","343","363806","0.0-7.0-0.32","LF","67zqwpqc3v","1440","900","0","1","0","5ea3066769713007dfc5f1c3","","null","","","learningBlock2","","","","This is a tob:","null","","","","","",""
"image-keyboard-response","344","364140","0.0-7.0-1.32","LF","67zqwpqc3v","1440","900","0","1","0","5ea3066769713007dfc5f1c3","","null","","","","","","","learning/Slide113.JPG","null","","","","","",""
"html-keyboard-response","345","365142","0.0-7.0-2.32","LF","67zqwpqc3v","1440","900","0","1","0","5ea3066769713007dfc5f1c3","","null","","","learningBlock2","","","","<div style=""font-size:60px;""> </div>","null","LF","learning/Slide113.JPG","This is a tob:","","",""
"html-keyboard-response","346","366148","0.0-7.0-0.33","LF","67zqwpqc3v","1440","900","0","1","0","5ea3066769713007dfc5f1c3","","null","","","learningBlock2","","","","This is a wug:","null","","","","","",""
"image-keyboard-response","347","366480","0.0-7.0-1.33","LF","67zqwpqc3v","1440","900","0","1","0","5ea3066769713007dfc5f1c3","","null","","","","","","","learning/Slide114.JPG","null","","","","","",""
"html-keyboard-response","348","367485","0.0-7.0-2.33","LF","67zqwpqc3v","1440","900","0","1","0","5ea3066769713007dfc5f1c3","","null","","","learningBlock2","","","","<div style=""font-size:60px;""> </div>","null","LF","learning/Slide114.JPG","This is a wug:","","",""
"html-keyboard-response","349","368492","0.0-7.0-0.34","LF","67zqwpqc3v","1440","900","0","1","0","5ea3066769713007dfc5f1c3","","null","","","learningBlock2","","","","This is a bim:","null","","","","","",""
"image-keyboard-response","350","368829","0.0-7.0-1.34","LF","67zqwpqc3v","1440","900","0","1","0","5ea3066769713007dfc5f1c3","","null","","","","","","","learning/Slide115.JPG","null","","","","","",""
"html-keyboard-response","351","369835","0.0-7.0-2.34","LF","67zqwpqc3v","1440","900","0","1","0","5ea3066769713007dfc5f1c3","","null","","","learningBlock2","","","","<div style=""font-size:60px;""> </div>","null","LF","learning/Slide115.JPG","This is a bim:","","",""
"html-keyboard-response","352","370842","0.0-7.0-0.35","LF","67zqwpqc3v","1440","900","0","1","0","5ea3066769713007dfc5f1c3","","null","","","learningBlock2","","","","This is a dep:","null","","","","","",""
"image-keyboard-response","353","371175","0.0-7.0-1.35","LF","67zqwpqc3v","1440","900","0","1","0","5ea3066769713007dfc5f1c3","","null","","","","","","","learning/Slide116.JPG","null","","","","","",""
"html-keyboard-response","354","372177","0.0-7.0-2.35","LF","67zqwpqc3v","1440","900","0","1","0","5ea3066769713007dfc5f1c3","","null","","","learningBlock2","","","","<div style=""font-size:60px;""> </div>","null","LF","learning/Slide116.JPG","This is a dep:","","",""
"html-keyboard-response","355","373179","0.0-7.0-0.36","LF","67zqwpqc3v","1440","900","0","1","0","5ea3066769713007dfc5f1c3","","null","","","learningBlock2","","","","This is a tob:","null","","","","","",""
"image-keyboard-response","356","373517","0.0-7.0-1.36","LF","67zqwpqc3v","1440","900","0","1","0","5ea3066769713007dfc5f1c3","","null","","","","","","","learning/Slide117.JPG","null","","","","","",""
"html-keyboard-response","357","374523","0.0-7.0-2.36","LF","67zqwpqc3v","1440","900","0","1","0","5ea3066769713007dfc5f1c3","","null","","","learningBlock2","","","","<div style=""font-size:60px;""> </div>","null","LF","learning/Slide117.JPG","This is a tob:","","",""
"html-keyboard-response","358","375530","0.0-7.0-0.37","LF","67zqwpqc3v","1440","900","0","1","0","5ea3066769713007dfc5f1c3","","null","","","learningBlock2","","","","This is a dep:","null","","","","","",""
"image-keyboard-response","359","375864","0.0-7.0-1.37","LF","67zqwpqc3v","1440","900","0","1","0","5ea3066769713007dfc5f1c3","","null","","","","","","","learning/Slide118.JPG","null","","","","","",""
"html-keyboard-response","360","376868","0.0-7.0-2.37","LF","67zqwpqc3v","1440","900","0","1","0","5ea3066769713007dfc5f1c3","","null","","","learningBlock2","","","","<div style=""font-size:60px;""> </div>","null","LF","learning/Slide118.JPG","This is a dep:","","",""
"html-keyboard-response","361","377873","0.0-7.0-0.38","LF","67zqwpqc3v","1440","900","0","1","0","5ea3066769713007dfc5f1c3","","null","","","learningBlock2","","","","This is a wug:","null","","","","","",""
"image-keyboard-response","362","378210","0.0-7.0-1.38","LF","67zqwpqc3v","1440","900","0","1","0","5ea3066769713007dfc5f1c3","","null","","","","","","","learning/Slide119.JPG","null","","","","","",""
"html-keyboard-response","363","379214","0.0-7.0-2.38","LF","67zqwpqc3v","1440","900","0","1","0","5ea3066769713007dfc5f1c3","","null","","","learningBlock2","","","","<div style=""font-size:60px;""> </div>","null","LF","learning/Slide119.JPG","This is a wug:","","",""
"html-keyboard-response","364","380218","0.0-7.0-0.39","LF","67zqwpqc3v","1440","900","0","1","0","5ea3066769713007dfc5f1c3","","null","","","learningBlock2","","","","This is a dep:","null","","","","","",""
"image-keyboard-response","365","380555","0.0-7.0-1.39","LF","67zqwpqc3v","1440","900","0","1","0","5ea3066769713007dfc5f1c3","","null","","","","","","","learning/Slide120.JPG","null","","","","","",""
"html-keyboard-response","366","381561","0.0-7.0-2.39","LF","67zqwpqc3v","1440","900","0","1","0","5ea3066769713007dfc5f1c3","","null","","","learningBlock2","","","","<div style=""font-size:60px;""> </div>","null","LF","learning/Slide120.JPG","This is a dep:","","",""
"html-keyboard-response","367","382564","0.0-7.0-0.40","LF","67zqwpqc3v","1440","900","0","1","0","5ea3066769713007dfc5f1c3","","null","","","learningBlock2","","","","This is a bim:","null","","","","","",""
"image-keyboard-response","368","382897","0.0-7.0-1.40","LF","67zqwpqc3v","1440","900","0","1","0","5ea3066769713007dfc5f1c3","","null","","","","","","","learning/Slide121.JPG","null","","","","","",""
"html-keyboard-response","369","383901","0.0-7.0-2.40","LF","67zqwpqc3v","1440","900","0","1","0","5ea3066769713007dfc5f1c3","","null","","","learningBlock2","","","","<div style=""font-size:60px;""> </div>","null","LF","learning/Slide121.JPG","This is a bim:","","",""
"html-keyboard-response","370","384908","0.0-7.0-0.41","LF","67zqwpqc3v","1440","900","0","1","0","5ea3066769713007dfc5f1c3","","null","","","learningBlock2","","","","This is a wug:","null","","","","","",""
"image-keyboard-response","371","385243","0.0-7.0-1.41","LF","67zqwpqc3v","1440","900","0","1","0","5ea3066769713007dfc5f1c3","","null","","","","","","","learning/Slide122.JPG","null","","","","","",""
"html-keyboard-response","372","386249","0.0-7.0-2.41","LF","67zqwpqc3v","1440","900","0","1","0","5ea3066769713007dfc5f1c3","","null","","","learningBlock2","","","","<div style=""font-size:60px;""> </div>","null","LF","learning/Slide122.JPG","This is a wug:","","",""
"html-keyboard-response","373","387254","0.0-7.0-0.42","LF","67zqwpqc3v","1440","900","0","1","0","5ea3066769713007dfc5f1c3","","null","","","learningBlock2","","","","This is a bim:","null","","","","","",""
"image-keyboard-response","374","387591","0.0-7.0-1.42","LF","67zqwpqc3v","1440","900","0","1","0","5ea3066769713007dfc5f1c3","","null","","","","","","","learning/Slide123.JPG","null","","","","","",""
"html-keyboard-response","375","388597","0.0-7.0-2.42","LF","67zqwpqc3v","1440","900","0","1","0","5ea3066769713007dfc5f1c3","","null","","","learningBlock2","","","","<div style=""font-size:60px;""> </div>","null","LF","learning/Slide123.JPG","This is a bim:","","",""
"html-keyboard-response","376","389604","0.0-7.0-0.43","LF","67zqwpqc3v","1440","900","0","1","0","5ea3066769713007dfc5f1c3","","null","","","learningBlock2","","","","This is a tob:","null","","","","","",""
"image-keyboard-response","377","389936","0.0-7.0-1.43","LF","67zqwpqc3v","1440","900","0","1","0","5ea3066769713007dfc5f1c3","","null","","","","","","","learning/Slide124.JPG","null","","","","","",""
"html-keyboard-response","378","390943","0.0-7.0-2.43","LF","67zqwpqc3v","1440","900","0","1","0","5ea3066769713007dfc5f1c3","","null","","","learningBlock2","","","","<div style=""font-size:60px;""> </div>","null","LF","learning/Slide124.JPG","This is a tob:","","",""
"html-keyboard-response","379","391949","0.0-7.0-0.44","LF","67zqwpqc3v","1440","900","0","1","0","5ea3066769713007dfc5f1c3","","null","","","learningBlock2","","","","This is a bim:","null","","","","","",""
"image-keyboard-response","380","392280","0.0-7.0-1.44","LF","67zqwpqc3v","1440","900","0","1","0","5ea3066769713007dfc5f1c3","","null","","","","","","","learning/Slide125.JPG","null","","","","","",""
"html-keyboard-response","381","393286","0.0-7.0-2.44","LF","67zqwpqc3v","1440","900","0","1","0","5ea3066769713007dfc5f1c3","","null","","","learningBlock2","","","","<div style=""font-size:60px;""> </div>","null","LF","learning/Slide125.JPG","This is a bim:","","",""
"html-keyboard-response","382","394292","0.0-7.0-0.45","LF","67zqwpqc3v","1440","900","0","1","0","5ea3066769713007dfc5f1c3","","null","","","learningBlock2","","","","This is a tob:","null","","","","","",""
"image-keyboard-response","383","394624","0.0-7.0-1.45","LF","67zqwpqc3v","1440","900","0","1","0","5ea3066769713007dfc5f1c3","","null","","","","","","","learning/Slide126.JPG","null","","","","","",""
"html-keyboard-response","384","395628","0.0-7.0-2.45","LF","67zqwpqc3v","1440","900","0","1","0","5ea3066769713007dfc5f1c3","","null","","","learningBlock2","","","","<div style=""font-size:60px;""> </div>","null","LF","learning/Slide126.JPG","This is a tob:","","",""
"html-keyboard-response","385","396634","0.0-7.0-0.46","LF","67zqwpqc3v","1440","900","0","1","0","5ea3066769713007dfc5f1c3","","null","","","learningBlock2","","","","This is a dep:","null","","","","","",""
"image-keyboard-response","386","396967","0.0-7.0-1.46","LF","67zqwpqc3v","1440","900","0","1","0","5ea3066769713007dfc5f1c3","","null","","","","","","","learning/Slide127.JPG","null","","","","","",""
"html-keyboard-response","387","397970","0.0-7.0-2.46","LF","67zqwpqc3v","1440","900","0","1","0","5ea3066769713007dfc5f1c3","","null","","","learningBlock2","","","","<div style=""font-size:60px;""> </div>","null","LF","learning/Slide127.JPG","This is a dep:","","",""
"html-keyboard-response","388","398974","0.0-7.0-0.47","LF","67zqwpqc3v","1440","900","0","1","0","5ea3066769713007dfc5f1c3","","null","","","learningBlock2","","","","This is a wug:","null","","","","","",""
"image-keyboard-response","389","399309","0.0-7.0-1.47","LF","67zqwpqc3v","1440","900","0","1","0","5ea3066769713007dfc5f1c3","","null","","","","","","","learning/Slide128.JPG","null","","","","","",""
"html-keyboard-response","390","400310","0.0-7.0-2.47","LF","67zqwpqc3v","1440","900","0","1","0","5ea3066769713007dfc5f1c3","","null","","","learningBlock2","","","","<div style=""font-size:60px;""> </div>","null","LF","learning/Slide128.JPG","This is a wug:","","",""
"html-keyboard-response","391","401311","0.0-7.0-0.48","LF","67zqwpqc3v","1440","900","0","1","0","5ea3066769713007dfc5f1c3","","null","","","learningBlock2","","","","This is a tob:","null","","","","","",""
"image-keyboard-response","392","401645","0.0-7.0-1.48","LF","67zqwpqc3v","1440","900","0","1","0","5ea3066769713007dfc5f1c3","","null","","","","","","","learning/Slide129.JPG","null","","","","","",""
"html-keyboard-response","393","402650","0.0-7.0-2.48","LF","67zqwpqc3v","1440","900","0","1","0","5ea3066769713007dfc5f1c3","","null","","","learningBlock2","","","","<div style=""font-size:60px;""> </div>","null","LF","learning/Slide129.JPG","This is a tob:","","",""
"html-keyboard-response","394","403656","0.0-7.0-0.49","LF","67zqwpqc3v","1440","900","0","1","0","5ea3066769713007dfc5f1c3","","null","","","learningBlock2","","","","This is a wug:","null","","","","","",""
"image-keyboard-response","395","403993","0.0-7.0-1.49","LF","67zqwpqc3v","1440","900","0","1","0","5ea3066769713007dfc5f1c3","","null","","","","","","","learning/Slide130.JPG","null","","","","","",""
"html-keyboard-response","396","404999","0.0-7.0-2.49","LF","67zqwpqc3v","1440","900","0","1","0","5ea3066769713007dfc5f1c3","","null","","","learningBlock2","","","","<div style=""font-size:60px;""> </div>","null","LF","learning/Slide130.JPG","This is a wug:","","",""
"html-keyboard-response","397","406003","0.0-7.0-0.50","LF","67zqwpqc3v","1440","900","0","1","0","5ea3066769713007dfc5f1c3","","null","","","learningBlock2","","","","This is a bim:","null","","","","","",""
"image-keyboard-response","398","406334","0.0-7.0-1.50","LF","67zqwpqc3v","1440","900","0","1","0","5ea3066769713007dfc5f1c3","","null","","","","","","","learning/Slide131.JPG","null","","","","","",""
"html-keyboard-response","399","407341","0.0-7.0-2.50","LF","67zqwpqc3v","1440","900","0","1","0","5ea3066769713007dfc5f1c3","","null","","","learningBlock2","","","","<div style=""font-size:60px;""> </div>","null","LF","learning/Slide131.JPG","This is a bim:","","",""
"html-keyboard-response","400","408342","0.0-7.0-0.51","LF","67zqwpqc3v","1440","900","0","1","0","5ea3066769713007dfc5f1c3","","null","","","learningBlock2","","","","This is a dep:","null","","","","","",""
"image-keyboard-response","401","408680","0.0-7.0-1.51","LF","67zqwpqc3v","1440","900","0","1","0","5ea3066769713007dfc5f1c3","","null","","","","","","","learning/Slide132.JPG","null","","","","","",""
"html-keyboard-response","402","409686","0.0-7.0-2.51","LF","67zqwpqc3v","1440","900","0","1","0","5ea3066769713007dfc5f1c3","","null","","","learningBlock2","","","","<div style=""font-size:60px;""> </div>","null","LF","learning/Slide132.JPG","This is a dep:","","",""
"html-keyboard-response","403","410693","0.0-7.0-0.52","LF","67zqwpqc3v","1440","900","0","1","0","5ea3066769713007dfc5f1c3","","null","","","learningBlock2","","","","This is a tob:","null","","","","","",""
"image-keyboard-response","404","411024","0.0-7.0-1.52","LF","67zqwpqc3v","1440","900","0","1","0","5ea3066769713007dfc5f1c3","","null","","","","","","","learning/Slide133.JPG","null","","","","","",""
"html-keyboard-response","405","412030","0.0-7.0-2.52","LF","67zqwpqc3v","1440","900","0","1","0","5ea3066769713007dfc5f1c3","","null","","","learningBlock2","","","","<div style=""font-size:60px;""> </div>","null","LF","learning/Slide133.JPG","This is a tob:","","",""
"html-keyboard-response","406","413037","0.0-7.0-0.53","LF","67zqwpqc3v","1440","900","0","1","0","5ea3066769713007dfc5f1c3","","null","","","learningBlock2","","","","This is a dep:","null","","","","","",""
"image-keyboard-response","407","413373","0.0-7.0-1.53","LF","67zqwpqc3v","1440","900","0","1","0","5ea3066769713007dfc5f1c3","","null","","","","","","","learning/Slide134.JPG","null","","","","","",""
"html-keyboard-response","408","414376","0.0-7.0-2.53","LF","67zqwpqc3v","1440","900","0","1","0","5ea3066769713007dfc5f1c3","","null","","","learningBlock2","","","","<div style=""font-size:60px;""> </div>","null","LF","learning/Slide134.JPG","This is a dep:","","",""
"html-keyboard-response","409","415379","0.0-7.0-0.54","LF","67zqwpqc3v","1440","900","0","1","0","5ea3066769713007dfc5f1c3","","null","","","learningBlock2","","","","This is a tob:","null","","","","","",""
"image-keyboard-response","410","415716","0.0-7.0-1.54","LF","67zqwpqc3v","1440","900","0","1","0","5ea3066769713007dfc5f1c3","","null","","","","","","","learning/Slide135.JPG","null","","","","","",""
"html-keyboard-response","411","416723","0.0-7.0-2.54","LF","67zqwpqc3v","1440","900","0","1","0","5ea3066769713007dfc5f1c3","","null","","","learningBlock2","","","","<div style=""font-size:60px;""> </div>","null","LF","learning/Slide135.JPG","This is a tob:","","",""
"html-keyboard-response","412","417727","0.0-7.0-0.55","LF","67zqwpqc3v","1440","900","0","1","0","5ea3066769713007dfc5f1c3","","null","","","learningBlock2","","","","This is a wug:","null","","","","","",""
"image-keyboard-response","413","418064","0.0-7.0-1.55","LF","67zqwpqc3v","1440","900","0","1","0","5ea3066769713007dfc5f1c3","","null","","","","","","","learning/Slide136.JPG","null","","","","","",""
"html-keyboard-response","414","419070","0.0-7.0-2.55","LF","67zqwpqc3v","1440","900","0","1","0","5ea3066769713007dfc5f1c3","","null","","","learningBlock2","","","","<div style=""font-size:60px;""> </div>","null","LF","learning/Slide136.JPG","This is a wug:","","",""
"html-keyboard-response","415","420076","0.0-7.0-0.56","LF","67zqwpqc3v","1440","900","0","1","0","5ea3066769713007dfc5f1c3","","null","","","learningBlock2","","","","This is a tob:","null","","","","","",""
"image-keyboard-response","416","420408","0.0-7.0-1.56","LF","67zqwpqc3v","1440","900","0","1","0","5ea3066769713007dfc5f1c3","","null","","","","","","","learning/Slide137.JPG","null","","","","","",""
"html-keyboard-response","417","421414","0.0-7.0-2.56","LF","67zqwpqc3v","1440","900","0","1","0","5ea3066769713007dfc5f1c3","","null","","","learningBlock2","","","","<div style=""font-size:60px;""> </div>","null","LF","learning/Slide137.JPG","This is a tob:","","",""
"html-keyboard-response","418","422421","0.0-7.0-0.57","LF","67zqwpqc3v","1440","900","0","1","0","5ea3066769713007dfc5f1c3","","null","","","learningBlock2","","","","This is a bim:","null","","","","","",""
"image-keyboard-response","419","422758","0.0-7.0-1.57","LF","67zqwpqc3v","1440","900","0","1","0","5ea3066769713007dfc5f1c3","","null","","","","","","","learning/Slide138.JPG","null","","","","","",""
"html-keyboard-response","420","423765","0.0-7.0-2.57","LF","67zqwpqc3v","1440","900","0","1","0","5ea3066769713007dfc5f1c3","","null","","","learningBlock2","","","","<div style=""font-size:60px;""> </div>","null","LF","learning/Slide138.JPG","This is a bim:","","",""
"html-keyboard-response","421","424770","0.0-7.0-0.58","LF","67zqwpqc3v","1440","900","0","1","0","5ea3066769713007dfc5f1c3","","null","","","learningBlock2","","","","This is a wug:","null","","","","","",""
"image-keyboard-response","422","425107","0.0-7.0-1.58","LF","67zqwpqc3v","1440","900","0","1","0","5ea3066769713007dfc5f1c3","","null","","","","","","","learning/Slide139.JPG","null","","","","","",""
"html-keyboard-response","423","426111","0.0-7.0-2.58","LF","67zqwpqc3v","1440","900","0","1","0","5ea3066769713007dfc5f1c3","","null","","","learningBlock2","","","","<div style=""font-size:60px;""> </div>","null","LF","learning/Slide139.JPG","This is a wug:","","",""
"html-keyboard-response","424","427118","0.0-7.0-0.59","LF","67zqwpqc3v","1440","900","0","1","0","5ea3066769713007dfc5f1c3","","null","","","learningBlock2","","","","This is a dep:","null","","","","","",""
"image-keyboard-response","425","427450","0.0-7.0-1.59","LF","67zqwpqc3v","1440","900","0","1","0","5ea3066769713007dfc5f1c3","","null","","","","","","","learning/Slide140.JPG","null","","","","","",""
"html-keyboard-response","426","428457","0.0-7.0-2.59","LF","67zqwpqc3v","1440","900","0","1","0","5ea3066769713007dfc5f1c3","","null","","","learningBlock2","","","","<div style=""font-size:60px;""> </div>","null","LF","learning/Slide140.JPG","This is a dep:","","",""
"html-keyboard-response","427","429461","0.0-7.0-0.60","LF","67zqwpqc3v","1440","900","0","1","0","5ea3066769713007dfc5f1c3","","null","","","learningBlock2","","","","This is a tob:","null","","","","","",""
"image-keyboard-response","428","429792","0.0-7.0-1.60","LF","67zqwpqc3v","1440","900","0","1","0","5ea3066769713007dfc5f1c3","","null","","","","","","","learning/Slide141.JPG","null","","","","","",""
"html-keyboard-response","429","430799","0.0-7.0-2.60","LF","67zqwpqc3v","1440","900","0","1","0","5ea3066769713007dfc5f1c3","","null","","","learningBlock2","","","","<div style=""font-size:60px;""> </div>","null","LF","learning/Slide141.JPG","This is a tob:","","",""
"html-keyboard-response","430","431801","0.0-7.0-0.61","LF","67zqwpqc3v","1440","900","0","1","0","5ea3066769713007dfc5f1c3","","null","","","learningBlock2","","","","This is a wug:","null","","","","","",""
"image-keyboard-response","431","432136","0.0-7.0-1.61","LF","67zqwpqc3v","1440","900","0","1","0","5ea3066769713007dfc5f1c3","","null","","","","","","","learning/Slide142.JPG","null","","","","","",""
"html-keyboard-response","432","433142","0.0-7.0-2.61","LF","67zqwpqc3v","1440","900","0","1","0","5ea3066769713007dfc5f1c3","","null","","","learningBlock2","","","","<div style=""font-size:60px;""> </div>","null","LF","learning/Slide142.JPG","This is a wug:","","",""
"html-keyboard-response","433","434145","0.0-7.0-0.62","LF","67zqwpqc3v","1440","900","0","1","0","5ea3066769713007dfc5f1c3","","null","","","learningBlock2","","","","This is a bim:","null","","","","","",""
"image-keyboard-response","434","434479","0.0-7.0-1.62","LF","67zqwpqc3v","1440","900","0","1","0","5ea3066769713007dfc5f1c3","","null","","","","","","","learning/Slide143.JPG","null","","","","","",""
"html-keyboard-response","435","435480","0.0-7.0-2.62","LF","67zqwpqc3v","1440","900","0","1","0","5ea3066769713007dfc5f1c3","","null","","","learningBlock2","","","","<div style=""font-size:60px;""> </div>","null","LF","learning/Slide143.JPG","This is a bim:","","",""
"html-keyboard-response","436","436485","0.0-7.0-0.63","LF","67zqwpqc3v","1440","900","0","1","0","5ea3066769713007dfc5f1c3","","null","","","learningBlock2","","","","This is a dep:","null","","","","","",""
"image-keyboard-response","437","436819","0.0-7.0-1.63","LF","67zqwpqc3v","1440","900","0","1","0","5ea3066769713007dfc5f1c3","","null","","","","","","","learning/Slide144.JPG","null","","","","","",""
