"trial_type","trial_index","time_elapsed","internal_node_id","condition","subject","screen_width","screen_height","attention","distraction","conscientious","prolificID","success","rt","url","view_history","test_part","final_height_px","final_width_px","scale_factor","stimulus","key_press","learningType","presentedImage","presentedLabel","button_pressed","response","responses"
"pavlovia","0","5","0.0-0.0","FL","e72zvev590","1536","864","0","1","0","5e6617541d7e1a3885c45e85","","","","","","","","","","","","","","","",""
"fullscreen","1","2143","0.0-1.0","FL","e72zvev590","1536","864","0","1","0","5e6617541d7e1a3885c45e85","true","","","","","","","","","","","","","","",""
"external-html","2","6220","0.0-2.0-0.0","FL","e72zvev590","1536","864","0","1","0","5e6617541d7e1a3885c45e85","","4041.9700000202283","text/information_english.html","","","","","","","","","","","","",""
"external-html","3","11261","0.0-2.0-1.0","FL","e72zvev590","1536","864","0","1","0","5e6617541d7e1a3885c45e85","","4808.380000002217","text/consent_english.html","","","","","","","","","","","","",""
"instructions","4","23382","0.0-3.0","FL","e72zvev590","1536","864","0","1","0","5e6617541d7e1a3885c45e85","","NA","","[{""page_index"":0,""viewing_time"":1814.0100000309758},{""page_index"":1,""viewing_time"":10303.874999983236}]","instructions","","","","","","","","","","",""
"resize","5","72797","0.0-4.0","FL","e72zvev590","1536","864","0","1","0","5e6617541d7e1a3885c45e85","","","","","","","390","2.4761904761904763","","","","","","","",""
"image-keyboard-response","6","72975","0.0-5.0-0.0","FL","e72zvev590","1536","864","0","1","0","5e6617541d7e1a3885c45e85","","null","","","","","","","learning/Slide1.JPG","null","","","","","",""
"html-keyboard-response","7","74129","0.0-5.0-1.0","FL","e72zvev590","1536","864","0","1","0","5e6617541d7e1a3885c45e85","","null","","","learningBlock1","","","","That was a tob.","null","","","","","",""
"html-keyboard-response","8","75133","0.0-5.0-2.0","FL","e72zvev590","1536","864","0","1","0","5e6617541d7e1a3885c45e85","","null","","","learningBlock1","","","","<div style=""font-size:60px;""> </div>","null","FL","learning/Slide1.JPG","That was a tob.","","",""
"image-keyboard-response","9","75310","0.0-5.0-0.1","FL","e72zvev590","1536","864","0","1","0","5e6617541d7e1a3885c45e85","","null","","","","","","","learning/Slide2.JPG","null","","","","","",""
"html-keyboard-response","10","76462","0.0-5.0-1.1","FL","e72zvev590","1536","864","0","1","0","5e6617541d7e1a3885c45e85","","null","","","learningBlock1","","","","That was a wug.","null","","","","","",""
"html-keyboard-response","11","77466","0.0-5.0-2.1","FL","e72zvev590","1536","864","0","1","0","5e6617541d7e1a3885c45e85","","null","","","learningBlock1","","","","<div style=""font-size:60px;""> </div>","null","FL","learning/Slide2.JPG","That was a wug.","","",""
"image-keyboard-response","12","77644","0.0-5.0-0.2","FL","e72zvev590","1536","864","0","1","0","5e6617541d7e1a3885c45e85","","null","","","","","","","learning/Slide3.JPG","null","","","","","",""
"html-keyboard-response","13","78797","0.0-5.0-1.2","FL","e72zvev590","1536","864","0","1","0","5e6617541d7e1a3885c45e85","","null","","","learningBlock1","","","","That was a bim.","null","","","","","",""
"html-keyboard-response","14","79799","0.0-5.0-2.2","FL","e72zvev590","1536","864","0","1","0","5e6617541d7e1a3885c45e85","","null","","","learningBlock1","","","","<div style=""font-size:60px;""> </div>","null","FL","learning/Slide3.JPG","That was a bim.","","",""
"image-keyboard-response","15","79978","0.0-5.0-0.3","FL","e72zvev590","1536","864","0","1","0","5e6617541d7e1a3885c45e85","","null","","","","","","","learning/Slide4.JPG","null","","","","","",""
"html-keyboard-response","16","81131","0.0-5.0-1.3","FL","e72zvev590","1536","864","0","1","0","5e6617541d7e1a3885c45e85","","null","","","learningBlock1","","","","That was a dep.","null","","","","","",""
"html-keyboard-response","17","82134","0.0-5.0-2.3","FL","e72zvev590","1536","864","0","1","0","5e6617541d7e1a3885c45e85","","null","","","learningBlock1","","","","<div style=""font-size:60px;""> </div>","null","FL","learning/Slide4.JPG","That was a dep.","","",""
"image-keyboard-response","18","82312","0.0-5.0-0.4","FL","e72zvev590","1536","864","0","1","0","5e6617541d7e1a3885c45e85","","null","","","","","","","learning/Slide5.JPG","null","","","","","",""
"html-keyboard-response","19","83464","0.0-5.0-1.4","FL","e72zvev590","1536","864","0","1","0","5e6617541d7e1a3885c45e85","","null","","","learningBlock1","","","","That was a wug.","null","","","","","",""
"html-keyboard-response","20","84467","0.0-5.0-2.4","FL","e72zvev590","1536","864","0","1","0","5e6617541d7e1a3885c45e85","","null","","","learningBlock1","","","","<div style=""font-size:60px;""> </div>","null","FL","learning/Slide5.JPG","That was a wug.","","",""
"image-keyboard-response","21","84645","0.0-5.0-0.5","FL","e72zvev590","1536","864","0","1","0","5e6617541d7e1a3885c45e85","","null","","","","","","","learning/Slide6.JPG","null","","","","","",""
"html-keyboard-response","22","85798","0.0-5.0-1.5","FL","e72zvev590","1536","864","0","1","0","5e6617541d7e1a3885c45e85","","null","","","learningBlock1","","","","That was a dep.","null","","","","","",""
"html-keyboard-response","23","86800","0.0-5.0-2.5","FL","e72zvev590","1536","864","0","1","0","5e6617541d7e1a3885c45e85","","null","","","learningBlock1","","","","<div style=""font-size:60px;""> </div>","null","FL","learning/Slide6.JPG","That was a dep.","","",""
"image-keyboard-response","24","86978","0.0-5.0-0.6","FL","e72zvev590","1536","864","0","1","0","5e6617541d7e1a3885c45e85","","null","","","","","","","learning/Slide7.JPG","null","","","","","",""
"html-keyboard-response","25","88131","0.0-5.0-1.6","FL","e72zvev590","1536","864","0","1","0","5e6617541d7e1a3885c45e85","","null","","","learningBlock1","","","","That was a wug.","null","","","","","",""
"html-keyboard-response","26","89133","0.0-5.0-2.6","FL","e72zvev590","1536","864","0","1","0","5e6617541d7e1a3885c45e85","","null","","","learningBlock1","","","","<div style=""font-size:60px;""> </div>","null","FL","learning/Slide7.JPG","That was a wug.","","",""
"image-keyboard-response","27","89311","0.0-5.0-0.7","FL","e72zvev590","1536","864","0","1","0","5e6617541d7e1a3885c45e85","","null","","","","","","","learning/Slide8.JPG","null","","","","","",""
"html-keyboard-response","28","90464","0.0-5.0-1.7","FL","e72zvev590","1536","864","0","1","0","5e6617541d7e1a3885c45e85","","null","","","learningBlock1","","","","That was a bim.","null","","","","","",""
"html-keyboard-response","29","91467","0.0-5.0-2.7","FL","e72zvev590","1536","864","0","1","0","5e6617541d7e1a3885c45e85","","null","","","learningBlock1","","","","<div style=""font-size:60px;""> </div>","null","FL","learning/Slide8.JPG","That was a bim.","","",""
"image-keyboard-response","30","91645","0.0-5.0-0.8","FL","e72zvev590","1536","864","0","1","0","5e6617541d7e1a3885c45e85","","null","","","","","","","learning/Slide9.JPG","null","","","","","",""
"html-keyboard-response","31","92799","0.0-5.0-1.8","FL","e72zvev590","1536","864","0","1","0","5e6617541d7e1a3885c45e85","","null","","","learningBlock1","","","","That was a wug.","null","","","","","",""
"html-keyboard-response","32","93801","0.0-5.0-2.8","FL","e72zvev590","1536","864","0","1","0","5e6617541d7e1a3885c45e85","","null","","","learningBlock1","","","","<div style=""font-size:60px;""> </div>","null","FL","learning/Slide9.JPG","That was a wug.","","",""
"image-keyboard-response","33","93978","0.0-5.0-0.9","FL","e72zvev590","1536","864","0","1","0","5e6617541d7e1a3885c45e85","","null","","","","","","","learning/Slide10.JPG","null","","","","","",""
"html-keyboard-response","34","95130","0.0-5.0-1.9","FL","e72zvev590","1536","864","0","1","0","5e6617541d7e1a3885c45e85","","null","","","learningBlock1","","","","That was a dep.","null","","","","","",""
"html-keyboard-response","35","96132","0.0-5.0-2.9","FL","e72zvev590","1536","864","0","1","0","5e6617541d7e1a3885c45e85","","null","","","learningBlock1","","","","<div style=""font-size:60px;""> </div>","null","FL","learning/Slide10.JPG","That was a dep.","","",""
"image-keyboard-response","36","96309","0.0-5.0-0.10","FL","e72zvev590","1536","864","0","1","0","5e6617541d7e1a3885c45e85","","null","","","","","","","learning/Slide11.JPG","null","","","","","",""
"html-keyboard-response","37","97462","0.0-5.0-1.10","FL","e72zvev590","1536","864","0","1","0","5e6617541d7e1a3885c45e85","","null","","","learningBlock1","","","","That was a tob.","null","","","","","",""
"html-keyboard-response","38","98463","0.0-5.0-2.10","FL","e72zvev590","1536","864","0","1","0","5e6617541d7e1a3885c45e85","","null","","","learningBlock1","","","","<div style=""font-size:60px;""> </div>","null","FL","learning/Slide11.JPG","That was a tob.","","",""
"image-keyboard-response","39","98641","0.0-5.0-0.11","FL","e72zvev590","1536","864","0","1","0","5e6617541d7e1a3885c45e85","","null","","","","","","","learning/Slide12.JPG","null","","","","","",""
"html-keyboard-response","40","99793","0.0-5.0-1.11","FL","e72zvev590","1536","864","0","1","0","5e6617541d7e1a3885c45e85","","null","","","learningBlock1","","","","That was a dep.","null","","","","","",""
"html-keyboard-response","41","100797","0.0-5.0-2.11","FL","e72zvev590","1536","864","0","1","0","5e6617541d7e1a3885c45e85","","null","","","learningBlock1","","","","<div style=""font-size:60px;""> </div>","null","FL","learning/Slide12.JPG","That was a dep.","","",""
"image-keyboard-response","42","100975","0.0-5.0-0.12","FL","e72zvev590","1536","864","0","1","0","5e6617541d7e1a3885c45e85","","null","","","","","","","learning/Slide13.JPG","null","","","","","",""
"html-keyboard-response","43","102128","0.0-5.0-1.12","FL","e72zvev590","1536","864","0","1","0","5e6617541d7e1a3885c45e85","","null","","","learningBlock1","","","","That was a bim.","null","","","","","",""
"html-keyboard-response","44","103131","0.0-5.0-2.12","FL","e72zvev590","1536","864","0","1","0","5e6617541d7e1a3885c45e85","","null","","","learningBlock1","","","","<div style=""font-size:60px;""> </div>","null","FL","learning/Slide13.JPG","That was a bim.","","",""
"image-keyboard-response","45","103309","0.0-5.0-0.13","FL","e72zvev590","1536","864","0","1","0","5e6617541d7e1a3885c45e85","","null","","","","","","","learning/Slide14.JPG","null","","","","","",""
"html-keyboard-response","46","104461","0.0-5.0-1.13","FL","e72zvev590","1536","864","0","1","0","5e6617541d7e1a3885c45e85","","null","","","learningBlock1","","","","That was a wug.","null","","","","","",""
"html-keyboard-response","47","105465","0.0-5.0-2.13","FL","e72zvev590","1536","864","0","1","0","5e6617541d7e1a3885c45e85","","null","","","learningBlock1","","","","<div style=""font-size:60px;""> </div>","null","FL","learning/Slide14.JPG","That was a wug.","","",""
"image-keyboard-response","48","105644","0.0-5.0-0.14","FL","e72zvev590","1536","864","0","1","0","5e6617541d7e1a3885c45e85","","null","","","","","","","learning/Slide15.JPG","null","","","","","",""
"html-keyboard-response","49","106798","0.0-5.0-1.14","FL","e72zvev590","1536","864","0","1","0","5e6617541d7e1a3885c45e85","","null","","","learningBlock1","","","","That was a tob.","null","","","","","",""
"html-keyboard-response","50","107801","0.0-5.0-2.14","FL","e72zvev590","1536","864","0","1","0","5e6617541d7e1a3885c45e85","","null","","","learningBlock1","","","","<div style=""font-size:60px;""> </div>","null","FL","learning/Slide15.JPG","That was a tob.","","",""
"image-keyboard-response","51","107979","0.0-5.0-0.15","FL","e72zvev590","1536","864","0","1","0","5e6617541d7e1a3885c45e85","","null","","","","","","","learning/Slide16.JPG","null","","","","","",""
"html-keyboard-response","52","109133","0.0-5.0-1.15","FL","e72zvev590","1536","864","0","1","0","5e6617541d7e1a3885c45e85","","null","","","learningBlock1","","","","That was a dep.","null","","","","","",""
"html-keyboard-response","53","110136","0.0-5.0-2.15","FL","e72zvev590","1536","864","0","1","0","5e6617541d7e1a3885c45e85","","null","","","learningBlock1","","","","<div style=""font-size:60px;""> </div>","null","FL","learning/Slide16.JPG","That was a dep.","","",""
"image-keyboard-response","54","110315","0.0-5.0-0.16","FL","e72zvev590","1536","864","0","1","0","5e6617541d7e1a3885c45e85","","null","","","","","","","learning/Slide17.JPG","null","","","","","",""
"html-keyboard-response","55","111469","0.0-5.0-1.16","FL","e72zvev590","1536","864","0","1","0","5e6617541d7e1a3885c45e85","","null","","","learningBlock1","","","","That was a bim.","null","","","","","",""
"html-keyboard-response","56","112471","0.0-5.0-2.16","FL","e72zvev590","1536","864","0","1","0","5e6617541d7e1a3885c45e85","","null","","","learningBlock1","","","","<div style=""font-size:60px;""> </div>","null","FL","learning/Slide17.JPG","That was a bim.","","",""
"image-keyboard-response","57","112648","0.0-5.0-0.17","FL","e72zvev590","1536","864","0","1","0","5e6617541d7e1a3885c45e85","","null","","","","","","","learning/Slide18.JPG","null","","","","","",""
"html-keyboard-response","58","113801","0.0-5.0-1.17","FL","e72zvev590","1536","864","0","1","0","5e6617541d7e1a3885c45e85","","null","","","learningBlock1","","","","That was a tob.","null","","","","","",""
"html-keyboard-response","59","114803","0.0-5.0-2.17","FL","e72zvev590","1536","864","0","1","0","5e6617541d7e1a3885c45e85","","null","","","learningBlock1","","","","<div style=""font-size:60px;""> </div>","null","FL","learning/Slide18.JPG","That was a tob.","","",""
"image-keyboard-response","60","114981","0.0-5.0-0.18","FL","e72zvev590","1536","864","0","1","0","5e6617541d7e1a3885c45e85","","null","","","","","","","learning/Slide19.JPG","null","","","","","",""
"html-keyboard-response","61","116132","0.0-5.0-1.18","FL","e72zvev590","1536","864","0","1","0","5e6617541d7e1a3885c45e85","","null","","","learningBlock1","","","","That was a wug.","null","","","","","",""
"html-keyboard-response","62","117134","0.0-5.0-2.18","FL","e72zvev590","1536","864","0","1","0","5e6617541d7e1a3885c45e85","","null","","","learningBlock1","","","","<div style=""font-size:60px;""> </div>","null","FL","learning/Slide19.JPG","That was a wug.","","",""
"image-keyboard-response","63","117311","0.0-5.0-0.19","FL","e72zvev590","1536","864","0","1","0","5e6617541d7e1a3885c45e85","","null","","","","","","","learning/Slide20.JPG","null","","","","","",""
"html-keyboard-response","64","118464","0.0-5.0-1.19","FL","e72zvev590","1536","864","0","1","0","5e6617541d7e1a3885c45e85","","null","","","learningBlock1","","","","That was a bim.","null","","","","","",""
"html-keyboard-response","65","119467","0.0-5.0-2.19","FL","e72zvev590","1536","864","0","1","0","5e6617541d7e1a3885c45e85","","null","","","learningBlock1","","","","<div style=""font-size:60px;""> </div>","null","FL","learning/Slide20.JPG","That was a bim.","","",""
"image-keyboard-response","66","119646","0.0-5.0-0.20","FL","e72zvev590","1536","864","0","1","0","5e6617541d7e1a3885c45e85","","null","","","","","","","learning/Slide21.JPG","null","","","","","",""
"html-keyboard-response","67","120798","0.0-5.0-1.20","FL","e72zvev590","1536","864","0","1","0","5e6617541d7e1a3885c45e85","","null","","","learningBlock1","","","","That was a dep.","null","","","","","",""
"html-keyboard-response","68","121799","0.0-5.0-2.20","FL","e72zvev590","1536","864","0","1","0","5e6617541d7e1a3885c45e85","","null","","","learningBlock1","","","","<div style=""font-size:60px;""> </div>","null","FL","learning/Slide21.JPG","That was a dep.","","",""
"image-keyboard-response","69","121978","0.0-5.0-0.21","FL","e72zvev590","1536","864","0","1","0","5e6617541d7e1a3885c45e85","","null","","","","","","","learning/Slide22.JPG","null","","","","","",""
"html-keyboard-response","70","123130","0.0-5.0-1.21","FL","e72zvev590","1536","864","0","1","0","5e6617541d7e1a3885c45e85","","null","","","learningBlock1","","","","That was a bim.","null","","","","","",""
"html-keyboard-response","71","124133","0.0-5.0-2.21","FL","e72zvev590","1536","864","0","1","0","5e6617541d7e1a3885c45e85","","null","","","learningBlock1","","","","<div style=""font-size:60px;""> </div>","null","FL","learning/Slide22.JPG","That was a bim.","","",""
"image-keyboard-response","72","124310","0.0-5.0-0.22","FL","e72zvev590","1536","864","0","1","0","5e6617541d7e1a3885c45e85","","null","","","","","","","learning/Slide23.JPG","null","","","","","",""
"html-keyboard-response","73","125463","0.0-5.0-1.22","FL","e72zvev590","1536","864","0","1","0","5e6617541d7e1a3885c45e85","","null","","","learningBlock1","","","","That was a tob.","null","","","","","",""
"html-keyboard-response","74","126465","0.0-5.0-2.22","FL","e72zvev590","1536","864","0","1","0","5e6617541d7e1a3885c45e85","","null","","","learningBlock1","","","","<div style=""font-size:60px;""> </div>","null","FL","learning/Slide23.JPG","That was a tob.","","",""
"image-keyboard-response","75","126642","0.0-5.0-0.23","FL","e72zvev590","1536","864","0","1","0","5e6617541d7e1a3885c45e85","","null","","","","","","","learning/Slide24.JPG","null","","","","","",""
"html-keyboard-response","76","127795","0.0-5.0-1.23","FL","e72zvev590","1536","864","0","1","0","5e6617541d7e1a3885c45e85","","null","","","learningBlock1","","","","That was a wug.","null","","","","","",""
"html-keyboard-response","77","128797","0.0-5.0-2.23","FL","e72zvev590","1536","864","0","1","0","5e6617541d7e1a3885c45e85","","null","","","learningBlock1","","","","<div style=""font-size:60px;""> </div>","null","FL","learning/Slide24.JPG","That was a wug.","","",""
"image-keyboard-response","78","128973","0.0-5.0-0.24","FL","e72zvev590","1536","864","0","1","0","5e6617541d7e1a3885c45e85","","null","","","","","","","learning/Slide25.JPG","null","","","","","",""
"html-keyboard-response","79","130126","0.0-5.0-1.24","FL","e72zvev590","1536","864","0","1","0","5e6617541d7e1a3885c45e85","","null","","","learningBlock1","","","","That was a dep.","null","","","","","",""
"html-keyboard-response","80","131128","0.0-5.0-2.24","FL","e72zvev590","1536","864","0","1","0","5e6617541d7e1a3885c45e85","","null","","","learningBlock1","","","","<div style=""font-size:60px;""> </div>","null","FL","learning/Slide25.JPG","That was a dep.","","",""
"image-keyboard-response","81","131305","0.0-5.0-0.25","FL","e72zvev590","1536","864","0","1","0","5e6617541d7e1a3885c45e85","","null","","","","","","","learning/Slide26.JPG","null","","","","","",""
"html-keyboard-response","82","132458","0.0-5.0-1.25","FL","e72zvev590","1536","864","0","1","0","5e6617541d7e1a3885c45e85","","null","","","learningBlock1","","","","That was a wug.","null","","","","","",""
"html-keyboard-response","83","133461","0.0-5.0-2.25","FL","e72zvev590","1536","864","0","1","0","5e6617541d7e1a3885c45e85","","null","","","learningBlock1","","","","<div style=""font-size:60px;""> </div>","null","FL","learning/Slide26.JPG","That was a wug.","","",""
"image-keyboard-response","84","133638","0.0-5.0-0.26","FL","e72zvev590","1536","864","0","1","0","5e6617541d7e1a3885c45e85","","null","","","","","","","learning/Slide27.JPG","null","","","","","",""
"html-keyboard-response","85","134791","0.0-5.0-1.26","FL","e72zvev590","1536","864","0","1","0","5e6617541d7e1a3885c45e85","","null","","","learningBlock1","","","","That was a bim.","null","","","","","",""
"html-keyboard-response","86","135793","0.0-5.0-2.26","FL","e72zvev590","1536","864","0","1","0","5e6617541d7e1a3885c45e85","","null","","","learningBlock1","","","","<div style=""font-size:60px;""> </div>","null","FL","learning/Slide27.JPG","That was a bim.","","",""
"image-keyboard-response","87","135971","0.0-5.0-0.27","FL","e72zvev590","1536","864","0","1","0","5e6617541d7e1a3885c45e85","","null","","","","","","","learning/Slide28.JPG","null","","","","","",""
"html-keyboard-response","88","137123","0.0-5.0-1.27","FL","e72zvev590","1536","864","0","1","0","5e6617541d7e1a3885c45e85","","null","","","learningBlock1","","","","That was a dep.","null","","","","","",""
"html-keyboard-response","89","138126","0.0-5.0-2.27","FL","e72zvev590","1536","864","0","1","0","5e6617541d7e1a3885c45e85","","null","","","learningBlock1","","","","<div style=""font-size:60px;""> </div>","null","FL","learning/Slide28.JPG","That was a dep.","","",""
"image-keyboard-response","90","138304","0.0-5.0-0.28","FL","e72zvev590","1536","864","0","1","0","5e6617541d7e1a3885c45e85","","null","","","","","","","learning/Slide29.JPG","null","","","","","",""
"html-keyboard-response","91","139457","0.0-5.0-1.28","FL","e72zvev590","1536","864","0","1","0","5e6617541d7e1a3885c45e85","","null","","","learningBlock1","","","","That was a tob.","null","","","","","",""
"html-keyboard-response","92","140459","0.0-5.0-2.28","FL","e72zvev590","1536","864","0","1","0","5e6617541d7e1a3885c45e85","","null","","","learningBlock1","","","","<div style=""font-size:60px;""> </div>","null","FL","learning/Slide29.JPG","That was a tob.","","",""
"image-keyboard-response","93","140638","0.0-5.0-0.29","FL","e72zvev590","1536","864","0","1","0","5e6617541d7e1a3885c45e85","","null","","","","","","","learning/Slide30.JPG","null","","","","","",""
"html-keyboard-response","94","141791","0.0-5.0-1.29","FL","e72zvev590","1536","864","0","1","0","5e6617541d7e1a3885c45e85","","null","","","learningBlock1","","","","That was a dep.","null","","","","","",""
"html-keyboard-response","95","142795","0.0-5.0-2.29","FL","e72zvev590","1536","864","0","1","0","5e6617541d7e1a3885c45e85","","null","","","learningBlock1","","","","<div style=""font-size:60px;""> </div>","null","FL","learning/Slide30.JPG","That was a dep.","","",""
"image-keyboard-response","96","142972","0.0-5.0-0.30","FL","e72zvev590","1536","864","0","1","0","5e6617541d7e1a3885c45e85","","null","","","","","","","learning/Slide31.JPG","null","","","","","",""
"html-keyboard-response","97","144125","0.0-5.0-1.30","FL","e72zvev590","1536","864","0","1","0","5e6617541d7e1a3885c45e85","","null","","","learningBlock1","","","","That was a wug.","null","","","","","",""
"html-keyboard-response","98","145126","0.0-5.0-2.30","FL","e72zvev590","1536","864","0","1","0","5e6617541d7e1a3885c45e85","","null","","","learningBlock1","","","","<div style=""font-size:60px;""> </div>","null","FL","learning/Slide31.JPG","That was a wug.","","",""
"image-keyboard-response","99","145303","0.0-5.0-0.31","FL","e72zvev590","1536","864","0","1","0","5e6617541d7e1a3885c45e85","","null","","","","","","","learning/Slide32.JPG","null","","","","","",""
"html-keyboard-response","100","146456","0.0-5.0-1.31","FL","e72zvev590","1536","864","0","1","0","5e6617541d7e1a3885c45e85","","null","","","learningBlock1","","","","That was a tob.","null","","","","","",""
"html-keyboard-response","101","147457","0.0-5.0-2.31","FL","e72zvev590","1536","864","0","1","0","5e6617541d7e1a3885c45e85","","null","","","learningBlock1","","","","<div style=""font-size:60px;""> </div>","null","FL","learning/Slide32.JPG","That was a tob.","","",""
"image-keyboard-response","102","147634","0.0-5.0-0.32","FL","e72zvev590","1536","864","0","1","0","5e6617541d7e1a3885c45e85","","null","","","","","","","learning/Slide33.JPG","null","","","","","",""
"html-keyboard-response","103","148786","0.0-5.0-1.32","FL","e72zvev590","1536","864","0","1","0","5e6617541d7e1a3885c45e85","","null","","","learningBlock1","","","","That was a bim.","null","","","","","",""
"html-keyboard-response","104","149788","0.0-5.0-2.32","FL","e72zvev590","1536","864","0","1","0","5e6617541d7e1a3885c45e85","","null","","","learningBlock1","","","","<div style=""font-size:60px;""> </div>","null","FL","learning/Slide33.JPG","That was a bim.","","",""
"image-keyboard-response","105","149966","0.0-5.0-0.33","FL","e72zvev590","1536","864","0","1","0","5e6617541d7e1a3885c45e85","","null","","","","","","","learning/Slide34.JPG","null","","","","","",""
"html-keyboard-response","106","151119","0.0-5.0-1.33","FL","e72zvev590","1536","864","0","1","0","5e6617541d7e1a3885c45e85","","null","","","learningBlock1","","","","That was a tob.","null","","","","","",""
"html-keyboard-response","107","152122","0.0-5.0-2.33","FL","e72zvev590","1536","864","0","1","0","5e6617541d7e1a3885c45e85","","null","","","learningBlock1","","","","<div style=""font-size:60px;""> </div>","null","FL","learning/Slide34.JPG","That was a tob.","","",""
"image-keyboard-response","108","152298","0.0-5.0-0.34","FL","e72zvev590","1536","864","0","1","0","5e6617541d7e1a3885c45e85","","null","","","","","","","learning/Slide35.JPG","null","","","","","",""
"html-keyboard-response","109","153450","0.0-5.0-1.34","FL","e72zvev590","1536","864","0","1","0","5e6617541d7e1a3885c45e85","","null","","","learningBlock1","","","","That was a bim.","null","","","","","",""
"html-keyboard-response","110","154452","0.0-5.0-2.34","FL","e72zvev590","1536","864","0","1","0","5e6617541d7e1a3885c45e85","","null","","","learningBlock1","","","","<div style=""font-size:60px;""> </div>","null","FL","learning/Slide35.JPG","That was a bim.","","",""
"image-keyboard-response","111","154629","0.0-5.0-0.35","FL","e72zvev590","1536","864","0","1","0","5e6617541d7e1a3885c45e85","","null","","","","","","","learning/Slide36.JPG","null","","","","","",""
"html-keyboard-response","112","155780","0.0-5.0-1.35","FL","e72zvev590","1536","864","0","1","0","5e6617541d7e1a3885c45e85","","null","","","learningBlock1","","","","That was a dep.","null","","","","","",""
"html-keyboard-response","113","156781","0.0-5.0-2.35","FL","e72zvev590","1536","864","0","1","0","5e6617541d7e1a3885c45e85","","null","","","learningBlock1","","","","<div style=""font-size:60px;""> </div>","null","FL","learning/Slide36.JPG","That was a dep.","","",""
"image-keyboard-response","114","156959","0.0-5.0-0.36","FL","e72zvev590","1536","864","0","1","0","5e6617541d7e1a3885c45e85","","null","","","","","","","learning/Slide37.JPG","null","","","","","",""
"html-keyboard-response","115","158112","0.0-5.0-1.36","FL","e72zvev590","1536","864","0","1","0","5e6617541d7e1a3885c45e85","","null","","","learningBlock1","","","","That was a tob.","null","","","","","",""
"html-keyboard-response","116","159115","0.0-5.0-2.36","FL","e72zvev590","1536","864","0","1","0","5e6617541d7e1a3885c45e85","","null","","","learningBlock1","","","","<div style=""font-size:60px;""> </div>","null","FL","learning/Slide37.JPG","That was a tob.","","",""
"image-keyboard-response","117","159293","0.0-5.0-0.37","FL","e72zvev590","1536","864","0","1","0","5e6617541d7e1a3885c45e85","","null","","","","","","","learning/Slide38.JPG","null","","","","","",""
"html-keyboard-response","118","160445","0.0-5.0-1.37","FL","e72zvev590","1536","864","0","1","0","5e6617541d7e1a3885c45e85","","null","","","learningBlock1","","","","That was a wug.","null","","","","","",""
"html-keyboard-response","119","161446","0.0-5.0-2.37","FL","e72zvev590","1536","864","0","1","0","5e6617541d7e1a3885c45e85","","null","","","learningBlock1","","","","<div style=""font-size:60px;""> </div>","null","FL","learning/Slide38.JPG","That was a wug.","","",""
"image-keyboard-response","120","161624","0.0-5.0-0.38","FL","e72zvev590","1536","864","0","1","0","5e6617541d7e1a3885c45e85","","null","","","","","","","learning/Slide39.JPG","null","","","","","",""
"html-keyboard-response","121","162777","0.0-5.0-1.38","FL","e72zvev590","1536","864","0","1","0","5e6617541d7e1a3885c45e85","","null","","","learningBlock1","","","","That was a bim.","null","","","","","",""
"html-keyboard-response","122","163779","0.0-5.0-2.38","FL","e72zvev590","1536","864","0","1","0","5e6617541d7e1a3885c45e85","","null","","","learningBlock1","","","","<div style=""font-size:60px;""> </div>","null","FL","learning/Slide39.JPG","That was a bim.","","",""
"image-keyboard-response","123","163957","0.0-5.0-0.39","FL","e72zvev590","1536","864","0","1","0","5e6617541d7e1a3885c45e85","","null","","","","","","","learning/Slide40.JPG","null","","","","","",""
"html-keyboard-response","124","165111","0.0-5.0-1.39","FL","e72zvev590","1536","864","0","1","0","5e6617541d7e1a3885c45e85","","null","","","learningBlock1","","","","That was a tob.","null","","","","","",""
"html-keyboard-response","125","166116","0.0-5.0-2.39","FL","e72zvev590","1536","864","0","1","0","5e6617541d7e1a3885c45e85","","null","","","learningBlock1","","","","<div style=""font-size:60px;""> </div>","null","FL","learning/Slide40.JPG","That was a tob.","","",""
"image-keyboard-response","126","166293","0.0-5.0-0.40","FL","e72zvev590","1536","864","0","1","0","5e6617541d7e1a3885c45e85","","null","","","","","","","learning/Slide41.JPG","null","","","","","",""
"html-keyboard-response","127","167445","0.0-5.0-1.40","FL","e72zvev590","1536","864","0","1","0","5e6617541d7e1a3885c45e85","","null","","","learningBlock1","","","","That was a bim.","null","","","","","",""
"html-keyboard-response","128","168447","0.0-5.0-2.40","FL","e72zvev590","1536","864","0","1","0","5e6617541d7e1a3885c45e85","","null","","","learningBlock1","","","","<div style=""font-size:60px;""> </div>","null","FL","learning/Slide41.JPG","That was a bim.","","",""
"image-keyboard-response","129","168626","0.0-5.0-0.41","FL","e72zvev590","1536","864","0","1","0","5e6617541d7e1a3885c45e85","","null","","","","","","","learning/Slide42.JPG","null","","","","","",""
"html-keyboard-response","130","169779","0.0-5.0-1.41","FL","e72zvev590","1536","864","0","1","0","5e6617541d7e1a3885c45e85","","null","","","learningBlock1","","","","That was a dep.","null","","","","","",""
"html-keyboard-response","131","170781","0.0-5.0-2.41","FL","e72zvev590","1536","864","0","1","0","5e6617541d7e1a3885c45e85","","null","","","learningBlock1","","","","<div style=""font-size:60px;""> </div>","null","FL","learning/Slide42.JPG","That was a dep.","","",""
"image-keyboard-response","132","170959","0.0-5.0-0.42","FL","e72zvev590","1536","864","0","1","0","5e6617541d7e1a3885c45e85","","null","","","","","","","learning/Slide43.JPG","null","","","","","",""
"html-keyboard-response","133","172112","0.0-5.0-1.42","FL","e72zvev590","1536","864","0","1","0","5e6617541d7e1a3885c45e85","","null","","","learningBlock1","","","","That was a wug.","null","","","","","",""
"html-keyboard-response","134","173113","0.0-5.0-2.42","FL","e72zvev590","1536","864","0","1","0","5e6617541d7e1a3885c45e85","","null","","","learningBlock1","","","","<div style=""font-size:60px;""> </div>","null","FL","learning/Slide43.JPG","That was a wug.","","",""
"image-keyboard-response","135","173291","0.0-5.0-0.43","FL","e72zvev590","1536","864","0","1","0","5e6617541d7e1a3885c45e85","","null","","","","","","","learning/Slide44.JPG","null","","","","","",""
"html-keyboard-response","136","174443","0.0-5.0-1.43","FL","e72zvev590","1536","864","0","1","0","5e6617541d7e1a3885c45e85","","null","","","learningBlock1","","","","That was a bim.","null","","","","","",""
"html-keyboard-response","137","175445","0.0-5.0-2.43","FL","e72zvev590","1536","864","0","1","0","5e6617541d7e1a3885c45e85","","null","","","learningBlock1","","","","<div style=""font-size:60px;""> </div>","null","FL","learning/Slide44.JPG","That was a bim.","","",""
"image-keyboard-response","138","175623","0.0-5.0-0.44","FL","e72zvev590","1536","864","0","1","0","5e6617541d7e1a3885c45e85","","null","","","","","","","learning/Slide45.JPG","null","","","","","",""
"html-keyboard-response","139","176775","0.0-5.0-1.44","FL","e72zvev590","1536","864","0","1","0","5e6617541d7e1a3885c45e85","","null","","","learningBlock1","","","","That was a wug.","null","","","","","",""
"html-keyboard-response","140","177778","0.0-5.0-2.44","FL","e72zvev590","1536","864","0","1","0","5e6617541d7e1a3885c45e85","","null","","","learningBlock1","","","","<div style=""font-size:60px;""> </div>","null","FL","learning/Slide45.JPG","That was a wug.","","",""
"image-keyboard-response","141","177956","0.0-5.0-0.45","FL","e72zvev590","1536","864","0","1","0","5e6617541d7e1a3885c45e85","","null","","","","","","","learning/Slide46.JPG","null","","","","","",""
"html-keyboard-response","142","179108","0.0-5.0-1.45","FL","e72zvev590","1536","864","0","1","0","5e6617541d7e1a3885c45e85","","null","","","learningBlock1","","","","That was a dep.","null","","","","","",""
"html-keyboard-response","143","180111","0.0-5.0-2.45","FL","e72zvev590","1536","864","0","1","0","5e6617541d7e1a3885c45e85","","null","","","learningBlock1","","","","<div style=""font-size:60px;""> </div>","null","FL","learning/Slide46.JPG","That was a dep.","","",""
"image-keyboard-response","144","180288","0.0-5.0-0.46","FL","e72zvev590","1536","864","0","1","0","5e6617541d7e1a3885c45e85","","null","","","","","","","learning/Slide47.JPG","null","","","","","",""
"html-keyboard-response","145","181441","0.0-5.0-1.46","FL","e72zvev590","1536","864","0","1","0","5e6617541d7e1a3885c45e85","","null","","","learningBlock1","","","","That was a tob.","null","","","","","",""
"html-keyboard-response","146","182445","0.0-5.0-2.46","FL","e72zvev590","1536","864","0","1","0","5e6617541d7e1a3885c45e85","","null","","","learningBlock1","","","","<div style=""font-size:60px;""> </div>","null","FL","learning/Slide47.JPG","That was a tob.","","",""
"image-keyboard-response","147","182622","0.0-5.0-0.47","FL","e72zvev590","1536","864","0","1","0","5e6617541d7e1a3885c45e85","","null","","","","","","","learning/Slide48.JPG","null","","","","","",""
"html-keyboard-response","148","183775","0.0-5.0-1.47","FL","e72zvev590","1536","864","0","1","0","5e6617541d7e1a3885c45e85","","null","","","learningBlock1","","","","That was a bim.","null","","","","","",""
"html-keyboard-response","149","184778","0.0-5.0-2.47","FL","e72zvev590","1536","864","0","1","0","5e6617541d7e1a3885c45e85","","null","","","learningBlock1","","","","<div style=""font-size:60px;""> </div>","null","FL","learning/Slide48.JPG","That was a bim.","","",""
"image-keyboard-response","150","184956","0.0-5.0-0.48","FL","e72zvev590","1536","864","0","1","0","5e6617541d7e1a3885c45e85","","null","","","","","","","learning/Slide49.JPG","null","","","","","",""
"html-keyboard-response","151","186108","0.0-5.0-1.48","FL","e72zvev590","1536","864","0","1","0","5e6617541d7e1a3885c45e85","","null","","","learningBlock1","","","","That was a dep.","null","","","","","",""
"html-keyboard-response","152","187111","0.0-5.0-2.48","FL","e72zvev590","1536","864","0","1","0","5e6617541d7e1a3885c45e85","","null","","","learningBlock1","","","","<div style=""font-size:60px;""> </div>","null","FL","learning/Slide49.JPG","That was a dep.","","",""
"image-keyboard-response","153","187288","0.0-5.0-0.49","FL","e72zvev590","1536","864","0","1","0","5e6617541d7e1a3885c45e85","","null","","","","","","","learning/Slide50.JPG","null","","","","","",""
"html-keyboard-response","154","188440","0.0-5.0-1.49","FL","e72zvev590","1536","864","0","1","0","5e6617541d7e1a3885c45e85","","null","","","learningBlock1","","","","That was a tob.","null","","","","","",""
"html-keyboard-response","155","189442","0.0-5.0-2.49","FL","e72zvev590","1536","864","0","1","0","5e6617541d7e1a3885c45e85","","null","","","learningBlock1","","","","<div style=""font-size:60px;""> </div>","null","FL","learning/Slide50.JPG","That was a tob.","","",""
"image-keyboard-response","156","189620","0.0-5.0-0.50","FL","e72zvev590","1536","864","0","1","0","5e6617541d7e1a3885c45e85","","null","","","","","","","learning/Slide51.JPG","null","","","","","",""
"html-keyboard-response","157","190773","0.0-5.0-1.50","FL","e72zvev590","1536","864","0","1","0","5e6617541d7e1a3885c45e85","","null","","","learningBlock1","","","","That was a bim.","null","","","","","",""
"html-keyboard-response","158","191776","0.0-5.0-2.50","FL","e72zvev590","1536","864","0","1","0","5e6617541d7e1a3885c45e85","","null","","","learningBlock1","","","","<div style=""font-size:60px;""> </div>","null","FL","learning/Slide51.JPG","That was a bim.","","",""
"image-keyboard-response","159","191954","0.0-5.0-0.51","FL","e72zvev590","1536","864","0","1","0","5e6617541d7e1a3885c45e85","","null","","","","","","","learning/Slide52.JPG","null","","","","","",""
"html-keyboard-response","160","193108","0.0-5.0-1.51","FL","e72zvev590","1536","864","0","1","0","5e6617541d7e1a3885c45e85","","null","","","learningBlock1","","","","That was a wug.","null","","","","","",""
"html-keyboard-response","161","194111","0.0-5.0-2.51","FL","e72zvev590","1536","864","0","1","0","5e6617541d7e1a3885c45e85","","null","","","learningBlock1","","","","<div style=""font-size:60px;""> </div>","null","FL","learning/Slide52.JPG","That was a wug.","","",""
"image-keyboard-response","162","194289","0.0-5.0-0.52","FL","e72zvev590","1536","864","0","1","0","5e6617541d7e1a3885c45e85","","null","","","","","","","learning/Slide53.JPG","null","","","","","",""
"html-keyboard-response","163","195444","0.0-5.0-1.52","FL","e72zvev590","1536","864","0","1","0","5e6617541d7e1a3885c45e85","","null","","","learningBlock1","","","","That was a tob.","null","","","","","",""
"html-keyboard-response","164","196447","0.0-5.0-2.52","FL","e72zvev590","1536","864","0","1","0","5e6617541d7e1a3885c45e85","","null","","","learningBlock1","","","","<div style=""font-size:60px;""> </div>","null","FL","learning/Slide53.JPG","That was a tob.","","",""
"image-keyboard-response","165","196625","0.0-5.0-0.53","FL","e72zvev590","1536","864","0","1","0","5e6617541d7e1a3885c45e85","","null","","","","","","","learning/Slide54.JPG","null","","","","","",""
"html-keyboard-response","166","197778","0.0-5.0-1.53","FL","e72zvev590","1536","864","0","1","0","5e6617541d7e1a3885c45e85","","null","","","learningBlock1","","","","That was a dep.","null","","","","","",""
"html-keyboard-response","167","198781","0.0-5.0-2.53","FL","e72zvev590","1536","864","0","1","0","5e6617541d7e1a3885c45e85","","null","","","learningBlock1","","","","<div style=""font-size:60px;""> </div>","null","FL","learning/Slide54.JPG","That was a dep.","","",""
"image-keyboard-response","168","198959","0.0-5.0-0.54","FL","e72zvev590","1536","864","0","1","0","5e6617541d7e1a3885c45e85","","null","","","","","","","learning/Slide55.JPG","null","","","","","",""
"html-keyboard-response","169","200112","0.0-5.0-1.54","FL","e72zvev590","1536","864","0","1","0","5e6617541d7e1a3885c45e85","","null","","","learningBlock1","","","","That was a bim.","null","","","","","",""
"html-keyboard-response","170","201114","0.0-5.0-2.54","FL","e72zvev590","1536","864","0","1","0","5e6617541d7e1a3885c45e85","","null","","","learningBlock1","","","","<div style=""font-size:60px;""> </div>","null","FL","learning/Slide55.JPG","That was a bim.","","",""
"image-keyboard-response","171","201291","0.0-5.0-0.55","FL","e72zvev590","1536","864","0","1","0","5e6617541d7e1a3885c45e85","","null","","","","","","","learning/Slide56.JPG","null","","","","","",""
"html-keyboard-response","172","202444","0.0-5.0-1.55","FL","e72zvev590","1536","864","0","1","0","5e6617541d7e1a3885c45e85","","null","","","learningBlock1","","","","That was a tob.","null","","","","","",""
"html-keyboard-response","173","203446","0.0-5.0-2.55","FL","e72zvev590","1536","864","0","1","0","5e6617541d7e1a3885c45e85","","null","","","learningBlock1","","","","<div style=""font-size:60px;""> </div>","null","FL","learning/Slide56.JPG","That was a tob.","","",""
"image-keyboard-response","174","203623","0.0-5.0-0.56","FL","e72zvev590","1536","864","0","1","0","5e6617541d7e1a3885c45e85","","null","","","","","","","learning/Slide57.JPG","null","","","","","",""
"html-keyboard-response","175","204776","0.0-5.0-1.56","FL","e72zvev590","1536","864","0","1","0","5e6617541d7e1a3885c45e85","","null","","","learningBlock1","","","","That was a dep.","null","","","","","",""
"html-keyboard-response","176","205777","0.0-5.0-2.56","FL","e72zvev590","1536","864","0","1","0","5e6617541d7e1a3885c45e85","","null","","","learningBlock1","","","","<div style=""font-size:60px;""> </div>","null","FL","learning/Slide57.JPG","That was a dep.","","",""
"image-keyboard-response","177","205953","0.0-5.0-0.57","FL","e72zvev590","1536","864","0","1","0","5e6617541d7e1a3885c45e85","","null","","","","","","","learning/Slide58.JPG","null","","","","","",""
"html-keyboard-response","178","207105","0.0-5.0-1.57","FL","e72zvev590","1536","864","0","1","0","5e6617541d7e1a3885c45e85","","null","","","learningBlock1","","","","That was a wug.","null","","","","","",""
"html-keyboard-response","179","208108","0.0-5.0-2.57","FL","e72zvev590","1536","864","0","1","0","5e6617541d7e1a3885c45e85","","null","","","learningBlock1","","","","<div style=""font-size:60px;""> </div>","null","FL","learning/Slide58.JPG","That was a wug.","","",""
"image-keyboard-response","180","208286","0.0-5.0-0.58","FL","e72zvev590","1536","864","0","1","0","5e6617541d7e1a3885c45e85","","null","","","","","","","learning/Slide59.JPG","null","","","","","",""
"html-keyboard-response","181","209438","0.0-5.0-1.58","FL","e72zvev590","1536","864","0","1","0","5e6617541d7e1a3885c45e85","","null","","","learningBlock1","","","","That was a dep.","null","","","","","",""
"html-keyboard-response","182","210440","0.0-5.0-2.58","FL","e72zvev590","1536","864","0","1","0","5e6617541d7e1a3885c45e85","","null","","","learningBlock1","","","","<div style=""font-size:60px;""> </div>","null","FL","learning/Slide59.JPG","That was a dep.","","",""
"image-keyboard-response","183","210619","0.0-5.0-0.59","FL","e72zvev590","1536","864","0","1","0","5e6617541d7e1a3885c45e85","","null","","","","","","","learning/Slide60.JPG","null","","","","","",""
"html-keyboard-response","184","211772","0.0-5.0-1.59","FL","e72zvev590","1536","864","0","1","0","5e6617541d7e1a3885c45e85","","null","","","learningBlock1","","","","That was a wug.","null","","","","","",""
"html-keyboard-response","185","212774","0.0-5.0-2.59","FL","e72zvev590","1536","864","0","1","0","5e6617541d7e1a3885c45e85","","null","","","learningBlock1","","","","<div style=""font-size:60px;""> </div>","null","FL","learning/Slide60.JPG","That was a wug.","","",""
"image-keyboard-response","186","212952","0.0-5.0-0.60","FL","e72zvev590","1536","864","0","1","0","5e6617541d7e1a3885c45e85","","null","","","","","","","learning/Slide61.JPG","null","","","","","",""
"html-keyboard-response","187","214106","0.0-5.0-1.60","FL","e72zvev590","1536","864","0","1","0","5e6617541d7e1a3885c45e85","","null","","","learningBlock1","","","","That was a bim.","null","","","","","",""
"html-keyboard-response","188","215109","0.0-5.0-2.60","FL","e72zvev590","1536","864","0","1","0","5e6617541d7e1a3885c45e85","","null","","","learningBlock1","","","","<div style=""font-size:60px;""> </div>","null","FL","learning/Slide61.JPG","That was a bim.","","",""
"image-keyboard-response","189","215287","0.0-5.0-0.61","FL","e72zvev590","1536","864","0","1","0","5e6617541d7e1a3885c45e85","","null","","","","","","","learning/Slide62.JPG","null","","","","","",""
"html-keyboard-response","190","216440","0.0-5.0-1.61","FL","e72zvev590","1536","864","0","1","0","5e6617541d7e1a3885c45e85","","null","","","learningBlock1","","","","That was a dep.","null","","","","","",""
"html-keyboard-response","191","217443","0.0-5.0-2.61","FL","e72zvev590","1536","864","0","1","0","5e6617541d7e1a3885c45e85","","null","","","learningBlock1","","","","<div style=""font-size:60px;""> </div>","null","FL","learning/Slide62.JPG","That was a dep.","","",""
"image-keyboard-response","192","217620","0.0-5.0-0.62","FL","e72zvev590","1536","864","0","1","0","5e6617541d7e1a3885c45e85","","null","","","","","","","learning/Slide63.JPG","null","","","","","",""
"html-keyboard-response","193","218773","0.0-5.0-1.62","FL","e72zvev590","1536","864","0","1","0","5e6617541d7e1a3885c45e85","","null","","","learningBlock1","","","","That was a bim.","null","","","","","",""
"html-keyboard-response","194","219777","0.0-5.0-2.62","FL","e72zvev590","1536","864","0","1","0","5e6617541d7e1a3885c45e85","","null","","","learningBlock1","","","","<div style=""font-size:60px;""> </div>","null","FL","learning/Slide63.JPG","That was a bim.","","",""
"image-keyboard-response","195","219955","0.0-5.0-0.63","FL","e72zvev590","1536","864","0","1","0","5e6617541d7e1a3885c45e85","","null","","","","","","","learning/Slide64.JPG","null","","","","","",""
"html-keyboard-response","196","221107","0.0-5.0-1.63","FL","e72zvev590","1536","864","0","1","0","5e6617541d7e1a3885c45e85","","null","","","learningBlock1","","","","That was a tob.","null","","","","","",""
"html-keyboard-response","197","222111","0.0-5.0-2.63","FL","e72zvev590","1536","864","0","1","0","5e6617541d7e1a3885c45e85","","null","","","learningBlock1","","","","<div style=""font-size:60px;""> </div>","null","FL","learning/Slide64.JPG","That was a tob.","","",""
"image-keyboard-response","198","222288","0.0-5.0-0.64","FL","e72zvev590","1536","864","0","1","0","5e6617541d7e1a3885c45e85","","null","","","","","","","learning/Slide65.JPG","null","","","","","",""
"html-keyboard-response","199","223441","0.0-5.0-1.64","FL","e72zvev590","1536","864","0","1","0","5e6617541d7e1a3885c45e85","","null","","","learningBlock1","","","","That was a wug.","null","","","","","",""
"html-keyboard-response","200","224444","0.0-5.0-2.64","FL","e72zvev590","1536","864","0","1","0","5e6617541d7e1a3885c45e85","","null","","","learningBlock1","","","","<div style=""font-size:60px;""> </div>","null","FL","learning/Slide65.JPG","That was a wug.","","",""
"image-keyboard-response","201","224621","0.0-5.0-0.65","FL","e72zvev590","1536","864","0","1","0","5e6617541d7e1a3885c45e85","","null","","","","","","","learning/Slide66.JPG","null","","","","","",""
"html-keyboard-response","202","225773","0.0-5.0-1.65","FL","e72zvev590","1536","864","0","1","0","5e6617541d7e1a3885c45e85","","null","","","learningBlock1","","","","That was a dep.","null","","","","","",""
"html-keyboard-response","203","226775","0.0-5.0-2.65","FL","e72zvev590","1536","864","0","1","0","5e6617541d7e1a3885c45e85","","null","","","learningBlock1","","","","<div style=""font-size:60px;""> </div>","null","FL","learning/Slide66.JPG","That was a dep.","","",""
"image-keyboard-response","204","226953","0.0-5.0-0.66","FL","e72zvev590","1536","864","0","1","0","5e6617541d7e1a3885c45e85","","null","","","","","","","learning/Slide67.JPG","null","","","","","",""
"html-keyboard-response","205","228106","0.0-5.0-1.66","FL","e72zvev590","1536","864","0","1","0","5e6617541d7e1a3885c45e85","","null","","","learningBlock1","","","","That was a tob.","null","","","","","",""
"html-keyboard-response","206","229109","0.0-5.0-2.66","FL","e72zvev590","1536","864","0","1","0","5e6617541d7e1a3885c45e85","","null","","","learningBlock1","","","","<div style=""font-size:60px;""> </div>","null","FL","learning/Slide67.JPG","That was a tob.","","",""
"image-keyboard-response","207","229287","0.0-5.0-0.67","FL","e72zvev590","1536","864","0","1","0","5e6617541d7e1a3885c45e85","","null","","","","","","","learning/Slide68.JPG","null","","","","","",""
"html-keyboard-response","208","230441","0.0-5.0-1.67","FL","e72zvev590","1536","864","0","1","0","5e6617541d7e1a3885c45e85","","null","","","learningBlock1","","","","That was a wug.","null","","","","","",""
"html-keyboard-response","209","231442","0.0-5.0-2.67","FL","e72zvev590","1536","864","0","1","0","5e6617541d7e1a3885c45e85","","null","","","learningBlock1","","","","<div style=""font-size:60px;""> </div>","null","FL","learning/Slide68.JPG","That was a wug.","","",""
"image-keyboard-response","210","231619","0.0-5.0-0.68","FL","e72zvev590","1536","864","0","1","0","5e6617541d7e1a3885c45e85","","null","","","","","","","learning/Slide69.JPG","null","","","","","",""
"html-keyboard-response","211","232775","0.0-5.0-1.68","FL","e72zvev590","1536","864","0","1","0","5e6617541d7e1a3885c45e85","","null","","","learningBlock1","","","","That was a tob.","null","","","","","",""
"html-keyboard-response","212","233777","0.0-5.0-2.68","FL","e72zvev590","1536","864","0","1","0","5e6617541d7e1a3885c45e85","","null","","","learningBlock1","","","","<div style=""font-size:60px;""> </div>","null","FL","learning/Slide69.JPG","That was a tob.","","",""
"image-keyboard-response","213","233954","0.0-5.0-0.69","FL","e72zvev590","1536","864","0","1","0","5e6617541d7e1a3885c45e85","","null","","","","","","","learning/Slide70.JPG","null","","","","","",""
"html-keyboard-response","214","235106","0.0-5.0-1.69","FL","e72zvev590","1536","864","0","1","0","5e6617541d7e1a3885c45e85","","null","","","learningBlock1","","","","That was a dep.","null","","","","","",""
"html-keyboard-response","215","236107","0.0-5.0-2.69","FL","e72zvev590","1536","864","0","1","0","5e6617541d7e1a3885c45e85","","null","","","learningBlock1","","","","<div style=""font-size:60px;""> </div>","null","FL","learning/Slide70.JPG","That was a dep.","","",""
"image-keyboard-response","216","236286","0.0-5.0-0.70","FL","e72zvev590","1536","864","0","1","0","5e6617541d7e1a3885c45e85","","null","","","","","","","learning/Slide71.JPG","null","","","","","",""
"html-keyboard-response","217","237438","0.0-5.0-1.70","FL","e72zvev590","1536","864","0","1","0","5e6617541d7e1a3885c45e85","","null","","","learningBlock1","","","","That was a wug.","null","","","","","",""
"html-keyboard-response","218","238442","0.0-5.0-2.70","FL","e72zvev590","1536","864","0","1","0","5e6617541d7e1a3885c45e85","","null","","","learningBlock1","","","","<div style=""font-size:60px;""> </div>","null","FL","learning/Slide71.JPG","That was a wug.","","",""
"image-keyboard-response","219","238620","0.0-5.0-0.71","FL","e72zvev590","1536","864","0","1","0","5e6617541d7e1a3885c45e85","","null","","","","","","","learning/Slide72.JPG","null","","","","","",""
"html-keyboard-response","220","239773","0.0-5.0-1.71","FL","e72zvev590","1536","864","0","1","0","5e6617541d7e1a3885c45e85","","null","","","learningBlock1","","","","That was a bim.","null","","","","","",""
"html-keyboard-response","221","240775","0.0-5.0-2.71","FL","e72zvev590","1536","864","0","1","0","5e6617541d7e1a3885c45e85","","null","","","learningBlock1","","","","<div style=""font-size:60px;""> </div>","null","FL","learning/Slide72.JPG","That was a bim.","","",""
"image-keyboard-response","222","240953","0.0-5.0-0.72","FL","e72zvev590","1536","864","0","1","0","5e6617541d7e1a3885c45e85","","null","","","","","","","learning/Slide73.JPG","null","","","","","",""
"html-keyboard-response","223","242106","0.0-5.0-1.72","FL","e72zvev590","1536","864","0","1","0","5e6617541d7e1a3885c45e85","","null","","","learningBlock1","","","","That was a wug.","null","","","","","",""
"html-keyboard-response","224","243108","0.0-5.0-2.72","FL","e72zvev590","1536","864","0","1","0","5e6617541d7e1a3885c45e85","","null","","","learningBlock1","","","","<div style=""font-size:60px;""> </div>","null","FL","learning/Slide73.JPG","That was a wug.","","",""
"image-keyboard-response","225","243286","0.0-5.0-0.73","FL","e72zvev590","1536","864","0","1","0","5e6617541d7e1a3885c45e85","","null","","","","","","","learning/Slide74.JPG","null","","","","","",""
"html-keyboard-response","226","244439","0.0-5.0-1.73","FL","e72zvev590","1536","864","0","1","0","5e6617541d7e1a3885c45e85","","null","","","learningBlock1","","","","That was a dep.","null","","","","","",""
"html-keyboard-response","227","245441","0.0-5.0-2.73","FL","e72zvev590","1536","864","0","1","0","5e6617541d7e1a3885c45e85","","null","","","learningBlock1","","","","<div style=""font-size:60px;""> </div>","null","FL","learning/Slide74.JPG","That was a dep.","","",""
"image-keyboard-response","228","245619","0.0-5.0-0.74","FL","e72zvev590","1536","864","0","1","0","5e6617541d7e1a3885c45e85","","null","","","","","","","learning/Slide75.JPG","null","","","","","",""
"html-keyboard-response","229","246771","0.0-5.0-1.74","FL","e72zvev590","1536","864","0","1","0","5e6617541d7e1a3885c45e85","","null","","","learningBlock1","","","","That was a tob.","null","","","","","",""
"html-keyboard-response","230","247774","0.0-5.0-2.74","FL","e72zvev590","1536","864","0","1","0","5e6617541d7e1a3885c45e85","","null","","","learningBlock1","","","","<div style=""font-size:60px;""> </div>","null","FL","learning/Slide75.JPG","That was a tob.","","",""
"image-keyboard-response","231","247952","0.0-5.0-0.75","FL","e72zvev590","1536","864","0","1","0","5e6617541d7e1a3885c45e85","","null","","","","","","","learning/Slide76.JPG","null","","","","","",""
"html-keyboard-response","232","249104","0.0-5.0-1.75","FL","e72zvev590","1536","864","0","1","0","5e6617541d7e1a3885c45e85","","null","","","learningBlock1","","","","That was a bim.","null","","","","","",""
"html-keyboard-response","233","250107","0.0-5.0-2.75","FL","e72zvev590","1536","864","0","1","0","5e6617541d7e1a3885c45e85","","null","","","learningBlock1","","","","<div style=""font-size:60px;""> </div>","null","FL","learning/Slide76.JPG","That was a bim.","","",""
"image-keyboard-response","234","250285","0.0-5.0-0.76","FL","e72zvev590","1536","864","0","1","0","5e6617541d7e1a3885c45e85","","null","","","","","","","learning/Slide77.JPG","null","","","","","",""
"html-keyboard-response","235","251438","0.0-5.0-1.76","FL","e72zvev590","1536","864","0","1","0","5e6617541d7e1a3885c45e85","","null","","","learningBlock1","","","","That was a tob.","null","","","","","",""
"html-keyboard-response","236","252440","0.0-5.0-2.76","FL","e72zvev590","1536","864","0","1","0","5e6617541d7e1a3885c45e85","","null","","","learningBlock1","","","","<div style=""font-size:60px;""> </div>","null","FL","learning/Slide77.JPG","That was a tob.","","",""
"image-keyboard-response","237","252618","0.0-5.0-0.77","FL","e72zvev590","1536","864","0","1","0","5e6617541d7e1a3885c45e85","","null","","","","","","","learning/Slide78.JPG","null","","","","","",""
"html-keyboard-response","238","253770","0.0-5.0-1.77","FL","e72zvev590","1536","864","0","1","0","5e6617541d7e1a3885c45e85","","null","","","learningBlock1","","","","That was a wug.","null","","","","","",""
"html-keyboard-response","239","254772","0.0-5.0-2.77","FL","e72zvev590","1536","864","0","1","0","5e6617541d7e1a3885c45e85","","null","","","learningBlock1","","","","<div style=""font-size:60px;""> </div>","null","FL","learning/Slide78.JPG","That was a wug.","","",""
"image-keyboard-response","240","254951","0.0-5.0-0.78","FL","e72zvev590","1536","864","0","1","0","5e6617541d7e1a3885c45e85","","null","","","","","","","learning/Slide79.JPG","null","","","","","",""
"html-keyboard-response","241","256104","0.0-5.0-1.78","FL","e72zvev590","1536","864","0","1","0","5e6617541d7e1a3885c45e85","","null","","","learningBlock1","","","","That was a bim.","null","","","","","",""
"html-keyboard-response","242","257107","0.0-5.0-2.78","FL","e72zvev590","1536","864","0","1","0","5e6617541d7e1a3885c45e85","","null","","","learningBlock1","","","","<div style=""font-size:60px;""> </div>","null","FL","learning/Slide79.JPG","That was a bim.","","",""
"image-keyboard-response","243","257286","0.0-5.0-0.79","FL","e72zvev590","1536","864","0","1","0","5e6617541d7e1a3885c45e85","","null","","","","","","","learning/Slide80.JPG","null","","","","","",""
"html-keyboard-response","244","258439","0.0-5.0-1.79","FL","e72zvev590","1536","864","0","1","0","5e6617541d7e1a3885c45e85","","null","","","learningBlock1","","","","That was a tob.","null","","","","","",""
"html-keyboard-response","245","259441","0.0-5.0-2.79","FL","e72zvev590","1536","864","0","1","0","5e6617541d7e1a3885c45e85","","null","","","learningBlock1","","","","<div style=""font-size:60px;""> </div>","null","FL","learning/Slide80.JPG","That was a tob.","","",""
"instructions","246","268045","0.0-6.0","FL","e72zvev590","1536","864","0","1","0","5e6617541d7e1a3885c45e85","","NA","","[{""page_index"":0,""viewing_time"":8602.834999968763}]","instructions","","","","","","","","","","",""
"image-keyboard-response","247","268223","0.0-7.0-0.0","FL","e72zvev590","1536","864","0","1","0","5e6617541d7e1a3885c45e85","","null","","","","","","","learning/Slide81.JPG","null","","","","","",""
"html-keyboard-response","248","269375","0.0-7.0-1.0","FL","e72zvev590","1536","864","0","1","0","5e6617541d7e1a3885c45e85","","null","","","learningBlock2","","","","That was a wug.","null","","","","","",""
"html-keyboard-response","249","270376","0.0-7.0-2.0","FL","e72zvev590","1536","864","0","1","0","5e6617541d7e1a3885c45e85","","null","","","learningBlock2","","","","<div style=""font-size:60px;""> </div>","null","FL","learning/Slide81.JPG","That was a wug.","","",""
"image-keyboard-response","250","270552","0.0-7.0-0.1","FL","e72zvev590","1536","864","0","1","0","5e6617541d7e1a3885c45e85","","null","","","","","","","learning/Slide82.JPG","null","","","","","",""
"html-keyboard-response","251","271706","0.0-7.0-1.1","FL","e72zvev590","1536","864","0","1","0","5e6617541d7e1a3885c45e85","","null","","","learningBlock2","","","","That was a bim.","null","","","","","",""
"html-keyboard-response","252","272709","0.0-7.0-2.1","FL","e72zvev590","1536","864","0","1","0","5e6617541d7e1a3885c45e85","","null","","","learningBlock2","","","","<div style=""font-size:60px;""> </div>","null","FL","learning/Slide82.JPG","That was a bim.","","",""
"image-keyboard-response","253","272885","0.0-7.0-0.2","FL","e72zvev590","1536","864","0","1","0","5e6617541d7e1a3885c45e85","","null","","","","","","","learning/Slide83.JPG","null","","","","","",""
"html-keyboard-response","254","274038","0.0-7.0-1.2","FL","e72zvev590","1536","864","0","1","0","5e6617541d7e1a3885c45e85","","null","","","learningBlock2","","","","That was a wug.","null","","","","","",""
"html-keyboard-response","255","275041","0.0-7.0-2.2","FL","e72zvev590","1536","864","0","1","0","5e6617541d7e1a3885c45e85","","null","","","learningBlock2","","","","<div style=""font-size:60px;""> </div>","null","FL","learning/Slide83.JPG","That was a wug.","","",""
"image-keyboard-response","256","275219","0.0-7.0-0.3","FL","e72zvev590","1536","864","0","1","0","5e6617541d7e1a3885c45e85","","null","","","","","","","learning/Slide84.JPG","null","","","","","",""
"html-keyboard-response","257","276372","0.0-7.0-1.3","FL","e72zvev590","1536","864","0","1","0","5e6617541d7e1a3885c45e85","","null","","","learningBlock2","","","","That was a dep.","null","","","","","",""
"html-keyboard-response","258","277376","0.0-7.0-2.3","FL","e72zvev590","1536","864","0","1","0","5e6617541d7e1a3885c45e85","","null","","","learningBlock2","","","","<div style=""font-size:60px;""> </div>","null","FL","learning/Slide84.JPG","That was a dep.","","",""
"image-keyboard-response","259","277554","0.0-7.0-0.4","FL","e72zvev590","1536","864","0","1","0","5e6617541d7e1a3885c45e85","","null","","","","","","","learning/Slide85.JPG","null","","","","","",""
"html-keyboard-response","260","278708","0.0-7.0-1.4","FL","e72zvev590","1536","864","0","1","0","5e6617541d7e1a3885c45e85","","null","","","learningBlock2","","","","That was a bim.","null","","","","","",""
"html-keyboard-response","261","279711","0.0-7.0-2.4","FL","e72zvev590","1536","864","0","1","0","5e6617541d7e1a3885c45e85","","null","","","learningBlock2","","","","<div style=""font-size:60px;""> </div>","null","FL","learning/Slide85.JPG","That was a bim.","","",""
"image-keyboard-response","262","279888","0.0-7.0-0.5","FL","e72zvev590","1536","864","0","1","0","5e6617541d7e1a3885c45e85","","null","","","","","","","learning/Slide86.JPG","null","","","","","",""
"html-keyboard-response","263","281040","0.0-7.0-1.5","FL","e72zvev590","1536","864","0","1","0","5e6617541d7e1a3885c45e85","","null","","","learningBlock2","","","","That was a tob.","null","","","","","",""
"html-keyboard-response","264","282044","0.0-7.0-2.5","FL","e72zvev590","1536","864","0","1","0","5e6617541d7e1a3885c45e85","","null","","","learningBlock2","","","","<div style=""font-size:60px;""> </div>","null","FL","learning/Slide86.JPG","That was a tob.","","",""
"image-keyboard-response","265","282222","0.0-7.0-0.6","FL","e72zvev590","1536","864","0","1","0","5e6617541d7e1a3885c45e85","","null","","","","","","","learning/Slide87.JPG","null","","","","","",""
"html-keyboard-response","266","283375","0.0-7.0-1.6","FL","e72zvev590","1536","864","0","1","0","5e6617541d7e1a3885c45e85","","null","","","learningBlock2","","","","That was a wug.","null","","","","","",""
"html-keyboard-response","267","284378","0.0-7.0-2.6","FL","e72zvev590","1536","864","0","1","0","5e6617541d7e1a3885c45e85","","null","","","learningBlock2","","","","<div style=""font-size:60px;""> </div>","null","FL","learning/Slide87.JPG","That was a wug.","","",""
"image-keyboard-response","268","284556","0.0-7.0-0.7","FL","e72zvev590","1536","864","0","1","0","5e6617541d7e1a3885c45e85","","null","","","","","","","learning/Slide88.JPG","null","","","","","",""
"html-keyboard-response","269","285709","0.0-7.0-1.7","FL","e72zvev590","1536","864","0","1","0","5e6617541d7e1a3885c45e85","","null","","","learningBlock2","","","","That was a tob.","null","","","","","",""
"html-keyboard-response","270","286712","0.0-7.0-2.7","FL","e72zvev590","1536","864","0","1","0","5e6617541d7e1a3885c45e85","","null","","","learningBlock2","","","","<div style=""font-size:60px;""> </div>","null","FL","learning/Slide88.JPG","That was a tob.","","",""
"image-keyboard-response","271","286889","0.0-7.0-0.8","FL","e72zvev590","1536","864","0","1","0","5e6617541d7e1a3885c45e85","","null","","","","","","","learning/Slide89.JPG","null","","","","","",""
"html-keyboard-response","272","288041","0.0-7.0-1.8","FL","e72zvev590","1536","864","0","1","0","5e6617541d7e1a3885c45e85","","null","","","learningBlock2","","","","That was a bim.","null","","","","","",""
"html-keyboard-response","273","289044","0.0-7.0-2.8","FL","e72zvev590","1536","864","0","1","0","5e6617541d7e1a3885c45e85","","null","","","learningBlock2","","","","<div style=""font-size:60px;""> </div>","null","FL","learning/Slide89.JPG","That was a bim.","","",""
"image-keyboard-response","274","289221","0.0-7.0-0.9","FL","e72zvev590","1536","864","0","1","0","5e6617541d7e1a3885c45e85","","null","","","","","","","learning/Slide90.JPG","null","","","","","",""
"html-keyboard-response","275","290374","0.0-7.0-1.9","FL","e72zvev590","1536","864","0","1","0","5e6617541d7e1a3885c45e85","","null","","","learningBlock2","","","","That was a dep.","null","","","","","",""
"html-keyboard-response","276","291376","0.0-7.0-2.9","FL","e72zvev590","1536","864","0","1","0","5e6617541d7e1a3885c45e85","","null","","","learningBlock2","","","","<div style=""font-size:60px;""> </div>","null","FL","learning/Slide90.JPG","That was a dep.","","",""
"image-keyboard-response","277","291554","0.0-7.0-0.10","FL","e72zvev590","1536","864","0","1","0","5e6617541d7e1a3885c45e85","","null","","","","","","","learning/Slide91.JPG","null","","","","","",""
"html-keyboard-response","278","292708","0.0-7.0-1.10","FL","e72zvev590","1536","864","0","1","0","5e6617541d7e1a3885c45e85","","null","","","learningBlock2","","","","That was a wug.","null","","","","","",""
"html-keyboard-response","279","293710","0.0-7.0-2.10","FL","e72zvev590","1536","864","0","1","0","5e6617541d7e1a3885c45e85","","null","","","learningBlock2","","","","<div style=""font-size:60px;""> </div>","null","FL","learning/Slide91.JPG","That was a wug.","","",""
"image-keyboard-response","280","293887","0.0-7.0-0.11","FL","e72zvev590","1536","864","0","1","0","5e6617541d7e1a3885c45e85","","null","","","","","","","learning/Slide92.JPG","null","","","","","",""
"html-keyboard-response","281","295039","0.0-7.0-1.11","FL","e72zvev590","1536","864","0","1","0","5e6617541d7e1a3885c45e85","","null","","","learningBlock2","","","","That was a tob.","null","","","","","",""
"html-keyboard-response","282","296041","0.0-7.0-2.11","FL","e72zvev590","1536","864","0","1","0","5e6617541d7e1a3885c45e85","","null","","","learningBlock2","","","","<div style=""font-size:60px;""> </div>","null","FL","learning/Slide92.JPG","That was a tob.","","",""
"image-keyboard-response","283","296219","0.0-7.0-0.12","FL","e72zvev590","1536","864","0","1","0","5e6617541d7e1a3885c45e85","","null","","","","","","","learning/Slide93.JPG","null","","","","","",""
"html-keyboard-response","284","297371","0.0-7.0-1.12","FL","e72zvev590","1536","864","0","1","0","5e6617541d7e1a3885c45e85","","null","","","learningBlock2","","","","That was a bim.","null","","","","","",""
"html-keyboard-response","285","298374","0.0-7.0-2.12","FL","e72zvev590","1536","864","0","1","0","5e6617541d7e1a3885c45e85","","null","","","learningBlock2","","","","<div style=""font-size:60px;""> </div>","null","FL","learning/Slide93.JPG","That was a bim.","","",""
"image-keyboard-response","286","298553","0.0-7.0-0.13","FL","e72zvev590","1536","864","0","1","0","5e6617541d7e1a3885c45e85","","null","","","","","","","learning/Slide94.JPG","null","","","","","",""
"html-keyboard-response","287","299704","0.0-7.0-1.13","FL","e72zvev590","1536","864","0","1","0","5e6617541d7e1a3885c45e85","","null","","","learningBlock2","","","","That was a tob.","null","","","","","",""
"html-keyboard-response","288","300706","0.0-7.0-2.13","FL","e72zvev590","1536","864","0","1","0","5e6617541d7e1a3885c45e85","","null","","","learningBlock2","","","","<div style=""font-size:60px;""> </div>","null","FL","learning/Slide94.JPG","That was a tob.","","",""
"image-keyboard-response","289","300884","0.0-7.0-0.14","FL","e72zvev590","1536","864","0","1","0","5e6617541d7e1a3885c45e85","","null","","","","","","","learning/Slide95.JPG","null","","","","","",""
"html-keyboard-response","290","302036","0.0-7.0-1.14","FL","e72zvev590","1536","864","0","1","0","5e6617541d7e1a3885c45e85","","null","","","learningBlock2","","","","That was a wug.","null","","","","","",""
"html-keyboard-response","291","303039","0.0-7.0-2.14","FL","e72zvev590","1536","864","0","1","0","5e6617541d7e1a3885c45e85","","null","","","learningBlock2","","","","<div style=""font-size:60px;""> </div>","null","FL","learning/Slide95.JPG","That was a wug.","","",""
"image-keyboard-response","292","303218","0.0-7.0-0.15","FL","e72zvev590","1536","864","0","1","0","5e6617541d7e1a3885c45e85","","null","","","","","","","learning/Slide96.JPG","null","","","","","",""
"html-keyboard-response","293","304372","0.0-7.0-1.15","FL","e72zvev590","1536","864","0","1","0","5e6617541d7e1a3885c45e85","","null","","","learningBlock2","","","","That was a tob.","null","","","","","",""
"html-keyboard-response","294","305374","0.0-7.0-2.15","FL","e72zvev590","1536","864","0","1","0","5e6617541d7e1a3885c45e85","","null","","","learningBlock2","","","","<div style=""font-size:60px;""> </div>","null","FL","learning/Slide96.JPG","That was a tob.","","",""
"image-keyboard-response","295","305552","0.0-7.0-0.16","FL","e72zvev590","1536","864","0","1","0","5e6617541d7e1a3885c45e85","","null","","","","","","","learning/Slide97.JPG","null","","","","","",""
"html-keyboard-response","296","306705","0.0-7.0-1.16","FL","e72zvev590","1536","864","0","1","0","5e6617541d7e1a3885c45e85","","null","","","learningBlock2","","","","That was a dep.","null","","","","","",""
"html-keyboard-response","297","307707","0.0-7.0-2.16","FL","e72zvev590","1536","864","0","1","0","5e6617541d7e1a3885c45e85","","null","","","learningBlock2","","","","<div style=""font-size:60px;""> </div>","null","FL","learning/Slide97.JPG","That was a dep.","","",""
"image-keyboard-response","298","307885","0.0-7.0-0.17","FL","e72zvev590","1536","864","0","1","0","5e6617541d7e1a3885c45e85","","null","","","","","","","learning/Slide98.JPG","null","","","","","",""
"html-keyboard-response","299","309037","0.0-7.0-1.17","FL","e72zvev590","1536","864","0","1","0","5e6617541d7e1a3885c45e85","","null","","","learningBlock2","","","","That was a bim.","null","","","","","",""
"html-keyboard-response","300","310040","0.0-7.0-2.17","FL","e72zvev590","1536","864","0","1","0","5e6617541d7e1a3885c45e85","","null","","","learningBlock2","","","","<div style=""font-size:60px;""> </div>","null","FL","learning/Slide98.JPG","That was a bim.","","",""
"image-keyboard-response","301","310217","0.0-7.0-0.18","FL","e72zvev590","1536","864","0","1","0","5e6617541d7e1a3885c45e85","","null","","","","","","","learning/Slide99.JPG","null","","","","","",""
"html-keyboard-response","302","311370","0.0-7.0-1.18","FL","e72zvev590","1536","864","0","1","0","5e6617541d7e1a3885c45e85","","null","","","learningBlock2","","","","That was a dep.","null","","","","","",""
"html-keyboard-response","303","312373","0.0-7.0-2.18","FL","e72zvev590","1536","864","0","1","0","5e6617541d7e1a3885c45e85","","null","","","learningBlock2","","","","<div style=""font-size:60px;""> </div>","null","FL","learning/Slide99.JPG","That was a dep.","","",""
"image-keyboard-response","304","312551","0.0-7.0-0.19","FL","e72zvev590","1536","864","0","1","0","5e6617541d7e1a3885c45e85","","null","","","","","","","learning/Slide100.JPG","null","","","","","",""
"html-keyboard-response","305","313703","0.0-7.0-1.19","FL","e72zvev590","1536","864","0","1","0","5e6617541d7e1a3885c45e85","","null","","","learningBlock2","","","","That was a bim.","null","","","","","",""
"html-keyboard-response","306","314705","0.0-7.0-2.19","FL","e72zvev590","1536","864","0","1","0","5e6617541d7e1a3885c45e85","","null","","","learningBlock2","","","","<div style=""font-size:60px;""> </div>","null","FL","learning/Slide100.JPG","That was a bim.","","",""
"image-keyboard-response","307","314883","0.0-7.0-0.20","FL","e72zvev590","1536","864","0","1","0","5e6617541d7e1a3885c45e85","","null","","","","","","","learning/Slide101.JPG","null","","","","","",""
"html-keyboard-response","308","316036","0.0-7.0-1.20","FL","e72zvev590","1536","864","0","1","0","5e6617541d7e1a3885c45e85","","null","","","learningBlock2","","","","That was a tob.","null","","","","","",""
"html-keyboard-response","309","317037","0.0-7.0-2.20","FL","e72zvev590","1536","864","0","1","0","5e6617541d7e1a3885c45e85","","null","","","learningBlock2","","","","<div style=""font-size:60px;""> </div>","null","FL","learning/Slide101.JPG","That was a tob.","","",""
"image-keyboard-response","310","317214","0.0-7.0-0.21","FL","e72zvev590","1536","864","0","1","0","5e6617541d7e1a3885c45e85","","null","","","","","","","learning/Slide102.JPG","null","","","","","",""
"html-keyboard-response","311","318367","0.0-7.0-1.21","FL","e72zvev590","1536","864","0","1","0","5e6617541d7e1a3885c45e85","","null","","","learningBlock2","","","","That was a bim.","null","","","","","",""
"html-keyboard-response","312","319369","0.0-7.0-2.21","FL","e72zvev590","1536","864","0","1","0","5e6617541d7e1a3885c45e85","","null","","","learningBlock2","","","","<div style=""font-size:60px;""> </div>","null","FL","learning/Slide102.JPG","That was a bim.","","",""
"image-keyboard-response","313","319547","0.0-7.0-0.22","FL","e72zvev590","1536","864","0","1","0","5e6617541d7e1a3885c45e85","","null","","","","","","","learning/Slide103.JPG","null","","","","","",""
"html-keyboard-response","314","320700","0.0-7.0-1.22","FL","e72zvev590","1536","864","0","1","0","5e6617541d7e1a3885c45e85","","null","","","learningBlock2","","","","That was a dep.","null","","","","","",""
"html-keyboard-response","315","321703","0.0-7.0-2.22","FL","e72zvev590","1536","864","0","1","0","5e6617541d7e1a3885c45e85","","null","","","learningBlock2","","","","<div style=""font-size:60px;""> </div>","null","FL","learning/Slide103.JPG","That was a dep.","","",""
"image-keyboard-response","316","321881","0.0-7.0-0.23","FL","e72zvev590","1536","864","0","1","0","5e6617541d7e1a3885c45e85","","null","","","","","","","learning/Slide104.JPG","null","","","","","",""
"html-keyboard-response","317","323033","0.0-7.0-1.23","FL","e72zvev590","1536","864","0","1","0","5e6617541d7e1a3885c45e85","","null","","","learningBlock2","","","","That was a tob.","null","","","","","",""
"html-keyboard-response","318","324037","0.0-7.0-2.23","FL","e72zvev590","1536","864","0","1","0","5e6617541d7e1a3885c45e85","","null","","","learningBlock2","","","","<div style=""font-size:60px;""> </div>","null","FL","learning/Slide104.JPG","That was a tob.","","",""
"image-keyboard-response","319","324213","0.0-7.0-0.24","FL","e72zvev590","1536","864","0","1","0","5e6617541d7e1a3885c45e85","","null","","","","","","","learning/Slide105.JPG","null","","","","","",""
"html-keyboard-response","320","325365","0.0-7.0-1.24","FL","e72zvev590","1536","864","0","1","0","5e6617541d7e1a3885c45e85","","null","","","learningBlock2","","","","That was a dep.","null","","","","","",""
"html-keyboard-response","321","326367","0.0-7.0-2.24","FL","e72zvev590","1536","864","0","1","0","5e6617541d7e1a3885c45e85","","null","","","learningBlock2","","","","<div style=""font-size:60px;""> </div>","null","FL","learning/Slide105.JPG","That was a dep.","","",""
"image-keyboard-response","322","326544","0.0-7.0-0.25","FL","e72zvev590","1536","864","0","1","0","5e6617541d7e1a3885c45e85","","null","","","","","","","learning/Slide106.JPG","null","","","","","",""
"html-keyboard-response","323","327696","0.0-7.0-1.25","FL","e72zvev590","1536","864","0","1","0","5e6617541d7e1a3885c45e85","","null","","","learningBlock2","","","","That was a wug.","null","","","","","",""
"html-keyboard-response","324","328698","0.0-7.0-2.25","FL","e72zvev590","1536","864","0","1","0","5e6617541d7e1a3885c45e85","","null","","","learningBlock2","","","","<div style=""font-size:60px;""> </div>","null","FL","learning/Slide106.JPG","That was a wug.","","",""
"image-keyboard-response","325","328876","0.0-7.0-0.26","FL","e72zvev590","1536","864","0","1","0","5e6617541d7e1a3885c45e85","","null","","","","","","","learning/Slide107.JPG","null","","","","","",""
"html-keyboard-response","326","330029","0.0-7.0-1.26","FL","e72zvev590","1536","864","0","1","0","5e6617541d7e1a3885c45e85","","null","","","learningBlock2","","","","That was a bim.","null","","","","","",""
"html-keyboard-response","327","331031","0.0-7.0-2.26","FL","e72zvev590","1536","864","0","1","0","5e6617541d7e1a3885c45e85","","null","","","learningBlock2","","","","<div style=""font-size:60px;""> </div>","null","FL","learning/Slide107.JPG","That was a bim.","","",""
"image-keyboard-response","328","331209","0.0-7.0-0.27","FL","e72zvev590","1536","864","0","1","0","5e6617541d7e1a3885c45e85","","null","","","","","","","learning/Slide108.JPG","null","","","","","",""
"html-keyboard-response","329","332362","0.0-7.0-1.27","FL","e72zvev590","1536","864","0","1","0","5e6617541d7e1a3885c45e85","","null","","","learningBlock2","","","","That was a dep.","null","","","","","",""
"html-keyboard-response","330","333363","0.0-7.0-2.27","FL","e72zvev590","1536","864","0","1","0","5e6617541d7e1a3885c45e85","","null","","","learningBlock2","","","","<div style=""font-size:60px;""> </div>","null","FL","learning/Slide108.JPG","That was a dep.","","",""
"image-keyboard-response","331","333542","0.0-7.0-0.28","FL","e72zvev590","1536","864","0","1","0","5e6617541d7e1a3885c45e85","","null","","","","","","","learning/Slide109.JPG","null","","","","","",""
"html-keyboard-response","332","334694","0.0-7.0-1.28","FL","e72zvev590","1536","864","0","1","0","5e6617541d7e1a3885c45e85","","null","","","learningBlock2","","","","That was a wug.","null","","","","","",""
"html-keyboard-response","333","335696","0.0-7.0-2.28","FL","e72zvev590","1536","864","0","1","0","5e6617541d7e1a3885c45e85","","null","","","learningBlock2","","","","<div style=""font-size:60px;""> </div>","null","FL","learning/Slide109.JPG","That was a wug.","","",""
"image-keyboard-response","334","335873","0.0-7.0-0.29","FL","e72zvev590","1536","864","0","1","0","5e6617541d7e1a3885c45e85","","null","","","","","","","learning/Slide110.JPG","null","","","","","",""
"html-keyboard-response","335","337027","0.0-7.0-1.29","FL","e72zvev590","1536","864","0","1","0","5e6617541d7e1a3885c45e85","","null","","","learningBlock2","","","","That was a bim.","null","","","","","",""
"html-keyboard-response","336","338029","0.0-7.0-2.29","FL","e72zvev590","1536","864","0","1","0","5e6617541d7e1a3885c45e85","","null","","","learningBlock2","","","","<div style=""font-size:60px;""> </div>","null","FL","learning/Slide110.JPG","That was a bim.","","",""
"image-keyboard-response","337","338207","0.0-7.0-0.30","FL","e72zvev590","1536","864","0","1","0","5e6617541d7e1a3885c45e85","","null","","","","","","","learning/Slide111.JPG","null","","","","","",""
"html-keyboard-response","338","339359","0.0-7.0-1.30","FL","e72zvev590","1536","864","0","1","0","5e6617541d7e1a3885c45e85","","null","","","learningBlock2","","","","That was a tob.","null","","","","","",""
"html-keyboard-response","339","340361","0.0-7.0-2.30","FL","e72zvev590","1536","864","0","1","0","5e6617541d7e1a3885c45e85","","null","","","learningBlock2","","","","<div style=""font-size:60px;""> </div>","null","FL","learning/Slide111.JPG","That was a tob.","","",""
"image-keyboard-response","340","340539","0.0-7.0-0.31","FL","e72zvev590","1536","864","0","1","0","5e6617541d7e1a3885c45e85","","null","","","","","","","learning/Slide112.JPG","null","","","","","",""
"html-keyboard-response","341","341692","0.0-7.0-1.31","FL","e72zvev590","1536","864","0","1","0","5e6617541d7e1a3885c45e85","","null","","","learningBlock2","","","","That was a wug.","null","","","","","",""
"html-keyboard-response","342","342694","0.0-7.0-2.31","FL","e72zvev590","1536","864","0","1","0","5e6617541d7e1a3885c45e85","","null","","","learningBlock2","","","","<div style=""font-size:60px;""> </div>","null","FL","learning/Slide112.JPG","That was a wug.","","",""
"image-keyboard-response","343","342872","0.0-7.0-0.32","FL","e72zvev590","1536","864","0","1","0","5e6617541d7e1a3885c45e85","","null","","","","","","","learning/Slide113.JPG","null","","","","","",""
"html-keyboard-response","344","344028","0.0-7.0-1.32","FL","e72zvev590","1536","864","0","1","0","5e6617541d7e1a3885c45e85","","null","","","learningBlock2","","","","That was a tob.","null","","","","","",""
"html-keyboard-response","345","345030","0.0-7.0-2.32","FL","e72zvev590","1536","864","0","1","0","5e6617541d7e1a3885c45e85","","null","","","learningBlock2","","","","<div style=""font-size:60px;""> </div>","null","FL","learning/Slide113.JPG","That was a tob.","","",""
"image-keyboard-response","346","345208","0.0-7.0-0.33","FL","e72zvev590","1536","864","0","1","0","5e6617541d7e1a3885c45e85","","null","","","","","","","learning/Slide114.JPG","null","","","","","",""
"html-keyboard-response","347","346360","0.0-7.0-1.33","FL","e72zvev590","1536","864","0","1","0","5e6617541d7e1a3885c45e85","","null","","","learningBlock2","","","","That was a wug.","null","","","","","",""
"html-keyboard-response","348","347363","0.0-7.0-2.33","FL","e72zvev590","1536","864","0","1","0","5e6617541d7e1a3885c45e85","","null","","","learningBlock2","","","","<div style=""font-size:60px;""> </div>","null","FL","learning/Slide114.JPG","That was a wug.","","",""
"image-keyboard-response","349","347541","0.0-7.0-0.34","FL","e72zvev590","1536","864","0","1","0","5e6617541d7e1a3885c45e85","","null","","","","","","","learning/Slide115.JPG","null","","","","","",""
"html-keyboard-response","350","348693","0.0-7.0-1.34","FL","e72zvev590","1536","864","0","1","0","5e6617541d7e1a3885c45e85","","null","","","learningBlock2","","","","That was a bim.","null","","","","","",""
"html-keyboard-response","351","349696","0.0-7.0-2.34","FL","e72zvev590","1536","864","0","1","0","5e6617541d7e1a3885c45e85","","null","","","learningBlock2","","","","<div style=""font-size:60px;""> </div>","null","FL","learning/Slide115.JPG","That was a bim.","","",""
"image-keyboard-response","352","349874","0.0-7.0-0.35","FL","e72zvev590","1536","864","0","1","0","5e6617541d7e1a3885c45e85","","null","","","","","","","learning/Slide116.JPG","null","","","","","",""
"html-keyboard-response","353","351026","0.0-7.0-1.35","FL","e72zvev590","1536","864","0","1","0","5e6617541d7e1a3885c45e85","","null","","","learningBlock2","","","","That was a dep.","null","","","","","",""
"html-keyboard-response","354","352029","0.0-7.0-2.35","FL","e72zvev590","1536","864","0","1","0","5e6617541d7e1a3885c45e85","","null","","","learningBlock2","","","","<div style=""font-size:60px;""> </div>","null","FL","learning/Slide116.JPG","That was a dep.","","",""
"image-keyboard-response","355","352207","0.0-7.0-0.36","FL","e72zvev590","1536","864","0","1","0","5e6617541d7e1a3885c45e85","","null","","","","","","","learning/Slide117.JPG","null","","","","","",""
"html-keyboard-response","356","353360","0.0-7.0-1.36","FL","e72zvev590","1536","864","0","1","0","5e6617541d7e1a3885c45e85","","null","","","learningBlock2","","","","That was a tob.","null","","","","","",""
"html-keyboard-response","357","354363","0.0-7.0-2.36","FL","e72zvev590","1536","864","0","1","0","5e6617541d7e1a3885c45e85","","null","","","learningBlock2","","","","<div style=""font-size:60px;""> </div>","null","FL","learning/Slide117.JPG","That was a tob.","","",""
"image-keyboard-response","358","354541","0.0-7.0-0.37","FL","e72zvev590","1536","864","0","1","0","5e6617541d7e1a3885c45e85","","null","","","","","","","learning/Slide118.JPG","null","","","","","",""
"html-keyboard-response","359","355695","0.0-7.0-1.37","FL","e72zvev590","1536","864","0","1","0","5e6617541d7e1a3885c45e85","","null","","","learningBlock2","","","","That was a dep.","null","","","","","",""
"html-keyboard-response","360","356697","0.0-7.0-2.37","FL","e72zvev590","1536","864","0","1","0","5e6617541d7e1a3885c45e85","","null","","","learningBlock2","","","","<div style=""font-size:60px;""> </div>","null","FL","learning/Slide118.JPG","That was a dep.","","",""
"image-keyboard-response","361","356875","0.0-7.0-0.38","FL","e72zvev590","1536","864","0","1","0","5e6617541d7e1a3885c45e85","","null","","","","","","","learning/Slide119.JPG","null","","","","","",""
"html-keyboard-response","362","358028","0.0-7.0-1.38","FL","e72zvev590","1536","864","0","1","0","5e6617541d7e1a3885c45e85","","null","","","learningBlock2","","","","That was a wug.","null","","","","","",""
"html-keyboard-response","363","359030","0.0-7.0-2.38","FL","e72zvev590","1536","864","0","1","0","5e6617541d7e1a3885c45e85","","null","","","learningBlock2","","","","<div style=""font-size:60px;""> </div>","null","FL","learning/Slide119.JPG","That was a wug.","","",""
"image-keyboard-response","364","359208","0.0-7.0-0.39","FL","e72zvev590","1536","864","0","1","0","5e6617541d7e1a3885c45e85","","null","","","","","","","learning/Slide120.JPG","null","","","","","",""
"html-keyboard-response","365","360361","0.0-7.0-1.39","FL","e72zvev590","1536","864","0","1","0","5e6617541d7e1a3885c45e85","","null","","","learningBlock2","","","","That was a dep.","null","","","","","",""
"html-keyboard-response","366","361364","0.0-7.0-2.39","FL","e72zvev590","1536","864","0","1","0","5e6617541d7e1a3885c45e85","","null","","","learningBlock2","","","","<div style=""font-size:60px;""> </div>","null","FL","learning/Slide120.JPG","That was a dep.","","",""
"image-keyboard-response","367","361541","0.0-7.0-0.40","FL","e72zvev590","1536","864","0","1","0","5e6617541d7e1a3885c45e85","","null","","","","","","","learning/Slide121.JPG","null","","","","","",""
"html-keyboard-response","368","362695","0.0-7.0-1.40","FL","e72zvev590","1536","864","0","1","0","5e6617541d7e1a3885c45e85","","null","","","learningBlock2","","","","That was a bim.","null","","","","","",""
"html-keyboard-response","369","363698","0.0-7.0-2.40","FL","e72zvev590","1536","864","0","1","0","5e6617541d7e1a3885c45e85","","null","","","learningBlock2","","","","<div style=""font-size:60px;""> </div>","null","FL","learning/Slide121.JPG","That was a bim.","","",""
"image-keyboard-response","370","363874","0.0-7.0-0.41","FL","e72zvev590","1536","864","0","1","0","5e6617541d7e1a3885c45e85","","null","","","","","","","learning/Slide122.JPG","null","","","","","",""
"html-keyboard-response","371","365026","0.0-7.0-1.41","FL","e72zvev590","1536","864","0","1","0","5e6617541d7e1a3885c45e85","","null","","","learningBlock2","","","","That was a wug.","null","","","","","",""
"html-keyboard-response","372","366027","0.0-7.0-2.41","FL","e72zvev590","1536","864","0","1","0","5e6617541d7e1a3885c45e85","","null","","","learningBlock2","","","","<div style=""font-size:60px;""> </div>","null","FL","learning/Slide122.JPG","That was a wug.","","",""
"image-keyboard-response","373","366204","0.0-7.0-0.42","FL","e72zvev590","1536","864","0","1","0","5e6617541d7e1a3885c45e85","","null","","","","","","","learning/Slide123.JPG","null","","","","","",""
"html-keyboard-response","374","367357","0.0-7.0-1.42","FL","e72zvev590","1536","864","0","1","0","5e6617541d7e1a3885c45e85","","null","","","learningBlock2","","","","That was a bim.","null","","","","","",""
"html-keyboard-response","375","368358","0.0-7.0-2.42","FL","e72zvev590","1536","864","0","1","0","5e6617541d7e1a3885c45e85","","null","","","learningBlock2","","","","<div style=""font-size:60px;""> </div>","null","FL","learning/Slide123.JPG","That was a bim.","","",""
"image-keyboard-response","376","368535","0.0-7.0-0.43","FL","e72zvev590","1536","864","0","1","0","5e6617541d7e1a3885c45e85","","null","","","","","","","learning/Slide124.JPG","null","","","","","",""
"html-keyboard-response","377","369687","0.0-7.0-1.43","FL","e72zvev590","1536","864","0","1","0","5e6617541d7e1a3885c45e85","","null","","","learningBlock2","","","","That was a tob.","null","","","","","",""
"html-keyboard-response","378","370688","0.0-7.0-2.43","FL","e72zvev590","1536","864","0","1","0","5e6617541d7e1a3885c45e85","","null","","","learningBlock2","","","","<div style=""font-size:60px;""> </div>","null","FL","learning/Slide124.JPG","That was a tob.","","",""
"image-keyboard-response","379","370864","0.0-7.0-0.44","FL","e72zvev590","1536","864","0","1","0","5e6617541d7e1a3885c45e85","","null","","","","","","","learning/Slide125.JPG","null","","","","","",""
"html-keyboard-response","380","372016","0.0-7.0-1.44","FL","e72zvev590","1536","864","0","1","0","5e6617541d7e1a3885c45e85","","null","","","learningBlock2","","","","That was a bim.","null","","","","","",""
"html-keyboard-response","381","373019","0.0-7.0-2.44","FL","e72zvev590","1536","864","0","1","0","5e6617541d7e1a3885c45e85","","null","","","learningBlock2","","","","<div style=""font-size:60px;""> </div>","null","FL","learning/Slide125.JPG","That was a bim.","","",""
"image-keyboard-response","382","373196","0.0-7.0-0.45","FL","e72zvev590","1536","864","0","1","0","5e6617541d7e1a3885c45e85","","null","","","","","","","learning/Slide126.JPG","null","","","","","",""
"html-keyboard-response","383","374348","0.0-7.0-1.45","FL","e72zvev590","1536","864","0","1","0","5e6617541d7e1a3885c45e85","","null","","","learningBlock2","","","","That was a tob.","null","","","","","",""
"html-keyboard-response","384","375350","0.0-7.0-2.45","FL","e72zvev590","1536","864","0","1","0","5e6617541d7e1a3885c45e85","","null","","","learningBlock2","","","","<div style=""font-size:60px;""> </div>","null","FL","learning/Slide126.JPG","That was a tob.","","",""
"image-keyboard-response","385","375527","0.0-7.0-0.46","FL","e72zvev590","1536","864","0","1","0","5e6617541d7e1a3885c45e85","","null","","","","","","","learning/Slide127.JPG","null","","","","","",""
"html-keyboard-response","386","376679","0.0-7.0-1.46","FL","e72zvev590","1536","864","0","1","0","5e6617541d7e1a3885c45e85","","null","","","learningBlock2","","","","That was a dep.","null","","","","","",""
"html-keyboard-response","387","377682","0.0-7.0-2.46","FL","e72zvev590","1536","864","0","1","0","5e6617541d7e1a3885c45e85","","null","","","learningBlock2","","","","<div style=""font-size:60px;""> </div>","null","FL","learning/Slide127.JPG","That was a dep.","","",""
"image-keyboard-response","388","377860","0.0-7.0-0.47","FL","e72zvev590","1536","864","0","1","0","5e6617541d7e1a3885c45e85","","null","","","","","","","learning/Slide128.JPG","null","","","","","",""
"html-keyboard-response","389","379012","0.0-7.0-1.47","FL","e72zvev590","1536","864","0","1","0","5e6617541d7e1a3885c45e85","","null","","","learningBlock2","","","","That was a wug.","null","","","","","",""
"html-keyboard-response","390","380015","0.0-7.0-2.47","FL","e72zvev590","1536","864","0","1","0","5e6617541d7e1a3885c45e85","","null","","","learningBlock2","","","","<div style=""font-size:60px;""> </div>","null","FL","learning/Slide128.JPG","That was a wug.","","",""
"image-keyboard-response","391","380191","0.0-7.0-0.48","FL","e72zvev590","1536","864","0","1","0","5e6617541d7e1a3885c45e85","","null","","","","","","","learning/Slide129.JPG","null","","","","","",""
"html-keyboard-response","392","381344","0.0-7.0-1.48","FL","e72zvev590","1536","864","0","1","0","5e6617541d7e1a3885c45e85","","null","","","learningBlock2","","","","That was a tob.","null","","","","","",""
"html-keyboard-response","393","382347","0.0-7.0-2.48","FL","e72zvev590","1536","864","0","1","0","5e6617541d7e1a3885c45e85","","null","","","learningBlock2","","","","<div style=""font-size:60px;""> </div>","null","FL","learning/Slide129.JPG","That was a tob.","","",""
"image-keyboard-response","394","382525","0.0-7.0-0.49","FL","e72zvev590","1536","864","0","1","0","5e6617541d7e1a3885c45e85","","null","","","","","","","learning/Slide130.JPG","null","","","","","",""
"html-keyboard-response","395","383677","0.0-7.0-1.49","FL","e72zvev590","1536","864","0","1","0","5e6617541d7e1a3885c45e85","","null","","","learningBlock2","","","","That was a wug.","null","","","","","",""
"html-keyboard-response","396","384681","0.0-7.0-2.49","FL","e72zvev590","1536","864","0","1","0","5e6617541d7e1a3885c45e85","","null","","","learningBlock2","","","","<div style=""font-size:60px;""> </div>","null","FL","learning/Slide130.JPG","That was a wug.","","",""
"image-keyboard-response","397","384858","0.0-7.0-0.50","FL","e72zvev590","1536","864","0","1","0","5e6617541d7e1a3885c45e85","","null","","","","","","","learning/Slide131.JPG","null","","","","","",""
"html-keyboard-response","398","386012","0.0-7.0-1.50","FL","e72zvev590","1536","864","0","1","0","5e6617541d7e1a3885c45e85","","null","","","learningBlock2","","","","That was a bim.","null","","","","","",""
"html-keyboard-response","399","387015","0.0-7.0-2.50","FL","e72zvev590","1536","864","0","1","0","5e6617541d7e1a3885c45e85","","null","","","learningBlock2","","","","<div style=""font-size:60px;""> </div>","null","FL","learning/Slide131.JPG","That was a bim.","","",""
"image-keyboard-response","400","387193","0.0-7.0-0.51","FL","e72zvev590","1536","864","0","1","0","5e6617541d7e1a3885c45e85","","null","","","","","","","learning/Slide132.JPG","null","","","","","",""
"html-keyboard-response","401","388346","0.0-7.0-1.51","FL","e72zvev590","1536","864","0","1","0","5e6617541d7e1a3885c45e85","","null","","","learningBlock2","","","","That was a dep.","null","","","","","",""
"html-keyboard-response","402","389348","0.0-7.0-2.51","FL","e72zvev590","1536","864","0","1","0","5e6617541d7e1a3885c45e85","","null","","","learningBlock2","","","","<div style=""font-size:60px;""> </div>","null","FL","learning/Slide132.JPG","That was a dep.","","",""
"image-keyboard-response","403","389526","0.0-7.0-0.52","FL","e72zvev590","1536","864","0","1","0","5e6617541d7e1a3885c45e85","","null","","","","","","","learning/Slide133.JPG","null","","","","","",""
"html-keyboard-response","404","390686","0.0-7.0-1.52","FL","e72zvev590","1536","864","0","1","0","5e6617541d7e1a3885c45e85","","null","","","learningBlock2","","","","That was a tob.","null","","","","","",""
"html-keyboard-response","405","391690","0.0-7.0-2.52","FL","e72zvev590","1536","864","0","1","0","5e6617541d7e1a3885c45e85","","null","","","learningBlock2","","","","<div style=""font-size:60px;""> </div>","null","FL","learning/Slide133.JPG","That was a tob.","","",""
"image-keyboard-response","406","391866","0.0-7.0-0.53","FL","e72zvev590","1536","864","0","1","0","5e6617541d7e1a3885c45e85","","null","","","","","","","learning/Slide134.JPG","null","","","","","",""
"html-keyboard-response","407","393020","0.0-7.0-1.53","FL","e72zvev590","1536","864","0","1","0","5e6617541d7e1a3885c45e85","","null","","","learningBlock2","","","","That was a dep.","null","","","","","",""
"html-keyboard-response","408","394023","0.0-7.0-2.53","FL","e72zvev590","1536","864","0","1","0","5e6617541d7e1a3885c45e85","","null","","","learningBlock2","","","","<div style=""font-size:60px;""> </div>","null","FL","learning/Slide134.JPG","That was a dep.","","",""
"image-keyboard-response","409","394201","0.0-7.0-0.54","FL","e72zvev590","1536","864","0","1","0","5e6617541d7e1a3885c45e85","","null","","","","","","","learning/Slide135.JPG","null","","","","","",""
"html-keyboard-response","410","395353","0.0-7.0-1.54","FL","e72zvev590","1536","864","0","1","0","5e6617541d7e1a3885c45e85","","null","","","learningBlock2","","","","That was a tob.","null","","","","","",""
"html-keyboard-response","411","396356","0.0-7.0-2.54","FL","e72zvev590","1536","864","0","1","0","5e6617541d7e1a3885c45e85","","null","","","learningBlock2","","","","<div style=""font-size:60px;""> </div>","null","FL","learning/Slide135.JPG","That was a tob.","","",""
"image-keyboard-response","412","396533","0.0-7.0-0.55","FL","e72zvev590","1536","864","0","1","0","5e6617541d7e1a3885c45e85","","null","","","","","","","learning/Slide136.JPG","null","","","","","",""
"html-keyboard-response","413","397687","0.0-7.0-1.55","FL","e72zvev590","1536","864","0","1","0","5e6617541d7e1a3885c45e85","","null","","","learningBlock2","","","","That was a wug.","null","","","","","",""
"html-keyboard-response","414","398689","0.0-7.0-2.55","FL","e72zvev590","1536","864","0","1","0","5e6617541d7e1a3885c45e85","","null","","","learningBlock2","","","","<div style=""font-size:60px;""> </div>","null","FL","learning/Slide136.JPG","That was a wug.","","",""
"image-keyboard-response","415","398867","0.0-7.0-0.56","FL","e72zvev590","1536","864","0","1","0","5e6617541d7e1a3885c45e85","","null","","","","","","","learning/Slide137.JPG","null","","","","","",""
"html-keyboard-response","416","400020","0.0-7.0-1.56","FL","e72zvev590","1536","864","0","1","0","5e6617541d7e1a3885c45e85","","null","","","learningBlock2","","","","That was a tob.","null","","","","","",""
"html-keyboard-response","417","401023","0.0-7.0-2.56","FL","e72zvev590","1536","864","0","1","0","5e6617541d7e1a3885c45e85","","null","","","learningBlock2","","","","<div style=""font-size:60px;""> </div>","null","FL","learning/Slide137.JPG","That was a tob.","","",""
"image-keyboard-response","418","401199","0.0-7.0-0.57","FL","e72zvev590","1536","864","0","1","0","5e6617541d7e1a3885c45e85","","null","","","","","","","learning/Slide138.JPG","null","","","","","",""
"html-keyboard-response","419","402351","0.0-7.0-1.57","FL","e72zvev590","1536","864","0","1","0","5e6617541d7e1a3885c45e85","","null","","","learningBlock2","","","","That was a bim.","null","","","","","",""
"html-keyboard-response","420","403352","0.0-7.0-2.57","FL","e72zvev590","1536","864","0","1","0","5e6617541d7e1a3885c45e85","","null","","","learningBlock2","","","","<div style=""font-size:60px;""> </div>","null","FL","learning/Slide138.JPG","That was a bim.","","",""
"image-keyboard-response","421","403529","0.0-7.0-0.58","FL","e72zvev590","1536","864","0","1","0","5e6617541d7e1a3885c45e85","","null","","","","","","","learning/Slide139.JPG","null","","","","","",""
"html-keyboard-response","422","404683","0.0-7.0-1.58","FL","e72zvev590","1536","864","0","1","0","5e6617541d7e1a3885c45e85","","null","","","learningBlock2","","","","That was a wug.","null","","","","","",""
"html-keyboard-response","423","405685","0.0-7.0-2.58","FL","e72zvev590","1536","864","0","1","0","5e6617541d7e1a3885c45e85","","null","","","learningBlock2","","","","<div style=""font-size:60px;""> </div>","null","FL","learning/Slide139.JPG","That was a wug.","","",""
"image-keyboard-response","424","405862","0.0-7.0-0.59","FL","e72zvev590","1536","864","0","1","0","5e6617541d7e1a3885c45e85","","null","","","","","","","learning/Slide140.JPG","null","","","","","",""
"html-keyboard-response","425","407014","0.0-7.0-1.59","FL","e72zvev590","1536","864","0","1","0","5e6617541d7e1a3885c45e85","","null","","","learningBlock2","","","","That was a dep.","null","","","","","",""
"html-keyboard-response","426","408016","0.0-7.0-2.59","FL","e72zvev590","1536","864","0","1","0","5e6617541d7e1a3885c45e85","","null","","","learningBlock2","","","","<div style=""font-size:60px;""> </div>","null","FL","learning/Slide140.JPG","That was a dep.","","",""
"image-keyboard-response","427","408194","0.0-7.0-0.60","FL","e72zvev590","1536","864","0","1","0","5e6617541d7e1a3885c45e85","","null","","","","","","","learning/Slide141.JPG","null","","","","","",""
"html-keyboard-response","428","409347","0.0-7.0-1.60","FL","e72zvev590","1536","864","0","1","0","5e6617541d7e1a3885c45e85","","null","","","learningBlock2","","","","That was a tob.","null","","","","","",""
"html-keyboard-response","429","410348","0.0-7.0-2.60","FL","e72zvev590","1536","864","0","1","0","5e6617541d7e1a3885c45e85","","null","","","learningBlock2","","","","<div style=""font-size:60px;""> </div>","null","FL","learning/Slide141.JPG","That was a tob.","","",""
"image-keyboard-response","430","410526","0.0-7.0-0.61","FL","e72zvev590","1536","864","0","1","0","5e6617541d7e1a3885c45e85","","null","","","","","","","learning/Slide142.JPG","null","","","","","",""
"html-keyboard-response","431","411679","0.0-7.0-1.61","FL","e72zvev590","1536","864","0","1","0","5e6617541d7e1a3885c45e85","","null","","","learningBlock2","","","","That was a wug.","null","","","","","",""
"html-keyboard-response","432","412681","0.0-7.0-2.61","FL","e72zvev590","1536","864","0","1","0","5e6617541d7e1a3885c45e85","","null","","","learningBlock2","","","","<div style=""font-size:60px;""> </div>","null","FL","learning/Slide142.JPG","That was a wug.","","",""
"image-keyboard-response","433","412857","0.0-7.0-0.62","FL","e72zvev590","1536","864","0","1","0","5e6617541d7e1a3885c45e85","","null","","","","","","","learning/Slide143.JPG","null","","","","","",""
"html-keyboard-response","434","414010","0.0-7.0-1.62","FL","e72zvev590","1536","864","0","1","0","5e6617541d7e1a3885c45e85","","null","","","learningBlock2","","","","That was a bim.","null","","","","","",""
"html-keyboard-response","435","415013","0.0-7.0-2.62","FL","e72zvev590","1536","864","0","1","0","5e6617541d7e1a3885c45e85","","null","","","learningBlock2","","","","<div style=""font-size:60px;""> </div>","null","FL","learning/Slide143.JPG","That was a bim.","","",""
"image-keyboard-response","436","415191","0.0-7.0-0.63","FL","e72zvev590","1536","864","0","1","0","5e6617541d7e1a3885c45e85","","null","","","","","","","learning/Slide144.JPG","null","","","","","",""
