"trial_type","trial_index","time_elapsed","internal_node_id","condition","subject","screen_width","screen_height","attention","distraction","conscientious","prolificID","success","rt","url","view_history","test_part","final_height_px","final_width_px","scale_factor","stimulus","key_press","learningType","presentedImage","presentedLabel","button_pressed","response","responses"
"pavlovia","0","20","0.0-0.0","LF","ssktzegauz","1920","1080","0","1","0","5edba672293f3b028b70eb25","","","","","","","","","","","","","","","",""
"fullscreen","1","3496","0.0-1.0","LF","ssktzegauz","1920","1080","0","1","0","5edba672293f3b028b70eb25","true","","","","","","","","","","","","","","",""
"external-html","2","19050","0.0-2.0-0.0","LF","ssktzegauz","1920","1080","0","1","0","5edba672293f3b028b70eb25","","15466.084999963641","text/information_english.html","","","","","","","","","","","","",""
"external-html","3","25614","0.0-2.0-1.0","LF","ssktzegauz","1920","1080","0","1","0","5edba672293f3b028b70eb25","","6513.710000086576","text/consent_english.html","","","","","","","","","","","","",""
"instructions","4","42271","0.0-3.0","LF","ssktzegauz","1920","1080","0","1","0","5edba672293f3b028b70eb25","","NA","","[{""page_index"":0,""viewing_time"":7344.1749997437},{""page_index"":1,""viewing_time"":9309.379999991506}]","instructions","","","","","","","","","","",""
"resize","5","66133","0.0-4.0","LF","ssktzegauz","1920","1080","0","1","0","5edba672293f3b028b70eb25","","","","","","","320","2.0317460317460316","","","","","","","",""
"html-keyboard-response","6","67148","0.0-5.0-0.0","LF","ssktzegauz","1920","1080","0","1","0","5edba672293f3b028b70eb25","","null","","","learningBlock1","","","","This is a tob:","null","","","","","",""
"image-keyboard-response","7","67487","0.0-5.0-1.0","LF","ssktzegauz","1920","1080","0","1","0","5edba672293f3b028b70eb25","","null","","","","","","","learning/Slide1.JPG","null","","","","","",""
"html-keyboard-response","8","68499","0.0-5.0-2.0","LF","ssktzegauz","1920","1080","0","1","0","5edba672293f3b028b70eb25","","null","","","learningBlock1","","","","<div style=""font-size:60px;""> </div>","null","LF","learning/Slide1.JPG","This is a tob:","","",""
"html-keyboard-response","9","69512","0.0-5.0-0.1","LF","ssktzegauz","1920","1080","0","1","0","5edba672293f3b028b70eb25","","null","","","learningBlock1","","","","This is a wug:","null","","","","","",""
"image-keyboard-response","10","69859","0.0-5.0-1.1","LF","ssktzegauz","1920","1080","0","1","0","5edba672293f3b028b70eb25","","null","","","","","","","learning/Slide2.JPG","null","","","","","",""
"html-keyboard-response","11","70865","0.0-5.0-2.1","LF","ssktzegauz","1920","1080","0","1","0","5edba672293f3b028b70eb25","","null","","","learningBlock1","","","","<div style=""font-size:60px;""> </div>","null","LF","learning/Slide2.JPG","This is a wug:","","",""
"html-keyboard-response","12","71877","0.0-5.0-0.2","LF","ssktzegauz","1920","1080","0","1","0","5edba672293f3b028b70eb25","","null","","","learningBlock1","","","","This is a bim:","null","","","","","",""
"image-keyboard-response","13","72215","0.0-5.0-1.2","LF","ssktzegauz","1920","1080","0","1","0","5edba672293f3b028b70eb25","","null","","","","","","","learning/Slide3.JPG","null","","","","","",""
"html-keyboard-response","14","73217","0.0-5.0-2.2","LF","ssktzegauz","1920","1080","0","1","0","5edba672293f3b028b70eb25","","null","","","learningBlock1","","","","<div style=""font-size:60px;""> </div>","null","LF","learning/Slide3.JPG","This is a bim:","","",""
"html-keyboard-response","15","74219","0.0-5.0-0.3","LF","ssktzegauz","1920","1080","0","1","0","5edba672293f3b028b70eb25","","null","","","learningBlock1","","","","This is a dep:","null","","","","","",""
"image-keyboard-response","16","74572","0.0-5.0-1.3","LF","ssktzegauz","1920","1080","0","1","0","5edba672293f3b028b70eb25","","null","","","","","","","learning/Slide4.JPG","null","","","","","",""
"html-keyboard-response","17","75579","0.0-5.0-2.3","LF","ssktzegauz","1920","1080","0","1","0","5edba672293f3b028b70eb25","","null","","","learningBlock1","","","","<div style=""font-size:60px;""> </div>","null","LF","learning/Slide4.JPG","This is a dep:","","",""
"html-keyboard-response","18","76594","0.0-5.0-0.4","LF","ssktzegauz","1920","1080","0","1","0","5edba672293f3b028b70eb25","","null","","","learningBlock1","","","","This is a wug:","null","","","","","",""
"image-keyboard-response","19","76942","0.0-5.0-1.4","LF","ssktzegauz","1920","1080","0","1","0","5edba672293f3b028b70eb25","","null","","","","","","","learning/Slide5.JPG","null","","","","","",""
"html-keyboard-response","20","77943","0.0-5.0-2.4","LF","ssktzegauz","1920","1080","0","1","0","5edba672293f3b028b70eb25","","null","","","learningBlock1","","","","<div style=""font-size:60px;""> </div>","null","LF","learning/Slide5.JPG","This is a wug:","","",""
"html-keyboard-response","21","78955","0.0-5.0-0.5","LF","ssktzegauz","1920","1080","0","1","0","5edba672293f3b028b70eb25","","null","","","learningBlock1","","","","This is a dep:","null","","","","","",""
"image-keyboard-response","22","79294","0.0-5.0-1.5","LF","ssktzegauz","1920","1080","0","1","0","5edba672293f3b028b70eb25","","null","","","","","","","learning/Slide6.JPG","null","","","","","",""
"html-keyboard-response","23","80308","0.0-5.0-2.5","LF","ssktzegauz","1920","1080","0","1","0","5edba672293f3b028b70eb25","","null","","","learningBlock1","","","","<div style=""font-size:60px;""> </div>","null","LF","learning/Slide6.JPG","This is a dep:","","",""
"html-keyboard-response","24","81310","0.0-5.0-0.6","LF","ssktzegauz","1920","1080","0","1","0","5edba672293f3b028b70eb25","","null","","","learningBlock1","","","","This is a wug:","null","","","","","",""
"image-keyboard-response","25","81654","0.0-5.0-1.6","LF","ssktzegauz","1920","1080","0","1","0","5edba672293f3b028b70eb25","","null","","","","","","","learning/Slide7.JPG","null","","","","","",""
"html-keyboard-response","26","82658","0.0-5.0-2.6","LF","ssktzegauz","1920","1080","0","1","0","5edba672293f3b028b70eb25","","null","","","learningBlock1","","","","<div style=""font-size:60px;""> </div>","null","LF","learning/Slide7.JPG","This is a wug:","","",""
"html-keyboard-response","27","83660","0.0-5.0-0.7","LF","ssktzegauz","1920","1080","0","1","0","5edba672293f3b028b70eb25","","null","","","learningBlock1","","","","This is a bim:","null","","","","","",""
"image-keyboard-response","28","83996","0.0-5.0-1.7","LF","ssktzegauz","1920","1080","0","1","0","5edba672293f3b028b70eb25","","null","","","","","","","learning/Slide8.JPG","null","","","","","",""
"html-keyboard-response","29","85010","0.0-5.0-2.7","LF","ssktzegauz","1920","1080","0","1","0","5edba672293f3b028b70eb25","","null","","","learningBlock1","","","","<div style=""font-size:60px;""> </div>","null","LF","learning/Slide8.JPG","This is a bim:","","",""
"html-keyboard-response","30","86026","0.0-5.0-0.8","LF","ssktzegauz","1920","1080","0","1","0","5edba672293f3b028b70eb25","","null","","","learningBlock1","","","","This is a wug:","null","","","","","",""
"image-keyboard-response","31","86370","0.0-5.0-1.8","LF","ssktzegauz","1920","1080","0","1","0","5edba672293f3b028b70eb25","","null","","","","","","","learning/Slide9.JPG","null","","","","","",""
"html-keyboard-response","32","87377","0.0-5.0-2.8","LF","ssktzegauz","1920","1080","0","1","0","5edba672293f3b028b70eb25","","null","","","learningBlock1","","","","<div style=""font-size:60px;""> </div>","null","LF","learning/Slide9.JPG","This is a wug:","","",""
"html-keyboard-response","33","88394","0.0-5.0-0.9","LF","ssktzegauz","1920","1080","0","1","0","5edba672293f3b028b70eb25","","null","","","learningBlock1","","","","This is a dep:","null","","","","","",""
"image-keyboard-response","34","88744","0.0-5.0-1.9","LF","ssktzegauz","1920","1080","0","1","0","5edba672293f3b028b70eb25","","null","","","","","","","learning/Slide10.JPG","null","","","","","",""
"html-keyboard-response","35","89761","0.0-5.0-2.9","LF","ssktzegauz","1920","1080","0","1","0","5edba672293f3b028b70eb25","","null","","","learningBlock1","","","","<div style=""font-size:60px;""> </div>","null","LF","learning/Slide10.JPG","This is a dep:","","",""
"html-keyboard-response","36","90771","0.0-5.0-0.10","LF","ssktzegauz","1920","1080","0","1","0","5edba672293f3b028b70eb25","","null","","","learningBlock1","","","","This is a tob:","null","","","","","",""
"image-keyboard-response","37","91107","0.0-5.0-1.10","LF","ssktzegauz","1920","1080","0","1","0","5edba672293f3b028b70eb25","","null","","","","","","","learning/Slide11.JPG","null","","","","","",""
"html-keyboard-response","38","92115","0.0-5.0-2.10","LF","ssktzegauz","1920","1080","0","1","0","5edba672293f3b028b70eb25","","null","","","learningBlock1","","","","<div style=""font-size:60px;""> </div>","null","LF","learning/Slide11.JPG","This is a tob:","","",""
"html-keyboard-response","39","93118","0.0-5.0-0.11","LF","ssktzegauz","1920","1080","0","1","0","5edba672293f3b028b70eb25","","null","","","learningBlock1","","","","This is a dep:","null","","","","","",""
"image-keyboard-response","40","93472","0.0-5.0-1.11","LF","ssktzegauz","1920","1080","0","1","0","5edba672293f3b028b70eb25","","null","","","","","","","learning/Slide12.JPG","null","","","","","",""
"html-keyboard-response","41","94479","0.0-5.0-2.11","LF","ssktzegauz","1920","1080","0","1","0","5edba672293f3b028b70eb25","","null","","","learningBlock1","","","","<div style=""font-size:60px;""> </div>","null","LF","learning/Slide12.JPG","This is a dep:","","",""
"html-keyboard-response","42","95486","0.0-5.0-0.12","LF","ssktzegauz","1920","1080","0","1","0","5edba672293f3b028b70eb25","","null","","","learningBlock1","","","","This is a bim:","null","","","","","",""
"image-keyboard-response","43","95829","0.0-5.0-1.12","LF","ssktzegauz","1920","1080","0","1","0","5edba672293f3b028b70eb25","","null","","","","","","","learning/Slide13.JPG","null","","","","","",""
"html-keyboard-response","44","96843","0.0-5.0-2.12","LF","ssktzegauz","1920","1080","0","1","0","5edba672293f3b028b70eb25","","null","","","learningBlock1","","","","<div style=""font-size:60px;""> </div>","null","LF","learning/Slide13.JPG","This is a bim:","","",""
"html-keyboard-response","45","97847","0.0-5.0-0.13","LF","ssktzegauz","1920","1080","0","1","0","5edba672293f3b028b70eb25","","null","","","learningBlock1","","","","This is a wug:","null","","","","","",""
"image-keyboard-response","46","98202","0.0-5.0-1.13","LF","ssktzegauz","1920","1080","0","1","0","5edba672293f3b028b70eb25","","null","","","","","","","learning/Slide14.JPG","null","","","","","",""
"html-keyboard-response","47","99213","0.0-5.0-2.13","LF","ssktzegauz","1920","1080","0","1","0","5edba672293f3b028b70eb25","","null","","","learningBlock1","","","","<div style=""font-size:60px;""> </div>","null","LF","learning/Slide14.JPG","This is a wug:","","",""
"html-keyboard-response","48","100223","0.0-5.0-0.14","LF","ssktzegauz","1920","1080","0","1","0","5edba672293f3b028b70eb25","","null","","","learningBlock1","","","","This is a tob:","null","","","","","",""
"image-keyboard-response","49","100566","0.0-5.0-1.14","LF","ssktzegauz","1920","1080","0","1","0","5edba672293f3b028b70eb25","","null","","","","","","","learning/Slide15.JPG","null","","","","","",""
"html-keyboard-response","50","101584","0.0-5.0-2.14","LF","ssktzegauz","1920","1080","0","1","0","5edba672293f3b028b70eb25","","null","","","learningBlock1","","","","<div style=""font-size:60px;""> </div>","null","LF","learning/Slide15.JPG","This is a tob:","","",""
"html-keyboard-response","51","102602","0.0-5.0-0.15","LF","ssktzegauz","1920","1080","0","1","0","5edba672293f3b028b70eb25","","null","","","learningBlock1","","","","This is a dep:","null","","","","","",""
"image-keyboard-response","52","102951","0.0-5.0-1.15","LF","ssktzegauz","1920","1080","0","1","0","5edba672293f3b028b70eb25","","null","","","","","","","learning/Slide16.JPG","null","","","","","",""
"html-keyboard-response","53","103960","0.0-5.0-2.15","LF","ssktzegauz","1920","1080","0","1","0","5edba672293f3b028b70eb25","","null","","","learningBlock1","","","","<div style=""font-size:60px;""> </div>","null","LF","learning/Slide16.JPG","This is a dep:","","",""
"html-keyboard-response","54","104962","0.0-5.0-0.16","LF","ssktzegauz","1920","1080","0","1","0","5edba672293f3b028b70eb25","","null","","","learningBlock1","","","","This is a bim:","null","","","","","",""
"image-keyboard-response","55","105309","0.0-5.0-1.16","LF","ssktzegauz","1920","1080","0","1","0","5edba672293f3b028b70eb25","","null","","","","","","","learning/Slide17.JPG","null","","","","","",""
"html-keyboard-response","56","106316","0.0-5.0-2.16","LF","ssktzegauz","1920","1080","0","1","0","5edba672293f3b028b70eb25","","null","","","learningBlock1","","","","<div style=""font-size:60px;""> </div>","null","LF","learning/Slide17.JPG","This is a bim:","","",""
"html-keyboard-response","57","107323","0.0-5.0-0.17","LF","ssktzegauz","1920","1080","0","1","0","5edba672293f3b028b70eb25","","null","","","learningBlock1","","","","This is a tob:","null","","","","","",""
"image-keyboard-response","58","107671","0.0-5.0-1.17","LF","ssktzegauz","1920","1080","0","1","0","5edba672293f3b028b70eb25","","null","","","","","","","learning/Slide18.JPG","null","","","","","",""
"html-keyboard-response","59","108674","0.0-5.0-2.17","LF","ssktzegauz","1920","1080","0","1","0","5edba672293f3b028b70eb25","","null","","","learningBlock1","","","","<div style=""font-size:60px;""> </div>","null","LF","learning/Slide18.JPG","This is a tob:","","",""
"html-keyboard-response","60","109690","0.0-5.0-0.18","LF","ssktzegauz","1920","1080","0","1","0","5edba672293f3b028b70eb25","","null","","","learningBlock1","","","","This is a wug:","null","","","","","",""
"image-keyboard-response","61","110027","0.0-5.0-1.18","LF","ssktzegauz","1920","1080","0","1","0","5edba672293f3b028b70eb25","","null","","","","","","","learning/Slide19.JPG","null","","","","","",""
"html-keyboard-response","62","111038","0.0-5.0-2.18","LF","ssktzegauz","1920","1080","0","1","0","5edba672293f3b028b70eb25","","null","","","learningBlock1","","","","<div style=""font-size:60px;""> </div>","null","LF","learning/Slide19.JPG","This is a wug:","","",""
"html-keyboard-response","63","112042","0.0-5.0-0.19","LF","ssktzegauz","1920","1080","0","1","0","5edba672293f3b028b70eb25","","null","","","learningBlock1","","","","This is a bim:","null","","","","","",""
"image-keyboard-response","64","112393","0.0-5.0-1.19","LF","ssktzegauz","1920","1080","0","1","0","5edba672293f3b028b70eb25","","null","","","","","","","learning/Slide20.JPG","null","","","","","",""
"html-keyboard-response","65","113397","0.0-5.0-2.19","LF","ssktzegauz","1920","1080","0","1","0","5edba672293f3b028b70eb25","","null","","","learningBlock1","","","","<div style=""font-size:60px;""> </div>","null","LF","learning/Slide20.JPG","This is a bim:","","",""
"html-keyboard-response","66","114399","0.0-5.0-0.20","LF","ssktzegauz","1920","1080","0","1","0","5edba672293f3b028b70eb25","","null","","","learningBlock1","","","","This is a dep:","null","","","","","",""
"image-keyboard-response","67","114745","0.0-5.0-1.20","LF","ssktzegauz","1920","1080","0","1","0","5edba672293f3b028b70eb25","","null","","","","","","","learning/Slide21.JPG","null","","","","","",""
"html-keyboard-response","68","115760","0.0-5.0-2.20","LF","ssktzegauz","1920","1080","0","1","0","5edba672293f3b028b70eb25","","null","","","learningBlock1","","","","<div style=""font-size:60px;""> </div>","null","LF","learning/Slide21.JPG","This is a dep:","","",""
"html-keyboard-response","69","116768","0.0-5.0-0.21","LF","ssktzegauz","1920","1080","0","1","0","5edba672293f3b028b70eb25","","null","","","learningBlock1","","","","This is a bim:","null","","","","","",""
"image-keyboard-response","70","117114","0.0-5.0-1.21","LF","ssktzegauz","1920","1080","0","1","0","5edba672293f3b028b70eb25","","null","","","","","","","learning/Slide22.JPG","null","","","","","",""
"html-keyboard-response","71","118133","0.0-5.0-2.21","LF","ssktzegauz","1920","1080","0","1","0","5edba672293f3b028b70eb25","","null","","","learningBlock1","","","","<div style=""font-size:60px;""> </div>","null","LF","learning/Slide22.JPG","This is a bim:","","",""
"html-keyboard-response","72","119137","0.0-5.0-0.22","LF","ssktzegauz","1920","1080","0","1","0","5edba672293f3b028b70eb25","","null","","","learningBlock1","","","","This is a tob:","null","","","","","",""
"image-keyboard-response","73","119482","0.0-5.0-1.22","LF","ssktzegauz","1920","1080","0","1","0","5edba672293f3b028b70eb25","","null","","","","","","","learning/Slide23.JPG","null","","","","","",""
"html-keyboard-response","74","120486","0.0-5.0-2.22","LF","ssktzegauz","1920","1080","0","1","0","5edba672293f3b028b70eb25","","null","","","learningBlock1","","","","<div style=""font-size:60px;""> </div>","null","LF","learning/Slide23.JPG","This is a tob:","","",""
"html-keyboard-response","75","121500","0.0-5.0-0.23","LF","ssktzegauz","1920","1080","0","1","0","5edba672293f3b028b70eb25","","null","","","learningBlock1","","","","This is a wug:","null","","","","","",""
"image-keyboard-response","76","121838","0.0-5.0-1.23","LF","ssktzegauz","1920","1080","0","1","0","5edba672293f3b028b70eb25","","null","","","","","","","learning/Slide24.JPG","null","","","","","",""
"html-keyboard-response","77","122854","0.0-5.0-2.23","LF","ssktzegauz","1920","1080","0","1","0","5edba672293f3b028b70eb25","","null","","","learningBlock1","","","","<div style=""font-size:60px;""> </div>","null","LF","learning/Slide24.JPG","This is a wug:","","",""
"html-keyboard-response","78","123859","0.0-5.0-0.24","LF","ssktzegauz","1920","1080","0","1","0","5edba672293f3b028b70eb25","","null","","","learningBlock1","","","","This is a dep:","null","","","","","",""
"image-keyboard-response","79","124196","0.0-5.0-1.24","LF","ssktzegauz","1920","1080","0","1","0","5edba672293f3b028b70eb25","","null","","","","","","","learning/Slide25.JPG","null","","","","","",""
"html-keyboard-response","80","125198","0.0-5.0-2.24","LF","ssktzegauz","1920","1080","0","1","0","5edba672293f3b028b70eb25","","null","","","learningBlock1","","","","<div style=""font-size:60px;""> </div>","null","LF","learning/Slide25.JPG","This is a dep:","","",""
"html-keyboard-response","81","126215","0.0-5.0-0.25","LF","ssktzegauz","1920","1080","0","1","0","5edba672293f3b028b70eb25","","null","","","learningBlock1","","","","This is a wug:","null","","","","","",""
"image-keyboard-response","82","126570","0.0-5.0-1.25","LF","ssktzegauz","1920","1080","0","1","0","5edba672293f3b028b70eb25","","null","","","","","","","learning/Slide26.JPG","null","","","","","",""
"html-keyboard-response","83","127573","0.0-5.0-2.25","LF","ssktzegauz","1920","1080","0","1","0","5edba672293f3b028b70eb25","","null","","","learningBlock1","","","","<div style=""font-size:60px;""> </div>","null","LF","learning/Slide26.JPG","This is a wug:","","",""
"html-keyboard-response","84","128585","0.0-5.0-0.26","LF","ssktzegauz","1920","1080","0","1","0","5edba672293f3b028b70eb25","","null","","","learningBlock1","","","","This is a bim:","null","","","","","",""
"image-keyboard-response","85","128918","0.0-5.0-1.26","LF","ssktzegauz","1920","1080","0","1","0","5edba672293f3b028b70eb25","","null","","","","","","","learning/Slide27.JPG","null","","","","","",""
"html-keyboard-response","86","129924","0.0-5.0-2.26","LF","ssktzegauz","1920","1080","0","1","0","5edba672293f3b028b70eb25","","null","","","learningBlock1","","","","<div style=""font-size:60px;""> </div>","null","LF","learning/Slide27.JPG","This is a bim:","","",""
"html-keyboard-response","87","130938","0.0-5.0-0.27","LF","ssktzegauz","1920","1080","0","1","0","5edba672293f3b028b70eb25","","null","","","learningBlock1","","","","This is a dep:","null","","","","","",""
"image-keyboard-response","88","131279","0.0-5.0-1.27","LF","ssktzegauz","1920","1080","0","1","0","5edba672293f3b028b70eb25","","null","","","","","","","learning/Slide28.JPG","null","","","","","",""
"html-keyboard-response","89","132294","0.0-5.0-2.27","LF","ssktzegauz","1920","1080","0","1","0","5edba672293f3b028b70eb25","","null","","","learningBlock1","","","","<div style=""font-size:60px;""> </div>","null","LF","learning/Slide28.JPG","This is a dep:","","",""
"html-keyboard-response","90","133296","0.0-5.0-0.28","LF","ssktzegauz","1920","1080","0","1","0","5edba672293f3b028b70eb25","","null","","","learningBlock1","","","","This is a tob:","null","","","","","",""
"image-keyboard-response","91","133640","0.0-5.0-1.28","LF","ssktzegauz","1920","1080","0","1","0","5edba672293f3b028b70eb25","","null","","","","","","","learning/Slide29.JPG","null","","","","","",""
"html-keyboard-response","92","134647","0.0-5.0-2.28","LF","ssktzegauz","1920","1080","0","1","0","5edba672293f3b028b70eb25","","null","","","learningBlock1","","","","<div style=""font-size:60px;""> </div>","null","LF","learning/Slide29.JPG","This is a tob:","","",""
"html-keyboard-response","93","135660","0.0-5.0-0.29","LF","ssktzegauz","1920","1080","0","1","0","5edba672293f3b028b70eb25","","null","","","learningBlock1","","","","This is a dep:","null","","","","","",""
"image-keyboard-response","94","136008","0.0-5.0-1.29","LF","ssktzegauz","1920","1080","0","1","0","5edba672293f3b028b70eb25","","null","","","","","","","learning/Slide30.JPG","null","","","","","",""
"html-keyboard-response","95","137013","0.0-5.0-2.29","LF","ssktzegauz","1920","1080","0","1","0","5edba672293f3b028b70eb25","","null","","","learningBlock1","","","","<div style=""font-size:60px;""> </div>","null","LF","learning/Slide30.JPG","This is a dep:","","",""
"html-keyboard-response","96","138029","0.0-5.0-0.30","LF","ssktzegauz","1920","1080","0","1","0","5edba672293f3b028b70eb25","","null","","","learningBlock1","","","","This is a wug:","null","","","","","",""
"image-keyboard-response","97","138368","0.0-5.0-1.30","LF","ssktzegauz","1920","1080","0","1","0","5edba672293f3b028b70eb25","","null","","","","","","","learning/Slide31.JPG","null","","","","","",""
"html-keyboard-response","98","139387","0.0-5.0-2.30","LF","ssktzegauz","1920","1080","0","1","0","5edba672293f3b028b70eb25","","null","","","learningBlock1","","","","<div style=""font-size:60px;""> </div>","null","LF","learning/Slide31.JPG","This is a wug:","","",""
"html-keyboard-response","99","140395","0.0-5.0-0.31","LF","ssktzegauz","1920","1080","0","1","0","5edba672293f3b028b70eb25","","null","","","learningBlock1","","","","This is a tob:","null","","","","","",""
"image-keyboard-response","100","140743","0.0-5.0-1.31","LF","ssktzegauz","1920","1080","0","1","0","5edba672293f3b028b70eb25","","null","","","","","","","learning/Slide32.JPG","null","","","","","",""
"html-keyboard-response","101","141753","0.0-5.0-2.31","LF","ssktzegauz","1920","1080","0","1","0","5edba672293f3b028b70eb25","","null","","","learningBlock1","","","","<div style=""font-size:60px;""> </div>","null","LF","learning/Slide32.JPG","This is a tob:","","",""
"html-keyboard-response","102","142764","0.0-5.0-0.32","LF","ssktzegauz","1920","1080","0","1","0","5edba672293f3b028b70eb25","","null","","","learningBlock1","","","","This is a bim:","null","","","","","",""
"image-keyboard-response","103","143103","0.0-5.0-1.32","LF","ssktzegauz","1920","1080","0","1","0","5edba672293f3b028b70eb25","","null","","","","","","","learning/Slide33.JPG","null","","","","","",""
"html-keyboard-response","104","144116","0.0-5.0-2.32","LF","ssktzegauz","1920","1080","0","1","0","5edba672293f3b028b70eb25","","null","","","learningBlock1","","","","<div style=""font-size:60px;""> </div>","null","LF","learning/Slide33.JPG","This is a bim:","","",""
"html-keyboard-response","105","145132","0.0-5.0-0.33","LF","ssktzegauz","1920","1080","0","1","0","5edba672293f3b028b70eb25","","null","","","learningBlock1","","","","This is a tob:","null","","","","","",""
"image-keyboard-response","106","145472","0.0-5.0-1.33","LF","ssktzegauz","1920","1080","0","1","0","5edba672293f3b028b70eb25","","null","","","","","","","learning/Slide34.JPG","null","","","","","",""
"html-keyboard-response","107","146484","0.0-5.0-2.33","LF","ssktzegauz","1920","1080","0","1","0","5edba672293f3b028b70eb25","","null","","","learningBlock1","","","","<div style=""font-size:60px;""> </div>","null","LF","learning/Slide34.JPG","This is a tob:","","",""
"html-keyboard-response","108","147499","0.0-5.0-0.34","LF","ssktzegauz","1920","1080","0","1","0","5edba672293f3b028b70eb25","","null","","","learningBlock1","","","","This is a bim:","null","","","","","",""
"image-keyboard-response","109","147839","0.0-5.0-1.34","LF","ssktzegauz","1920","1080","0","1","0","5edba672293f3b028b70eb25","","null","","","","","","","learning/Slide35.JPG","null","","","","","",""
"html-keyboard-response","110","148841","0.0-5.0-2.34","LF","ssktzegauz","1920","1080","0","1","0","5edba672293f3b028b70eb25","","null","","","learningBlock1","","","","<div style=""font-size:60px;""> </div>","null","LF","learning/Slide35.JPG","This is a bim:","","",""
"html-keyboard-response","111","149843","0.0-5.0-0.35","LF","ssktzegauz","1920","1080","0","1","0","5edba672293f3b028b70eb25","","null","","","learningBlock1","","","","This is a dep:","null","","","","","",""
"image-keyboard-response","112","150203","0.0-5.0-1.35","LF","ssktzegauz","1920","1080","0","1","0","5edba672293f3b028b70eb25","","null","","","","","","","learning/Slide36.JPG","null","","","","","",""
"html-keyboard-response","113","151211","0.0-5.0-2.35","LF","ssktzegauz","1920","1080","0","1","0","5edba672293f3b028b70eb25","","null","","","learningBlock1","","","","<div style=""font-size:60px;""> </div>","null","LF","learning/Slide36.JPG","This is a dep:","","",""
"html-keyboard-response","114","152227","0.0-5.0-0.36","LF","ssktzegauz","1920","1080","0","1","0","5edba672293f3b028b70eb25","","null","","","learningBlock1","","","","This is a tob:","null","","","","","",""
"image-keyboard-response","115","152575","0.0-5.0-1.36","LF","ssktzegauz","1920","1080","0","1","0","5edba672293f3b028b70eb25","","null","","","","","","","learning/Slide37.JPG","null","","","","","",""
"html-keyboard-response","116","153577","0.0-5.0-2.36","LF","ssktzegauz","1920","1080","0","1","0","5edba672293f3b028b70eb25","","null","","","learningBlock1","","","","<div style=""font-size:60px;""> </div>","null","LF","learning/Slide37.JPG","This is a tob:","","",""
"html-keyboard-response","117","154597","0.0-5.0-0.37","LF","ssktzegauz","1920","1080","0","1","0","5edba672293f3b028b70eb25","","null","","","learningBlock1","","","","This is a wug:","null","","","","","",""
"image-keyboard-response","118","154928","0.0-5.0-1.37","LF","ssktzegauz","1920","1080","0","1","0","5edba672293f3b028b70eb25","","null","","","","","","","learning/Slide38.JPG","null","","","","","",""
"html-keyboard-response","119","155935","0.0-5.0-2.37","LF","ssktzegauz","1920","1080","0","1","0","5edba672293f3b028b70eb25","","null","","","learningBlock1","","","","<div style=""font-size:60px;""> </div>","null","LF","learning/Slide38.JPG","This is a wug:","","",""
"html-keyboard-response","120","156941","0.0-5.0-0.38","LF","ssktzegauz","1920","1080","0","1","0","5edba672293f3b028b70eb25","","null","","","learningBlock1","","","","This is a bim:","null","","","","","",""
"image-keyboard-response","121","157284","0.0-5.0-1.38","LF","ssktzegauz","1920","1080","0","1","0","5edba672293f3b028b70eb25","","null","","","","","","","learning/Slide39.JPG","null","","","","","",""
"html-keyboard-response","122","158288","0.0-5.0-2.38","LF","ssktzegauz","1920","1080","0","1","0","5edba672293f3b028b70eb25","","null","","","learningBlock1","","","","<div style=""font-size:60px;""> </div>","null","LF","learning/Slide39.JPG","This is a bim:","","",""
"html-keyboard-response","123","159301","0.0-5.0-0.39","LF","ssktzegauz","1920","1080","0","1","0","5edba672293f3b028b70eb25","","null","","","learningBlock1","","","","This is a tob:","null","","","","","",""
"image-keyboard-response","124","159649","0.0-5.0-1.39","LF","ssktzegauz","1920","1080","0","1","0","5edba672293f3b028b70eb25","","null","","","","","","","learning/Slide40.JPG","null","","","","","",""
"html-keyboard-response","125","160664","0.0-5.0-2.39","LF","ssktzegauz","1920","1080","0","1","0","5edba672293f3b028b70eb25","","null","","","learningBlock1","","","","<div style=""font-size:60px;""> </div>","null","LF","learning/Slide40.JPG","This is a tob:","","",""
"html-keyboard-response","126","161667","0.0-5.0-0.40","LF","ssktzegauz","1920","1080","0","1","0","5edba672293f3b028b70eb25","","null","","","learningBlock1","","","","This is a bim:","null","","","","","",""
"image-keyboard-response","127","162020","0.0-5.0-1.40","LF","ssktzegauz","1920","1080","0","1","0","5edba672293f3b028b70eb25","","null","","","","","","","learning/Slide41.JPG","null","","","","","",""
"html-keyboard-response","128","163042","0.0-5.0-2.40","LF","ssktzegauz","1920","1080","0","1","0","5edba672293f3b028b70eb25","","null","","","learningBlock1","","","","<div style=""font-size:60px;""> </div>","null","LF","learning/Slide41.JPG","This is a bim:","","",""
"html-keyboard-response","129","164047","0.0-5.0-0.41","LF","ssktzegauz","1920","1080","0","1","0","5edba672293f3b028b70eb25","","null","","","learningBlock1","","","","This is a dep:","null","","","","","",""
"image-keyboard-response","130","164395","0.0-5.0-1.41","LF","ssktzegauz","1920","1080","0","1","0","5edba672293f3b028b70eb25","","null","","","","","","","learning/Slide42.JPG","null","","","","","",""
"html-keyboard-response","131","165408","0.0-5.0-2.41","LF","ssktzegauz","1920","1080","0","1","0","5edba672293f3b028b70eb25","","null","","","learningBlock1","","","","<div style=""font-size:60px;""> </div>","null","LF","learning/Slide42.JPG","This is a dep:","","",""
"html-keyboard-response","132","166410","0.0-5.0-0.42","LF","ssktzegauz","1920","1080","0","1","0","5edba672293f3b028b70eb25","","null","","","learningBlock1","","","","This is a wug:","null","","","","","",""
"image-keyboard-response","133","166760","0.0-5.0-1.42","LF","ssktzegauz","1920","1080","0","1","0","5edba672293f3b028b70eb25","","null","","","","","","","learning/Slide43.JPG","null","","","","","",""
"html-keyboard-response","134","167775","0.0-5.0-2.42","LF","ssktzegauz","1920","1080","0","1","0","5edba672293f3b028b70eb25","","null","","","learningBlock1","","","","<div style=""font-size:60px;""> </div>","null","LF","learning/Slide43.JPG","This is a wug:","","",""
"html-keyboard-response","135","168778","0.0-5.0-0.43","LF","ssktzegauz","1920","1080","0","1","0","5edba672293f3b028b70eb25","","null","","","learningBlock1","","","","This is a bim:","null","","","","","",""
"image-keyboard-response","136","169125","0.0-5.0-1.43","LF","ssktzegauz","1920","1080","0","1","0","5edba672293f3b028b70eb25","","null","","","","","","","learning/Slide44.JPG","null","","","","","",""
"html-keyboard-response","137","170137","0.0-5.0-2.43","LF","ssktzegauz","1920","1080","0","1","0","5edba672293f3b028b70eb25","","null","","","learningBlock1","","","","<div style=""font-size:60px;""> </div>","null","LF","learning/Slide44.JPG","This is a bim:","","",""
"html-keyboard-response","138","171149","0.0-5.0-0.44","LF","ssktzegauz","1920","1080","0","1","0","5edba672293f3b028b70eb25","","null","","","learningBlock1","","","","This is a wug:","null","","","","","",""
"image-keyboard-response","139","171503","0.0-5.0-1.44","LF","ssktzegauz","1920","1080","0","1","0","5edba672293f3b028b70eb25","","null","","","","","","","learning/Slide45.JPG","null","","","","","",""
"html-keyboard-response","140","172513","0.0-5.0-2.44","LF","ssktzegauz","1920","1080","0","1","0","5edba672293f3b028b70eb25","","null","","","learningBlock1","","","","<div style=""font-size:60px;""> </div>","null","LF","learning/Slide45.JPG","This is a wug:","","",""
"html-keyboard-response","141","173515","0.0-5.0-0.45","LF","ssktzegauz","1920","1080","0","1","0","5edba672293f3b028b70eb25","","null","","","learningBlock1","","","","This is a dep:","null","","","","","",""
"image-keyboard-response","142","173855","0.0-5.0-1.45","LF","ssktzegauz","1920","1080","0","1","0","5edba672293f3b028b70eb25","","null","","","","","","","learning/Slide46.JPG","null","","","","","",""
"html-keyboard-response","143","174857","0.0-5.0-2.45","LF","ssktzegauz","1920","1080","0","1","0","5edba672293f3b028b70eb25","","null","","","learningBlock1","","","","<div style=""font-size:60px;""> </div>","null","LF","learning/Slide46.JPG","This is a dep:","","",""
"html-keyboard-response","144","175863","0.0-5.0-0.46","LF","ssktzegauz","1920","1080","0","1","0","5edba672293f3b028b70eb25","","null","","","learningBlock1","","","","This is a tob:","null","","","","","",""
"image-keyboard-response","145","176206","0.0-5.0-1.46","LF","ssktzegauz","1920","1080","0","1","0","5edba672293f3b028b70eb25","","null","","","","","","","learning/Slide47.JPG","null","","","","","",""
"html-keyboard-response","146","177214","0.0-5.0-2.46","LF","ssktzegauz","1920","1080","0","1","0","5edba672293f3b028b70eb25","","null","","","learningBlock1","","","","<div style=""font-size:60px;""> </div>","null","LF","learning/Slide47.JPG","This is a tob:","","",""
"html-keyboard-response","147","178231","0.0-5.0-0.47","LF","ssktzegauz","1920","1080","0","1","0","5edba672293f3b028b70eb25","","null","","","learningBlock1","","","","This is a bim:","null","","","","","",""
"image-keyboard-response","148","178572","0.0-5.0-1.47","LF","ssktzegauz","1920","1080","0","1","0","5edba672293f3b028b70eb25","","null","","","","","","","learning/Slide48.JPG","null","","","","","",""
"html-keyboard-response","149","179581","0.0-5.0-2.47","LF","ssktzegauz","1920","1080","0","1","0","5edba672293f3b028b70eb25","","null","","","learningBlock1","","","","<div style=""font-size:60px;""> </div>","null","LF","learning/Slide48.JPG","This is a bim:","","",""
"html-keyboard-response","150","180587","0.0-5.0-0.48","LF","ssktzegauz","1920","1080","0","1","0","5edba672293f3b028b70eb25","","null","","","learningBlock1","","","","This is a dep:","null","","","","","",""
"image-keyboard-response","151","180938","0.0-5.0-1.48","LF","ssktzegauz","1920","1080","0","1","0","5edba672293f3b028b70eb25","","null","","","","","","","learning/Slide49.JPG","null","","","","","",""
"html-keyboard-response","152","181948","0.0-5.0-2.48","LF","ssktzegauz","1920","1080","0","1","0","5edba672293f3b028b70eb25","","null","","","learningBlock1","","","","<div style=""font-size:60px;""> </div>","null","LF","learning/Slide49.JPG","This is a dep:","","",""
"html-keyboard-response","153","182952","0.0-5.0-0.49","LF","ssktzegauz","1920","1080","0","1","0","5edba672293f3b028b70eb25","","null","","","learningBlock1","","","","This is a tob:","null","","","","","",""
"image-keyboard-response","154","183305","0.0-5.0-1.49","LF","ssktzegauz","1920","1080","0","1","0","5edba672293f3b028b70eb25","","null","","","","","","","learning/Slide50.JPG","null","","","","","",""
"html-keyboard-response","155","184310","0.0-5.0-2.49","LF","ssktzegauz","1920","1080","0","1","0","5edba672293f3b028b70eb25","","null","","","learningBlock1","","","","<div style=""font-size:60px;""> </div>","null","LF","learning/Slide50.JPG","This is a tob:","","",""
"html-keyboard-response","156","185326","0.0-5.0-0.50","LF","ssktzegauz","1920","1080","0","1","0","5edba672293f3b028b70eb25","","null","","","learningBlock1","","","","This is a bim:","null","","","","","",""
"image-keyboard-response","157","185658","0.0-5.0-1.50","LF","ssktzegauz","1920","1080","0","1","0","5edba672293f3b028b70eb25","","null","","","","","","","learning/Slide51.JPG","null","","","","","",""
"html-keyboard-response","158","186667","0.0-5.0-2.50","LF","ssktzegauz","1920","1080","0","1","0","5edba672293f3b028b70eb25","","null","","","learningBlock1","","","","<div style=""font-size:60px;""> </div>","null","LF","learning/Slide51.JPG","This is a bim:","","",""
"html-keyboard-response","159","187670","0.0-5.0-0.51","LF","ssktzegauz","1920","1080","0","1","0","5edba672293f3b028b70eb25","","null","","","learningBlock1","","","","This is a wug:","null","","","","","",""
"image-keyboard-response","160","188008","0.0-5.0-1.51","LF","ssktzegauz","1920","1080","0","1","0","5edba672293f3b028b70eb25","","null","","","","","","","learning/Slide52.JPG","null","","","","","",""
"html-keyboard-response","161","189012","0.0-5.0-2.51","LF","ssktzegauz","1920","1080","0","1","0","5edba672293f3b028b70eb25","","null","","","learningBlock1","","","","<div style=""font-size:60px;""> </div>","null","LF","learning/Slide52.JPG","This is a wug:","","",""
"html-keyboard-response","162","190028","0.0-5.0-0.52","LF","ssktzegauz","1920","1080","0","1","0","5edba672293f3b028b70eb25","","null","","","learningBlock1","","","","This is a tob:","null","","","","","",""
"image-keyboard-response","163","190371","0.0-5.0-1.52","LF","ssktzegauz","1920","1080","0","1","0","5edba672293f3b028b70eb25","","null","","","","","","","learning/Slide53.JPG","null","","","","","",""
"html-keyboard-response","164","191386","0.0-5.0-2.52","LF","ssktzegauz","1920","1080","0","1","0","5edba672293f3b028b70eb25","","null","","","learningBlock1","","","","<div style=""font-size:60px;""> </div>","null","LF","learning/Slide53.JPG","This is a tob:","","",""
"html-keyboard-response","165","192395","0.0-5.0-0.53","LF","ssktzegauz","1920","1080","0","1","0","5edba672293f3b028b70eb25","","null","","","learningBlock1","","","","This is a dep:","null","","","","","",""
"image-keyboard-response","166","192743","0.0-5.0-1.53","LF","ssktzegauz","1920","1080","0","1","0","5edba672293f3b028b70eb25","","null","","","","","","","learning/Slide54.JPG","null","","","","","",""
"html-keyboard-response","167","193744","0.0-5.0-2.53","LF","ssktzegauz","1920","1080","0","1","0","5edba672293f3b028b70eb25","","null","","","learningBlock1","","","","<div style=""font-size:60px;""> </div>","null","LF","learning/Slide54.JPG","This is a dep:","","",""
"html-keyboard-response","168","194747","0.0-5.0-0.54","LF","ssktzegauz","1920","1080","0","1","0","5edba672293f3b028b70eb25","","null","","","learningBlock1","","","","This is a bim:","null","","","","","",""
"image-keyboard-response","169","195095","0.0-5.0-1.54","LF","ssktzegauz","1920","1080","0","1","0","5edba672293f3b028b70eb25","","null","","","","","","","learning/Slide55.JPG","null","","","","","",""
"html-keyboard-response","170","196110","0.0-5.0-2.54","LF","ssktzegauz","1920","1080","0","1","0","5edba672293f3b028b70eb25","","null","","","learningBlock1","","","","<div style=""font-size:60px;""> </div>","null","LF","learning/Slide55.JPG","This is a bim:","","",""
"html-keyboard-response","171","197115","0.0-5.0-0.55","LF","ssktzegauz","1920","1080","0","1","0","5edba672293f3b028b70eb25","","null","","","learningBlock1","","","","This is a tob:","null","","","","","",""
"image-keyboard-response","172","197454","0.0-5.0-1.55","LF","ssktzegauz","1920","1080","0","1","0","5edba672293f3b028b70eb25","","null","","","","","","","learning/Slide56.JPG","null","","","","","",""
"html-keyboard-response","173","198463","0.0-5.0-2.55","LF","ssktzegauz","1920","1080","0","1","0","5edba672293f3b028b70eb25","","null","","","learningBlock1","","","","<div style=""font-size:60px;""> </div>","null","LF","learning/Slide56.JPG","This is a tob:","","",""
"html-keyboard-response","174","199465","0.0-5.0-0.56","LF","ssktzegauz","1920","1080","0","1","0","5edba672293f3b028b70eb25","","null","","","learningBlock1","","","","This is a dep:","null","","","","","",""
"image-keyboard-response","175","199812","0.0-5.0-1.56","LF","ssktzegauz","1920","1080","0","1","0","5edba672293f3b028b70eb25","","null","","","","","","","learning/Slide57.JPG","null","","","","","",""
"html-keyboard-response","176","200816","0.0-5.0-2.56","LF","ssktzegauz","1920","1080","0","1","0","5edba672293f3b028b70eb25","","null","","","learningBlock1","","","","<div style=""font-size:60px;""> </div>","null","LF","learning/Slide57.JPG","This is a dep:","","",""
"html-keyboard-response","177","201818","0.0-5.0-0.57","LF","ssktzegauz","1920","1080","0","1","0","5edba672293f3b028b70eb25","","null","","","learningBlock1","","","","This is a wug:","null","","","","","",""
"image-keyboard-response","178","202157","0.0-5.0-1.57","LF","ssktzegauz","1920","1080","0","1","0","5edba672293f3b028b70eb25","","null","","","","","","","learning/Slide58.JPG","null","","","","","",""
"html-keyboard-response","179","203160","0.0-5.0-2.57","LF","ssktzegauz","1920","1080","0","1","0","5edba672293f3b028b70eb25","","null","","","learningBlock1","","","","<div style=""font-size:60px;""> </div>","null","LF","learning/Slide58.JPG","This is a wug:","","",""
"html-keyboard-response","180","204161","0.0-5.0-0.58","LF","ssktzegauz","1920","1080","0","1","0","5edba672293f3b028b70eb25","","null","","","learningBlock1","","","","This is a dep:","null","","","","","",""
"image-keyboard-response","181","204509","0.0-5.0-1.58","LF","ssktzegauz","1920","1080","0","1","0","5edba672293f3b028b70eb25","","null","","","","","","","learning/Slide59.JPG","null","","","","","",""
"html-keyboard-response","182","205511","0.0-5.0-2.58","LF","ssktzegauz","1920","1080","0","1","0","5edba672293f3b028b70eb25","","null","","","learningBlock1","","","","<div style=""font-size:60px;""> </div>","null","LF","learning/Slide59.JPG","This is a dep:","","",""
"html-keyboard-response","183","206514","0.0-5.0-0.59","LF","ssktzegauz","1920","1080","0","1","0","5edba672293f3b028b70eb25","","null","","","learningBlock1","","","","This is a wug:","null","","","","","",""
"image-keyboard-response","184","206846","0.0-5.0-1.59","LF","ssktzegauz","1920","1080","0","1","0","5edba672293f3b028b70eb25","","null","","","","","","","learning/Slide60.JPG","null","","","","","",""
"html-keyboard-response","185","207849","0.0-5.0-2.59","LF","ssktzegauz","1920","1080","0","1","0","5edba672293f3b028b70eb25","","null","","","learningBlock1","","","","<div style=""font-size:60px;""> </div>","null","LF","learning/Slide60.JPG","This is a wug:","","",""
"html-keyboard-response","186","208851","0.0-5.0-0.60","LF","ssktzegauz","1920","1080","0","1","0","5edba672293f3b028b70eb25","","null","","","learningBlock1","","","","This is a bim:","null","","","","","",""
"image-keyboard-response","187","209191","0.0-5.0-1.60","LF","ssktzegauz","1920","1080","0","1","0","5edba672293f3b028b70eb25","","null","","","","","","","learning/Slide61.JPG","null","","","","","",""
"html-keyboard-response","188","210193","0.0-5.0-2.60","LF","ssktzegauz","1920","1080","0","1","0","5edba672293f3b028b70eb25","","null","","","learningBlock1","","","","<div style=""font-size:60px;""> </div>","null","LF","learning/Slide61.JPG","This is a bim:","","",""
"html-keyboard-response","189","211195","0.0-5.0-0.61","LF","ssktzegauz","1920","1080","0","1","0","5edba672293f3b028b70eb25","","null","","","learningBlock1","","","","This is a dep:","null","","","","","",""
"image-keyboard-response","190","211542","0.0-5.0-1.61","LF","ssktzegauz","1920","1080","0","1","0","5edba672293f3b028b70eb25","","null","","","","","","","learning/Slide62.JPG","null","","","","","",""
"html-keyboard-response","191","212544","0.0-5.0-2.61","LF","ssktzegauz","1920","1080","0","1","0","5edba672293f3b028b70eb25","","null","","","learningBlock1","","","","<div style=""font-size:60px;""> </div>","null","LF","learning/Slide62.JPG","This is a dep:","","",""
"html-keyboard-response","192","213547","0.0-5.0-0.62","LF","ssktzegauz","1920","1080","0","1","0","5edba672293f3b028b70eb25","","null","","","learningBlock1","","","","This is a bim:","null","","","","","",""
"image-keyboard-response","193","213885","0.0-5.0-1.62","LF","ssktzegauz","1920","1080","0","1","0","5edba672293f3b028b70eb25","","null","","","","","","","learning/Slide63.JPG","null","","","","","",""
"html-keyboard-response","194","214888","0.0-5.0-2.62","LF","ssktzegauz","1920","1080","0","1","0","5edba672293f3b028b70eb25","","null","","","learningBlock1","","","","<div style=""font-size:60px;""> </div>","null","LF","learning/Slide63.JPG","This is a bim:","","",""
"html-keyboard-response","195","215891","0.0-5.0-0.63","LF","ssktzegauz","1920","1080","0","1","0","5edba672293f3b028b70eb25","","null","","","learningBlock1","","","","This is a tob:","null","","","","","",""
"image-keyboard-response","196","216223","0.0-5.0-1.63","LF","ssktzegauz","1920","1080","0","1","0","5edba672293f3b028b70eb25","","null","","","","","","","learning/Slide64.JPG","null","","","","","",""
"html-keyboard-response","197","217226","0.0-5.0-2.63","LF","ssktzegauz","1920","1080","0","1","0","5edba672293f3b028b70eb25","","null","","","learningBlock1","","","","<div style=""font-size:60px;""> </div>","null","LF","learning/Slide64.JPG","This is a tob:","","",""
"html-keyboard-response","198","218228","0.0-5.0-0.64","LF","ssktzegauz","1920","1080","0","1","0","5edba672293f3b028b70eb25","","null","","","learningBlock1","","","","This is a wug:","null","","","","","",""
"image-keyboard-response","199","218575","0.0-5.0-1.64","LF","ssktzegauz","1920","1080","0","1","0","5edba672293f3b028b70eb25","","null","","","","","","","learning/Slide65.JPG","null","","","","","",""
"html-keyboard-response","200","219578","0.0-5.0-2.64","LF","ssktzegauz","1920","1080","0","1","0","5edba672293f3b028b70eb25","","null","","","learningBlock1","","","","<div style=""font-size:60px;""> </div>","null","LF","learning/Slide65.JPG","This is a wug:","","",""
"html-keyboard-response","201","220581","0.0-5.0-0.65","LF","ssktzegauz","1920","1080","0","1","0","5edba672293f3b028b70eb25","","null","","","learningBlock1","","","","This is a dep:","null","","","","","",""
"image-keyboard-response","202","220920","0.0-5.0-1.65","LF","ssktzegauz","1920","1080","0","1","0","5edba672293f3b028b70eb25","","null","","","","","","","learning/Slide66.JPG","null","","","","","",""
"html-keyboard-response","203","221922","0.0-5.0-2.65","LF","ssktzegauz","1920","1080","0","1","0","5edba672293f3b028b70eb25","","null","","","learningBlock1","","","","<div style=""font-size:60px;""> </div>","null","LF","learning/Slide66.JPG","This is a dep:","","",""
"html-keyboard-response","204","222925","0.0-5.0-0.66","LF","ssktzegauz","1920","1080","0","1","0","5edba672293f3b028b70eb25","","null","","","learningBlock1","","","","This is a tob:","null","","","","","",""
"image-keyboard-response","205","223273","0.0-5.0-1.66","LF","ssktzegauz","1920","1080","0","1","0","5edba672293f3b028b70eb25","","null","","","","","","","learning/Slide67.JPG","null","","","","","",""
"html-keyboard-response","206","224274","0.0-5.0-2.66","LF","ssktzegauz","1920","1080","0","1","0","5edba672293f3b028b70eb25","","null","","","learningBlock1","","","","<div style=""font-size:60px;""> </div>","null","LF","learning/Slide67.JPG","This is a tob:","","",""
"html-keyboard-response","207","225278","0.0-5.0-0.67","LF","ssktzegauz","1920","1080","0","1","0","5edba672293f3b028b70eb25","","null","","","learningBlock1","","","","This is a wug:","null","","","","","",""
"image-keyboard-response","208","225617","0.0-5.0-1.67","LF","ssktzegauz","1920","1080","0","1","0","5edba672293f3b028b70eb25","","null","","","","","","","learning/Slide68.JPG","null","","","","","",""
"html-keyboard-response","209","226619","0.0-5.0-2.67","LF","ssktzegauz","1920","1080","0","1","0","5edba672293f3b028b70eb25","","null","","","learningBlock1","","","","<div style=""font-size:60px;""> </div>","null","LF","learning/Slide68.JPG","This is a wug:","","",""
"html-keyboard-response","210","227621","0.0-5.0-0.68","LF","ssktzegauz","1920","1080","0","1","0","5edba672293f3b028b70eb25","","null","","","learningBlock1","","","","This is a tob:","null","","","","","",""
"image-keyboard-response","211","227969","0.0-5.0-1.68","LF","ssktzegauz","1920","1080","0","1","0","5edba672293f3b028b70eb25","","null","","","","","","","learning/Slide69.JPG","null","","","","","",""
"html-keyboard-response","212","228971","0.0-5.0-2.68","LF","ssktzegauz","1920","1080","0","1","0","5edba672293f3b028b70eb25","","null","","","learningBlock1","","","","<div style=""font-size:60px;""> </div>","null","LF","learning/Slide69.JPG","This is a tob:","","",""
"html-keyboard-response","213","229975","0.0-5.0-0.69","LF","ssktzegauz","1920","1080","0","1","0","5edba672293f3b028b70eb25","","null","","","learningBlock1","","","","This is a dep:","null","","","","","",""
"image-keyboard-response","214","230306","0.0-5.0-1.69","LF","ssktzegauz","1920","1080","0","1","0","5edba672293f3b028b70eb25","","null","","","","","","","learning/Slide70.JPG","null","","","","","",""
"html-keyboard-response","215","231309","0.0-5.0-2.69","LF","ssktzegauz","1920","1080","0","1","0","5edba672293f3b028b70eb25","","null","","","learningBlock1","","","","<div style=""font-size:60px;""> </div>","null","LF","learning/Slide70.JPG","This is a dep:","","",""
"html-keyboard-response","216","232312","0.0-5.0-0.70","LF","ssktzegauz","1920","1080","0","1","0","5edba672293f3b028b70eb25","","null","","","learningBlock1","","","","This is a wug:","null","","","","","",""
"image-keyboard-response","217","232651","0.0-5.0-1.70","LF","ssktzegauz","1920","1080","0","1","0","5edba672293f3b028b70eb25","","null","","","","","","","learning/Slide71.JPG","null","","","","","",""
"html-keyboard-response","218","233653","0.0-5.0-2.70","LF","ssktzegauz","1920","1080","0","1","0","5edba672293f3b028b70eb25","","null","","","learningBlock1","","","","<div style=""font-size:60px;""> </div>","null","LF","learning/Slide71.JPG","This is a wug:","","",""
"html-keyboard-response","219","234657","0.0-5.0-0.71","LF","ssktzegauz","1920","1080","0","1","0","5edba672293f3b028b70eb25","","null","","","learningBlock1","","","","This is a bim:","null","","","","","",""
"image-keyboard-response","220","235007","0.0-5.0-1.71","LF","ssktzegauz","1920","1080","0","1","0","5edba672293f3b028b70eb25","","null","","","","","","","learning/Slide72.JPG","null","","","","","",""
"html-keyboard-response","221","236010","0.0-5.0-2.71","LF","ssktzegauz","1920","1080","0","1","0","5edba672293f3b028b70eb25","","null","","","learningBlock1","","","","<div style=""font-size:60px;""> </div>","null","LF","learning/Slide72.JPG","This is a bim:","","",""
"html-keyboard-response","222","237015","0.0-5.0-0.72","LF","ssktzegauz","1920","1080","0","1","0","5edba672293f3b028b70eb25","","null","","","learningBlock1","","","","This is a wug:","null","","","","","",""
"image-keyboard-response","223","237351","0.0-5.0-1.72","LF","ssktzegauz","1920","1080","0","1","0","5edba672293f3b028b70eb25","","null","","","","","","","learning/Slide73.JPG","null","","","","","",""
"html-keyboard-response","224","238352","0.0-5.0-2.72","LF","ssktzegauz","1920","1080","0","1","0","5edba672293f3b028b70eb25","","null","","","learningBlock1","","","","<div style=""font-size:60px;""> </div>","null","LF","learning/Slide73.JPG","This is a wug:","","",""
"html-keyboard-response","225","239355","0.0-5.0-0.73","LF","ssktzegauz","1920","1080","0","1","0","5edba672293f3b028b70eb25","","null","","","learningBlock1","","","","This is a dep:","null","","","","","",""
"image-keyboard-response","226","239702","0.0-5.0-1.73","LF","ssktzegauz","1920","1080","0","1","0","5edba672293f3b028b70eb25","","null","","","","","","","learning/Slide74.JPG","null","","","","","",""
"html-keyboard-response","227","240704","0.0-5.0-2.73","LF","ssktzegauz","1920","1080","0","1","0","5edba672293f3b028b70eb25","","null","","","learningBlock1","","","","<div style=""font-size:60px;""> </div>","null","LF","learning/Slide74.JPG","This is a dep:","","",""
"html-keyboard-response","228","241707","0.0-5.0-0.74","LF","ssktzegauz","1920","1080","0","1","0","5edba672293f3b028b70eb25","","null","","","learningBlock1","","","","This is a tob:","null","","","","","",""
"image-keyboard-response","229","242038","0.0-5.0-1.74","LF","ssktzegauz","1920","1080","0","1","0","5edba672293f3b028b70eb25","","null","","","","","","","learning/Slide75.JPG","null","","","","","",""
"html-keyboard-response","230","243041","0.0-5.0-2.74","LF","ssktzegauz","1920","1080","0","1","0","5edba672293f3b028b70eb25","","null","","","learningBlock1","","","","<div style=""font-size:60px;""> </div>","null","LF","learning/Slide75.JPG","This is a tob:","","",""
"html-keyboard-response","231","244044","0.0-5.0-0.75","LF","ssktzegauz","1920","1080","0","1","0","5edba672293f3b028b70eb25","","null","","","learningBlock1","","","","This is a bim:","null","","","","","",""
"image-keyboard-response","232","244382","0.0-5.0-1.75","LF","ssktzegauz","1920","1080","0","1","0","5edba672293f3b028b70eb25","","null","","","","","","","learning/Slide76.JPG","null","","","","","",""
"html-keyboard-response","233","245383","0.0-5.0-2.75","LF","ssktzegauz","1920","1080","0","1","0","5edba672293f3b028b70eb25","","null","","","learningBlock1","","","","<div style=""font-size:60px;""> </div>","null","LF","learning/Slide76.JPG","This is a bim:","","",""
"html-keyboard-response","234","246400","0.0-5.0-0.76","LF","ssktzegauz","1920","1080","0","1","0","5edba672293f3b028b70eb25","","null","","","learningBlock1","","","","This is a tob:","null","","","","","",""
"image-keyboard-response","235","246732","0.0-5.0-1.76","LF","ssktzegauz","1920","1080","0","1","0","5edba672293f3b028b70eb25","","null","","","","","","","learning/Slide77.JPG","null","","","","","",""
"html-keyboard-response","236","247744","0.0-5.0-2.76","LF","ssktzegauz","1920","1080","0","1","0","5edba672293f3b028b70eb25","","null","","","learningBlock1","","","","<div style=""font-size:60px;""> </div>","null","LF","learning/Slide77.JPG","This is a tob:","","",""
"html-keyboard-response","237","248752","0.0-5.0-0.77","LF","ssktzegauz","1920","1080","0","1","0","5edba672293f3b028b70eb25","","null","","","learningBlock1","","","","This is a wug:","null","","","","","",""
"image-keyboard-response","238","249114","0.0-5.0-1.77","LF","ssktzegauz","1920","1080","0","1","0","5edba672293f3b028b70eb25","","null","","","","","","","learning/Slide78.JPG","null","","","","","",""
"html-keyboard-response","239","250119","0.0-5.0-2.77","LF","ssktzegauz","1920","1080","0","1","0","5edba672293f3b028b70eb25","","null","","","learningBlock1","","","","<div style=""font-size:60px;""> </div>","null","LF","learning/Slide78.JPG","This is a wug:","","",""
"html-keyboard-response","240","251133","0.0-5.0-0.78","LF","ssktzegauz","1920","1080","0","1","0","5edba672293f3b028b70eb25","","null","","","learningBlock1","","","","This is a bim:","null","","","","","",""
"image-keyboard-response","241","251475","0.0-5.0-1.78","LF","ssktzegauz","1920","1080","0","1","0","5edba672293f3b028b70eb25","","null","","","","","","","learning/Slide79.JPG","null","","","","","",""
"html-keyboard-response","242","252486","0.0-5.0-2.78","LF","ssktzegauz","1920","1080","0","1","0","5edba672293f3b028b70eb25","","null","","","learningBlock1","","","","<div style=""font-size:60px;""> </div>","null","LF","learning/Slide79.JPG","This is a bim:","","",""
"html-keyboard-response","243","253491","0.0-5.0-0.79","LF","ssktzegauz","1920","1080","0","1","0","5edba672293f3b028b70eb25","","null","","","learningBlock1","","","","This is a tob:","null","","","","","",""
"image-keyboard-response","244","253838","0.0-5.0-1.79","LF","ssktzegauz","1920","1080","0","1","0","5edba672293f3b028b70eb25","","null","","","","","","","learning/Slide80.JPG","null","","","","","",""
"html-keyboard-response","245","254851","0.0-5.0-2.79","LF","ssktzegauz","1920","1080","0","1","0","5edba672293f3b028b70eb25","","null","","","learningBlock1","","","","<div style=""font-size:60px;""> </div>","null","LF","learning/Slide80.JPG","This is a tob:","","",""
"instructions","246","257933","0.0-6.0","LF","ssktzegauz","1920","1080","0","1","0","5edba672293f3b028b70eb25","","NA","","[{""page_index"":0,""viewing_time"":3080.5700002238154}]","instructions","","","","","","","","","","",""
"html-keyboard-response","247","258935","0.0-7.0-0.0","LF","ssktzegauz","1920","1080","0","1","0","5edba672293f3b028b70eb25","","null","","","learningBlock2","","","","This is a wug:","null","","","","","",""
"image-keyboard-response","248","259264","0.0-7.0-1.0","LF","ssktzegauz","1920","1080","0","1","0","5edba672293f3b028b70eb25","","null","","","","","","","learning/Slide81.JPG","null","","","","","",""
"html-keyboard-response","249","260267","0.0-7.0-2.0","LF","ssktzegauz","1920","1080","0","1","0","5edba672293f3b028b70eb25","","null","","","learningBlock2","","","","<div style=""font-size:60px;""> </div>","null","LF","learning/Slide81.JPG","This is a wug:","","",""
"html-keyboard-response","250","261284","0.0-7.0-0.1","LF","ssktzegauz","1920","1080","0","1","0","5edba672293f3b028b70eb25","","null","","","learningBlock2","","","","This is a bim:","null","","","","","",""
"image-keyboard-response","251","261628","0.0-7.0-1.1","LF","ssktzegauz","1920","1080","0","1","0","5edba672293f3b028b70eb25","","null","","","","","","","learning/Slide82.JPG","null","","","","","",""
"html-keyboard-response","252","262636","0.0-7.0-2.1","LF","ssktzegauz","1920","1080","0","1","0","5edba672293f3b028b70eb25","","null","","","learningBlock2","","","","<div style=""font-size:60px;""> </div>","null","LF","learning/Slide82.JPG","This is a bim:","","",""
"html-keyboard-response","253","263642","0.0-7.0-0.2","LF","ssktzegauz","1920","1080","0","1","0","5edba672293f3b028b70eb25","","null","","","learningBlock2","","","","This is a wug:","null","","","","","",""
"image-keyboard-response","254","263989","0.0-7.0-1.2","LF","ssktzegauz","1920","1080","0","1","0","5edba672293f3b028b70eb25","","null","","","","","","","learning/Slide83.JPG","null","","","","","",""
"html-keyboard-response","255","265006","0.0-7.0-2.2","LF","ssktzegauz","1920","1080","0","1","0","5edba672293f3b028b70eb25","","null","","","learningBlock2","","","","<div style=""font-size:60px;""> </div>","null","LF","learning/Slide83.JPG","This is a wug:","","",""
"html-keyboard-response","256","266008","0.0-7.0-0.3","LF","ssktzegauz","1920","1080","0","1","0","5edba672293f3b028b70eb25","","null","","","learningBlock2","","","","This is a dep:","null","","","","","",""
"image-keyboard-response","257","266341","0.0-7.0-1.3","LF","ssktzegauz","1920","1080","0","1","0","5edba672293f3b028b70eb25","","null","","","","","","","learning/Slide84.JPG","null","","","","","",""
"html-keyboard-response","258","267343","0.0-7.0-2.3","LF","ssktzegauz","1920","1080","0","1","0","5edba672293f3b028b70eb25","","null","","","learningBlock2","","","","<div style=""font-size:60px;""> </div>","null","LF","learning/Slide84.JPG","This is a dep:","","",""
"html-keyboard-response","259","268360","0.0-7.0-0.4","LF","ssktzegauz","1920","1080","0","1","0","5edba672293f3b028b70eb25","","null","","","learningBlock2","","","","This is a bim:","null","","","","","",""
"image-keyboard-response","260","268701","0.0-7.0-1.4","LF","ssktzegauz","1920","1080","0","1","0","5edba672293f3b028b70eb25","","null","","","","","","","learning/Slide85.JPG","null","","","","","",""
"html-keyboard-response","261","269713","0.0-7.0-2.4","LF","ssktzegauz","1920","1080","0","1","0","5edba672293f3b028b70eb25","","null","","","learningBlock2","","","","<div style=""font-size:60px;""> </div>","null","LF","learning/Slide85.JPG","This is a bim:","","",""
"html-keyboard-response","262","270725","0.0-7.0-0.5","LF","ssktzegauz","1920","1080","0","1","0","5edba672293f3b028b70eb25","","null","","","learningBlock2","","","","This is a tob:","null","","","","","",""
"image-keyboard-response","263","271066","0.0-7.0-1.5","LF","ssktzegauz","1920","1080","0","1","0","5edba672293f3b028b70eb25","","null","","","","","","","learning/Slide86.JPG","null","","","","","",""
"html-keyboard-response","264","272077","0.0-7.0-2.5","LF","ssktzegauz","1920","1080","0","1","0","5edba672293f3b028b70eb25","","null","","","learningBlock2","","","","<div style=""font-size:60px;""> </div>","null","LF","learning/Slide86.JPG","This is a tob:","","",""
"html-keyboard-response","265","273082","0.0-7.0-0.6","LF","ssktzegauz","1920","1080","0","1","0","5edba672293f3b028b70eb25","","null","","","learningBlock2","","","","This is a wug:","null","","","","","",""
"image-keyboard-response","266","273430","0.0-7.0-1.6","LF","ssktzegauz","1920","1080","0","1","0","5edba672293f3b028b70eb25","","null","","","","","","","learning/Slide87.JPG","null","","","","","",""
"html-keyboard-response","267","274437","0.0-7.0-2.6","LF","ssktzegauz","1920","1080","0","1","0","5edba672293f3b028b70eb25","","null","","","learningBlock2","","","","<div style=""font-size:60px;""> </div>","null","LF","learning/Slide87.JPG","This is a wug:","","",""
"html-keyboard-response","268","275440","0.0-7.0-0.7","LF","ssktzegauz","1920","1080","0","1","0","5edba672293f3b028b70eb25","","null","","","learningBlock2","","","","This is a tob:","null","","","","","",""
"image-keyboard-response","269","275790","0.0-7.0-1.7","LF","ssktzegauz","1920","1080","0","1","0","5edba672293f3b028b70eb25","","null","","","","","","","learning/Slide88.JPG","null","","","","","",""
"html-keyboard-response","270","276800","0.0-7.0-2.7","LF","ssktzegauz","1920","1080","0","1","0","5edba672293f3b028b70eb25","","null","","","learningBlock2","","","","<div style=""font-size:60px;""> </div>","null","LF","learning/Slide88.JPG","This is a tob:","","",""
"html-keyboard-response","271","277803","0.0-7.0-0.8","LF","ssktzegauz","1920","1080","0","1","0","5edba672293f3b028b70eb25","","null","","","learningBlock2","","","","This is a bim:","null","","","","","",""
"image-keyboard-response","272","278143","0.0-7.0-1.8","LF","ssktzegauz","1920","1080","0","1","0","5edba672293f3b028b70eb25","","null","","","","","","","learning/Slide89.JPG","null","","","","","",""
"html-keyboard-response","273","279151","0.0-7.0-2.8","LF","ssktzegauz","1920","1080","0","1","0","5edba672293f3b028b70eb25","","null","","","learningBlock2","","","","<div style=""font-size:60px;""> </div>","null","LF","learning/Slide89.JPG","This is a bim:","","",""
"html-keyboard-response","274","280167","0.0-7.0-0.9","LF","ssktzegauz","1920","1080","0","1","0","5edba672293f3b028b70eb25","","null","","","learningBlock2","","","","This is a dep:","null","","","","","",""
"image-keyboard-response","275","280499","0.0-7.0-1.9","LF","ssktzegauz","1920","1080","0","1","0","5edba672293f3b028b70eb25","","null","","","","","","","learning/Slide90.JPG","null","","","","","",""
"html-keyboard-response","276","281513","0.0-7.0-2.9","LF","ssktzegauz","1920","1080","0","1","0","5edba672293f3b028b70eb25","","null","","","learningBlock2","","","","<div style=""font-size:60px;""> </div>","null","LF","learning/Slide90.JPG","This is a dep:","","",""
"html-keyboard-response","277","282517","0.0-7.0-0.10","LF","ssktzegauz","1920","1080","0","1","0","5edba672293f3b028b70eb25","","null","","","learningBlock2","","","","This is a wug:","null","","","","","",""
"image-keyboard-response","278","282864","0.0-7.0-1.10","LF","ssktzegauz","1920","1080","0","1","0","5edba672293f3b028b70eb25","","null","","","","","","","learning/Slide91.JPG","null","","","","","",""
"html-keyboard-response","279","283869","0.0-7.0-2.10","LF","ssktzegauz","1920","1080","0","1","0","5edba672293f3b028b70eb25","","null","","","learningBlock2","","","","<div style=""font-size:60px;""> </div>","null","LF","learning/Slide91.JPG","This is a wug:","","",""
"html-keyboard-response","280","284879","0.0-7.0-0.11","LF","ssktzegauz","1920","1080","0","1","0","5edba672293f3b028b70eb25","","null","","","learningBlock2","","","","This is a tob:","null","","","","","",""
"image-keyboard-response","281","285231","0.0-7.0-1.11","LF","ssktzegauz","1920","1080","0","1","0","5edba672293f3b028b70eb25","","null","","","","","","","learning/Slide92.JPG","null","","","","","",""
"html-keyboard-response","282","286240","0.0-7.0-2.11","LF","ssktzegauz","1920","1080","0","1","0","5edba672293f3b028b70eb25","","null","","","learningBlock2","","","","<div style=""font-size:60px;""> </div>","null","LF","learning/Slide92.JPG","This is a tob:","","",""
"html-keyboard-response","283","287253","0.0-7.0-0.12","LF","ssktzegauz","1920","1080","0","1","0","5edba672293f3b028b70eb25","","null","","","learningBlock2","","","","This is a bim:","null","","","","","",""
"image-keyboard-response","284","287603","0.0-7.0-1.12","LF","ssktzegauz","1920","1080","0","1","0","5edba672293f3b028b70eb25","","null","","","","","","","learning/Slide93.JPG","null","","","","","",""
"html-keyboard-response","285","288619","0.0-7.0-2.12","LF","ssktzegauz","1920","1080","0","1","0","5edba672293f3b028b70eb25","","null","","","learningBlock2","","","","<div style=""font-size:60px;""> </div>","null","LF","learning/Slide93.JPG","This is a bim:","","",""
"html-keyboard-response","286","289630","0.0-7.0-0.13","LF","ssktzegauz","1920","1080","0","1","0","5edba672293f3b028b70eb25","","null","","","learningBlock2","","","","This is a tob:","null","","","","","",""
"image-keyboard-response","287","289964","0.0-7.0-1.13","LF","ssktzegauz","1920","1080","0","1","0","5edba672293f3b028b70eb25","","null","","","","","","","learning/Slide94.JPG","null","","","","","",""
"html-keyboard-response","288","290978","0.0-7.0-2.13","LF","ssktzegauz","1920","1080","0","1","0","5edba672293f3b028b70eb25","","null","","","learningBlock2","","","","<div style=""font-size:60px;""> </div>","null","LF","learning/Slide94.JPG","This is a tob:","","",""
"html-keyboard-response","289","291989","0.0-7.0-0.14","LF","ssktzegauz","1920","1080","0","1","0","5edba672293f3b028b70eb25","","null","","","learningBlock2","","","","This is a wug:","null","","","","","",""
"image-keyboard-response","290","292343","0.0-7.0-1.14","LF","ssktzegauz","1920","1080","0","1","0","5edba672293f3b028b70eb25","","null","","","","","","","learning/Slide95.JPG","null","","","","","",""
"html-keyboard-response","291","293353","0.0-7.0-2.14","LF","ssktzegauz","1920","1080","0","1","0","5edba672293f3b028b70eb25","","null","","","learningBlock2","","","","<div style=""font-size:60px;""> </div>","null","LF","learning/Slide95.JPG","This is a wug:","","",""
"html-keyboard-response","292","294368","0.0-7.0-0.15","LF","ssktzegauz","1920","1080","0","1","0","5edba672293f3b028b70eb25","","null","","","learningBlock2","","","","This is a tob:","null","","","","","",""
"image-keyboard-response","293","294703","0.0-7.0-1.15","LF","ssktzegauz","1920","1080","0","1","0","5edba672293f3b028b70eb25","","null","","","","","","","learning/Slide96.JPG","null","","","","","",""
"html-keyboard-response","294","295712","0.0-7.0-2.15","LF","ssktzegauz","1920","1080","0","1","0","5edba672293f3b028b70eb25","","null","","","learningBlock2","","","","<div style=""font-size:60px;""> </div>","null","LF","learning/Slide96.JPG","This is a tob:","","",""
"html-keyboard-response","295","296723","0.0-7.0-0.16","LF","ssktzegauz","1920","1080","0","1","0","5edba672293f3b028b70eb25","","null","","","learningBlock2","","","","This is a dep:","null","","","","","",""
"image-keyboard-response","296","297062","0.0-7.0-1.16","LF","ssktzegauz","1920","1080","0","1","0","5edba672293f3b028b70eb25","","null","","","","","","","learning/Slide97.JPG","null","","","","","",""
"html-keyboard-response","297","298064","0.0-7.0-2.16","LF","ssktzegauz","1920","1080","0","1","0","5edba672293f3b028b70eb25","","null","","","learningBlock2","","","","<div style=""font-size:60px;""> </div>","null","LF","learning/Slide97.JPG","This is a dep:","","",""
"html-keyboard-response","298","299069","0.0-7.0-0.17","LF","ssktzegauz","1920","1080","0","1","0","5edba672293f3b028b70eb25","","null","","","learningBlock2","","","","This is a bim:","null","","","","","",""
"image-keyboard-response","299","299414","0.0-7.0-1.17","LF","ssktzegauz","1920","1080","0","1","0","5edba672293f3b028b70eb25","","null","","","","","","","learning/Slide98.JPG","null","","","","","",""
"html-keyboard-response","300","300425","0.0-7.0-2.17","LF","ssktzegauz","1920","1080","0","1","0","5edba672293f3b028b70eb25","","null","","","learningBlock2","","","","<div style=""font-size:60px;""> </div>","null","LF","learning/Slide98.JPG","This is a bim:","","",""
"html-keyboard-response","301","301442","0.0-7.0-0.18","LF","ssktzegauz","1920","1080","0","1","0","5edba672293f3b028b70eb25","","null","","","learningBlock2","","","","This is a dep:","null","","","","","",""
"image-keyboard-response","302","301789","0.0-7.0-1.18","LF","ssktzegauz","1920","1080","0","1","0","5edba672293f3b028b70eb25","","null","","","","","","","learning/Slide99.JPG","null","","","","","",""
"html-keyboard-response","303","302804","0.0-7.0-2.18","LF","ssktzegauz","1920","1080","0","1","0","5edba672293f3b028b70eb25","","null","","","learningBlock2","","","","<div style=""font-size:60px;""> </div>","null","LF","learning/Slide99.JPG","This is a dep:","","",""
"html-keyboard-response","304","303813","0.0-7.0-0.19","LF","ssktzegauz","1920","1080","0","1","0","5edba672293f3b028b70eb25","","null","","","learningBlock2","","","","This is a bim:","null","","","","","",""
"image-keyboard-response","305","304158","0.0-7.0-1.19","LF","ssktzegauz","1920","1080","0","1","0","5edba672293f3b028b70eb25","","null","","","","","","","learning/Slide100.JPG","null","","","","","",""
"html-keyboard-response","306","305165","0.0-7.0-2.19","LF","ssktzegauz","1920","1080","0","1","0","5edba672293f3b028b70eb25","","null","","","learningBlock2","","","","<div style=""font-size:60px;""> </div>","null","LF","learning/Slide100.JPG","This is a bim:","","",""
"html-keyboard-response","307","306171","0.0-7.0-0.20","LF","ssktzegauz","1920","1080","0","1","0","5edba672293f3b028b70eb25","","null","","","learningBlock2","","","","This is a tob:","null","","","","","",""
"image-keyboard-response","308","306503","0.0-7.0-1.20","LF","ssktzegauz","1920","1080","0","1","0","5edba672293f3b028b70eb25","","null","","","","","","","learning/Slide101.JPG","null","","","","","",""
"html-keyboard-response","309","307525","0.0-7.0-2.20","LF","ssktzegauz","1920","1080","0","1","0","5edba672293f3b028b70eb25","","null","","","learningBlock2","","","","<div style=""font-size:60px;""> </div>","null","LF","learning/Slide101.JPG","This is a tob:","","",""
"html-keyboard-response","310","308539","0.0-7.0-0.21","LF","ssktzegauz","1920","1080","0","1","0","5edba672293f3b028b70eb25","","null","","","learningBlock2","","","","This is a bim:","null","","","","","",""
"image-keyboard-response","311","308888","0.0-7.0-1.21","LF","ssktzegauz","1920","1080","0","1","0","5edba672293f3b028b70eb25","","null","","","","","","","learning/Slide102.JPG","null","","","","","",""
"html-keyboard-response","312","309902","0.0-7.0-2.21","LF","ssktzegauz","1920","1080","0","1","0","5edba672293f3b028b70eb25","","null","","","learningBlock2","","","","<div style=""font-size:60px;""> </div>","null","LF","learning/Slide102.JPG","This is a bim:","","",""
"html-keyboard-response","313","310906","0.0-7.0-0.22","LF","ssktzegauz","1920","1080","0","1","0","5edba672293f3b028b70eb25","","null","","","learningBlock2","","","","This is a dep:","null","","","","","",""
"image-keyboard-response","314","311239","0.0-7.0-1.22","LF","ssktzegauz","1920","1080","0","1","0","5edba672293f3b028b70eb25","","null","","","","","","","learning/Slide103.JPG","null","","","","","",""
"html-keyboard-response","315","312242","0.0-7.0-2.22","LF","ssktzegauz","1920","1080","0","1","0","5edba672293f3b028b70eb25","","null","","","learningBlock2","","","","<div style=""font-size:60px;""> </div>","null","LF","learning/Slide103.JPG","This is a dep:","","",""
"html-keyboard-response","316","313245","0.0-7.0-0.23","LF","ssktzegauz","1920","1080","0","1","0","5edba672293f3b028b70eb25","","null","","","learningBlock2","","","","This is a tob:","null","","","","","",""
"image-keyboard-response","317","313581","0.0-7.0-1.23","LF","ssktzegauz","1920","1080","0","1","0","5edba672293f3b028b70eb25","","null","","","","","","","learning/Slide104.JPG","null","","","","","",""
"html-keyboard-response","318","314585","0.0-7.0-2.23","LF","ssktzegauz","1920","1080","0","1","0","5edba672293f3b028b70eb25","","null","","","learningBlock2","","","","<div style=""font-size:60px;""> </div>","null","LF","learning/Slide104.JPG","This is a tob:","","",""
"html-keyboard-response","319","315601","0.0-7.0-0.24","LF","ssktzegauz","1920","1080","0","1","0","5edba672293f3b028b70eb25","","null","","","learningBlock2","","","","This is a dep:","null","","","","","",""
"image-keyboard-response","320","315935","0.0-7.0-1.24","LF","ssktzegauz","1920","1080","0","1","0","5edba672293f3b028b70eb25","","null","","","","","","","learning/Slide105.JPG","null","","","","","",""
"html-keyboard-response","321","316941","0.0-7.0-2.24","LF","ssktzegauz","1920","1080","0","1","0","5edba672293f3b028b70eb25","","null","","","learningBlock2","","","","<div style=""font-size:60px;""> </div>","null","LF","learning/Slide105.JPG","This is a dep:","","",""
"html-keyboard-response","322","317943","0.0-7.0-0.25","LF","ssktzegauz","1920","1080","0","1","0","5edba672293f3b028b70eb25","","null","","","learningBlock2","","","","This is a wug:","null","","","","","",""
"image-keyboard-response","323","318281","0.0-7.0-1.25","LF","ssktzegauz","1920","1080","0","1","0","5edba672293f3b028b70eb25","","null","","","","","","","learning/Slide106.JPG","null","","","","","",""
"html-keyboard-response","324","319297","0.0-7.0-2.25","LF","ssktzegauz","1920","1080","0","1","0","5edba672293f3b028b70eb25","","null","","","learningBlock2","","","","<div style=""font-size:60px;""> </div>","null","LF","learning/Slide106.JPG","This is a wug:","","",""
"html-keyboard-response","325","320314","0.0-7.0-0.26","LF","ssktzegauz","1920","1080","0","1","0","5edba672293f3b028b70eb25","","null","","","learningBlock2","","","","This is a bim:","null","","","","","",""
"image-keyboard-response","326","320664","0.0-7.0-1.26","LF","ssktzegauz","1920","1080","0","1","0","5edba672293f3b028b70eb25","","null","","","","","","","learning/Slide107.JPG","null","","","","","",""
"html-keyboard-response","327","321680","0.0-7.0-2.26","LF","ssktzegauz","1920","1080","0","1","0","5edba672293f3b028b70eb25","","null","","","learningBlock2","","","","<div style=""font-size:60px;""> </div>","null","LF","learning/Slide107.JPG","This is a bim:","","",""
"html-keyboard-response","328","322682","0.0-7.0-0.27","LF","ssktzegauz","1920","1080","0","1","0","5edba672293f3b028b70eb25","","null","","","learningBlock2","","","","This is a dep:","null","","","","","",""
"image-keyboard-response","329","323034","0.0-7.0-1.27","LF","ssktzegauz","1920","1080","0","1","0","5edba672293f3b028b70eb25","","null","","","","","","","learning/Slide108.JPG","null","","","","","",""
"html-keyboard-response","330","324038","0.0-7.0-2.27","LF","ssktzegauz","1920","1080","0","1","0","5edba672293f3b028b70eb25","","null","","","learningBlock2","","","","<div style=""font-size:60px;""> </div>","null","LF","learning/Slide108.JPG","This is a dep:","","",""
"html-keyboard-response","331","325044","0.0-7.0-0.28","LF","ssktzegauz","1920","1080","0","1","0","5edba672293f3b028b70eb25","","null","","","learningBlock2","","","","This is a wug:","null","","","","","",""
"image-keyboard-response","332","325387","0.0-7.0-1.28","LF","ssktzegauz","1920","1080","0","1","0","5edba672293f3b028b70eb25","","null","","","","","","","learning/Slide109.JPG","null","","","","","",""
"html-keyboard-response","333","326392","0.0-7.0-2.28","LF","ssktzegauz","1920","1080","0","1","0","5edba672293f3b028b70eb25","","null","","","learningBlock2","","","","<div style=""font-size:60px;""> </div>","null","LF","learning/Slide109.JPG","This is a wug:","","",""
"html-keyboard-response","334","327396","0.0-7.0-0.29","LF","ssktzegauz","1920","1080","0","1","0","5edba672293f3b028b70eb25","","null","","","learningBlock2","","","","This is a bim:","null","","","","","",""
"image-keyboard-response","335","327746","0.0-7.0-1.29","LF","ssktzegauz","1920","1080","0","1","0","5edba672293f3b028b70eb25","","null","","","","","","","learning/Slide110.JPG","null","","","","","",""
"html-keyboard-response","336","328763","0.0-7.0-2.29","LF","ssktzegauz","1920","1080","0","1","0","5edba672293f3b028b70eb25","","null","","","learningBlock2","","","","<div style=""font-size:60px;""> </div>","null","LF","learning/Slide110.JPG","This is a bim:","","",""
"html-keyboard-response","337","329766","0.0-7.0-0.30","LF","ssktzegauz","1920","1080","0","1","0","5edba672293f3b028b70eb25","","null","","","learningBlock2","","","","This is a tob:","null","","","","","",""
"image-keyboard-response","338","330115","0.0-7.0-1.30","LF","ssktzegauz","1920","1080","0","1","0","5edba672293f3b028b70eb25","","null","","","","","","","learning/Slide111.JPG","null","","","","","",""
"html-keyboard-response","339","331130","0.0-7.0-2.30","LF","ssktzegauz","1920","1080","0","1","0","5edba672293f3b028b70eb25","","null","","","learningBlock2","","","","<div style=""font-size:60px;""> </div>","null","LF","learning/Slide111.JPG","This is a tob:","","",""
"html-keyboard-response","340","332135","0.0-7.0-0.31","LF","ssktzegauz","1920","1080","0","1","0","5edba672293f3b028b70eb25","","null","","","learningBlock2","","","","This is a wug:","null","","","","","",""
"image-keyboard-response","341","332474","0.0-7.0-1.31","LF","ssktzegauz","1920","1080","0","1","0","5edba672293f3b028b70eb25","","null","","","","","","","learning/Slide112.JPG","null","","","","","",""
"html-keyboard-response","342","333490","0.0-7.0-2.31","LF","ssktzegauz","1920","1080","0","1","0","5edba672293f3b028b70eb25","","null","","","learningBlock2","","","","<div style=""font-size:60px;""> </div>","null","LF","learning/Slide112.JPG","This is a wug:","","",""
"html-keyboard-response","343","334504","0.0-7.0-0.32","LF","ssktzegauz","1920","1080","0","1","0","5edba672293f3b028b70eb25","","null","","","learningBlock2","","","","This is a tob:","null","","","","","",""
"image-keyboard-response","344","334852","0.0-7.0-1.32","LF","ssktzegauz","1920","1080","0","1","0","5edba672293f3b028b70eb25","","null","","","","","","","learning/Slide113.JPG","null","","","","","",""
"html-keyboard-response","345","335855","0.0-7.0-2.32","LF","ssktzegauz","1920","1080","0","1","0","5edba672293f3b028b70eb25","","null","","","learningBlock2","","","","<div style=""font-size:60px;""> </div>","null","LF","learning/Slide113.JPG","This is a tob:","","",""
"html-keyboard-response","346","336866","0.0-7.0-0.33","LF","ssktzegauz","1920","1080","0","1","0","5edba672293f3b028b70eb25","","null","","","learningBlock2","","","","This is a wug:","null","","","","","",""
"image-keyboard-response","347","337214","0.0-7.0-1.33","LF","ssktzegauz","1920","1080","0","1","0","5edba672293f3b028b70eb25","","null","","","","","","","learning/Slide114.JPG","null","","","","","",""
"html-keyboard-response","348","338216","0.0-7.0-2.33","LF","ssktzegauz","1920","1080","0","1","0","5edba672293f3b028b70eb25","","null","","","learningBlock2","","","","<div style=""font-size:60px;""> </div>","null","LF","learning/Slide114.JPG","This is a wug:","","",""
"html-keyboard-response","349","339232","0.0-7.0-0.34","LF","ssktzegauz","1920","1080","0","1","0","5edba672293f3b028b70eb25","","null","","","learningBlock2","","","","This is a bim:","null","","","","","",""
"image-keyboard-response","350","339565","0.0-7.0-1.34","LF","ssktzegauz","1920","1080","0","1","0","5edba672293f3b028b70eb25","","null","","","","","","","learning/Slide115.JPG","null","","","","","",""
"html-keyboard-response","351","340570","0.0-7.0-2.34","LF","ssktzegauz","1920","1080","0","1","0","5edba672293f3b028b70eb25","","null","","","learningBlock2","","","","<div style=""font-size:60px;""> </div>","null","LF","learning/Slide115.JPG","This is a bim:","","",""
"html-keyboard-response","352","341581","0.0-7.0-0.35","LF","ssktzegauz","1920","1080","0","1","0","5edba672293f3b028b70eb25","","null","","","learningBlock2","","","","This is a dep:","null","","","","","",""
"image-keyboard-response","353","341926","0.0-7.0-1.35","LF","ssktzegauz","1920","1080","0","1","0","5edba672293f3b028b70eb25","","null","","","","","","","learning/Slide116.JPG","null","","","","","",""
"html-keyboard-response","354","342932","0.0-7.0-2.35","LF","ssktzegauz","1920","1080","0","1","0","5edba672293f3b028b70eb25","","null","","","learningBlock2","","","","<div style=""font-size:60px;""> </div>","null","LF","learning/Slide116.JPG","This is a dep:","","",""
"html-keyboard-response","355","343939","0.0-7.0-0.36","LF","ssktzegauz","1920","1080","0","1","0","5edba672293f3b028b70eb25","","null","","","learningBlock2","","","","This is a tob:","null","","","","","",""
"image-keyboard-response","356","344286","0.0-7.0-1.36","LF","ssktzegauz","1920","1080","0","1","0","5edba672293f3b028b70eb25","","null","","","","","","","learning/Slide117.JPG","null","","","","","",""
"html-keyboard-response","357","345299","0.0-7.0-2.36","LF","ssktzegauz","1920","1080","0","1","0","5edba672293f3b028b70eb25","","null","","","learningBlock2","","","","<div style=""font-size:60px;""> </div>","null","LF","learning/Slide117.JPG","This is a tob:","","",""
"html-keyboard-response","358","346300","0.0-7.0-0.37","LF","ssktzegauz","1920","1080","0","1","0","5edba672293f3b028b70eb25","","null","","","learningBlock2","","","","This is a dep:","null","","","","","",""
"image-keyboard-response","359","346642","0.0-7.0-1.37","LF","ssktzegauz","1920","1080","0","1","0","5edba672293f3b028b70eb25","","null","","","","","","","learning/Slide118.JPG","null","","","","","",""
"html-keyboard-response","360","347658","0.0-7.0-2.37","LF","ssktzegauz","1920","1080","0","1","0","5edba672293f3b028b70eb25","","null","","","learningBlock2","","","","<div style=""font-size:60px;""> </div>","null","LF","learning/Slide118.JPG","This is a dep:","","",""
"html-keyboard-response","361","348670","0.0-7.0-0.38","LF","ssktzegauz","1920","1080","0","1","0","5edba672293f3b028b70eb25","","null","","","learningBlock2","","","","This is a wug:","null","","","","","",""
"image-keyboard-response","362","349003","0.0-7.0-1.38","LF","ssktzegauz","1920","1080","0","1","0","5edba672293f3b028b70eb25","","null","","","","","","","learning/Slide119.JPG","null","","","","","",""
"html-keyboard-response","363","350005","0.0-7.0-2.38","LF","ssktzegauz","1920","1080","0","1","0","5edba672293f3b028b70eb25","","null","","","learningBlock2","","","","<div style=""font-size:60px;""> </div>","null","LF","learning/Slide119.JPG","This is a wug:","","",""
"html-keyboard-response","364","351009","0.0-7.0-0.39","LF","ssktzegauz","1920","1080","0","1","0","5edba672293f3b028b70eb25","","null","","","learningBlock2","","","","This is a dep:","null","","","","","",""
"image-keyboard-response","365","351361","0.0-7.0-1.39","LF","ssktzegauz","1920","1080","0","1","0","5edba672293f3b028b70eb25","","null","","","","","","","learning/Slide120.JPG","null","","","","","",""
"html-keyboard-response","366","352374","0.0-7.0-2.39","LF","ssktzegauz","1920","1080","0","1","0","5edba672293f3b028b70eb25","","null","","","learningBlock2","","","","<div style=""font-size:60px;""> </div>","null","LF","learning/Slide120.JPG","This is a dep:","","",""
"html-keyboard-response","367","353387","0.0-7.0-0.40","LF","ssktzegauz","1920","1080","0","1","0","5edba672293f3b028b70eb25","","null","","","learningBlock2","","","","This is a bim:","null","","","","","",""
"image-keyboard-response","368","353735","0.0-7.0-1.40","LF","ssktzegauz","1920","1080","0","1","0","5edba672293f3b028b70eb25","","null","","","","","","","learning/Slide121.JPG","null","","","","","",""
"html-keyboard-response","369","354753","0.0-7.0-2.40","LF","ssktzegauz","1920","1080","0","1","0","5edba672293f3b028b70eb25","","null","","","learningBlock2","","","","<div style=""font-size:60px;""> </div>","null","LF","learning/Slide121.JPG","This is a bim:","","",""
"html-keyboard-response","370","355768","0.0-7.0-0.41","LF","ssktzegauz","1920","1080","0","1","0","5edba672293f3b028b70eb25","","null","","","learningBlock2","","","","This is a wug:","null","","","","","",""
"image-keyboard-response","371","356111","0.0-7.0-1.41","LF","ssktzegauz","1920","1080","0","1","0","5edba672293f3b028b70eb25","","null","","","","","","","learning/Slide122.JPG","null","","","","","",""
"html-keyboard-response","372","357124","0.0-7.0-2.41","LF","ssktzegauz","1920","1080","0","1","0","5edba672293f3b028b70eb25","","null","","","learningBlock2","","","","<div style=""font-size:60px;""> </div>","null","LF","learning/Slide122.JPG","This is a wug:","","",""
"html-keyboard-response","373","358127","0.0-7.0-0.42","LF","ssktzegauz","1920","1080","0","1","0","5edba672293f3b028b70eb25","","null","","","learningBlock2","","","","This is a bim:","null","","","","","",""
"image-keyboard-response","374","358477","0.0-7.0-1.42","LF","ssktzegauz","1920","1080","0","1","0","5edba672293f3b028b70eb25","","null","","","","","","","learning/Slide123.JPG","null","","","","","",""
"html-keyboard-response","375","359490","0.0-7.0-2.42","LF","ssktzegauz","1920","1080","0","1","0","5edba672293f3b028b70eb25","","null","","","learningBlock2","","","","<div style=""font-size:60px;""> </div>","null","LF","learning/Slide123.JPG","This is a bim:","","",""
"html-keyboard-response","376","360507","0.0-7.0-0.43","LF","ssktzegauz","1920","1080","0","1","0","5edba672293f3b028b70eb25","","null","","","learningBlock2","","","","This is a tob:","null","","","","","",""
"image-keyboard-response","377","360847","0.0-7.0-1.43","LF","ssktzegauz","1920","1080","0","1","0","5edba672293f3b028b70eb25","","null","","","","","","","learning/Slide124.JPG","null","","","","","",""
"html-keyboard-response","378","361851","0.0-7.0-2.43","LF","ssktzegauz","1920","1080","0","1","0","5edba672293f3b028b70eb25","","null","","","learningBlock2","","","","<div style=""font-size:60px;""> </div>","null","LF","learning/Slide124.JPG","This is a tob:","","",""
"html-keyboard-response","379","362867","0.0-7.0-0.44","LF","ssktzegauz","1920","1080","0","1","0","5edba672293f3b028b70eb25","","null","","","learningBlock2","","","","This is a bim:","null","","","","","",""
"image-keyboard-response","380","363214","0.0-7.0-1.44","LF","ssktzegauz","1920","1080","0","1","0","5edba672293f3b028b70eb25","","null","","","","","","","learning/Slide125.JPG","null","","","","","",""
"html-keyboard-response","381","364231","0.0-7.0-2.44","LF","ssktzegauz","1920","1080","0","1","0","5edba672293f3b028b70eb25","","null","","","learningBlock2","","","","<div style=""font-size:60px;""> </div>","null","LF","learning/Slide125.JPG","This is a bim:","","",""
"html-keyboard-response","382","365234","0.0-7.0-0.45","LF","ssktzegauz","1920","1080","0","1","0","5edba672293f3b028b70eb25","","null","","","learningBlock2","","","","This is a tob:","null","","","","","",""
"image-keyboard-response","383","365572","0.0-7.0-1.45","LF","ssktzegauz","1920","1080","0","1","0","5edba672293f3b028b70eb25","","null","","","","","","","learning/Slide126.JPG","null","","","","","",""
"html-keyboard-response","384","366584","0.0-7.0-2.45","LF","ssktzegauz","1920","1080","0","1","0","5edba672293f3b028b70eb25","","null","","","learningBlock2","","","","<div style=""font-size:60px;""> </div>","null","LF","learning/Slide126.JPG","This is a tob:","","",""
"html-keyboard-response","385","367589","0.0-7.0-0.46","LF","ssktzegauz","1920","1080","0","1","0","5edba672293f3b028b70eb25","","null","","","learningBlock2","","","","This is a dep:","null","","","","","",""
"image-keyboard-response","386","367927","0.0-7.0-1.46","LF","ssktzegauz","1920","1080","0","1","0","5edba672293f3b028b70eb25","","null","","","","","","","learning/Slide127.JPG","null","","","","","",""
"html-keyboard-response","387","368933","0.0-7.0-2.46","LF","ssktzegauz","1920","1080","0","1","0","5edba672293f3b028b70eb25","","null","","","learningBlock2","","","","<div style=""font-size:60px;""> </div>","null","LF","learning/Slide127.JPG","This is a dep:","","",""
"html-keyboard-response","388","369946","0.0-7.0-0.47","LF","ssktzegauz","1920","1080","0","1","0","5edba672293f3b028b70eb25","","null","","","learningBlock2","","","","This is a wug:","null","","","","","",""
"image-keyboard-response","389","370281","0.0-7.0-1.47","LF","ssktzegauz","1920","1080","0","1","0","5edba672293f3b028b70eb25","","null","","","","","","","learning/Slide128.JPG","null","","","","","",""
"html-keyboard-response","390","371283","0.0-7.0-2.47","LF","ssktzegauz","1920","1080","0","1","0","5edba672293f3b028b70eb25","","null","","","learningBlock2","","","","<div style=""font-size:60px;""> </div>","null","LF","learning/Slide128.JPG","This is a wug:","","",""
"html-keyboard-response","391","372290","0.0-7.0-0.48","LF","ssktzegauz","1920","1080","0","1","0","5edba672293f3b028b70eb25","","null","","","learningBlock2","","","","This is a tob:","null","","","","","",""
"image-keyboard-response","392","372623","0.0-7.0-1.48","LF","ssktzegauz","1920","1080","0","1","0","5edba672293f3b028b70eb25","","null","","","","","","","learning/Slide129.JPG","null","","","","","",""
"html-keyboard-response","393","373631","0.0-7.0-2.48","LF","ssktzegauz","1920","1080","0","1","0","5edba672293f3b028b70eb25","","null","","","learningBlock2","","","","<div style=""font-size:60px;""> </div>","null","LF","learning/Slide129.JPG","This is a tob:","","",""
"html-keyboard-response","394","374641","0.0-7.0-0.49","LF","ssktzegauz","1920","1080","0","1","0","5edba672293f3b028b70eb25","","null","","","learningBlock2","","","","This is a wug:","null","","","","","",""
"image-keyboard-response","395","374976","0.0-7.0-1.49","LF","ssktzegauz","1920","1080","0","1","0","5edba672293f3b028b70eb25","","null","","","","","","","learning/Slide130.JPG","null","","","","","",""
"html-keyboard-response","396","375981","0.0-7.0-2.49","LF","ssktzegauz","1920","1080","0","1","0","5edba672293f3b028b70eb25","","null","","","learningBlock2","","","","<div style=""font-size:60px;""> </div>","null","LF","learning/Slide130.JPG","This is a wug:","","",""
"html-keyboard-response","397","376995","0.0-7.0-0.50","LF","ssktzegauz","1920","1080","0","1","0","5edba672293f3b028b70eb25","","null","","","learningBlock2","","","","This is a bim:","null","","","","","",""
"image-keyboard-response","398","377328","0.0-7.0-1.50","LF","ssktzegauz","1920","1080","0","1","0","5edba672293f3b028b70eb25","","null","","","","","","","learning/Slide131.JPG","null","","","","","",""
"html-keyboard-response","399","378334","0.0-7.0-2.50","LF","ssktzegauz","1920","1080","0","1","0","5edba672293f3b028b70eb25","","null","","","learningBlock2","","","","<div style=""font-size:60px;""> </div>","null","LF","learning/Slide131.JPG","This is a bim:","","",""
"html-keyboard-response","400","379350","0.0-7.0-0.51","LF","ssktzegauz","1920","1080","0","1","0","5edba672293f3b028b70eb25","","null","","","learningBlock2","","","","This is a dep:","null","","","","","",""
"image-keyboard-response","401","379693","0.0-7.0-1.51","LF","ssktzegauz","1920","1080","0","1","0","5edba672293f3b028b70eb25","","null","","","","","","","learning/Slide132.JPG","null","","","","","",""
"html-keyboard-response","402","380711","0.0-7.0-2.51","LF","ssktzegauz","1920","1080","0","1","0","5edba672293f3b028b70eb25","","null","","","learningBlock2","","","","<div style=""font-size:60px;""> </div>","null","LF","learning/Slide132.JPG","This is a dep:","","",""
"html-keyboard-response","403","381716","0.0-7.0-0.52","LF","ssktzegauz","1920","1080","0","1","0","5edba672293f3b028b70eb25","","null","","","learningBlock2","","","","This is a tob:","null","","","","","",""
"image-keyboard-response","404","382066","0.0-7.0-1.52","LF","ssktzegauz","1920","1080","0","1","0","5edba672293f3b028b70eb25","","null","","","","","","","learning/Slide133.JPG","null","","","","","",""
"html-keyboard-response","405","383076","0.0-7.0-2.52","LF","ssktzegauz","1920","1080","0","1","0","5edba672293f3b028b70eb25","","null","","","learningBlock2","","","","<div style=""font-size:60px;""> </div>","null","LF","learning/Slide133.JPG","This is a tob:","","",""
"html-keyboard-response","406","384085","0.0-7.0-0.53","LF","ssktzegauz","1920","1080","0","1","0","5edba672293f3b028b70eb25","","null","","","learningBlock2","","","","This is a dep:","null","","","","","",""
"image-keyboard-response","407","384418","0.0-7.0-1.53","LF","ssktzegauz","1920","1080","0","1","0","5edba672293f3b028b70eb25","","null","","","","","","","learning/Slide134.JPG","null","","","","","",""
"html-keyboard-response","408","385435","0.0-7.0-2.53","LF","ssktzegauz","1920","1080","0","1","0","5edba672293f3b028b70eb25","","null","","","learningBlock2","","","","<div style=""font-size:60px;""> </div>","null","LF","learning/Slide134.JPG","This is a dep:","","",""
"html-keyboard-response","409","386441","0.0-7.0-0.54","LF","ssktzegauz","1920","1080","0","1","0","5edba672293f3b028b70eb25","","null","","","learningBlock2","","","","This is a tob:","null","","","","","",""
"image-keyboard-response","410","386773","0.0-7.0-1.54","LF","ssktzegauz","1920","1080","0","1","0","5edba672293f3b028b70eb25","","null","","","","","","","learning/Slide135.JPG","null","","","","","",""
"html-keyboard-response","411","387787","0.0-7.0-2.54","LF","ssktzegauz","1920","1080","0","1","0","5edba672293f3b028b70eb25","","null","","","learningBlock2","","","","<div style=""font-size:60px;""> </div>","null","LF","learning/Slide135.JPG","This is a tob:","","",""
"html-keyboard-response","412","388790","0.0-7.0-0.55","LF","ssktzegauz","1920","1080","0","1","0","5edba672293f3b028b70eb25","","null","","","learningBlock2","","","","This is a wug:","null","","","","","",""
"image-keyboard-response","413","389135","0.0-7.0-1.55","LF","ssktzegauz","1920","1080","0","1","0","5edba672293f3b028b70eb25","","null","","","","","","","learning/Slide136.JPG","null","","","","","",""
"html-keyboard-response","414","390145","0.0-7.0-2.55","LF","ssktzegauz","1920","1080","0","1","0","5edba672293f3b028b70eb25","","null","","","learningBlock2","","","","<div style=""font-size:60px;""> </div>","null","LF","learning/Slide136.JPG","This is a wug:","","",""
"html-keyboard-response","415","391147","0.0-7.0-0.56","LF","ssktzegauz","1920","1080","0","1","0","5edba672293f3b028b70eb25","","null","","","learningBlock2","","","","This is a tob:","null","","","","","",""
"image-keyboard-response","416","391490","0.0-7.0-1.56","LF","ssktzegauz","1920","1080","0","1","0","5edba672293f3b028b70eb25","","null","","","","","","","learning/Slide137.JPG","null","","","","","",""
"html-keyboard-response","417","392492","0.0-7.0-2.56","LF","ssktzegauz","1920","1080","0","1","0","5edba672293f3b028b70eb25","","null","","","learningBlock2","","","","<div style=""font-size:60px;""> </div>","null","LF","learning/Slide137.JPG","This is a tob:","","",""
"html-keyboard-response","418","393498","0.0-7.0-0.57","LF","ssktzegauz","1920","1080","0","1","0","5edba672293f3b028b70eb25","","null","","","learningBlock2","","","","This is a bim:","null","","","","","",""
"image-keyboard-response","419","393837","0.0-7.0-1.57","LF","ssktzegauz","1920","1080","0","1","0","5edba672293f3b028b70eb25","","null","","","","","","","learning/Slide138.JPG","null","","","","","",""
"html-keyboard-response","420","394849","0.0-7.0-2.57","LF","ssktzegauz","1920","1080","0","1","0","5edba672293f3b028b70eb25","","null","","","learningBlock2","","","","<div style=""font-size:60px;""> </div>","null","LF","learning/Slide138.JPG","This is a bim:","","",""
"html-keyboard-response","421","395860","0.0-7.0-0.58","LF","ssktzegauz","1920","1080","0","1","0","5edba672293f3b028b70eb25","","null","","","learningBlock2","","","","This is a wug:","null","","","","","",""
"image-keyboard-response","422","396209","0.0-7.0-1.58","LF","ssktzegauz","1920","1080","0","1","0","5edba672293f3b028b70eb25","","null","","","","","","","learning/Slide139.JPG","null","","","","","",""
"html-keyboard-response","423","397231","0.0-7.0-2.58","LF","ssktzegauz","1920","1080","0","1","0","5edba672293f3b028b70eb25","","null","","","learningBlock2","","","","<div style=""font-size:60px;""> </div>","null","LF","learning/Slide139.JPG","This is a wug:","","",""
"html-keyboard-response","424","398248","0.0-7.0-0.59","LF","ssktzegauz","1920","1080","0","1","0","5edba672293f3b028b70eb25","","null","","","learningBlock2","","","","This is a dep:","null","","","","","",""
"image-keyboard-response","425","398590","0.0-7.0-1.59","LF","ssktzegauz","1920","1080","0","1","0","5edba672293f3b028b70eb25","","null","","","","","","","learning/Slide140.JPG","null","","","","","",""
"html-keyboard-response","426","399607","0.0-7.0-2.59","LF","ssktzegauz","1920","1080","0","1","0","5edba672293f3b028b70eb25","","null","","","learningBlock2","","","","<div style=""font-size:60px;""> </div>","null","LF","learning/Slide140.JPG","This is a dep:","","",""
"html-keyboard-response","427","400626","0.0-7.0-0.60","LF","ssktzegauz","1920","1080","0","1","0","5edba672293f3b028b70eb25","","null","","","learningBlock2","","","","This is a tob:","null","","","","","",""
"image-keyboard-response","428","400974","0.0-7.0-1.60","LF","ssktzegauz","1920","1080","0","1","0","5edba672293f3b028b70eb25","","null","","","","","","","learning/Slide141.JPG","null","","","","","",""
"html-keyboard-response","429","401977","0.0-7.0-2.60","LF","ssktzegauz","1920","1080","0","1","0","5edba672293f3b028b70eb25","","null","","","learningBlock2","","","","<div style=""font-size:60px;""> </div>","null","LF","learning/Slide141.JPG","This is a tob:","","",""
"html-keyboard-response","430","402995","0.0-7.0-0.61","LF","ssktzegauz","1920","1080","0","1","0","5edba672293f3b028b70eb25","","null","","","learningBlock2","","","","This is a wug:","null","","","","","",""
"image-keyboard-response","431","403342","0.0-7.0-1.61","LF","ssktzegauz","1920","1080","0","1","0","5edba672293f3b028b70eb25","","null","","","","","","","learning/Slide142.JPG","null","","","","","",""
"html-keyboard-response","432","404356","0.0-7.0-2.61","LF","ssktzegauz","1920","1080","0","1","0","5edba672293f3b028b70eb25","","null","","","learningBlock2","","","","<div style=""font-size:60px;""> </div>","null","LF","learning/Slide142.JPG","This is a wug:","","",""
"html-keyboard-response","433","405361","0.0-7.0-0.62","LF","ssktzegauz","1920","1080","0","1","0","5edba672293f3b028b70eb25","","null","","","learningBlock2","","","","This is a bim:","null","","","","","",""
"image-keyboard-response","434","405717","0.0-7.0-1.62","LF","ssktzegauz","1920","1080","0","1","0","5edba672293f3b028b70eb25","","null","","","","","","","learning/Slide143.JPG","null","","","","","",""
"html-keyboard-response","435","406724","0.0-7.0-2.62","LF","ssktzegauz","1920","1080","0","1","0","5edba672293f3b028b70eb25","","null","","","learningBlock2","","","","<div style=""font-size:60px;""> </div>","null","LF","learning/Slide143.JPG","This is a bim:","","",""
"html-keyboard-response","436","407726","0.0-7.0-0.63","LF","ssktzegauz","1920","1080","0","1","0","5edba672293f3b028b70eb25","","null","","","learningBlock2","","","","This is a dep:","null","","","","","",""
