"trial_type","trial_index","time_elapsed","internal_node_id","condition","subject","screen_width","screen_height","attention","distraction","conscientious","prolificID","success","rt","url","view_history","test_part","final_height_px","final_width_px","scale_factor","stimulus","key_press","learningType","presentedImage","presentedLabel","button_pressed","response","responses"
"pavlovia","0","56","0.0-0.0","FL","aj9q5o0gf2","1600","900","0","1","0","5b01e69aa496b300013d5b9b","","","","","","","","","","","","","","","",""
"fullscreen","1","4136","0.0-1.0","FL","aj9q5o0gf2","1600","900","0","1","0","5b01e69aa496b300013d5b9b","true","","","","","","","","","","","","","","",""
"external-html","2","64620","0.0-2.0-0.0","FL","aj9q5o0gf2","1600","900","0","1","0","5b01e69aa496b300013d5b9b","","60419.31999998633","text/information_english.html","","","","","","","","","","","","",""
"external-html","3","144636","0.0-2.0-1.0","FL","aj9q5o0gf2","1600","900","0","1","0","5b01e69aa496b300013d5b9b","","79922.84999997355","text/consent_english.html","","","","","","","","","","","","",""
"instructions","4","185134","0.0-3.0","FL","aj9q5o0gf2","1600","900","0","1","0","5b01e69aa496b300013d5b9b","","NA","","[{""page_index"":0,""viewing_time"":32334.80499999132},{""page_index"":1,""viewing_time"":8141.7249999940395}]","instructions","","","","","","","","","","",""
"resize","5","262508","0.0-4.0","FL","aj9q5o0gf2","1600","900","0","1","0","5b01e69aa496b300013d5b9b","","","","","","","350","2.2222222222222223","","","","","","","",""
"image-keyboard-response","6","262693","0.0-5.0-0.0","FL","aj9q5o0gf2","1600","900","0","1","0","5b01e69aa496b300013d5b9b","","null","","","","","","","learning/Slide1.JPG","null","","","","","",""
"html-keyboard-response","7","263863","0.0-5.0-1.0","FL","aj9q5o0gf2","1600","900","0","1","0","5b01e69aa496b300013d5b9b","","null","","","learningBlock1","","","","That was a tob.","null","","","","","",""
"html-keyboard-response","8","264874","0.0-5.0-2.0","FL","aj9q5o0gf2","1600","900","0","1","0","5b01e69aa496b300013d5b9b","","null","","","learningBlock1","","","","<div style=""font-size:60px;""> </div>","null","FL","learning/Slide1.JPG","That was a tob.","","",""
"image-keyboard-response","9","265053","0.0-5.0-0.1","FL","aj9q5o0gf2","1600","900","0","1","0","5b01e69aa496b300013d5b9b","","null","","","","","","","learning/Slide2.JPG","null","","","","","",""
"html-keyboard-response","10","266224","0.0-5.0-1.1","FL","aj9q5o0gf2","1600","900","0","1","0","5b01e69aa496b300013d5b9b","","null","","","learningBlock1","","","","That was a wug.","null","","","","","",""
"html-keyboard-response","11","267234","0.0-5.0-2.1","FL","aj9q5o0gf2","1600","900","0","1","0","5b01e69aa496b300013d5b9b","","null","","","learningBlock1","","","","<div style=""font-size:60px;""> </div>","null","FL","learning/Slide2.JPG","That was a wug.","","",""
"image-keyboard-response","12","267422","0.0-5.0-0.2","FL","aj9q5o0gf2","1600","900","0","1","0","5b01e69aa496b300013d5b9b","","null","","","","","","","learning/Slide3.JPG","null","","","","","",""
"html-keyboard-response","13","268595","0.0-5.0-1.2","FL","aj9q5o0gf2","1600","900","0","1","0","5b01e69aa496b300013d5b9b","","null","","","learningBlock1","","","","That was a bim.","null","","","","","",""
"html-keyboard-response","14","269606","0.0-5.0-2.2","FL","aj9q5o0gf2","1600","900","0","1","0","5b01e69aa496b300013d5b9b","","null","","","learningBlock1","","","","<div style=""font-size:60px;""> </div>","null","FL","learning/Slide3.JPG","That was a bim.","","",""
"image-keyboard-response","15","269794","0.0-5.0-0.3","FL","aj9q5o0gf2","1600","900","0","1","0","5b01e69aa496b300013d5b9b","","null","","","","","","","learning/Slide4.JPG","null","","","","","",""
"html-keyboard-response","16","270962","0.0-5.0-1.3","FL","aj9q5o0gf2","1600","900","0","1","0","5b01e69aa496b300013d5b9b","","null","","","learningBlock1","","","","That was a dep.","null","","","","","",""
"html-keyboard-response","17","271965","0.0-5.0-2.3","FL","aj9q5o0gf2","1600","900","0","1","0","5b01e69aa496b300013d5b9b","","null","","","learningBlock1","","","","<div style=""font-size:60px;""> </div>","null","FL","learning/Slide4.JPG","That was a dep.","","",""
"image-keyboard-response","18","272144","0.0-5.0-0.4","FL","aj9q5o0gf2","1600","900","0","1","0","5b01e69aa496b300013d5b9b","","null","","","","","","","learning/Slide5.JPG","null","","","","","",""
"html-keyboard-response","19","273300","0.0-5.0-1.4","FL","aj9q5o0gf2","1600","900","0","1","0","5b01e69aa496b300013d5b9b","","null","","","learningBlock1","","","","That was a wug.","null","","","","","",""
"html-keyboard-response","20","274314","0.0-5.0-2.4","FL","aj9q5o0gf2","1600","900","0","1","0","5b01e69aa496b300013d5b9b","","null","","","learningBlock1","","","","<div style=""font-size:60px;""> </div>","null","FL","learning/Slide5.JPG","That was a wug.","","",""
"image-keyboard-response","21","274493","0.0-5.0-0.5","FL","aj9q5o0gf2","1600","900","0","1","0","5b01e69aa496b300013d5b9b","","null","","","","","","","learning/Slide6.JPG","null","","","","","",""
"html-keyboard-response","22","275675","0.0-5.0-1.5","FL","aj9q5o0gf2","1600","900","0","1","0","5b01e69aa496b300013d5b9b","","null","","","learningBlock1","","","","That was a dep.","null","","","","","",""
"html-keyboard-response","23","276687","0.0-5.0-2.5","FL","aj9q5o0gf2","1600","900","0","1","0","5b01e69aa496b300013d5b9b","","null","","","learningBlock1","","","","<div style=""font-size:60px;""> </div>","null","FL","learning/Slide6.JPG","That was a dep.","","",""
"image-keyboard-response","24","276872","0.0-5.0-0.6","FL","aj9q5o0gf2","1600","900","0","1","0","5b01e69aa496b300013d5b9b","","null","","","","","","","learning/Slide7.JPG","null","","","","","",""
"html-keyboard-response","25","278042","0.0-5.0-1.6","FL","aj9q5o0gf2","1600","900","0","1","0","5b01e69aa496b300013d5b9b","","null","","","learningBlock1","","","","That was a wug.","null","","","","","",""
"html-keyboard-response","26","279057","0.0-5.0-2.6","FL","aj9q5o0gf2","1600","900","0","1","0","5b01e69aa496b300013d5b9b","","null","","","learningBlock1","","","","<div style=""font-size:60px;""> </div>","null","FL","learning/Slide7.JPG","That was a wug.","","",""
"image-keyboard-response","27","279236","0.0-5.0-0.7","FL","aj9q5o0gf2","1600","900","0","1","0","5b01e69aa496b300013d5b9b","","null","","","","","","","learning/Slide8.JPG","null","","","","","",""
"html-keyboard-response","28","280398","0.0-5.0-1.7","FL","aj9q5o0gf2","1600","900","0","1","0","5b01e69aa496b300013d5b9b","","null","","","learningBlock1","","","","That was a bim.","null","","","","","",""
"html-keyboard-response","29","281410","0.0-5.0-2.7","FL","aj9q5o0gf2","1600","900","0","1","0","5b01e69aa496b300013d5b9b","","null","","","learningBlock1","","","","<div style=""font-size:60px;""> </div>","null","FL","learning/Slide8.JPG","That was a bim.","","",""
"image-keyboard-response","30","281602","0.0-5.0-0.8","FL","aj9q5o0gf2","1600","900","0","1","0","5b01e69aa496b300013d5b9b","","null","","","","","","","learning/Slide9.JPG","null","","","","","",""
"html-keyboard-response","31","282767","0.0-5.0-1.8","FL","aj9q5o0gf2","1600","900","0","1","0","5b01e69aa496b300013d5b9b","","null","","","learningBlock1","","","","That was a wug.","null","","","","","",""
"html-keyboard-response","32","283780","0.0-5.0-2.8","FL","aj9q5o0gf2","1600","900","0","1","0","5b01e69aa496b300013d5b9b","","null","","","learningBlock1","","","","<div style=""font-size:60px;""> </div>","null","FL","learning/Slide9.JPG","That was a wug.","","",""
"image-keyboard-response","33","283967","0.0-5.0-0.9","FL","aj9q5o0gf2","1600","900","0","1","0","5b01e69aa496b300013d5b9b","","null","","","","","","","learning/Slide10.JPG","null","","","","","",""
"html-keyboard-response","34","285150","0.0-5.0-1.9","FL","aj9q5o0gf2","1600","900","0","1","0","5b01e69aa496b300013d5b9b","","null","","","learningBlock1","","","","That was a dep.","null","","","","","",""
"html-keyboard-response","35","286165","0.0-5.0-2.9","FL","aj9q5o0gf2","1600","900","0","1","0","5b01e69aa496b300013d5b9b","","null","","","learningBlock1","","","","<div style=""font-size:60px;""> </div>","null","FL","learning/Slide10.JPG","That was a dep.","","",""
"image-keyboard-response","36","286353","0.0-5.0-0.10","FL","aj9q5o0gf2","1600","900","0","1","0","5b01e69aa496b300013d5b9b","","null","","","","","","","learning/Slide11.JPG","null","","","","","",""
"html-keyboard-response","37","287525","0.0-5.0-1.10","FL","aj9q5o0gf2","1600","900","0","1","0","5b01e69aa496b300013d5b9b","","null","","","learningBlock1","","","","That was a tob.","null","","","","","",""
"html-keyboard-response","38","288535","0.0-5.0-2.10","FL","aj9q5o0gf2","1600","900","0","1","0","5b01e69aa496b300013d5b9b","","null","","","learningBlock1","","","","<div style=""font-size:60px;""> </div>","null","FL","learning/Slide11.JPG","That was a tob.","","",""
"image-keyboard-response","39","288720","0.0-5.0-0.11","FL","aj9q5o0gf2","1600","900","0","1","0","5b01e69aa496b300013d5b9b","","null","","","","","","","learning/Slide12.JPG","null","","","","","",""
"html-keyboard-response","40","289889","0.0-5.0-1.11","FL","aj9q5o0gf2","1600","900","0","1","0","5b01e69aa496b300013d5b9b","","null","","","learningBlock1","","","","That was a dep.","null","","","","","",""
"html-keyboard-response","41","290904","0.0-5.0-2.11","FL","aj9q5o0gf2","1600","900","0","1","0","5b01e69aa496b300013d5b9b","","null","","","learningBlock1","","","","<div style=""font-size:60px;""> </div>","null","FL","learning/Slide12.JPG","That was a dep.","","",""
"image-keyboard-response","42","291091","0.0-5.0-0.12","FL","aj9q5o0gf2","1600","900","0","1","0","5b01e69aa496b300013d5b9b","","null","","","","","","","learning/Slide13.JPG","null","","","","","",""
"html-keyboard-response","43","292249","0.0-5.0-1.12","FL","aj9q5o0gf2","1600","900","0","1","0","5b01e69aa496b300013d5b9b","","null","","","learningBlock1","","","","That was a bim.","null","","","","","",""
"html-keyboard-response","44","293262","0.0-5.0-2.12","FL","aj9q5o0gf2","1600","900","0","1","0","5b01e69aa496b300013d5b9b","","null","","","learningBlock1","","","","<div style=""font-size:60px;""> </div>","null","FL","learning/Slide13.JPG","That was a bim.","","",""
"image-keyboard-response","45","293449","0.0-5.0-0.13","FL","aj9q5o0gf2","1600","900","0","1","0","5b01e69aa496b300013d5b9b","","null","","","","","","","learning/Slide14.JPG","null","","","","","",""
"html-keyboard-response","46","294610","0.0-5.0-1.13","FL","aj9q5o0gf2","1600","900","0","1","0","5b01e69aa496b300013d5b9b","","null","","","learningBlock1","","","","That was a wug.","null","","","","","",""
"html-keyboard-response","47","295621","0.0-5.0-2.13","FL","aj9q5o0gf2","1600","900","0","1","0","5b01e69aa496b300013d5b9b","","null","","","learningBlock1","","","","<div style=""font-size:60px;""> </div>","null","FL","learning/Slide14.JPG","That was a wug.","","",""
"image-keyboard-response","48","295810","0.0-5.0-0.14","FL","aj9q5o0gf2","1600","900","0","1","0","5b01e69aa496b300013d5b9b","","null","","","","","","","learning/Slide15.JPG","null","","","","","",""
"html-keyboard-response","49","296964","0.0-5.0-1.14","FL","aj9q5o0gf2","1600","900","0","1","0","5b01e69aa496b300013d5b9b","","null","","","learningBlock1","","","","That was a tob.","null","","","","","",""
"html-keyboard-response","50","297980","0.0-5.0-2.14","FL","aj9q5o0gf2","1600","900","0","1","0","5b01e69aa496b300013d5b9b","","null","","","learningBlock1","","","","<div style=""font-size:60px;""> </div>","null","FL","learning/Slide15.JPG","That was a tob.","","",""
"image-keyboard-response","51","298159","0.0-5.0-0.15","FL","aj9q5o0gf2","1600","900","0","1","0","5b01e69aa496b300013d5b9b","","null","","","","","","","learning/Slide16.JPG","null","","","","","",""
"html-keyboard-response","52","299335","0.0-5.0-1.15","FL","aj9q5o0gf2","1600","900","0","1","0","5b01e69aa496b300013d5b9b","","null","","","learningBlock1","","","","That was a dep.","null","","","","","",""
"html-keyboard-response","53","300349","0.0-5.0-2.15","FL","aj9q5o0gf2","1600","900","0","1","0","5b01e69aa496b300013d5b9b","","null","","","learningBlock1","","","","<div style=""font-size:60px;""> </div>","null","FL","learning/Slide16.JPG","That was a dep.","","",""
"image-keyboard-response","54","300528","0.0-5.0-0.16","FL","aj9q5o0gf2","1600","900","0","1","0","5b01e69aa496b300013d5b9b","","null","","","","","","","learning/Slide17.JPG","null","","","","","",""
"html-keyboard-response","55","301702","0.0-5.0-1.16","FL","aj9q5o0gf2","1600","900","0","1","0","5b01e69aa496b300013d5b9b","","null","","","learningBlock1","","","","That was a bim.","null","","","","","",""
"html-keyboard-response","56","302715","0.0-5.0-2.16","FL","aj9q5o0gf2","1600","900","0","1","0","5b01e69aa496b300013d5b9b","","null","","","learningBlock1","","","","<div style=""font-size:60px;""> </div>","null","FL","learning/Slide17.JPG","That was a bim.","","",""
"image-keyboard-response","57","302893","0.0-5.0-0.17","FL","aj9q5o0gf2","1600","900","0","1","0","5b01e69aa496b300013d5b9b","","null","","","","","","","learning/Slide18.JPG","null","","","","","",""
"html-keyboard-response","58","304072","0.0-5.0-1.17","FL","aj9q5o0gf2","1600","900","0","1","0","5b01e69aa496b300013d5b9b","","null","","","learningBlock1","","","","That was a tob.","null","","","","","",""
"html-keyboard-response","59","305087","0.0-5.0-2.17","FL","aj9q5o0gf2","1600","900","0","1","0","5b01e69aa496b300013d5b9b","","null","","","learningBlock1","","","","<div style=""font-size:60px;""> </div>","null","FL","learning/Slide18.JPG","That was a tob.","","",""
"image-keyboard-response","60","305277","0.0-5.0-0.18","FL","aj9q5o0gf2","1600","900","0","1","0","5b01e69aa496b300013d5b9b","","null","","","","","","","learning/Slide19.JPG","null","","","","","",""
"html-keyboard-response","61","306457","0.0-5.0-1.18","FL","aj9q5o0gf2","1600","900","0","1","0","5b01e69aa496b300013d5b9b","","null","","","learningBlock1","","","","That was a wug.","null","","","","","",""
"html-keyboard-response","62","307471","0.0-5.0-2.18","FL","aj9q5o0gf2","1600","900","0","1","0","5b01e69aa496b300013d5b9b","","null","","","learningBlock1","","","","<div style=""font-size:60px;""> </div>","null","FL","learning/Slide19.JPG","That was a wug.","","",""
"image-keyboard-response","63","307658","0.0-5.0-0.19","FL","aj9q5o0gf2","1600","900","0","1","0","5b01e69aa496b300013d5b9b","","null","","","","","","","learning/Slide20.JPG","null","","","","","",""
"html-keyboard-response","64","308814","0.0-5.0-1.19","FL","aj9q5o0gf2","1600","900","0","1","0","5b01e69aa496b300013d5b9b","","null","","","learningBlock1","","","","That was a bim.","null","","","","","",""
"html-keyboard-response","65","309827","0.0-5.0-2.19","FL","aj9q5o0gf2","1600","900","0","1","0","5b01e69aa496b300013d5b9b","","null","","","learningBlock1","","","","<div style=""font-size:60px;""> </div>","null","FL","learning/Slide20.JPG","That was a bim.","","",""
"image-keyboard-response","66","310014","0.0-5.0-0.20","FL","aj9q5o0gf2","1600","900","0","1","0","5b01e69aa496b300013d5b9b","","null","","","","","","","learning/Slide21.JPG","null","","","","","",""
"html-keyboard-response","67","311180","0.0-5.0-1.20","FL","aj9q5o0gf2","1600","900","0","1","0","5b01e69aa496b300013d5b9b","","null","","","learningBlock1","","","","That was a dep.","null","","","","","",""
"html-keyboard-response","68","312191","0.0-5.0-2.20","FL","aj9q5o0gf2","1600","900","0","1","0","5b01e69aa496b300013d5b9b","","null","","","learningBlock1","","","","<div style=""font-size:60px;""> </div>","null","FL","learning/Slide21.JPG","That was a dep.","","",""
"image-keyboard-response","69","312376","0.0-5.0-0.21","FL","aj9q5o0gf2","1600","900","0","1","0","5b01e69aa496b300013d5b9b","","null","","","","","","","learning/Slide22.JPG","null","","","","","",""
"html-keyboard-response","70","313544","0.0-5.0-1.21","FL","aj9q5o0gf2","1600","900","0","1","0","5b01e69aa496b300013d5b9b","","null","","","learningBlock1","","","","That was a bim.","null","","","","","",""
"html-keyboard-response","71","314555","0.0-5.0-2.21","FL","aj9q5o0gf2","1600","900","0","1","0","5b01e69aa496b300013d5b9b","","null","","","learningBlock1","","","","<div style=""font-size:60px;""> </div>","null","FL","learning/Slide22.JPG","That was a bim.","","",""
"image-keyboard-response","72","314742","0.0-5.0-0.22","FL","aj9q5o0gf2","1600","900","0","1","0","5b01e69aa496b300013d5b9b","","null","","","","","","","learning/Slide23.JPG","null","","","","","",""
"html-keyboard-response","73","315897","0.0-5.0-1.22","FL","aj9q5o0gf2","1600","900","0","1","0","5b01e69aa496b300013d5b9b","","null","","","learningBlock1","","","","That was a tob.","null","","","","","",""
"html-keyboard-response","74","316911","0.0-5.0-2.22","FL","aj9q5o0gf2","1600","900","0","1","0","5b01e69aa496b300013d5b9b","","null","","","learningBlock1","","","","<div style=""font-size:60px;""> </div>","null","FL","learning/Slide23.JPG","That was a tob.","","",""
"image-keyboard-response","75","317090","0.0-5.0-0.23","FL","aj9q5o0gf2","1600","900","0","1","0","5b01e69aa496b300013d5b9b","","null","","","","","","","learning/Slide24.JPG","null","","","","","",""
"html-keyboard-response","76","318256","0.0-5.0-1.23","FL","aj9q5o0gf2","1600","900","0","1","0","5b01e69aa496b300013d5b9b","","null","","","learningBlock1","","","","That was a wug.","null","","","","","",""
"html-keyboard-response","77","319272","0.0-5.0-2.23","FL","aj9q5o0gf2","1600","900","0","1","0","5b01e69aa496b300013d5b9b","","null","","","learningBlock1","","","","<div style=""font-size:60px;""> </div>","null","FL","learning/Slide24.JPG","That was a wug.","","",""
"image-keyboard-response","78","319460","0.0-5.0-0.24","FL","aj9q5o0gf2","1600","900","0","1","0","5b01e69aa496b300013d5b9b","","null","","","","","","","learning/Slide25.JPG","null","","","","","",""
"html-keyboard-response","79","320648","0.0-5.0-1.24","FL","aj9q5o0gf2","1600","900","0","1","0","5b01e69aa496b300013d5b9b","","null","","","learningBlock1","","","","That was a dep.","null","","","","","",""
"html-keyboard-response","80","321660","0.0-5.0-2.24","FL","aj9q5o0gf2","1600","900","0","1","0","5b01e69aa496b300013d5b9b","","null","","","learningBlock1","","","","<div style=""font-size:60px;""> </div>","null","FL","learning/Slide25.JPG","That was a dep.","","",""
"image-keyboard-response","81","321840","0.0-5.0-0.25","FL","aj9q5o0gf2","1600","900","0","1","0","5b01e69aa496b300013d5b9b","","null","","","","","","","learning/Slide26.JPG","null","","","","","",""
"html-keyboard-response","82","323021","0.0-5.0-1.25","FL","aj9q5o0gf2","1600","900","0","1","0","5b01e69aa496b300013d5b9b","","null","","","learningBlock1","","","","That was a wug.","null","","","","","",""
"html-keyboard-response","83","324037","0.0-5.0-2.25","FL","aj9q5o0gf2","1600","900","0","1","0","5b01e69aa496b300013d5b9b","","null","","","learningBlock1","","","","<div style=""font-size:60px;""> </div>","null","FL","learning/Slide26.JPG","That was a wug.","","",""
"image-keyboard-response","84","324216","0.0-5.0-0.26","FL","aj9q5o0gf2","1600","900","0","1","0","5b01e69aa496b300013d5b9b","","null","","","","","","","learning/Slide27.JPG","null","","","","","",""
"html-keyboard-response","85","325378","0.0-5.0-1.26","FL","aj9q5o0gf2","1600","900","0","1","0","5b01e69aa496b300013d5b9b","","null","","","learningBlock1","","","","That was a bim.","null","","","","","",""
"html-keyboard-response","86","326397","0.0-5.0-2.26","FL","aj9q5o0gf2","1600","900","0","1","0","5b01e69aa496b300013d5b9b","","null","","","learningBlock1","","","","<div style=""font-size:60px;""> </div>","null","FL","learning/Slide27.JPG","That was a bim.","","",""
"image-keyboard-response","87","326583","0.0-5.0-0.27","FL","aj9q5o0gf2","1600","900","0","1","0","5b01e69aa496b300013d5b9b","","null","","","","","","","learning/Slide28.JPG","null","","","","","",""
"html-keyboard-response","88","327765","0.0-5.0-1.27","FL","aj9q5o0gf2","1600","900","0","1","0","5b01e69aa496b300013d5b9b","","null","","","learningBlock1","","","","That was a dep.","null","","","","","",""
"html-keyboard-response","89","328773","0.0-5.0-2.27","FL","aj9q5o0gf2","1600","900","0","1","0","5b01e69aa496b300013d5b9b","","null","","","learningBlock1","","","","<div style=""font-size:60px;""> </div>","null","FL","learning/Slide28.JPG","That was a dep.","","",""
"image-keyboard-response","90","328960","0.0-5.0-0.28","FL","aj9q5o0gf2","1600","900","0","1","0","5b01e69aa496b300013d5b9b","","null","","","","","","","learning/Slide29.JPG","null","","","","","",""
"html-keyboard-response","91","330130","0.0-5.0-1.28","FL","aj9q5o0gf2","1600","900","0","1","0","5b01e69aa496b300013d5b9b","","null","","","learningBlock1","","","","That was a tob.","null","","","","","",""
"html-keyboard-response","92","331143","0.0-5.0-2.28","FL","aj9q5o0gf2","1600","900","0","1","0","5b01e69aa496b300013d5b9b","","null","","","learningBlock1","","","","<div style=""font-size:60px;""> </div>","null","FL","learning/Slide29.JPG","That was a tob.","","",""
"image-keyboard-response","93","331330","0.0-5.0-0.29","FL","aj9q5o0gf2","1600","900","0","1","0","5b01e69aa496b300013d5b9b","","null","","","","","","","learning/Slide30.JPG","null","","","","","",""
"html-keyboard-response","94","332486","0.0-5.0-1.29","FL","aj9q5o0gf2","1600","900","0","1","0","5b01e69aa496b300013d5b9b","","null","","","learningBlock1","","","","That was a dep.","null","","","","","",""
"html-keyboard-response","95","333496","0.0-5.0-2.29","FL","aj9q5o0gf2","1600","900","0","1","0","5b01e69aa496b300013d5b9b","","null","","","learningBlock1","","","","<div style=""font-size:60px;""> </div>","null","FL","learning/Slide30.JPG","That was a dep.","","",""
"image-keyboard-response","96","333675","0.0-5.0-0.30","FL","aj9q5o0gf2","1600","900","0","1","0","5b01e69aa496b300013d5b9b","","null","","","","","","","learning/Slide31.JPG","null","","","","","",""
"html-keyboard-response","97","334855","0.0-5.0-1.30","FL","aj9q5o0gf2","1600","900","0","1","0","5b01e69aa496b300013d5b9b","","null","","","learningBlock1","","","","That was a wug.","null","","","","","",""
"html-keyboard-response","98","335866","0.0-5.0-2.30","FL","aj9q5o0gf2","1600","900","0","1","0","5b01e69aa496b300013d5b9b","","null","","","learningBlock1","","","","<div style=""font-size:60px;""> </div>","null","FL","learning/Slide31.JPG","That was a wug.","","",""
"image-keyboard-response","99","336053","0.0-5.0-0.31","FL","aj9q5o0gf2","1600","900","0","1","0","5b01e69aa496b300013d5b9b","","null","","","","","","","learning/Slide32.JPG","null","","","","","",""
"html-keyboard-response","100","337225","0.0-5.0-1.31","FL","aj9q5o0gf2","1600","900","0","1","0","5b01e69aa496b300013d5b9b","","null","","","learningBlock1","","","","That was a tob.","null","","","","","",""
"html-keyboard-response","101","338240","0.0-5.0-2.31","FL","aj9q5o0gf2","1600","900","0","1","0","5b01e69aa496b300013d5b9b","","null","","","learningBlock1","","","","<div style=""font-size:60px;""> </div>","null","FL","learning/Slide32.JPG","That was a tob.","","",""
"image-keyboard-response","102","338418","0.0-5.0-0.32","FL","aj9q5o0gf2","1600","900","0","1","0","5b01e69aa496b300013d5b9b","","null","","","","","","","learning/Slide33.JPG","null","","","","","",""
"html-keyboard-response","103","339581","0.0-5.0-1.32","FL","aj9q5o0gf2","1600","900","0","1","0","5b01e69aa496b300013d5b9b","","null","","","learningBlock1","","","","That was a bim.","null","","","","","",""
"html-keyboard-response","104","340597","0.0-5.0-2.32","FL","aj9q5o0gf2","1600","900","0","1","0","5b01e69aa496b300013d5b9b","","null","","","learningBlock1","","","","<div style=""font-size:60px;""> </div>","null","FL","learning/Slide33.JPG","That was a bim.","","",""
"image-keyboard-response","105","340784","0.0-5.0-0.33","FL","aj9q5o0gf2","1600","900","0","1","0","5b01e69aa496b300013d5b9b","","null","","","","","","","learning/Slide34.JPG","null","","","","","",""
"html-keyboard-response","106","341956","0.0-5.0-1.33","FL","aj9q5o0gf2","1600","900","0","1","0","5b01e69aa496b300013d5b9b","","null","","","learningBlock1","","","","That was a tob.","null","","","","","",""
"html-keyboard-response","107","342969","0.0-5.0-2.33","FL","aj9q5o0gf2","1600","900","0","1","0","5b01e69aa496b300013d5b9b","","null","","","learningBlock1","","","","<div style=""font-size:60px;""> </div>","null","FL","learning/Slide34.JPG","That was a tob.","","",""
"image-keyboard-response","108","343159","0.0-5.0-0.34","FL","aj9q5o0gf2","1600","900","0","1","0","5b01e69aa496b300013d5b9b","","null","","","","","","","learning/Slide35.JPG","null","","","","","",""
"html-keyboard-response","109","344323","0.0-5.0-1.34","FL","aj9q5o0gf2","1600","900","0","1","0","5b01e69aa496b300013d5b9b","","null","","","learningBlock1","","","","That was a bim.","null","","","","","",""
"html-keyboard-response","110","345336","0.0-5.0-2.34","FL","aj9q5o0gf2","1600","900","0","1","0","5b01e69aa496b300013d5b9b","","null","","","learningBlock1","","","","<div style=""font-size:60px;""> </div>","null","FL","learning/Slide35.JPG","That was a bim.","","",""
"image-keyboard-response","111","345522","0.0-5.0-0.35","FL","aj9q5o0gf2","1600","900","0","1","0","5b01e69aa496b300013d5b9b","","null","","","","","","","learning/Slide36.JPG","null","","","","","",""
"html-keyboard-response","112","346689","0.0-5.0-1.35","FL","aj9q5o0gf2","1600","900","0","1","0","5b01e69aa496b300013d5b9b","","null","","","learningBlock1","","","","That was a dep.","null","","","","","",""
"html-keyboard-response","113","347705","0.0-5.0-2.35","FL","aj9q5o0gf2","1600","900","0","1","0","5b01e69aa496b300013d5b9b","","null","","","learningBlock1","","","","<div style=""font-size:60px;""> </div>","null","FL","learning/Slide36.JPG","That was a dep.","","",""
"image-keyboard-response","114","347894","0.0-5.0-0.36","FL","aj9q5o0gf2","1600","900","0","1","0","5b01e69aa496b300013d5b9b","","null","","","","","","","learning/Slide37.JPG","null","","","","","",""
"html-keyboard-response","115","349066","0.0-5.0-1.36","FL","aj9q5o0gf2","1600","900","0","1","0","5b01e69aa496b300013d5b9b","","null","","","learningBlock1","","","","That was a tob.","null","","","","","",""
"html-keyboard-response","116","350079","0.0-5.0-2.36","FL","aj9q5o0gf2","1600","900","0","1","0","5b01e69aa496b300013d5b9b","","null","","","learningBlock1","","","","<div style=""font-size:60px;""> </div>","null","FL","learning/Slide37.JPG","That was a tob.","","",""
"image-keyboard-response","117","350264","0.0-5.0-0.37","FL","aj9q5o0gf2","1600","900","0","1","0","5b01e69aa496b300013d5b9b","","null","","","","","","","learning/Slide38.JPG","null","","","","","",""
"html-keyboard-response","118","351424","0.0-5.0-1.37","FL","aj9q5o0gf2","1600","900","0","1","0","5b01e69aa496b300013d5b9b","","null","","","learningBlock1","","","","That was a wug.","null","","","","","",""
"html-keyboard-response","119","352435","0.0-5.0-2.37","FL","aj9q5o0gf2","1600","900","0","1","0","5b01e69aa496b300013d5b9b","","null","","","learningBlock1","","","","<div style=""font-size:60px;""> </div>","null","FL","learning/Slide38.JPG","That was a wug.","","",""
"image-keyboard-response","120","352624","0.0-5.0-0.38","FL","aj9q5o0gf2","1600","900","0","1","0","5b01e69aa496b300013d5b9b","","null","","","","","","","learning/Slide39.JPG","null","","","","","",""
"html-keyboard-response","121","353804","0.0-5.0-1.38","FL","aj9q5o0gf2","1600","900","0","1","0","5b01e69aa496b300013d5b9b","","null","","","learningBlock1","","","","That was a bim.","null","","","","","",""
"html-keyboard-response","122","354815","0.0-5.0-2.38","FL","aj9q5o0gf2","1600","900","0","1","0","5b01e69aa496b300013d5b9b","","null","","","learningBlock1","","","","<div style=""font-size:60px;""> </div>","null","FL","learning/Slide39.JPG","That was a bim.","","",""
"image-keyboard-response","123","355002","0.0-5.0-0.39","FL","aj9q5o0gf2","1600","900","0","1","0","5b01e69aa496b300013d5b9b","","null","","","","","","","learning/Slide40.JPG","null","","","","","",""
"html-keyboard-response","124","356170","0.0-5.0-1.39","FL","aj9q5o0gf2","1600","900","0","1","0","5b01e69aa496b300013d5b9b","","null","","","learningBlock1","","","","That was a tob.","null","","","","","",""
"html-keyboard-response","125","357180","0.0-5.0-2.39","FL","aj9q5o0gf2","1600","900","0","1","0","5b01e69aa496b300013d5b9b","","null","","","learningBlock1","","","","<div style=""font-size:60px;""> </div>","null","FL","learning/Slide40.JPG","That was a tob.","","",""
"image-keyboard-response","126","357365","0.0-5.0-0.40","FL","aj9q5o0gf2","1600","900","0","1","0","5b01e69aa496b300013d5b9b","","null","","","","","","","learning/Slide41.JPG","null","","","","","",""
"html-keyboard-response","127","358519","0.0-5.0-1.40","FL","aj9q5o0gf2","1600","900","0","1","0","5b01e69aa496b300013d5b9b","","null","","","learningBlock1","","","","That was a bim.","null","","","","","",""
"html-keyboard-response","128","359532","0.0-5.0-2.40","FL","aj9q5o0gf2","1600","900","0","1","0","5b01e69aa496b300013d5b9b","","null","","","learningBlock1","","","","<div style=""font-size:60px;""> </div>","null","FL","learning/Slide41.JPG","That was a bim.","","",""
"image-keyboard-response","129","359712","0.0-5.0-0.41","FL","aj9q5o0gf2","1600","900","0","1","0","5b01e69aa496b300013d5b9b","","null","","","","","","","learning/Slide42.JPG","null","","","","","",""
"html-keyboard-response","130","360891","0.0-5.0-1.41","FL","aj9q5o0gf2","1600","900","0","1","0","5b01e69aa496b300013d5b9b","","null","","","learningBlock1","","","","That was a dep.","null","","","","","",""
"html-keyboard-response","131","361902","0.0-5.0-2.41","FL","aj9q5o0gf2","1600","900","0","1","0","5b01e69aa496b300013d5b9b","","null","","","learningBlock1","","","","<div style=""font-size:60px;""> </div>","null","FL","learning/Slide42.JPG","That was a dep.","","",""
"image-keyboard-response","132","362090","0.0-5.0-0.42","FL","aj9q5o0gf2","1600","900","0","1","0","5b01e69aa496b300013d5b9b","","null","","","","","","","learning/Slide43.JPG","null","","","","","",""
"html-keyboard-response","133","363261","0.0-5.0-1.42","FL","aj9q5o0gf2","1600","900","0","1","0","5b01e69aa496b300013d5b9b","","null","","","learningBlock1","","","","That was a wug.","null","","","","","",""
"html-keyboard-response","134","364273","0.0-5.0-2.42","FL","aj9q5o0gf2","1600","900","0","1","0","5b01e69aa496b300013d5b9b","","null","","","learningBlock1","","","","<div style=""font-size:60px;""> </div>","null","FL","learning/Slide43.JPG","That was a wug.","","",""
"image-keyboard-response","135","364460","0.0-5.0-0.43","FL","aj9q5o0gf2","1600","900","0","1","0","5b01e69aa496b300013d5b9b","","null","","","","","","","learning/Slide44.JPG","null","","","","","",""
"html-keyboard-response","136","365631","0.0-5.0-1.43","FL","aj9q5o0gf2","1600","900","0","1","0","5b01e69aa496b300013d5b9b","","null","","","learningBlock1","","","","That was a bim.","null","","","","","",""
"html-keyboard-response","137","366648","0.0-5.0-2.43","FL","aj9q5o0gf2","1600","900","0","1","0","5b01e69aa496b300013d5b9b","","null","","","learningBlock1","","","","<div style=""font-size:60px;""> </div>","null","FL","learning/Slide44.JPG","That was a bim.","","",""
"image-keyboard-response","138","366837","0.0-5.0-0.44","FL","aj9q5o0gf2","1600","900","0","1","0","5b01e69aa496b300013d5b9b","","null","","","","","","","learning/Slide45.JPG","null","","","","","",""
"html-keyboard-response","139","368004","0.0-5.0-1.44","FL","aj9q5o0gf2","1600","900","0","1","0","5b01e69aa496b300013d5b9b","","null","","","learningBlock1","","","","That was a wug.","null","","","","","",""
"html-keyboard-response","140","369016","0.0-5.0-2.44","FL","aj9q5o0gf2","1600","900","0","1","0","5b01e69aa496b300013d5b9b","","null","","","learningBlock1","","","","<div style=""font-size:60px;""> </div>","null","FL","learning/Slide45.JPG","That was a wug.","","",""
"image-keyboard-response","141","369205","0.0-5.0-0.45","FL","aj9q5o0gf2","1600","900","0","1","0","5b01e69aa496b300013d5b9b","","null","","","","","","","learning/Slide46.JPG","null","","","","","",""
"html-keyboard-response","142","370358","0.0-5.0-1.45","FL","aj9q5o0gf2","1600","900","0","1","0","5b01e69aa496b300013d5b9b","","null","","","learningBlock1","","","","That was a dep.","null","","","","","",""
"html-keyboard-response","143","371373","0.0-5.0-2.45","FL","aj9q5o0gf2","1600","900","0","1","0","5b01e69aa496b300013d5b9b","","null","","","learningBlock1","","","","<div style=""font-size:60px;""> </div>","null","FL","learning/Slide46.JPG","That was a dep.","","",""
"image-keyboard-response","144","371560","0.0-5.0-0.46","FL","aj9q5o0gf2","1600","900","0","1","0","5b01e69aa496b300013d5b9b","","null","","","","","","","learning/Slide47.JPG","null","","","","","",""
"html-keyboard-response","145","372727","0.0-5.0-1.46","FL","aj9q5o0gf2","1600","900","0","1","0","5b01e69aa496b300013d5b9b","","null","","","learningBlock1","","","","That was a tob.","null","","","","","",""
"html-keyboard-response","146","373739","0.0-5.0-2.46","FL","aj9q5o0gf2","1600","900","0","1","0","5b01e69aa496b300013d5b9b","","null","","","learningBlock1","","","","<div style=""font-size:60px;""> </div>","null","FL","learning/Slide47.JPG","That was a tob.","","",""
"image-keyboard-response","147","373926","0.0-5.0-0.47","FL","aj9q5o0gf2","1600","900","0","1","0","5b01e69aa496b300013d5b9b","","null","","","","","","","learning/Slide48.JPG","null","","","","","",""
"html-keyboard-response","148","375097","0.0-5.0-1.47","FL","aj9q5o0gf2","1600","900","0","1","0","5b01e69aa496b300013d5b9b","","null","","","learningBlock1","","","","That was a bim.","null","","","","","",""
"html-keyboard-response","149","376108","0.0-5.0-2.47","FL","aj9q5o0gf2","1600","900","0","1","0","5b01e69aa496b300013d5b9b","","null","","","learningBlock1","","","","<div style=""font-size:60px;""> </div>","null","FL","learning/Slide48.JPG","That was a bim.","","",""
"image-keyboard-response","150","376296","0.0-5.0-0.48","FL","aj9q5o0gf2","1600","900","0","1","0","5b01e69aa496b300013d5b9b","","null","","","","","","","learning/Slide49.JPG","null","","","","","",""
"html-keyboard-response","151","377461","0.0-5.0-1.48","FL","aj9q5o0gf2","1600","900","0","1","0","5b01e69aa496b300013d5b9b","","null","","","learningBlock1","","","","That was a dep.","null","","","","","",""
"html-keyboard-response","152","378477","0.0-5.0-2.48","FL","aj9q5o0gf2","1600","900","0","1","0","5b01e69aa496b300013d5b9b","","null","","","learningBlock1","","","","<div style=""font-size:60px;""> </div>","null","FL","learning/Slide49.JPG","That was a dep.","","",""
"image-keyboard-response","153","378665","0.0-5.0-0.49","FL","aj9q5o0gf2","1600","900","0","1","0","5b01e69aa496b300013d5b9b","","null","","","","","","","learning/Slide50.JPG","null","","","","","",""
"html-keyboard-response","154","379840","0.0-5.0-1.49","FL","aj9q5o0gf2","1600","900","0","1","0","5b01e69aa496b300013d5b9b","","null","","","learningBlock1","","","","That was a tob.","null","","","","","",""
"html-keyboard-response","155","380855","0.0-5.0-2.49","FL","aj9q5o0gf2","1600","900","0","1","0","5b01e69aa496b300013d5b9b","","null","","","learningBlock1","","","","<div style=""font-size:60px;""> </div>","null","FL","learning/Slide50.JPG","That was a tob.","","",""
"image-keyboard-response","156","381041","0.0-5.0-0.50","FL","aj9q5o0gf2","1600","900","0","1","0","5b01e69aa496b300013d5b9b","","null","","","","","","","learning/Slide51.JPG","null","","","","","",""
"html-keyboard-response","157","382199","0.0-5.0-1.50","FL","aj9q5o0gf2","1600","900","0","1","0","5b01e69aa496b300013d5b9b","","null","","","learningBlock1","","","","That was a bim.","null","","","","","",""
"html-keyboard-response","158","383208","0.0-5.0-2.50","FL","aj9q5o0gf2","1600","900","0","1","0","5b01e69aa496b300013d5b9b","","null","","","learningBlock1","","","","<div style=""font-size:60px;""> </div>","null","FL","learning/Slide51.JPG","That was a bim.","","",""
"image-keyboard-response","159","383397","0.0-5.0-0.51","FL","aj9q5o0gf2","1600","900","0","1","0","5b01e69aa496b300013d5b9b","","null","","","","","","","learning/Slide52.JPG","null","","","","","",""
"html-keyboard-response","160","384564","0.0-5.0-1.51","FL","aj9q5o0gf2","1600","900","0","1","0","5b01e69aa496b300013d5b9b","","null","","","learningBlock1","","","","That was a wug.","null","","","","","",""
"html-keyboard-response","161","385580","0.0-5.0-2.51","FL","aj9q5o0gf2","1600","900","0","1","0","5b01e69aa496b300013d5b9b","","null","","","learningBlock1","","","","<div style=""font-size:60px;""> </div>","null","FL","learning/Slide52.JPG","That was a wug.","","",""
"image-keyboard-response","162","385771","0.0-5.0-0.52","FL","aj9q5o0gf2","1600","900","0","1","0","5b01e69aa496b300013d5b9b","","null","","","","","","","learning/Slide53.JPG","null","","","","","",""
"html-keyboard-response","163","386952","0.0-5.0-1.52","FL","aj9q5o0gf2","1600","900","0","1","0","5b01e69aa496b300013d5b9b","","null","","","learningBlock1","","","","That was a tob.","null","","","","","",""
"html-keyboard-response","164","387962","0.0-5.0-2.52","FL","aj9q5o0gf2","1600","900","0","1","0","5b01e69aa496b300013d5b9b","","null","","","learningBlock1","","","","<div style=""font-size:60px;""> </div>","null","FL","learning/Slide53.JPG","That was a tob.","","",""
"image-keyboard-response","165","388149","0.0-5.0-0.53","FL","aj9q5o0gf2","1600","900","0","1","0","5b01e69aa496b300013d5b9b","","null","","","","","","","learning/Slide54.JPG","null","","","","","",""
"html-keyboard-response","166","389336","0.0-5.0-1.53","FL","aj9q5o0gf2","1600","900","0","1","0","5b01e69aa496b300013d5b9b","","null","","","learningBlock1","","","","That was a dep.","null","","","","","",""
"html-keyboard-response","167","390352","0.0-5.0-2.53","FL","aj9q5o0gf2","1600","900","0","1","0","5b01e69aa496b300013d5b9b","","null","","","learningBlock1","","","","<div style=""font-size:60px;""> </div>","null","FL","learning/Slide54.JPG","That was a dep.","","",""
"image-keyboard-response","168","390536","0.0-5.0-0.54","FL","aj9q5o0gf2","1600","900","0","1","0","5b01e69aa496b300013d5b9b","","null","","","","","","","learning/Slide55.JPG","null","","","","","",""
"html-keyboard-response","169","391704","0.0-5.0-1.54","FL","aj9q5o0gf2","1600","900","0","1","0","5b01e69aa496b300013d5b9b","","null","","","learningBlock1","","","","That was a bim.","null","","","","","",""
"html-keyboard-response","170","392715","0.0-5.0-2.54","FL","aj9q5o0gf2","1600","900","0","1","0","5b01e69aa496b300013d5b9b","","null","","","learningBlock1","","","","<div style=""font-size:60px;""> </div>","null","FL","learning/Slide55.JPG","That was a bim.","","",""
"image-keyboard-response","171","392902","0.0-5.0-0.55","FL","aj9q5o0gf2","1600","900","0","1","0","5b01e69aa496b300013d5b9b","","null","","","","","","","learning/Slide56.JPG","null","","","","","",""
"html-keyboard-response","172","394059","0.0-5.0-1.55","FL","aj9q5o0gf2","1600","900","0","1","0","5b01e69aa496b300013d5b9b","","null","","","learningBlock1","","","","That was a tob.","null","","","","","",""
"html-keyboard-response","173","395070","0.0-5.0-2.55","FL","aj9q5o0gf2","1600","900","0","1","0","5b01e69aa496b300013d5b9b","","null","","","learningBlock1","","","","<div style=""font-size:60px;""> </div>","null","FL","learning/Slide56.JPG","That was a tob.","","",""
"image-keyboard-response","174","395259","0.0-5.0-0.56","FL","aj9q5o0gf2","1600","900","0","1","0","5b01e69aa496b300013d5b9b","","null","","","","","","","learning/Slide57.JPG","null","","","","","",""
"html-keyboard-response","175","396441","0.0-5.0-1.56","FL","aj9q5o0gf2","1600","900","0","1","0","5b01e69aa496b300013d5b9b","","null","","","learningBlock1","","","","That was a dep.","null","","","","","",""
"html-keyboard-response","176","397454","0.0-5.0-2.56","FL","aj9q5o0gf2","1600","900","0","1","0","5b01e69aa496b300013d5b9b","","null","","","learningBlock1","","","","<div style=""font-size:60px;""> </div>","null","FL","learning/Slide57.JPG","That was a dep.","","",""
"image-keyboard-response","177","397634","0.0-5.0-0.57","FL","aj9q5o0gf2","1600","900","0","1","0","5b01e69aa496b300013d5b9b","","null","","","","","","","learning/Slide58.JPG","null","","","","","",""
"html-keyboard-response","178","398794","0.0-5.0-1.57","FL","aj9q5o0gf2","1600","900","0","1","0","5b01e69aa496b300013d5b9b","","null","","","learningBlock1","","","","That was a wug.","null","","","","","",""
"html-keyboard-response","179","399812","0.0-5.0-2.57","FL","aj9q5o0gf2","1600","900","0","1","0","5b01e69aa496b300013d5b9b","","null","","","learningBlock1","","","","<div style=""font-size:60px;""> </div>","null","FL","learning/Slide58.JPG","That was a wug.","","",""
"image-keyboard-response","180","400002","0.0-5.0-0.58","FL","aj9q5o0gf2","1600","900","0","1","0","5b01e69aa496b300013d5b9b","","null","","","","","","","learning/Slide59.JPG","null","","","","","",""
"html-keyboard-response","181","401189","0.0-5.0-1.58","FL","aj9q5o0gf2","1600","900","0","1","0","5b01e69aa496b300013d5b9b","","null","","","learningBlock1","","","","That was a dep.","null","","","","","",""
"html-keyboard-response","182","402202","0.0-5.0-2.58","FL","aj9q5o0gf2","1600","900","0","1","0","5b01e69aa496b300013d5b9b","","null","","","learningBlock1","","","","<div style=""font-size:60px;""> </div>","null","FL","learning/Slide59.JPG","That was a dep.","","",""
"image-keyboard-response","183","402389","0.0-5.0-0.59","FL","aj9q5o0gf2","1600","900","0","1","0","5b01e69aa496b300013d5b9b","","null","","","","","","","learning/Slide60.JPG","null","","","","","",""
"html-keyboard-response","184","403561","0.0-5.0-1.59","FL","aj9q5o0gf2","1600","900","0","1","0","5b01e69aa496b300013d5b9b","","null","","","learningBlock1","","","","That was a wug.","null","","","","","",""
"html-keyboard-response","185","404575","0.0-5.0-2.59","FL","aj9q5o0gf2","1600","900","0","1","0","5b01e69aa496b300013d5b9b","","null","","","learningBlock1","","","","<div style=""font-size:60px;""> </div>","null","FL","learning/Slide60.JPG","That was a wug.","","",""
"image-keyboard-response","186","404763","0.0-5.0-0.60","FL","aj9q5o0gf2","1600","900","0","1","0","5b01e69aa496b300013d5b9b","","null","","","","","","","learning/Slide61.JPG","null","","","","","",""
"html-keyboard-response","187","405919","0.0-5.0-1.60","FL","aj9q5o0gf2","1600","900","0","1","0","5b01e69aa496b300013d5b9b","","null","","","learningBlock1","","","","That was a bim.","null","","","","","",""
"html-keyboard-response","188","406932","0.0-5.0-2.60","FL","aj9q5o0gf2","1600","900","0","1","0","5b01e69aa496b300013d5b9b","","null","","","learningBlock1","","","","<div style=""font-size:60px;""> </div>","null","FL","learning/Slide61.JPG","That was a bim.","","",""
"image-keyboard-response","189","407120","0.0-5.0-0.61","FL","aj9q5o0gf2","1600","900","0","1","0","5b01e69aa496b300013d5b9b","","null","","","","","","","learning/Slide62.JPG","null","","","","","",""
"html-keyboard-response","190","408276","0.0-5.0-1.61","FL","aj9q5o0gf2","1600","900","0","1","0","5b01e69aa496b300013d5b9b","","null","","","learningBlock1","","","","That was a dep.","null","","","","","",""
"html-keyboard-response","191","409288","0.0-5.0-2.61","FL","aj9q5o0gf2","1600","900","0","1","0","5b01e69aa496b300013d5b9b","","null","","","learningBlock1","","","","<div style=""font-size:60px;""> </div>","null","FL","learning/Slide62.JPG","That was a dep.","","",""
"image-keyboard-response","192","409477","0.0-5.0-0.62","FL","aj9q5o0gf2","1600","900","0","1","0","5b01e69aa496b300013d5b9b","","null","","","","","","","learning/Slide63.JPG","null","","","","","",""
"html-keyboard-response","193","410645","0.0-5.0-1.62","FL","aj9q5o0gf2","1600","900","0","1","0","5b01e69aa496b300013d5b9b","","null","","","learningBlock1","","","","That was a bim.","null","","","","","",""
"html-keyboard-response","194","411654","0.0-5.0-2.62","FL","aj9q5o0gf2","1600","900","0","1","0","5b01e69aa496b300013d5b9b","","null","","","learningBlock1","","","","<div style=""font-size:60px;""> </div>","null","FL","learning/Slide63.JPG","That was a bim.","","",""
"image-keyboard-response","195","411839","0.0-5.0-0.63","FL","aj9q5o0gf2","1600","900","0","1","0","5b01e69aa496b300013d5b9b","","null","","","","","","","learning/Slide64.JPG","null","","","","","",""
"html-keyboard-response","196","412997","0.0-5.0-1.63","FL","aj9q5o0gf2","1600","900","0","1","0","5b01e69aa496b300013d5b9b","","null","","","learningBlock1","","","","That was a tob.","null","","","","","",""
"html-keyboard-response","197","414010","0.0-5.0-2.63","FL","aj9q5o0gf2","1600","900","0","1","0","5b01e69aa496b300013d5b9b","","null","","","learningBlock1","","","","<div style=""font-size:60px;""> </div>","null","FL","learning/Slide64.JPG","That was a tob.","","",""
"image-keyboard-response","198","414203","0.0-5.0-0.64","FL","aj9q5o0gf2","1600","900","0","1","0","5b01e69aa496b300013d5b9b","","null","","","","","","","learning/Slide65.JPG","null","","","","","",""
"html-keyboard-response","199","415384","0.0-5.0-1.64","FL","aj9q5o0gf2","1600","900","0","1","0","5b01e69aa496b300013d5b9b","","null","","","learningBlock1","","","","That was a wug.","null","","","","","",""
"html-keyboard-response","200","416401","0.0-5.0-2.64","FL","aj9q5o0gf2","1600","900","0","1","0","5b01e69aa496b300013d5b9b","","null","","","learningBlock1","","","","<div style=""font-size:60px;""> </div>","null","FL","learning/Slide65.JPG","That was a wug.","","",""
"image-keyboard-response","201","416589","0.0-5.0-0.65","FL","aj9q5o0gf2","1600","900","0","1","0","5b01e69aa496b300013d5b9b","","null","","","","","","","learning/Slide66.JPG","null","","","","","",""
"html-keyboard-response","202","417756","0.0-5.0-1.65","FL","aj9q5o0gf2","1600","900","0","1","0","5b01e69aa496b300013d5b9b","","null","","","learningBlock1","","","","That was a dep.","null","","","","","",""
"html-keyboard-response","203","418769","0.0-5.0-2.65","FL","aj9q5o0gf2","1600","900","0","1","0","5b01e69aa496b300013d5b9b","","null","","","learningBlock1","","","","<div style=""font-size:60px;""> </div>","null","FL","learning/Slide66.JPG","That was a dep.","","",""
"image-keyboard-response","204","418955","0.0-5.0-0.66","FL","aj9q5o0gf2","1600","900","0","1","0","5b01e69aa496b300013d5b9b","","null","","","","","","","learning/Slide67.JPG","null","","","","","",""
"html-keyboard-response","205","420130","0.0-5.0-1.66","FL","aj9q5o0gf2","1600","900","0","1","0","5b01e69aa496b300013d5b9b","","null","","","learningBlock1","","","","That was a tob.","null","","","","","",""
"html-keyboard-response","206","421140","0.0-5.0-2.66","FL","aj9q5o0gf2","1600","900","0","1","0","5b01e69aa496b300013d5b9b","","null","","","learningBlock1","","","","<div style=""font-size:60px;""> </div>","null","FL","learning/Slide67.JPG","That was a tob.","","",""
"image-keyboard-response","207","421328","0.0-5.0-0.67","FL","aj9q5o0gf2","1600","900","0","1","0","5b01e69aa496b300013d5b9b","","null","","","","","","","learning/Slide68.JPG","null","","","","","",""
"html-keyboard-response","208","422510","0.0-5.0-1.67","FL","aj9q5o0gf2","1600","900","0","1","0","5b01e69aa496b300013d5b9b","","null","","","learningBlock1","","","","That was a wug.","null","","","","","",""
"html-keyboard-response","209","423526","0.0-5.0-2.67","FL","aj9q5o0gf2","1600","900","0","1","0","5b01e69aa496b300013d5b9b","","null","","","learningBlock1","","","","<div style=""font-size:60px;""> </div>","null","FL","learning/Slide68.JPG","That was a wug.","","",""
"image-keyboard-response","210","423705","0.0-5.0-0.68","FL","aj9q5o0gf2","1600","900","0","1","0","5b01e69aa496b300013d5b9b","","null","","","","","","","learning/Slide69.JPG","null","","","","","",""
"html-keyboard-response","211","424873","0.0-5.0-1.68","FL","aj9q5o0gf2","1600","900","0","1","0","5b01e69aa496b300013d5b9b","","null","","","learningBlock1","","","","That was a tob.","null","","","","","",""
"html-keyboard-response","212","425887","0.0-5.0-2.68","FL","aj9q5o0gf2","1600","900","0","1","0","5b01e69aa496b300013d5b9b","","null","","","learningBlock1","","","","<div style=""font-size:60px;""> </div>","null","FL","learning/Slide69.JPG","That was a tob.","","",""
"image-keyboard-response","213","426073","0.0-5.0-0.69","FL","aj9q5o0gf2","1600","900","0","1","0","5b01e69aa496b300013d5b9b","","null","","","","","","","learning/Slide70.JPG","null","","","","","",""
"html-keyboard-response","214","427245","0.0-5.0-1.69","FL","aj9q5o0gf2","1600","900","0","1","0","5b01e69aa496b300013d5b9b","","null","","","learningBlock1","","","","That was a dep.","null","","","","","",""
"html-keyboard-response","215","428249","0.0-5.0-2.69","FL","aj9q5o0gf2","1600","900","0","1","0","5b01e69aa496b300013d5b9b","","null","","","learningBlock1","","","","<div style=""font-size:60px;""> </div>","null","FL","learning/Slide70.JPG","That was a dep.","","",""
"image-keyboard-response","216","428436","0.0-5.0-0.70","FL","aj9q5o0gf2","1600","900","0","1","0","5b01e69aa496b300013d5b9b","","null","","","","","","","learning/Slide71.JPG","null","","","","","",""
"html-keyboard-response","217","429605","0.0-5.0-1.70","FL","aj9q5o0gf2","1600","900","0","1","0","5b01e69aa496b300013d5b9b","","null","","","learningBlock1","","","","That was a wug.","null","","","","","",""
"html-keyboard-response","218","430620","0.0-5.0-2.70","FL","aj9q5o0gf2","1600","900","0","1","0","5b01e69aa496b300013d5b9b","","null","","","learningBlock1","","","","<div style=""font-size:60px;""> </div>","null","FL","learning/Slide71.JPG","That was a wug.","","",""
"image-keyboard-response","219","430809","0.0-5.0-0.71","FL","aj9q5o0gf2","1600","900","0","1","0","5b01e69aa496b300013d5b9b","","null","","","","","","","learning/Slide72.JPG","null","","","","","",""
"html-keyboard-response","220","431978","0.0-5.0-1.71","FL","aj9q5o0gf2","1600","900","0","1","0","5b01e69aa496b300013d5b9b","","null","","","learningBlock1","","","","That was a bim.","null","","","","","",""
"html-keyboard-response","221","432998","0.0-5.0-2.71","FL","aj9q5o0gf2","1600","900","0","1","0","5b01e69aa496b300013d5b9b","","null","","","learningBlock1","","","","<div style=""font-size:60px;""> </div>","null","FL","learning/Slide72.JPG","That was a bim.","","",""
"image-keyboard-response","222","433183","0.0-5.0-0.72","FL","aj9q5o0gf2","1600","900","0","1","0","5b01e69aa496b300013d5b9b","","null","","","","","","","learning/Slide73.JPG","null","","","","","",""
"html-keyboard-response","223","434351","0.0-5.0-1.72","FL","aj9q5o0gf2","1600","900","0","1","0","5b01e69aa496b300013d5b9b","","null","","","learningBlock1","","","","That was a wug.","null","","","","","",""
"html-keyboard-response","224","435367","0.0-5.0-2.72","FL","aj9q5o0gf2","1600","900","0","1","0","5b01e69aa496b300013d5b9b","","null","","","learningBlock1","","","","<div style=""font-size:60px;""> </div>","null","FL","learning/Slide73.JPG","That was a wug.","","",""
"image-keyboard-response","225","435554","0.0-5.0-0.73","FL","aj9q5o0gf2","1600","900","0","1","0","5b01e69aa496b300013d5b9b","","null","","","","","","","learning/Slide74.JPG","null","","","","","",""
"html-keyboard-response","226","436723","0.0-5.0-1.73","FL","aj9q5o0gf2","1600","900","0","1","0","5b01e69aa496b300013d5b9b","","null","","","learningBlock1","","","","That was a dep.","null","","","","","",""
"html-keyboard-response","227","437737","0.0-5.0-2.73","FL","aj9q5o0gf2","1600","900","0","1","0","5b01e69aa496b300013d5b9b","","null","","","learningBlock1","","","","<div style=""font-size:60px;""> </div>","null","FL","learning/Slide74.JPG","That was a dep.","","",""
"image-keyboard-response","228","437926","0.0-5.0-0.74","FL","aj9q5o0gf2","1600","900","0","1","0","5b01e69aa496b300013d5b9b","","null","","","","","","","learning/Slide75.JPG","null","","","","","",""
"html-keyboard-response","229","439097","0.0-5.0-1.74","FL","aj9q5o0gf2","1600","900","0","1","0","5b01e69aa496b300013d5b9b","","null","","","learningBlock1","","","","That was a tob.","null","","","","","",""
"html-keyboard-response","230","440109","0.0-5.0-2.74","FL","aj9q5o0gf2","1600","900","0","1","0","5b01e69aa496b300013d5b9b","","null","","","learningBlock1","","","","<div style=""font-size:60px;""> </div>","null","FL","learning/Slide75.JPG","That was a tob.","","",""
"image-keyboard-response","231","440299","0.0-5.0-0.75","FL","aj9q5o0gf2","1600","900","0","1","0","5b01e69aa496b300013d5b9b","","null","","","","","","","learning/Slide76.JPG","null","","","","","",""
"html-keyboard-response","232","441479","0.0-5.0-1.75","FL","aj9q5o0gf2","1600","900","0","1","0","5b01e69aa496b300013d5b9b","","null","","","learningBlock1","","","","That was a bim.","null","","","","","",""
"html-keyboard-response","233","442493","0.0-5.0-2.75","FL","aj9q5o0gf2","1600","900","0","1","0","5b01e69aa496b300013d5b9b","","null","","","learningBlock1","","","","<div style=""font-size:60px;""> </div>","null","FL","learning/Slide76.JPG","That was a bim.","","",""
"image-keyboard-response","234","442686","0.0-5.0-0.76","FL","aj9q5o0gf2","1600","900","0","1","0","5b01e69aa496b300013d5b9b","","null","","","","","","","learning/Slide77.JPG","null","","","","","",""
"html-keyboard-response","235","443867","0.0-5.0-1.76","FL","aj9q5o0gf2","1600","900","0","1","0","5b01e69aa496b300013d5b9b","","null","","","learningBlock1","","","","That was a tob.","null","","","","","",""
"html-keyboard-response","236","444883","0.0-5.0-2.76","FL","aj9q5o0gf2","1600","900","0","1","0","5b01e69aa496b300013d5b9b","","null","","","learningBlock1","","","","<div style=""font-size:60px;""> </div>","null","FL","learning/Slide77.JPG","That was a tob.","","",""
"image-keyboard-response","237","445063","0.0-5.0-0.77","FL","aj9q5o0gf2","1600","900","0","1","0","5b01e69aa496b300013d5b9b","","null","","","","","","","learning/Slide78.JPG","null","","","","","",""
"html-keyboard-response","238","446224","0.0-5.0-1.77","FL","aj9q5o0gf2","1600","900","0","1","0","5b01e69aa496b300013d5b9b","","null","","","learningBlock1","","","","That was a wug.","null","","","","","",""
"html-keyboard-response","239","447241","0.0-5.0-2.77","FL","aj9q5o0gf2","1600","900","0","1","0","5b01e69aa496b300013d5b9b","","null","","","learningBlock1","","","","<div style=""font-size:60px;""> </div>","null","FL","learning/Slide78.JPG","That was a wug.","","",""
"image-keyboard-response","240","447427","0.0-5.0-0.78","FL","aj9q5o0gf2","1600","900","0","1","0","5b01e69aa496b300013d5b9b","","null","","","","","","","learning/Slide79.JPG","null","","","","","",""
"html-keyboard-response","241","448585","0.0-5.0-1.78","FL","aj9q5o0gf2","1600","900","0","1","0","5b01e69aa496b300013d5b9b","","null","","","learningBlock1","","","","That was a bim.","null","","","","","",""
"html-keyboard-response","242","449597","0.0-5.0-2.78","FL","aj9q5o0gf2","1600","900","0","1","0","5b01e69aa496b300013d5b9b","","null","","","learningBlock1","","","","<div style=""font-size:60px;""> </div>","null","FL","learning/Slide79.JPG","That was a bim.","","",""
"image-keyboard-response","243","449785","0.0-5.0-0.79","FL","aj9q5o0gf2","1600","900","0","1","0","5b01e69aa496b300013d5b9b","","null","","","","","","","learning/Slide80.JPG","null","","","","","",""
"html-keyboard-response","244","450939","0.0-5.0-1.79","FL","aj9q5o0gf2","1600","900","0","1","0","5b01e69aa496b300013d5b9b","","null","","","learningBlock1","","","","That was a tob.","null","","","","","",""
"html-keyboard-response","245","451956","0.0-5.0-2.79","FL","aj9q5o0gf2","1600","900","0","1","0","5b01e69aa496b300013d5b9b","","null","","","learningBlock1","","","","<div style=""font-size:60px;""> </div>","null","FL","learning/Slide80.JPG","That was a tob.","","",""
"instructions","246","456423","0.0-6.0","FL","aj9q5o0gf2","1600","900","0","1","0","5b01e69aa496b300013d5b9b","","NA","","[{""page_index"":0,""viewing_time"":4462.814999977127}]","instructions","","","","","","","","","","",""
"image-keyboard-response","247","456619","0.0-7.0-0.0","FL","aj9q5o0gf2","1600","900","0","1","0","5b01e69aa496b300013d5b9b","","null","","","","","","","learning/Slide81.JPG","null","","","","","",""
"html-keyboard-response","248","457789","0.0-7.0-1.0","FL","aj9q5o0gf2","1600","900","0","1","0","5b01e69aa496b300013d5b9b","","null","","","learningBlock2","","","","That was a wug.","null","","","","","",""
"html-keyboard-response","249","458803","0.0-7.0-2.0","FL","aj9q5o0gf2","1600","900","0","1","0","5b01e69aa496b300013d5b9b","","null","","","learningBlock2","","","","<div style=""font-size:60px;""> </div>","null","FL","learning/Slide81.JPG","That was a wug.","","",""
"image-keyboard-response","250","458991","0.0-7.0-0.1","FL","aj9q5o0gf2","1600","900","0","1","0","5b01e69aa496b300013d5b9b","","null","","","","","","","learning/Slide82.JPG","null","","","","","",""
"html-keyboard-response","251","460156","0.0-7.0-1.1","FL","aj9q5o0gf2","1600","900","0","1","0","5b01e69aa496b300013d5b9b","","null","","","learningBlock2","","","","That was a bim.","null","","","","","",""
"html-keyboard-response","252","461166","0.0-7.0-2.1","FL","aj9q5o0gf2","1600","900","0","1","0","5b01e69aa496b300013d5b9b","","null","","","learningBlock2","","","","<div style=""font-size:60px;""> </div>","null","FL","learning/Slide82.JPG","That was a bim.","","",""
"image-keyboard-response","253","461354","0.0-7.0-0.2","FL","aj9q5o0gf2","1600","900","0","1","0","5b01e69aa496b300013d5b9b","","null","","","","","","","learning/Slide83.JPG","null","","","","","",""
"html-keyboard-response","254","462510","0.0-7.0-1.2","FL","aj9q5o0gf2","1600","900","0","1","0","5b01e69aa496b300013d5b9b","","null","","","learningBlock2","","","","That was a wug.","null","","","","","",""
"html-keyboard-response","255","463524","0.0-7.0-2.2","FL","aj9q5o0gf2","1600","900","0","1","0","5b01e69aa496b300013d5b9b","","null","","","learningBlock2","","","","<div style=""font-size:60px;""> </div>","null","FL","learning/Slide83.JPG","That was a wug.","","",""
"image-keyboard-response","256","463712","0.0-7.0-0.3","FL","aj9q5o0gf2","1600","900","0","1","0","5b01e69aa496b300013d5b9b","","null","","","","","","","learning/Slide84.JPG","null","","","","","",""
"html-keyboard-response","257","464868","0.0-7.0-1.3","FL","aj9q5o0gf2","1600","900","0","1","0","5b01e69aa496b300013d5b9b","","null","","","learningBlock2","","","","That was a dep.","null","","","","","",""
"html-keyboard-response","258","465877","0.0-7.0-2.3","FL","aj9q5o0gf2","1600","900","0","1","0","5b01e69aa496b300013d5b9b","","null","","","learningBlock2","","","","<div style=""font-size:60px;""> </div>","null","FL","learning/Slide84.JPG","That was a dep.","","",""
"image-keyboard-response","259","466064","0.0-7.0-0.4","FL","aj9q5o0gf2","1600","900","0","1","0","5b01e69aa496b300013d5b9b","","null","","","","","","","learning/Slide85.JPG","null","","","","","",""
"html-keyboard-response","260","467220","0.0-7.0-1.4","FL","aj9q5o0gf2","1600","900","0","1","0","5b01e69aa496b300013d5b9b","","null","","","learningBlock2","","","","That was a bim.","null","","","","","",""
"html-keyboard-response","261","468231","0.0-7.0-2.4","FL","aj9q5o0gf2","1600","900","0","1","0","5b01e69aa496b300013d5b9b","","null","","","learningBlock2","","","","<div style=""font-size:60px;""> </div>","null","FL","learning/Slide85.JPG","That was a bim.","","",""
"image-keyboard-response","262","468420","0.0-7.0-0.5","FL","aj9q5o0gf2","1600","900","0","1","0","5b01e69aa496b300013d5b9b","","null","","","","","","","learning/Slide86.JPG","null","","","","","",""
"html-keyboard-response","263","469591","0.0-7.0-1.5","FL","aj9q5o0gf2","1600","900","0","1","0","5b01e69aa496b300013d5b9b","","null","","","learningBlock2","","","","That was a tob.","null","","","","","",""
"html-keyboard-response","264","470607","0.0-7.0-2.5","FL","aj9q5o0gf2","1600","900","0","1","0","5b01e69aa496b300013d5b9b","","null","","","learningBlock2","","","","<div style=""font-size:60px;""> </div>","null","FL","learning/Slide86.JPG","That was a tob.","","",""
"image-keyboard-response","265","470791","0.0-7.0-0.6","FL","aj9q5o0gf2","1600","900","0","1","0","5b01e69aa496b300013d5b9b","","null","","","","","","","learning/Slide87.JPG","null","","","","","",""
"html-keyboard-response","266","471950","0.0-7.0-1.6","FL","aj9q5o0gf2","1600","900","0","1","0","5b01e69aa496b300013d5b9b","","null","","","learningBlock2","","","","That was a wug.","null","","","","","",""
"html-keyboard-response","267","472962","0.0-7.0-2.6","FL","aj9q5o0gf2","1600","900","0","1","0","5b01e69aa496b300013d5b9b","","null","","","learningBlock2","","","","<div style=""font-size:60px;""> </div>","null","FL","learning/Slide87.JPG","That was a wug.","","",""
"image-keyboard-response","268","473148","0.0-7.0-0.7","FL","aj9q5o0gf2","1600","900","0","1","0","5b01e69aa496b300013d5b9b","","null","","","","","","","learning/Slide88.JPG","null","","","","","",""
"html-keyboard-response","269","474320","0.0-7.0-1.7","FL","aj9q5o0gf2","1600","900","0","1","0","5b01e69aa496b300013d5b9b","","null","","","learningBlock2","","","","That was a tob.","null","","","","","",""
"html-keyboard-response","270","475334","0.0-7.0-2.7","FL","aj9q5o0gf2","1600","900","0","1","0","5b01e69aa496b300013d5b9b","","null","","","learningBlock2","","","","<div style=""font-size:60px;""> </div>","null","FL","learning/Slide88.JPG","That was a tob.","","",""
"image-keyboard-response","271","475517","0.0-7.0-0.8","FL","aj9q5o0gf2","1600","900","0","1","0","5b01e69aa496b300013d5b9b","","null","","","","","","","learning/Slide89.JPG","null","","","","","",""
"html-keyboard-response","272","476693","0.0-7.0-1.8","FL","aj9q5o0gf2","1600","900","0","1","0","5b01e69aa496b300013d5b9b","","null","","","learningBlock2","","","","That was a bim.","null","","","","","",""
"html-keyboard-response","273","477705","0.0-7.0-2.8","FL","aj9q5o0gf2","1600","900","0","1","0","5b01e69aa496b300013d5b9b","","null","","","learningBlock2","","","","<div style=""font-size:60px;""> </div>","null","FL","learning/Slide89.JPG","That was a bim.","","",""
"image-keyboard-response","274","477892","0.0-7.0-0.9","FL","aj9q5o0gf2","1600","900","0","1","0","5b01e69aa496b300013d5b9b","","null","","","","","","","learning/Slide90.JPG","null","","","","","",""
"html-keyboard-response","275","479061","0.0-7.0-1.9","FL","aj9q5o0gf2","1600","900","0","1","0","5b01e69aa496b300013d5b9b","","null","","","learningBlock2","","","","That was a dep.","null","","","","","",""
"html-keyboard-response","276","480075","0.0-7.0-2.9","FL","aj9q5o0gf2","1600","900","0","1","0","5b01e69aa496b300013d5b9b","","null","","","learningBlock2","","","","<div style=""font-size:60px;""> </div>","null","FL","learning/Slide90.JPG","That was a dep.","","",""
"image-keyboard-response","277","480254","0.0-7.0-0.10","FL","aj9q5o0gf2","1600","900","0","1","0","5b01e69aa496b300013d5b9b","","null","","","","","","","learning/Slide91.JPG","null","","","","","",""
"html-keyboard-response","278","481414","0.0-7.0-1.10","FL","aj9q5o0gf2","1600","900","0","1","0","5b01e69aa496b300013d5b9b","","null","","","learningBlock2","","","","That was a wug.","null","","","","","",""
"html-keyboard-response","279","482434","0.0-7.0-2.10","FL","aj9q5o0gf2","1600","900","0","1","0","5b01e69aa496b300013d5b9b","","null","","","learningBlock2","","","","<div style=""font-size:60px;""> </div>","null","FL","learning/Slide91.JPG","That was a wug.","","",""
"image-keyboard-response","280","482612","0.0-7.0-0.11","FL","aj9q5o0gf2","1600","900","0","1","0","5b01e69aa496b300013d5b9b","","null","","","","","","","learning/Slide92.JPG","null","","","","","",""
"html-keyboard-response","281","483778","0.0-7.0-1.11","FL","aj9q5o0gf2","1600","900","0","1","0","5b01e69aa496b300013d5b9b","","null","","","learningBlock2","","","","That was a tob.","null","","","","","",""
"html-keyboard-response","282","484792","0.0-7.0-2.11","FL","aj9q5o0gf2","1600","900","0","1","0","5b01e69aa496b300013d5b9b","","null","","","learningBlock2","","","","<div style=""font-size:60px;""> </div>","null","FL","learning/Slide92.JPG","That was a tob.","","",""
"image-keyboard-response","283","484980","0.0-7.0-0.12","FL","aj9q5o0gf2","1600","900","0","1","0","5b01e69aa496b300013d5b9b","","null","","","","","","","learning/Slide93.JPG","null","","","","","",""
"html-keyboard-response","284","486151","0.0-7.0-1.12","FL","aj9q5o0gf2","1600","900","0","1","0","5b01e69aa496b300013d5b9b","","null","","","learningBlock2","","","","That was a bim.","null","","","","","",""
"html-keyboard-response","285","487165","0.0-7.0-2.12","FL","aj9q5o0gf2","1600","900","0","1","0","5b01e69aa496b300013d5b9b","","null","","","learningBlock2","","","","<div style=""font-size:60px;""> </div>","null","FL","learning/Slide93.JPG","That was a bim.","","",""
"image-keyboard-response","286","487355","0.0-7.0-0.13","FL","aj9q5o0gf2","1600","900","0","1","0","5b01e69aa496b300013d5b9b","","null","","","","","","","learning/Slide94.JPG","null","","","","","",""
"html-keyboard-response","287","488524","0.0-7.0-1.13","FL","aj9q5o0gf2","1600","900","0","1","0","5b01e69aa496b300013d5b9b","","null","","","learningBlock2","","","","That was a tob.","null","","","","","",""
"html-keyboard-response","288","489535","0.0-7.0-2.13","FL","aj9q5o0gf2","1600","900","0","1","0","5b01e69aa496b300013d5b9b","","null","","","learningBlock2","","","","<div style=""font-size:60px;""> </div>","null","FL","learning/Slide94.JPG","That was a tob.","","",""
"image-keyboard-response","289","489723","0.0-7.0-0.14","FL","aj9q5o0gf2","1600","900","0","1","0","5b01e69aa496b300013d5b9b","","null","","","","","","","learning/Slide95.JPG","null","","","","","",""
"html-keyboard-response","290","490907","0.0-7.0-1.14","FL","aj9q5o0gf2","1600","900","0","1","0","5b01e69aa496b300013d5b9b","","null","","","learningBlock2","","","","That was a wug.","null","","","","","",""
"html-keyboard-response","291","491923","0.0-7.0-2.14","FL","aj9q5o0gf2","1600","900","0","1","0","5b01e69aa496b300013d5b9b","","null","","","learningBlock2","","","","<div style=""font-size:60px;""> </div>","null","FL","learning/Slide95.JPG","That was a wug.","","",""
"image-keyboard-response","292","492112","0.0-7.0-0.15","FL","aj9q5o0gf2","1600","900","0","1","0","5b01e69aa496b300013d5b9b","","null","","","","","","","learning/Slide96.JPG","null","","","","","",""
"html-keyboard-response","293","493295","0.0-7.0-1.15","FL","aj9q5o0gf2","1600","900","0","1","0","5b01e69aa496b300013d5b9b","","null","","","learningBlock2","","","","That was a tob.","null","","","","","",""
"html-keyboard-response","294","494311","0.0-7.0-2.15","FL","aj9q5o0gf2","1600","900","0","1","0","5b01e69aa496b300013d5b9b","","null","","","learningBlock2","","","","<div style=""font-size:60px;""> </div>","null","FL","learning/Slide96.JPG","That was a tob.","","",""
"image-keyboard-response","295","494490","0.0-7.0-0.16","FL","aj9q5o0gf2","1600","900","0","1","0","5b01e69aa496b300013d5b9b","","null","","","","","","","learning/Slide97.JPG","null","","","","","",""
"html-keyboard-response","296","495656","0.0-7.0-1.16","FL","aj9q5o0gf2","1600","900","0","1","0","5b01e69aa496b300013d5b9b","","null","","","learningBlock2","","","","That was a dep.","null","","","","","",""
"html-keyboard-response","297","496672","0.0-7.0-2.16","FL","aj9q5o0gf2","1600","900","0","1","0","5b01e69aa496b300013d5b9b","","null","","","learningBlock2","","","","<div style=""font-size:60px;""> </div>","null","FL","learning/Slide97.JPG","That was a dep.","","",""
"image-keyboard-response","298","496859","0.0-7.0-0.17","FL","aj9q5o0gf2","1600","900","0","1","0","5b01e69aa496b300013d5b9b","","null","","","","","","","learning/Slide98.JPG","null","","","","","",""
"html-keyboard-response","299","498028","0.0-7.0-1.17","FL","aj9q5o0gf2","1600","900","0","1","0","5b01e69aa496b300013d5b9b","","null","","","learningBlock2","","","","That was a bim.","null","","","","","",""
"html-keyboard-response","300","499047","0.0-7.0-2.17","FL","aj9q5o0gf2","1600","900","0","1","0","5b01e69aa496b300013d5b9b","","null","","","learningBlock2","","","","<div style=""font-size:60px;""> </div>","null","FL","learning/Slide98.JPG","That was a bim.","","",""
"image-keyboard-response","301","499236","0.0-7.0-0.18","FL","aj9q5o0gf2","1600","900","0","1","0","5b01e69aa496b300013d5b9b","","null","","","","","","","learning/Slide99.JPG","null","","","","","",""
"html-keyboard-response","302","500418","0.0-7.0-1.18","FL","aj9q5o0gf2","1600","900","0","1","0","5b01e69aa496b300013d5b9b","","null","","","learningBlock2","","","","That was a dep.","null","","","","","",""
"html-keyboard-response","303","501433","0.0-7.0-2.18","FL","aj9q5o0gf2","1600","900","0","1","0","5b01e69aa496b300013d5b9b","","null","","","learningBlock2","","","","<div style=""font-size:60px;""> </div>","null","FL","learning/Slide99.JPG","That was a dep.","","",""
"image-keyboard-response","304","501612","0.0-7.0-0.19","FL","aj9q5o0gf2","1600","900","0","1","0","5b01e69aa496b300013d5b9b","","null","","","","","","","learning/Slide100.JPG","null","","","","","",""
"html-keyboard-response","305","502772","0.0-7.0-1.19","FL","aj9q5o0gf2","1600","900","0","1","0","5b01e69aa496b300013d5b9b","","null","","","learningBlock2","","","","That was a bim.","null","","","","","",""
"html-keyboard-response","306","503785","0.0-7.0-2.19","FL","aj9q5o0gf2","1600","900","0","1","0","5b01e69aa496b300013d5b9b","","null","","","learningBlock2","","","","<div style=""font-size:60px;""> </div>","null","FL","learning/Slide100.JPG","That was a bim.","","",""
"image-keyboard-response","307","503972","0.0-7.0-0.20","FL","aj9q5o0gf2","1600","900","0","1","0","5b01e69aa496b300013d5b9b","","null","","","","","","","learning/Slide101.JPG","null","","","","","",""
"html-keyboard-response","308","505143","0.0-7.0-1.20","FL","aj9q5o0gf2","1600","900","0","1","0","5b01e69aa496b300013d5b9b","","null","","","learningBlock2","","","","That was a tob.","null","","","","","",""
"html-keyboard-response","309","506156","0.0-7.0-2.20","FL","aj9q5o0gf2","1600","900","0","1","0","5b01e69aa496b300013d5b9b","","null","","","learningBlock2","","","","<div style=""font-size:60px;""> </div>","null","FL","learning/Slide101.JPG","That was a tob.","","",""
"image-keyboard-response","310","506342","0.0-7.0-0.21","FL","aj9q5o0gf2","1600","900","0","1","0","5b01e69aa496b300013d5b9b","","null","","","","","","","learning/Slide102.JPG","null","","","","","",""
"html-keyboard-response","311","507498","0.0-7.0-1.21","FL","aj9q5o0gf2","1600","900","0","1","0","5b01e69aa496b300013d5b9b","","null","","","learningBlock2","","","","That was a bim.","null","","","","","",""
"html-keyboard-response","312","508512","0.0-7.0-2.21","FL","aj9q5o0gf2","1600","900","0","1","0","5b01e69aa496b300013d5b9b","","null","","","learningBlock2","","","","<div style=""font-size:60px;""> </div>","null","FL","learning/Slide102.JPG","That was a bim.","","",""
"image-keyboard-response","313","508691","0.0-7.0-0.22","FL","aj9q5o0gf2","1600","900","0","1","0","5b01e69aa496b300013d5b9b","","null","","","","","","","learning/Slide103.JPG","null","","","","","",""
"html-keyboard-response","314","509855","0.0-7.0-1.22","FL","aj9q5o0gf2","1600","900","0","1","0","5b01e69aa496b300013d5b9b","","null","","","learningBlock2","","","","That was a dep.","null","","","","","",""
"html-keyboard-response","315","510868","0.0-7.0-2.22","FL","aj9q5o0gf2","1600","900","0","1","0","5b01e69aa496b300013d5b9b","","null","","","learningBlock2","","","","<div style=""font-size:60px;""> </div>","null","FL","learning/Slide103.JPG","That was a dep.","","",""
"image-keyboard-response","316","511056","0.0-7.0-0.23","FL","aj9q5o0gf2","1600","900","0","1","0","5b01e69aa496b300013d5b9b","","null","","","","","","","learning/Slide104.JPG","null","","","","","",""
"html-keyboard-response","317","512240","0.0-7.0-1.23","FL","aj9q5o0gf2","1600","900","0","1","0","5b01e69aa496b300013d5b9b","","null","","","learningBlock2","","","","That was a tob.","null","","","","","",""
"html-keyboard-response","318","513255","0.0-7.0-2.23","FL","aj9q5o0gf2","1600","900","0","1","0","5b01e69aa496b300013d5b9b","","null","","","learningBlock2","","","","<div style=""font-size:60px;""> </div>","null","FL","learning/Slide104.JPG","That was a tob.","","",""
"image-keyboard-response","319","513445","0.0-7.0-0.24","FL","aj9q5o0gf2","1600","900","0","1","0","5b01e69aa496b300013d5b9b","","null","","","","","","","learning/Slide105.JPG","null","","","","","",""
"html-keyboard-response","320","514634","0.0-7.0-1.24","FL","aj9q5o0gf2","1600","900","0","1","0","5b01e69aa496b300013d5b9b","","null","","","learningBlock2","","","","That was a dep.","null","","","","","",""
"html-keyboard-response","321","515646","0.0-7.0-2.24","FL","aj9q5o0gf2","1600","900","0","1","0","5b01e69aa496b300013d5b9b","","null","","","learningBlock2","","","","<div style=""font-size:60px;""> </div>","null","FL","learning/Slide105.JPG","That was a dep.","","",""
"image-keyboard-response","322","515834","0.0-7.0-0.25","FL","aj9q5o0gf2","1600","900","0","1","0","5b01e69aa496b300013d5b9b","","null","","","","","","","learning/Slide106.JPG","null","","","","","",""
"html-keyboard-response","323","517013","0.0-7.0-1.25","FL","aj9q5o0gf2","1600","900","0","1","0","5b01e69aa496b300013d5b9b","","null","","","learningBlock2","","","","That was a wug.","null","","","","","",""
"html-keyboard-response","324","518028","0.0-7.0-2.25","FL","aj9q5o0gf2","1600","900","0","1","0","5b01e69aa496b300013d5b9b","","null","","","learningBlock2","","","","<div style=""font-size:60px;""> </div>","null","FL","learning/Slide106.JPG","That was a wug.","","",""
"image-keyboard-response","325","518208","0.0-7.0-0.26","FL","aj9q5o0gf2","1600","900","0","1","0","5b01e69aa496b300013d5b9b","","null","","","","","","","learning/Slide107.JPG","null","","","","","",""
"html-keyboard-response","326","519377","0.0-7.0-1.26","FL","aj9q5o0gf2","1600","900","0","1","0","5b01e69aa496b300013d5b9b","","null","","","learningBlock2","","","","That was a bim.","null","","","","","",""
"html-keyboard-response","327","520392","0.0-7.0-2.26","FL","aj9q5o0gf2","1600","900","0","1","0","5b01e69aa496b300013d5b9b","","null","","","learningBlock2","","","","<div style=""font-size:60px;""> </div>","null","FL","learning/Slide107.JPG","That was a bim.","","",""
"image-keyboard-response","328","520582","0.0-7.0-0.27","FL","aj9q5o0gf2","1600","900","0","1","0","5b01e69aa496b300013d5b9b","","null","","","","","","","learning/Slide108.JPG","null","","","","","",""
"html-keyboard-response","329","521762","0.0-7.0-1.27","FL","aj9q5o0gf2","1600","900","0","1","0","5b01e69aa496b300013d5b9b","","null","","","learningBlock2","","","","That was a dep.","null","","","","","",""
"html-keyboard-response","330","522775","0.0-7.0-2.27","FL","aj9q5o0gf2","1600","900","0","1","0","5b01e69aa496b300013d5b9b","","null","","","learningBlock2","","","","<div style=""font-size:60px;""> </div>","null","FL","learning/Slide108.JPG","That was a dep.","","",""
"image-keyboard-response","331","522964","0.0-7.0-0.28","FL","aj9q5o0gf2","1600","900","0","1","0","5b01e69aa496b300013d5b9b","","null","","","","","","","learning/Slide109.JPG","null","","","","","",""
"html-keyboard-response","332","524129","0.0-7.0-1.28","FL","aj9q5o0gf2","1600","900","0","1","0","5b01e69aa496b300013d5b9b","","null","","","learningBlock2","","","","That was a wug.","null","","","","","",""
"html-keyboard-response","333","525142","0.0-7.0-2.28","FL","aj9q5o0gf2","1600","900","0","1","0","5b01e69aa496b300013d5b9b","","null","","","learningBlock2","","","","<div style=""font-size:60px;""> </div>","null","FL","learning/Slide109.JPG","That was a wug.","","",""
"image-keyboard-response","334","525330","0.0-7.0-0.29","FL","aj9q5o0gf2","1600","900","0","1","0","5b01e69aa496b300013d5b9b","","null","","","","","","","learning/Slide110.JPG","null","","","","","",""
"html-keyboard-response","335","526486","0.0-7.0-1.29","FL","aj9q5o0gf2","1600","900","0","1","0","5b01e69aa496b300013d5b9b","","null","","","learningBlock2","","","","That was a bim.","null","","","","","",""
"html-keyboard-response","336","527503","0.0-7.0-2.29","FL","aj9q5o0gf2","1600","900","0","1","0","5b01e69aa496b300013d5b9b","","null","","","learningBlock2","","","","<div style=""font-size:60px;""> </div>","null","FL","learning/Slide110.JPG","That was a bim.","","",""
"image-keyboard-response","337","527682","0.0-7.0-0.30","FL","aj9q5o0gf2","1600","900","0","1","0","5b01e69aa496b300013d5b9b","","null","","","","","","","learning/Slide111.JPG","null","","","","","",""
"html-keyboard-response","338","528863","0.0-7.0-1.30","FL","aj9q5o0gf2","1600","900","0","1","0","5b01e69aa496b300013d5b9b","","null","","","learningBlock2","","","","That was a tob.","null","","","","","",""
"html-keyboard-response","339","529878","0.0-7.0-2.30","FL","aj9q5o0gf2","1600","900","0","1","0","5b01e69aa496b300013d5b9b","","null","","","learningBlock2","","","","<div style=""font-size:60px;""> </div>","null","FL","learning/Slide111.JPG","That was a tob.","","",""
"image-keyboard-response","340","530068","0.0-7.0-0.31","FL","aj9q5o0gf2","1600","900","0","1","0","5b01e69aa496b300013d5b9b","","null","","","","","","","learning/Slide112.JPG","null","","","","","",""
"html-keyboard-response","341","531252","0.0-7.0-1.31","FL","aj9q5o0gf2","1600","900","0","1","0","5b01e69aa496b300013d5b9b","","null","","","learningBlock2","","","","That was a wug.","null","","","","","",""
"html-keyboard-response","342","532266","0.0-7.0-2.31","FL","aj9q5o0gf2","1600","900","0","1","0","5b01e69aa496b300013d5b9b","","null","","","learningBlock2","","","","<div style=""font-size:60px;""> </div>","null","FL","learning/Slide112.JPG","That was a wug.","","",""
"image-keyboard-response","343","532452","0.0-7.0-0.32","FL","aj9q5o0gf2","1600","900","0","1","0","5b01e69aa496b300013d5b9b","","null","","","","","","","learning/Slide113.JPG","null","","","","","",""
"html-keyboard-response","344","533610","0.0-7.0-1.32","FL","aj9q5o0gf2","1600","900","0","1","0","5b01e69aa496b300013d5b9b","","null","","","learningBlock2","","","","That was a tob.","null","","","","","",""
"html-keyboard-response","345","534623","0.0-7.0-2.32","FL","aj9q5o0gf2","1600","900","0","1","0","5b01e69aa496b300013d5b9b","","null","","","learningBlock2","","","","<div style=""font-size:60px;""> </div>","null","FL","learning/Slide113.JPG","That was a tob.","","",""
"image-keyboard-response","346","534810","0.0-7.0-0.33","FL","aj9q5o0gf2","1600","900","0","1","0","5b01e69aa496b300013d5b9b","","null","","","","","","","learning/Slide114.JPG","null","","","","","",""
"html-keyboard-response","347","535970","0.0-7.0-1.33","FL","aj9q5o0gf2","1600","900","0","1","0","5b01e69aa496b300013d5b9b","","null","","","learningBlock2","","","","That was a wug.","null","","","","","",""
"html-keyboard-response","348","536984","0.0-7.0-2.33","FL","aj9q5o0gf2","1600","900","0","1","0","5b01e69aa496b300013d5b9b","","null","","","learningBlock2","","","","<div style=""font-size:60px;""> </div>","null","FL","learning/Slide114.JPG","That was a wug.","","",""
"image-keyboard-response","349","537162","0.0-7.0-0.34","FL","aj9q5o0gf2","1600","900","0","1","0","5b01e69aa496b300013d5b9b","","null","","","","","","","learning/Slide115.JPG","null","","","","","",""
"html-keyboard-response","350","538341","0.0-7.0-1.34","FL","aj9q5o0gf2","1600","900","0","1","0","5b01e69aa496b300013d5b9b","","null","","","learningBlock2","","","","That was a bim.","null","","","","","",""
"html-keyboard-response","351","539355","0.0-7.0-2.34","FL","aj9q5o0gf2","1600","900","0","1","0","5b01e69aa496b300013d5b9b","","null","","","learningBlock2","","","","<div style=""font-size:60px;""> </div>","null","FL","learning/Slide115.JPG","That was a bim.","","",""
"image-keyboard-response","352","539534","0.0-7.0-0.35","FL","aj9q5o0gf2","1600","900","0","1","0","5b01e69aa496b300013d5b9b","","null","","","","","","","learning/Slide116.JPG","null","","","","","",""
"html-keyboard-response","353","540688","0.0-7.0-1.35","FL","aj9q5o0gf2","1600","900","0","1","0","5b01e69aa496b300013d5b9b","","null","","","learningBlock2","","","","That was a dep.","null","","","","","",""
"html-keyboard-response","354","541695","0.0-7.0-2.35","FL","aj9q5o0gf2","1600","900","0","1","0","5b01e69aa496b300013d5b9b","","null","","","learningBlock2","","","","<div style=""font-size:60px;""> </div>","null","FL","learning/Slide116.JPG","That was a dep.","","",""
"image-keyboard-response","355","541880","0.0-7.0-0.36","FL","aj9q5o0gf2","1600","900","0","1","0","5b01e69aa496b300013d5b9b","","null","","","","","","","learning/Slide117.JPG","null","","","","","",""
"html-keyboard-response","356","543037","0.0-7.0-1.36","FL","aj9q5o0gf2","1600","900","0","1","0","5b01e69aa496b300013d5b9b","","null","","","learningBlock2","","","","That was a tob.","null","","","","","",""
"html-keyboard-response","357","544049","0.0-7.0-2.36","FL","aj9q5o0gf2","1600","900","0","1","0","5b01e69aa496b300013d5b9b","","null","","","learningBlock2","","","","<div style=""font-size:60px;""> </div>","null","FL","learning/Slide117.JPG","That was a tob.","","",""
"image-keyboard-response","358","544239","0.0-7.0-0.37","FL","aj9q5o0gf2","1600","900","0","1","0","5b01e69aa496b300013d5b9b","","null","","","","","","","learning/Slide118.JPG","null","","","","","",""
"html-keyboard-response","359","545410","0.0-7.0-1.37","FL","aj9q5o0gf2","1600","900","0","1","0","5b01e69aa496b300013d5b9b","","null","","","learningBlock2","","","","That was a dep.","null","","","","","",""
"html-keyboard-response","360","546425","0.0-7.0-2.37","FL","aj9q5o0gf2","1600","900","0","1","0","5b01e69aa496b300013d5b9b","","null","","","learningBlock2","","","","<div style=""font-size:60px;""> </div>","null","FL","learning/Slide118.JPG","That was a dep.","","",""
"image-keyboard-response","361","546614","0.0-7.0-0.38","FL","aj9q5o0gf2","1600","900","0","1","0","5b01e69aa496b300013d5b9b","","null","","","","","","","learning/Slide119.JPG","null","","","","","",""
"html-keyboard-response","362","547771","0.0-7.0-1.38","FL","aj9q5o0gf2","1600","900","0","1","0","5b01e69aa496b300013d5b9b","","null","","","learningBlock2","","","","That was a wug.","null","","","","","",""
"html-keyboard-response","363","548787","0.0-7.0-2.38","FL","aj9q5o0gf2","1600","900","0","1","0","5b01e69aa496b300013d5b9b","","null","","","learningBlock2","","","","<div style=""font-size:60px;""> </div>","null","FL","learning/Slide119.JPG","That was a wug.","","",""
"image-keyboard-response","364","548965","0.0-7.0-0.39","FL","aj9q5o0gf2","1600","900","0","1","0","5b01e69aa496b300013d5b9b","","null","","","","","","","learning/Slide120.JPG","null","","","","","",""
"html-keyboard-response","365","550145","0.0-7.0-1.39","FL","aj9q5o0gf2","1600","900","0","1","0","5b01e69aa496b300013d5b9b","","null","","","learningBlock2","","","","That was a dep.","null","","","","","",""
"html-keyboard-response","366","551154","0.0-7.0-2.39","FL","aj9q5o0gf2","1600","900","0","1","0","5b01e69aa496b300013d5b9b","","null","","","learningBlock2","","","","<div style=""font-size:60px;""> </div>","null","FL","learning/Slide120.JPG","That was a dep.","","",""
"image-keyboard-response","367","551332","0.0-7.0-0.40","FL","aj9q5o0gf2","1600","900","0","1","0","5b01e69aa496b300013d5b9b","","null","","","","","","","learning/Slide121.JPG","null","","","","","",""
"html-keyboard-response","368","552492","0.0-7.0-1.40","FL","aj9q5o0gf2","1600","900","0","1","0","5b01e69aa496b300013d5b9b","","null","","","learningBlock2","","","","That was a bim.","null","","","","","",""
"html-keyboard-response","369","553508","0.0-7.0-2.40","FL","aj9q5o0gf2","1600","900","0","1","0","5b01e69aa496b300013d5b9b","","null","","","learningBlock2","","","","<div style=""font-size:60px;""> </div>","null","FL","learning/Slide121.JPG","That was a bim.","","",""
"image-keyboard-response","370","553695","0.0-7.0-0.41","FL","aj9q5o0gf2","1600","900","0","1","0","5b01e69aa496b300013d5b9b","","null","","","","","","","learning/Slide122.JPG","null","","","","","",""
"html-keyboard-response","371","554862","0.0-7.0-1.41","FL","aj9q5o0gf2","1600","900","0","1","0","5b01e69aa496b300013d5b9b","","null","","","learningBlock2","","","","That was a wug.","null","","","","","",""
"html-keyboard-response","372","555876","0.0-7.0-2.41","FL","aj9q5o0gf2","1600","900","0","1","0","5b01e69aa496b300013d5b9b","","null","","","learningBlock2","","","","<div style=""font-size:60px;""> </div>","null","FL","learning/Slide122.JPG","That was a wug.","","",""
"image-keyboard-response","373","556068","0.0-7.0-0.42","FL","aj9q5o0gf2","1600","900","0","1","0","5b01e69aa496b300013d5b9b","","null","","","","","","","learning/Slide123.JPG","null","","","","","",""
"html-keyboard-response","374","557232","0.0-7.0-1.42","FL","aj9q5o0gf2","1600","900","0","1","0","5b01e69aa496b300013d5b9b","","null","","","learningBlock2","","","","That was a bim.","null","","","","","",""
"html-keyboard-response","375","558251","0.0-7.0-2.42","FL","aj9q5o0gf2","1600","900","0","1","0","5b01e69aa496b300013d5b9b","","null","","","learningBlock2","","","","<div style=""font-size:60px;""> </div>","null","FL","learning/Slide123.JPG","That was a bim.","","",""
"image-keyboard-response","376","558430","0.0-7.0-0.43","FL","aj9q5o0gf2","1600","900","0","1","0","5b01e69aa496b300013d5b9b","","null","","","","","","","learning/Slide124.JPG","null","","","","","",""
"html-keyboard-response","377","559606","0.0-7.0-1.43","FL","aj9q5o0gf2","1600","900","0","1","0","5b01e69aa496b300013d5b9b","","null","","","learningBlock2","","","","That was a tob.","null","","","","","",""
"html-keyboard-response","378","560618","0.0-7.0-2.43","FL","aj9q5o0gf2","1600","900","0","1","0","5b01e69aa496b300013d5b9b","","null","","","learningBlock2","","","","<div style=""font-size:60px;""> </div>","null","FL","learning/Slide124.JPG","That was a tob.","","",""
"image-keyboard-response","379","560806","0.0-7.0-0.44","FL","aj9q5o0gf2","1600","900","0","1","0","5b01e69aa496b300013d5b9b","","null","","","","","","","learning/Slide125.JPG","null","","","","","",""
"html-keyboard-response","380","561974","0.0-7.0-1.44","FL","aj9q5o0gf2","1600","900","0","1","0","5b01e69aa496b300013d5b9b","","null","","","learningBlock2","","","","That was a bim.","null","","","","","",""
"html-keyboard-response","381","562987","0.0-7.0-2.44","FL","aj9q5o0gf2","1600","900","0","1","0","5b01e69aa496b300013d5b9b","","null","","","learningBlock2","","","","<div style=""font-size:60px;""> </div>","null","FL","learning/Slide125.JPG","That was a bim.","","",""
"image-keyboard-response","382","563173","0.0-7.0-0.45","FL","aj9q5o0gf2","1600","900","0","1","0","5b01e69aa496b300013d5b9b","","null","","","","","","","learning/Slide126.JPG","null","","","","","",""
"html-keyboard-response","383","564343","0.0-7.0-1.45","FL","aj9q5o0gf2","1600","900","0","1","0","5b01e69aa496b300013d5b9b","","null","","","learningBlock2","","","","That was a tob.","null","","","","","",""
"html-keyboard-response","384","565351","0.0-7.0-2.45","FL","aj9q5o0gf2","1600","900","0","1","0","5b01e69aa496b300013d5b9b","","null","","","learningBlock2","","","","<div style=""font-size:60px;""> </div>","null","FL","learning/Slide126.JPG","That was a tob.","","",""
"image-keyboard-response","385","565532","0.0-7.0-0.46","FL","aj9q5o0gf2","1600","900","0","1","0","5b01e69aa496b300013d5b9b","","null","","","","","","","learning/Slide127.JPG","null","","","","","",""
"html-keyboard-response","386","566696","0.0-7.0-1.46","FL","aj9q5o0gf2","1600","900","0","1","0","5b01e69aa496b300013d5b9b","","null","","","learningBlock2","","","","That was a dep.","null","","","","","",""
"html-keyboard-response","387","567709","0.0-7.0-2.46","FL","aj9q5o0gf2","1600","900","0","1","0","5b01e69aa496b300013d5b9b","","null","","","learningBlock2","","","","<div style=""font-size:60px;""> </div>","null","FL","learning/Slide127.JPG","That was a dep.","","",""
"image-keyboard-response","388","567886","0.0-7.0-0.47","FL","aj9q5o0gf2","1600","900","0","1","0","5b01e69aa496b300013d5b9b","","null","","","","","","","learning/Slide128.JPG","null","","","","","",""
"html-keyboard-response","389","569053","0.0-7.0-1.47","FL","aj9q5o0gf2","1600","900","0","1","0","5b01e69aa496b300013d5b9b","","null","","","learningBlock2","","","","That was a wug.","null","","","","","",""
"html-keyboard-response","390","570072","0.0-7.0-2.47","FL","aj9q5o0gf2","1600","900","0","1","0","5b01e69aa496b300013d5b9b","","null","","","learningBlock2","","","","<div style=""font-size:60px;""> </div>","null","FL","learning/Slide128.JPG","That was a wug.","","",""
"image-keyboard-response","391","570260","0.0-7.0-0.48","FL","aj9q5o0gf2","1600","900","0","1","0","5b01e69aa496b300013d5b9b","","null","","","","","","","learning/Slide129.JPG","null","","","","","",""
"html-keyboard-response","392","571430","0.0-7.0-1.48","FL","aj9q5o0gf2","1600","900","0","1","0","5b01e69aa496b300013d5b9b","","null","","","learningBlock2","","","","That was a tob.","null","","","","","",""
"html-keyboard-response","393","572432","0.0-7.0-2.48","FL","aj9q5o0gf2","1600","900","0","1","0","5b01e69aa496b300013d5b9b","","null","","","learningBlock2","","","","<div style=""font-size:60px;""> </div>","null","FL","learning/Slide129.JPG","That was a tob.","","",""
"image-keyboard-response","394","572609","0.0-7.0-0.49","FL","aj9q5o0gf2","1600","900","0","1","0","5b01e69aa496b300013d5b9b","","null","","","","","","","learning/Slide130.JPG","null","","","","","",""
"html-keyboard-response","395","573775","0.0-7.0-1.49","FL","aj9q5o0gf2","1600","900","0","1","0","5b01e69aa496b300013d5b9b","","null","","","learningBlock2","","","","That was a wug.","null","","","","","",""
"html-keyboard-response","396","574787","0.0-7.0-2.49","FL","aj9q5o0gf2","1600","900","0","1","0","5b01e69aa496b300013d5b9b","","null","","","learningBlock2","","","","<div style=""font-size:60px;""> </div>","null","FL","learning/Slide130.JPG","That was a wug.","","",""
"image-keyboard-response","397","574974","0.0-7.0-0.50","FL","aj9q5o0gf2","1600","900","0","1","0","5b01e69aa496b300013d5b9b","","null","","","","","","","learning/Slide131.JPG","null","","","","","",""
"html-keyboard-response","398","576144","0.0-7.0-1.50","FL","aj9q5o0gf2","1600","900","0","1","0","5b01e69aa496b300013d5b9b","","null","","","learningBlock2","","","","That was a bim.","null","","","","","",""
"html-keyboard-response","399","577159","0.0-7.0-2.50","FL","aj9q5o0gf2","1600","900","0","1","0","5b01e69aa496b300013d5b9b","","null","","","learningBlock2","","","","<div style=""font-size:60px;""> </div>","null","FL","learning/Slide131.JPG","That was a bim.","","",""
"image-keyboard-response","400","577344","0.0-7.0-0.51","FL","aj9q5o0gf2","1600","900","0","1","0","5b01e69aa496b300013d5b9b","","null","","","","","","","learning/Slide132.JPG","null","","","","","",""
"html-keyboard-response","401","578515","0.0-7.0-1.51","FL","aj9q5o0gf2","1600","900","0","1","0","5b01e69aa496b300013d5b9b","","null","","","learningBlock2","","","","That was a dep.","null","","","","","",""
"html-keyboard-response","402","579527","0.0-7.0-2.51","FL","aj9q5o0gf2","1600","900","0","1","0","5b01e69aa496b300013d5b9b","","null","","","learningBlock2","","","","<div style=""font-size:60px;""> </div>","null","FL","learning/Slide132.JPG","That was a dep.","","",""
"image-keyboard-response","403","579706","0.0-7.0-0.52","FL","aj9q5o0gf2","1600","900","0","1","0","5b01e69aa496b300013d5b9b","","null","","","","","","","learning/Slide133.JPG","null","","","","","",""
"html-keyboard-response","404","580886","0.0-7.0-1.52","FL","aj9q5o0gf2","1600","900","0","1","0","5b01e69aa496b300013d5b9b","","null","","","learningBlock2","","","","That was a tob.","null","","","","","",""
"html-keyboard-response","405","581897","0.0-7.0-2.52","FL","aj9q5o0gf2","1600","900","0","1","0","5b01e69aa496b300013d5b9b","","null","","","learningBlock2","","","","<div style=""font-size:60px;""> </div>","null","FL","learning/Slide133.JPG","That was a tob.","","",""
"image-keyboard-response","406","582084","0.0-7.0-0.53","FL","aj9q5o0gf2","1600","900","0","1","0","5b01e69aa496b300013d5b9b","","null","","","","","","","learning/Slide134.JPG","null","","","","","",""
"html-keyboard-response","407","583250","0.0-7.0-1.53","FL","aj9q5o0gf2","1600","900","0","1","0","5b01e69aa496b300013d5b9b","","null","","","learningBlock2","","","","That was a dep.","null","","","","","",""
"html-keyboard-response","408","584267","0.0-7.0-2.53","FL","aj9q5o0gf2","1600","900","0","1","0","5b01e69aa496b300013d5b9b","","null","","","learningBlock2","","","","<div style=""font-size:60px;""> </div>","null","FL","learning/Slide134.JPG","That was a dep.","","",""
"image-keyboard-response","409","584454","0.0-7.0-0.54","FL","aj9q5o0gf2","1600","900","0","1","0","5b01e69aa496b300013d5b9b","","null","","","","","","","learning/Slide135.JPG","null","","","","","",""
"html-keyboard-response","410","585626","0.0-7.0-1.54","FL","aj9q5o0gf2","1600","900","0","1","0","5b01e69aa496b300013d5b9b","","null","","","learningBlock2","","","","That was a tob.","null","","","","","",""
"html-keyboard-response","411","586635","0.0-7.0-2.54","FL","aj9q5o0gf2","1600","900","0","1","0","5b01e69aa496b300013d5b9b","","null","","","learningBlock2","","","","<div style=""font-size:60px;""> </div>","null","FL","learning/Slide135.JPG","That was a tob.","","",""
"image-keyboard-response","412","586823","0.0-7.0-0.55","FL","aj9q5o0gf2","1600","900","0","1","0","5b01e69aa496b300013d5b9b","","null","","","","","","","learning/Slide136.JPG","null","","","","","",""
"html-keyboard-response","413","587979","0.0-7.0-1.55","FL","aj9q5o0gf2","1600","900","0","1","0","5b01e69aa496b300013d5b9b","","null","","","learningBlock2","","","","That was a wug.","null","","","","","",""
"html-keyboard-response","414","588991","0.0-7.0-2.55","FL","aj9q5o0gf2","1600","900","0","1","0","5b01e69aa496b300013d5b9b","","null","","","learningBlock2","","","","<div style=""font-size:60px;""> </div>","null","FL","learning/Slide136.JPG","That was a wug.","","",""
"image-keyboard-response","415","589177","0.0-7.0-0.56","FL","aj9q5o0gf2","1600","900","0","1","0","5b01e69aa496b300013d5b9b","","null","","","","","","","learning/Slide137.JPG","null","","","","","",""
"html-keyboard-response","416","590344","0.0-7.0-1.56","FL","aj9q5o0gf2","1600","900","0","1","0","5b01e69aa496b300013d5b9b","","null","","","learningBlock2","","","","That was a tob.","null","","","","","",""
"html-keyboard-response","417","591359","0.0-7.0-2.56","FL","aj9q5o0gf2","1600","900","0","1","0","5b01e69aa496b300013d5b9b","","null","","","learningBlock2","","","","<div style=""font-size:60px;""> </div>","null","FL","learning/Slide137.JPG","That was a tob.","","",""
"image-keyboard-response","418","591546","0.0-7.0-0.57","FL","aj9q5o0gf2","1600","900","0","1","0","5b01e69aa496b300013d5b9b","","null","","","","","","","learning/Slide138.JPG","null","","","","","",""
"html-keyboard-response","419","592704","0.0-7.0-1.57","FL","aj9q5o0gf2","1600","900","0","1","0","5b01e69aa496b300013d5b9b","","null","","","learningBlock2","","","","That was a bim.","null","","","","","",""
"html-keyboard-response","420","593717","0.0-7.0-2.57","FL","aj9q5o0gf2","1600","900","0","1","0","5b01e69aa496b300013d5b9b","","null","","","learningBlock2","","","","<div style=""font-size:60px;""> </div>","null","FL","learning/Slide138.JPG","That was a bim.","","",""
"image-keyboard-response","421","593904","0.0-7.0-0.58","FL","aj9q5o0gf2","1600","900","0","1","0","5b01e69aa496b300013d5b9b","","null","","","","","","","learning/Slide139.JPG","null","","","","","",""
"html-keyboard-response","422","595073","0.0-7.0-1.58","FL","aj9q5o0gf2","1600","900","0","1","0","5b01e69aa496b300013d5b9b","","null","","","learningBlock2","","","","That was a wug.","null","","","","","",""
"html-keyboard-response","423","596087","0.0-7.0-2.58","FL","aj9q5o0gf2","1600","900","0","1","0","5b01e69aa496b300013d5b9b","","null","","","learningBlock2","","","","<div style=""font-size:60px;""> </div>","null","FL","learning/Slide139.JPG","That was a wug.","","",""
"image-keyboard-response","424","596278","0.0-7.0-0.59","FL","aj9q5o0gf2","1600","900","0","1","0","5b01e69aa496b300013d5b9b","","null","","","","","","","learning/Slide140.JPG","null","","","","","",""
"html-keyboard-response","425","597460","0.0-7.0-1.59","FL","aj9q5o0gf2","1600","900","0","1","0","5b01e69aa496b300013d5b9b","","null","","","learningBlock2","","","","That was a dep.","null","","","","","",""
"html-keyboard-response","426","598471","0.0-7.0-2.59","FL","aj9q5o0gf2","1600","900","0","1","0","5b01e69aa496b300013d5b9b","","null","","","learningBlock2","","","","<div style=""font-size:60px;""> </div>","null","FL","learning/Slide140.JPG","That was a dep.","","",""
"image-keyboard-response","427","598650","0.0-7.0-0.60","FL","aj9q5o0gf2","1600","900","0","1","0","5b01e69aa496b300013d5b9b","","null","","","","","","","learning/Slide141.JPG","null","","","","","",""
"html-keyboard-response","428","599817","0.0-7.0-1.60","FL","aj9q5o0gf2","1600","900","0","1","0","5b01e69aa496b300013d5b9b","","null","","","learningBlock2","","","","That was a tob.","null","","","","","",""
"html-keyboard-response","429","600831","0.0-7.0-2.60","FL","aj9q5o0gf2","1600","900","0","1","0","5b01e69aa496b300013d5b9b","","null","","","learningBlock2","","","","<div style=""font-size:60px;""> </div>","null","FL","learning/Slide141.JPG","That was a tob.","","",""
"image-keyboard-response","430","601018","0.0-7.0-0.61","FL","aj9q5o0gf2","1600","900","0","1","0","5b01e69aa496b300013d5b9b","","null","","","","","","","learning/Slide142.JPG","null","","","","","",""
"html-keyboard-response","431","602174","0.0-7.0-1.61","FL","aj9q5o0gf2","1600","900","0","1","0","5b01e69aa496b300013d5b9b","","null","","","learningBlock2","","","","That was a wug.","null","","","","","",""
"html-keyboard-response","432","603184","0.0-7.0-2.61","FL","aj9q5o0gf2","1600","900","0","1","0","5b01e69aa496b300013d5b9b","","null","","","learningBlock2","","","","<div style=""font-size:60px;""> </div>","null","FL","learning/Slide142.JPG","That was a wug.","","",""
"image-keyboard-response","433","603363","0.0-7.0-0.62","FL","aj9q5o0gf2","1600","900","0","1","0","5b01e69aa496b300013d5b9b","","null","","","","","","","learning/Slide143.JPG","null","","","","","",""
"html-keyboard-response","434","604538","0.0-7.0-1.62","FL","aj9q5o0gf2","1600","900","0","1","0","5b01e69aa496b300013d5b9b","","null","","","learningBlock2","","","","That was a bim.","null","","","","","",""
"html-keyboard-response","435","605553","0.0-7.0-2.62","FL","aj9q5o0gf2","1600","900","0","1","0","5b01e69aa496b300013d5b9b","","null","","","learningBlock2","","","","<div style=""font-size:60px;""> </div>","null","FL","learning/Slide143.JPG","That was a bim.","","",""
"image-keyboard-response","436","605741","0.0-7.0-0.63","FL","aj9q5o0gf2","1600","900","0","1","0","5b01e69aa496b300013d5b9b","","null","","","","","","","learning/Slide144.JPG","null","","","","","",""
