"trial_type","trial_index","time_elapsed","internal_node_id","condition","subject","screen_width","screen_height","attention","distraction","conscientious","prolificID","success","rt","url","view_history","test_part","final_height_px","final_width_px","scale_factor","stimulus","key_press","learningType","presentedImage","presentedLabel","button_pressed","response","responses"
"pavlovia","0","6","0.0-0.0","LF","ek1v85vere","1280","720","0","1","0","5bdcd99964215c0001282b34","","","","","","","","","","","","","","","",""
"fullscreen","1","3249","0.0-1.0","LF","ek1v85vere","1280","720","0","1","0","5bdcd99964215c0001282b34","true","","","","","","","","","","","","","","",""
"external-html","2","10455","0.0-2.0-0.0","LF","ek1v85vere","1280","720","0","1","0","5bdcd99964215c0001282b34","","7182.089999987511","text/information_english.html","","","","","","","","","","","","",""
"external-html","3","16919","0.0-2.0-1.0","LF","ek1v85vere","1280","720","0","1","0","5bdcd99964215c0001282b34","","6435.345000005327","text/consent_english.html","","","","","","","","","","","","",""
"instructions","4","30510","0.0-3.0","LF","ek1v85vere","1280","720","0","1","0","5bdcd99964215c0001282b34","","NA","","[{""page_index"":0,""viewing_time"":2220.2350000152364},{""page_index"":1,""viewing_time"":11368.989999988116}]","instructions","","","","","","","","","","",""
"resize","5","67237","0.0-4.0","LF","ek1v85vere","1280","720","0","1","0","5bdcd99964215c0001282b34","","","","","","","374","2.3746031746031746","","","","","","","",""
"html-keyboard-response","6","68240","0.0-5.0-0.0","LF","ek1v85vere","1280","720","0","1","0","5bdcd99964215c0001282b34","","null","","","learningBlock1","","","","This is a tob:","null","","","","","",""
"image-keyboard-response","7","68570","0.0-5.0-1.0","LF","ek1v85vere","1280","720","0","1","0","5bdcd99964215c0001282b34","","null","","","","","","","learning/Slide1.JPG","null","","","","","",""
"html-keyboard-response","8","69577","0.0-5.0-2.0","LF","ek1v85vere","1280","720","0","1","0","5bdcd99964215c0001282b34","","null","","","learningBlock1","","","","<div style=""font-size:60px;""> </div>","null","LF","learning/Slide1.JPG","This is a tob:","","",""
"html-keyboard-response","9","70589","0.0-5.0-0.1","LF","ek1v85vere","1280","720","0","1","0","5bdcd99964215c0001282b34","","null","","","learningBlock1","","","","This is a wug:","null","","","","","",""
"image-keyboard-response","10","70937","0.0-5.0-1.1","LF","ek1v85vere","1280","720","0","1","0","5bdcd99964215c0001282b34","","null","","","","","","","learning/Slide2.JPG","null","","","","","",""
"html-keyboard-response","11","71947","0.0-5.0-2.1","LF","ek1v85vere","1280","720","0","1","0","5bdcd99964215c0001282b34","","null","","","learningBlock1","","","","<div style=""font-size:60px;""> </div>","null","LF","learning/Slide2.JPG","This is a wug:","","",""
"html-keyboard-response","12","72953","0.0-5.0-0.2","LF","ek1v85vere","1280","720","0","1","0","5bdcd99964215c0001282b34","","null","","","learningBlock1","","","","This is a bim:","null","","","","","",""
"image-keyboard-response","13","73299","0.0-5.0-1.2","LF","ek1v85vere","1280","720","0","1","0","5bdcd99964215c0001282b34","","null","","","","","","","learning/Slide3.JPG","null","","","","","",""
"html-keyboard-response","14","74317","0.0-5.0-2.2","LF","ek1v85vere","1280","720","0","1","0","5bdcd99964215c0001282b34","","null","","","learningBlock1","","","","<div style=""font-size:60px;""> </div>","null","LF","learning/Slide3.JPG","This is a bim:","","",""
"html-keyboard-response","15","75324","0.0-5.0-0.3","LF","ek1v85vere","1280","720","0","1","0","5bdcd99964215c0001282b34","","null","","","learningBlock1","","","","This is a dep:","null","","","","","",""
"image-keyboard-response","16","75669","0.0-5.0-1.3","LF","ek1v85vere","1280","720","0","1","0","5bdcd99964215c0001282b34","","null","","","","","","","learning/Slide4.JPG","null","","","","","",""
"html-keyboard-response","17","76677","0.0-5.0-2.3","LF","ek1v85vere","1280","720","0","1","0","5bdcd99964215c0001282b34","","null","","","learningBlock1","","","","<div style=""font-size:60px;""> </div>","null","LF","learning/Slide4.JPG","This is a dep:","","",""
"html-keyboard-response","18","77681","0.0-5.0-0.4","LF","ek1v85vere","1280","720","0","1","0","5bdcd99964215c0001282b34","","null","","","learningBlock1","","","","This is a wug:","null","","","","","",""
"image-keyboard-response","19","78011","0.0-5.0-1.4","LF","ek1v85vere","1280","720","0","1","0","5bdcd99964215c0001282b34","","null","","","","","","","learning/Slide5.JPG","null","","","","","",""
"html-keyboard-response","20","79025","0.0-5.0-2.4","LF","ek1v85vere","1280","720","0","1","0","5bdcd99964215c0001282b34","","null","","","learningBlock1","","","","<div style=""font-size:60px;""> </div>","null","LF","learning/Slide5.JPG","This is a wug:","","",""
"html-keyboard-response","21","80030","0.0-5.0-0.5","LF","ek1v85vere","1280","720","0","1","0","5bdcd99964215c0001282b34","","null","","","learningBlock1","","","","This is a dep:","null","","","","","",""
"image-keyboard-response","22","80377","0.0-5.0-1.5","LF","ek1v85vere","1280","720","0","1","0","5bdcd99964215c0001282b34","","null","","","","","","","learning/Slide6.JPG","null","","","","","",""
"html-keyboard-response","23","81393","0.0-5.0-2.5","LF","ek1v85vere","1280","720","0","1","0","5bdcd99964215c0001282b34","","null","","","learningBlock1","","","","<div style=""font-size:60px;""> </div>","null","LF","learning/Slide6.JPG","This is a dep:","","",""
"html-keyboard-response","24","82398","0.0-5.0-0.6","LF","ek1v85vere","1280","720","0","1","0","5bdcd99964215c0001282b34","","null","","","learningBlock1","","","","This is a wug:","null","","","","","",""
"image-keyboard-response","25","82742","0.0-5.0-1.6","LF","ek1v85vere","1280","720","0","1","0","5bdcd99964215c0001282b34","","null","","","","","","","learning/Slide7.JPG","null","","","","","",""
"html-keyboard-response","26","83759","0.0-5.0-2.6","LF","ek1v85vere","1280","720","0","1","0","5bdcd99964215c0001282b34","","null","","","learningBlock1","","","","<div style=""font-size:60px;""> </div>","null","LF","learning/Slide7.JPG","This is a wug:","","",""
"html-keyboard-response","27","84771","0.0-5.0-0.7","LF","ek1v85vere","1280","720","0","1","0","5bdcd99964215c0001282b34","","null","","","learningBlock1","","","","This is a bim:","null","","","","","",""
"image-keyboard-response","28","85101","0.0-5.0-1.7","LF","ek1v85vere","1280","720","0","1","0","5bdcd99964215c0001282b34","","null","","","","","","","learning/Slide8.JPG","null","","","","","",""
"html-keyboard-response","29","86116","0.0-5.0-2.7","LF","ek1v85vere","1280","720","0","1","0","5bdcd99964215c0001282b34","","null","","","learningBlock1","","","","<div style=""font-size:60px;""> </div>","null","LF","learning/Slide8.JPG","This is a bim:","","",""
"html-keyboard-response","30","87123","0.0-5.0-0.8","LF","ek1v85vere","1280","720","0","1","0","5bdcd99964215c0001282b34","","null","","","learningBlock1","","","","This is a wug:","null","","","","","",""
"image-keyboard-response","31","87465","0.0-5.0-1.8","LF","ek1v85vere","1280","720","0","1","0","5bdcd99964215c0001282b34","","null","","","","","","","learning/Slide9.JPG","null","","","","","",""
"html-keyboard-response","32","88469","0.0-5.0-2.8","LF","ek1v85vere","1280","720","0","1","0","5bdcd99964215c0001282b34","","null","","","learningBlock1","","","","<div style=""font-size:60px;""> </div>","null","LF","learning/Slide9.JPG","This is a wug:","","",""
"html-keyboard-response","33","89474","0.0-5.0-0.9","LF","ek1v85vere","1280","720","0","1","0","5bdcd99964215c0001282b34","","null","","","learningBlock1","","","","This is a dep:","null","","","","","",""
"image-keyboard-response","34","89805","0.0-5.0-1.9","LF","ek1v85vere","1280","720","0","1","0","5bdcd99964215c0001282b34","","null","","","","","","","learning/Slide10.JPG","null","","","","","",""
"html-keyboard-response","35","90810","0.0-5.0-2.9","LF","ek1v85vere","1280","720","0","1","0","5bdcd99964215c0001282b34","","null","","","learningBlock1","","","","<div style=""font-size:60px;""> </div>","null","LF","learning/Slide10.JPG","This is a dep:","","",""
"html-keyboard-response","36","91817","0.0-5.0-0.10","LF","ek1v85vere","1280","720","0","1","0","5bdcd99964215c0001282b34","","null","","","learningBlock1","","","","This is a tob:","null","","","","","",""
"image-keyboard-response","37","92158","0.0-5.0-1.10","LF","ek1v85vere","1280","720","0","1","0","5bdcd99964215c0001282b34","","null","","","","","","","learning/Slide11.JPG","null","","","","","",""
"html-keyboard-response","38","93176","0.0-5.0-2.10","LF","ek1v85vere","1280","720","0","1","0","5bdcd99964215c0001282b34","","null","","","learningBlock1","","","","<div style=""font-size:60px;""> </div>","null","LF","learning/Slide11.JPG","This is a tob:","","",""
"html-keyboard-response","39","94179","0.0-5.0-0.11","LF","ek1v85vere","1280","720","0","1","0","5bdcd99964215c0001282b34","","null","","","learningBlock1","","","","This is a dep:","null","","","","","",""
"image-keyboard-response","40","94526","0.0-5.0-1.11","LF","ek1v85vere","1280","720","0","1","0","5bdcd99964215c0001282b34","","null","","","","","","","learning/Slide12.JPG","null","","","","","",""
"html-keyboard-response","41","95532","0.0-5.0-2.11","LF","ek1v85vere","1280","720","0","1","0","5bdcd99964215c0001282b34","","null","","","learningBlock1","","","","<div style=""font-size:60px;""> </div>","null","LF","learning/Slide12.JPG","This is a dep:","","",""
"html-keyboard-response","42","96537","0.0-5.0-0.12","LF","ek1v85vere","1280","720","0","1","0","5bdcd99964215c0001282b34","","null","","","learningBlock1","","","","This is a bim:","null","","","","","",""
"image-keyboard-response","43","96880","0.0-5.0-1.12","LF","ek1v85vere","1280","720","0","1","0","5bdcd99964215c0001282b34","","null","","","","","","","learning/Slide13.JPG","null","","","","","",""
"html-keyboard-response","44","97897","0.0-5.0-2.12","LF","ek1v85vere","1280","720","0","1","0","5bdcd99964215c0001282b34","","null","","","learningBlock1","","","","<div style=""font-size:60px;""> </div>","null","LF","learning/Slide13.JPG","This is a bim:","","",""
"html-keyboard-response","45","98916","0.0-5.0-0.13","LF","ek1v85vere","1280","720","0","1","0","5bdcd99964215c0001282b34","","null","","","learningBlock1","","","","This is a wug:","null","","","","","",""
"image-keyboard-response","46","99256","0.0-5.0-1.13","LF","ek1v85vere","1280","720","0","1","0","5bdcd99964215c0001282b34","","null","","","","","","","learning/Slide14.JPG","null","","","","","",""
"html-keyboard-response","47","100275","0.0-5.0-2.13","LF","ek1v85vere","1280","720","0","1","0","5bdcd99964215c0001282b34","","null","","","learningBlock1","","","","<div style=""font-size:60px;""> </div>","null","LF","learning/Slide14.JPG","This is a wug:","","",""
"html-keyboard-response","48","101281","0.0-5.0-0.14","LF","ek1v85vere","1280","720","0","1","0","5bdcd99964215c0001282b34","","null","","","learningBlock1","","","","This is a tob:","null","","","","","",""
"image-keyboard-response","49","101628","0.0-5.0-1.14","LF","ek1v85vere","1280","720","0","1","0","5bdcd99964215c0001282b34","","null","","","","","","","learning/Slide15.JPG","null","","","","","",""
"html-keyboard-response","50","102633","0.0-5.0-2.14","LF","ek1v85vere","1280","720","0","1","0","5bdcd99964215c0001282b34","","null","","","learningBlock1","","","","<div style=""font-size:60px;""> </div>","null","LF","learning/Slide15.JPG","This is a tob:","","",""
"html-keyboard-response","51","103636","0.0-5.0-0.15","LF","ek1v85vere","1280","720","0","1","0","5bdcd99964215c0001282b34","","null","","","learningBlock1","","","","This is a dep:","null","","","","","",""
"image-keyboard-response","52","103979","0.0-5.0-1.15","LF","ek1v85vere","1280","720","0","1","0","5bdcd99964215c0001282b34","","null","","","","","","","learning/Slide16.JPG","null","","","","","",""
"html-keyboard-response","53","104985","0.0-5.0-2.15","LF","ek1v85vere","1280","720","0","1","0","5bdcd99964215c0001282b34","","null","","","learningBlock1","","","","<div style=""font-size:60px;""> </div>","null","LF","learning/Slide16.JPG","This is a dep:","","",""
"html-keyboard-response","54","105998","0.0-5.0-0.16","LF","ek1v85vere","1280","720","0","1","0","5bdcd99964215c0001282b34","","null","","","learningBlock1","","","","This is a bim:","null","","","","","",""
"image-keyboard-response","55","106343","0.0-5.0-1.16","LF","ek1v85vere","1280","720","0","1","0","5bdcd99964215c0001282b34","","null","","","","","","","learning/Slide17.JPG","null","","","","","",""
"html-keyboard-response","56","107357","0.0-5.0-2.16","LF","ek1v85vere","1280","720","0","1","0","5bdcd99964215c0001282b34","","null","","","learningBlock1","","","","<div style=""font-size:60px;""> </div>","null","LF","learning/Slide17.JPG","This is a bim:","","",""
"html-keyboard-response","57","108362","0.0-5.0-0.17","LF","ek1v85vere","1280","720","0","1","0","5bdcd99964215c0001282b34","","null","","","learningBlock1","","","","This is a tob:","null","","","","","",""
"image-keyboard-response","58","108698","0.0-5.0-1.17","LF","ek1v85vere","1280","720","0","1","0","5bdcd99964215c0001282b34","","null","","","","","","","learning/Slide18.JPG","null","","","","","",""
"html-keyboard-response","59","109716","0.0-5.0-2.17","LF","ek1v85vere","1280","720","0","1","0","5bdcd99964215c0001282b34","","null","","","learningBlock1","","","","<div style=""font-size:60px;""> </div>","null","LF","learning/Slide18.JPG","This is a tob:","","",""
"html-keyboard-response","60","110722","0.0-5.0-0.18","LF","ek1v85vere","1280","720","0","1","0","5bdcd99964215c0001282b34","","null","","","learningBlock1","","","","This is a wug:","null","","","","","",""
"image-keyboard-response","61","111067","0.0-5.0-1.18","LF","ek1v85vere","1280","720","0","1","0","5bdcd99964215c0001282b34","","null","","","","","","","learning/Slide19.JPG","null","","","","","",""
"html-keyboard-response","62","112086","0.0-5.0-2.18","LF","ek1v85vere","1280","720","0","1","0","5bdcd99964215c0001282b34","","null","","","learningBlock1","","","","<div style=""font-size:60px;""> </div>","null","LF","learning/Slide19.JPG","This is a wug:","","",""
"html-keyboard-response","63","113104","0.0-5.0-0.19","LF","ek1v85vere","1280","720","0","1","0","5bdcd99964215c0001282b34","","null","","","learningBlock1","","","","This is a bim:","null","","","","","",""
"image-keyboard-response","64","113450","0.0-5.0-1.19","LF","ek1v85vere","1280","720","0","1","0","5bdcd99964215c0001282b34","","null","","","","","","","learning/Slide20.JPG","null","","","","","",""
"html-keyboard-response","65","114467","0.0-5.0-2.19","LF","ek1v85vere","1280","720","0","1","0","5bdcd99964215c0001282b34","","null","","","learningBlock1","","","","<div style=""font-size:60px;""> </div>","null","LF","learning/Slide20.JPG","This is a bim:","","",""
"html-keyboard-response","66","115485","0.0-5.0-0.20","LF","ek1v85vere","1280","720","0","1","0","5bdcd99964215c0001282b34","","null","","","learningBlock1","","","","This is a dep:","null","","","","","",""
"image-keyboard-response","67","115830","0.0-5.0-1.20","LF","ek1v85vere","1280","720","0","1","0","5bdcd99964215c0001282b34","","null","","","","","","","learning/Slide21.JPG","null","","","","","",""
"html-keyboard-response","68","116837","0.0-5.0-2.20","LF","ek1v85vere","1280","720","0","1","0","5bdcd99964215c0001282b34","","null","","","learningBlock1","","","","<div style=""font-size:60px;""> </div>","null","LF","learning/Slide21.JPG","This is a dep:","","",""
"html-keyboard-response","69","117856","0.0-5.0-0.21","LF","ek1v85vere","1280","720","0","1","0","5bdcd99964215c0001282b34","","null","","","learningBlock1","","","","This is a bim:","null","","","","","",""
"image-keyboard-response","70","118199","0.0-5.0-1.21","LF","ek1v85vere","1280","720","0","1","0","5bdcd99964215c0001282b34","","null","","","","","","","learning/Slide22.JPG","null","","","","","",""
"html-keyboard-response","71","119205","0.0-5.0-2.21","LF","ek1v85vere","1280","720","0","1","0","5bdcd99964215c0001282b34","","null","","","learningBlock1","","","","<div style=""font-size:60px;""> </div>","null","LF","learning/Slide22.JPG","This is a bim:","","",""
"html-keyboard-response","72","120209","0.0-5.0-0.22","LF","ek1v85vere","1280","720","0","1","0","5bdcd99964215c0001282b34","","null","","","learningBlock1","","","","This is a tob:","null","","","","","",""
"image-keyboard-response","73","120556","0.0-5.0-1.22","LF","ek1v85vere","1280","720","0","1","0","5bdcd99964215c0001282b34","","null","","","","","","","learning/Slide23.JPG","null","","","","","",""
"html-keyboard-response","74","121572","0.0-5.0-2.22","LF","ek1v85vere","1280","720","0","1","0","5bdcd99964215c0001282b34","","null","","","learningBlock1","","","","<div style=""font-size:60px;""> </div>","null","LF","learning/Slide23.JPG","This is a tob:","","",""
"html-keyboard-response","75","122580","0.0-5.0-0.23","LF","ek1v85vere","1280","720","0","1","0","5bdcd99964215c0001282b34","","null","","","learningBlock1","","","","This is a wug:","null","","","","","",""
"image-keyboard-response","76","122923","0.0-5.0-1.23","LF","ek1v85vere","1280","720","0","1","0","5bdcd99964215c0001282b34","","null","","","","","","","learning/Slide24.JPG","null","","","","","",""
"html-keyboard-response","77","123931","0.0-5.0-2.23","LF","ek1v85vere","1280","720","0","1","0","5bdcd99964215c0001282b34","","null","","","learningBlock1","","","","<div style=""font-size:60px;""> </div>","null","LF","learning/Slide24.JPG","This is a wug:","","",""
"html-keyboard-response","78","124939","0.0-5.0-0.24","LF","ek1v85vere","1280","720","0","1","0","5bdcd99964215c0001282b34","","null","","","learningBlock1","","","","This is a dep:","null","","","","","",""
"image-keyboard-response","79","125283","0.0-5.0-1.24","LF","ek1v85vere","1280","720","0","1","0","5bdcd99964215c0001282b34","","null","","","","","","","learning/Slide25.JPG","null","","","","","",""
"html-keyboard-response","80","126299","0.0-5.0-2.24","LF","ek1v85vere","1280","720","0","1","0","5bdcd99964215c0001282b34","","null","","","learningBlock1","","","","<div style=""font-size:60px;""> </div>","null","LF","learning/Slide25.JPG","This is a dep:","","",""
"html-keyboard-response","81","127302","0.0-5.0-0.25","LF","ek1v85vere","1280","720","0","1","0","5bdcd99964215c0001282b34","","null","","","learningBlock1","","","","This is a wug:","null","","","","","",""
"image-keyboard-response","82","127645","0.0-5.0-1.25","LF","ek1v85vere","1280","720","0","1","0","5bdcd99964215c0001282b34","","null","","","","","","","learning/Slide26.JPG","null","","","","","",""
"html-keyboard-response","83","128649","0.0-5.0-2.25","LF","ek1v85vere","1280","720","0","1","0","5bdcd99964215c0001282b34","","null","","","learningBlock1","","","","<div style=""font-size:60px;""> </div>","null","LF","learning/Slide26.JPG","This is a wug:","","",""
"html-keyboard-response","84","129655","0.0-5.0-0.26","LF","ek1v85vere","1280","720","0","1","0","5bdcd99964215c0001282b34","","null","","","learningBlock1","","","","This is a bim:","null","","","","","",""
"image-keyboard-response","85","129999","0.0-5.0-1.26","LF","ek1v85vere","1280","720","0","1","0","5bdcd99964215c0001282b34","","null","","","","","","","learning/Slide27.JPG","null","","","","","",""
"html-keyboard-response","86","131014","0.0-5.0-2.26","LF","ek1v85vere","1280","720","0","1","0","5bdcd99964215c0001282b34","","null","","","learningBlock1","","","","<div style=""font-size:60px;""> </div>","null","LF","learning/Slide27.JPG","This is a bim:","","",""
"html-keyboard-response","87","132022","0.0-5.0-0.27","LF","ek1v85vere","1280","720","0","1","0","5bdcd99964215c0001282b34","","null","","","learningBlock1","","","","This is a dep:","null","","","","","",""
"image-keyboard-response","88","132364","0.0-5.0-1.27","LF","ek1v85vere","1280","720","0","1","0","5bdcd99964215c0001282b34","","null","","","","","","","learning/Slide28.JPG","null","","","","","",""
"html-keyboard-response","89","133385","0.0-5.0-2.27","LF","ek1v85vere","1280","720","0","1","0","5bdcd99964215c0001282b34","","null","","","learningBlock1","","","","<div style=""font-size:60px;""> </div>","null","LF","learning/Slide28.JPG","This is a dep:","","",""
"html-keyboard-response","90","134399","0.0-5.0-0.28","LF","ek1v85vere","1280","720","0","1","0","5bdcd99964215c0001282b34","","null","","","learningBlock1","","","","This is a tob:","null","","","","","",""
"image-keyboard-response","91","134745","0.0-5.0-1.28","LF","ek1v85vere","1280","720","0","1","0","5bdcd99964215c0001282b34","","null","","","","","","","learning/Slide29.JPG","null","","","","","",""
"html-keyboard-response","92","135755","0.0-5.0-2.28","LF","ek1v85vere","1280","720","0","1","0","5bdcd99964215c0001282b34","","null","","","learningBlock1","","","","<div style=""font-size:60px;""> </div>","null","LF","learning/Slide29.JPG","This is a tob:","","",""
"html-keyboard-response","93","136774","0.0-5.0-0.29","LF","ek1v85vere","1280","720","0","1","0","5bdcd99964215c0001282b34","","null","","","learningBlock1","","","","This is a dep:","null","","","","","",""
"image-keyboard-response","94","137115","0.0-5.0-1.29","LF","ek1v85vere","1280","720","0","1","0","5bdcd99964215c0001282b34","","null","","","","","","","learning/Slide30.JPG","null","","","","","",""
"html-keyboard-response","95","138119","0.0-5.0-2.29","LF","ek1v85vere","1280","720","0","1","0","5bdcd99964215c0001282b34","","null","","","learningBlock1","","","","<div style=""font-size:60px;""> </div>","null","LF","learning/Slide30.JPG","This is a dep:","","",""
"html-keyboard-response","96","139123","0.0-5.0-0.30","LF","ek1v85vere","1280","720","0","1","0","5bdcd99964215c0001282b34","","null","","","learningBlock1","","","","This is a wug:","null","","","","","",""
"image-keyboard-response","97","139467","0.0-5.0-1.30","LF","ek1v85vere","1280","720","0","1","0","5bdcd99964215c0001282b34","","null","","","","","","","learning/Slide31.JPG","null","","","","","",""
"html-keyboard-response","98","140471","0.0-5.0-2.30","LF","ek1v85vere","1280","720","0","1","0","5bdcd99964215c0001282b34","","null","","","learningBlock1","","","","<div style=""font-size:60px;""> </div>","null","LF","learning/Slide31.JPG","This is a wug:","","",""
"html-keyboard-response","99","141479","0.0-5.0-0.31","LF","ek1v85vere","1280","720","0","1","0","5bdcd99964215c0001282b34","","null","","","learningBlock1","","","","This is a tob:","null","","","","","",""
"image-keyboard-response","100","141827","0.0-5.0-1.31","LF","ek1v85vere","1280","720","0","1","0","5bdcd99964215c0001282b34","","null","","","","","","","learning/Slide32.JPG","null","","","","","",""
"html-keyboard-response","101","142841","0.0-5.0-2.31","LF","ek1v85vere","1280","720","0","1","0","5bdcd99964215c0001282b34","","null","","","learningBlock1","","","","<div style=""font-size:60px;""> </div>","null","LF","learning/Slide32.JPG","This is a tob:","","",""
"html-keyboard-response","102","143860","0.0-5.0-0.32","LF","ek1v85vere","1280","720","0","1","0","5bdcd99964215c0001282b34","","null","","","learningBlock1","","","","This is a bim:","null","","","","","",""
"image-keyboard-response","103","144201","0.0-5.0-1.32","LF","ek1v85vere","1280","720","0","1","0","5bdcd99964215c0001282b34","","null","","","","","","","learning/Slide33.JPG","null","","","","","",""
"html-keyboard-response","104","145205","0.0-5.0-2.32","LF","ek1v85vere","1280","720","0","1","0","5bdcd99964215c0001282b34","","null","","","learningBlock1","","","","<div style=""font-size:60px;""> </div>","null","LF","learning/Slide33.JPG","This is a bim:","","",""
"html-keyboard-response","105","146213","0.0-5.0-0.33","LF","ek1v85vere","1280","720","0","1","0","5bdcd99964215c0001282b34","","null","","","learningBlock1","","","","This is a tob:","null","","","","","",""
"image-keyboard-response","106","146558","0.0-5.0-1.33","LF","ek1v85vere","1280","720","0","1","0","5bdcd99964215c0001282b34","","null","","","","","","","learning/Slide34.JPG","null","","","","","",""
"html-keyboard-response","107","147566","0.0-5.0-2.33","LF","ek1v85vere","1280","720","0","1","0","5bdcd99964215c0001282b34","","null","","","learningBlock1","","","","<div style=""font-size:60px;""> </div>","null","LF","learning/Slide34.JPG","This is a tob:","","",""
"html-keyboard-response","108","148574","0.0-5.0-0.34","LF","ek1v85vere","1280","720","0","1","0","5bdcd99964215c0001282b34","","null","","","learningBlock1","","","","This is a bim:","null","","","","","",""
"image-keyboard-response","109","148918","0.0-5.0-1.34","LF","ek1v85vere","1280","720","0","1","0","5bdcd99964215c0001282b34","","null","","","","","","","learning/Slide35.JPG","null","","","","","",""
"html-keyboard-response","110","149926","0.0-5.0-2.34","LF","ek1v85vere","1280","720","0","1","0","5bdcd99964215c0001282b34","","null","","","learningBlock1","","","","<div style=""font-size:60px;""> </div>","null","LF","learning/Slide35.JPG","This is a bim:","","",""
"html-keyboard-response","111","150945","0.0-5.0-0.35","LF","ek1v85vere","1280","720","0","1","0","5bdcd99964215c0001282b34","","null","","","learningBlock1","","","","This is a dep:","null","","","","","",""
"image-keyboard-response","112","151285","0.0-5.0-1.35","LF","ek1v85vere","1280","720","0","1","0","5bdcd99964215c0001282b34","","null","","","","","","","learning/Slide36.JPG","null","","","","","",""
"html-keyboard-response","113","152289","0.0-5.0-2.35","LF","ek1v85vere","1280","720","0","1","0","5bdcd99964215c0001282b34","","null","","","learningBlock1","","","","<div style=""font-size:60px;""> </div>","null","LF","learning/Slide36.JPG","This is a dep:","","",""
"html-keyboard-response","114","153306","0.0-5.0-0.36","LF","ek1v85vere","1280","720","0","1","0","5bdcd99964215c0001282b34","","null","","","learningBlock1","","","","This is a tob:","null","","","","","",""
"image-keyboard-response","115","153652","0.0-5.0-1.36","LF","ek1v85vere","1280","720","0","1","0","5bdcd99964215c0001282b34","","null","","","","","","","learning/Slide37.JPG","null","","","","","",""
"html-keyboard-response","116","154667","0.0-5.0-2.36","LF","ek1v85vere","1280","720","0","1","0","5bdcd99964215c0001282b34","","null","","","learningBlock1","","","","<div style=""font-size:60px;""> </div>","null","LF","learning/Slide37.JPG","This is a tob:","","",""
"html-keyboard-response","117","155672","0.0-5.0-0.37","LF","ek1v85vere","1280","720","0","1","0","5bdcd99964215c0001282b34","","null","","","learningBlock1","","","","This is a wug:","null","","","","","",""
"image-keyboard-response","118","156016","0.0-5.0-1.37","LF","ek1v85vere","1280","720","0","1","0","5bdcd99964215c0001282b34","","null","","","","","","","learning/Slide38.JPG","null","","","","","",""
"html-keyboard-response","119","157022","0.0-5.0-2.37","LF","ek1v85vere","1280","720","0","1","0","5bdcd99964215c0001282b34","","null","","","learningBlock1","","","","<div style=""font-size:60px;""> </div>","null","LF","learning/Slide38.JPG","This is a wug:","","",""
"html-keyboard-response","120","158028","0.0-5.0-0.38","LF","ek1v85vere","1280","720","0","1","0","5bdcd99964215c0001282b34","","null","","","learningBlock1","","","","This is a bim:","null","","","","","",""
"image-keyboard-response","121","158372","0.0-5.0-1.38","LF","ek1v85vere","1280","720","0","1","0","5bdcd99964215c0001282b34","","null","","","","","","","learning/Slide39.JPG","null","","","","","",""
"html-keyboard-response","122","159379","0.0-5.0-2.38","LF","ek1v85vere","1280","720","0","1","0","5bdcd99964215c0001282b34","","null","","","learningBlock1","","","","<div style=""font-size:60px;""> </div>","null","LF","learning/Slide39.JPG","This is a bim:","","",""
"html-keyboard-response","123","160395","0.0-5.0-0.39","LF","ek1v85vere","1280","720","0","1","0","5bdcd99964215c0001282b34","","null","","","learningBlock1","","","","This is a tob:","null","","","","","",""
"image-keyboard-response","124","160740","0.0-5.0-1.39","LF","ek1v85vere","1280","720","0","1","0","5bdcd99964215c0001282b34","","null","","","","","","","learning/Slide40.JPG","null","","","","","",""
"html-keyboard-response","125","161757","0.0-5.0-2.39","LF","ek1v85vere","1280","720","0","1","0","5bdcd99964215c0001282b34","","null","","","learningBlock1","","","","<div style=""font-size:60px;""> </div>","null","LF","learning/Slide40.JPG","This is a tob:","","",""
"html-keyboard-response","126","162768","0.0-5.0-0.40","LF","ek1v85vere","1280","720","0","1","0","5bdcd99964215c0001282b34","","null","","","learningBlock1","","","","This is a bim:","null","","","","","",""
"image-keyboard-response","127","163113","0.0-5.0-1.40","LF","ek1v85vere","1280","720","0","1","0","5bdcd99964215c0001282b34","","null","","","","","","","learning/Slide41.JPG","null","","","","","",""
"html-keyboard-response","128","164131","0.0-5.0-2.40","LF","ek1v85vere","1280","720","0","1","0","5bdcd99964215c0001282b34","","null","","","learningBlock1","","","","<div style=""font-size:60px;""> </div>","null","LF","learning/Slide41.JPG","This is a bim:","","",""
"html-keyboard-response","129","165146","0.0-5.0-0.41","LF","ek1v85vere","1280","720","0","1","0","5bdcd99964215c0001282b34","","null","","","learningBlock1","","","","This is a dep:","null","","","","","",""
"image-keyboard-response","130","165490","0.0-5.0-1.41","LF","ek1v85vere","1280","720","0","1","0","5bdcd99964215c0001282b34","","null","","","","","","","learning/Slide42.JPG","null","","","","","",""
"html-keyboard-response","131","166493","0.0-5.0-2.41","LF","ek1v85vere","1280","720","0","1","0","5bdcd99964215c0001282b34","","null","","","learningBlock1","","","","<div style=""font-size:60px;""> </div>","null","LF","learning/Slide42.JPG","This is a dep:","","",""
"html-keyboard-response","132","167497","0.0-5.0-0.42","LF","ek1v85vere","1280","720","0","1","0","5bdcd99964215c0001282b34","","null","","","learningBlock1","","","","This is a wug:","null","","","","","",""
"image-keyboard-response","133","167843","0.0-5.0-1.42","LF","ek1v85vere","1280","720","0","1","0","5bdcd99964215c0001282b34","","null","","","","","","","learning/Slide43.JPG","null","","","","","",""
"html-keyboard-response","134","168850","0.0-5.0-2.42","LF","ek1v85vere","1280","720","0","1","0","5bdcd99964215c0001282b34","","null","","","learningBlock1","","","","<div style=""font-size:60px;""> </div>","null","LF","learning/Slide43.JPG","This is a wug:","","",""
"html-keyboard-response","135","169865","0.0-5.0-0.43","LF","ek1v85vere","1280","720","0","1","0","5bdcd99964215c0001282b34","","null","","","learningBlock1","","","","This is a bim:","null","","","","","",""
"image-keyboard-response","136","170209","0.0-5.0-1.43","LF","ek1v85vere","1280","720","0","1","0","5bdcd99964215c0001282b34","","null","","","","","","","learning/Slide44.JPG","null","","","","","",""
"html-keyboard-response","137","171212","0.0-5.0-2.43","LF","ek1v85vere","1280","720","0","1","0","5bdcd99964215c0001282b34","","null","","","learningBlock1","","","","<div style=""font-size:60px;""> </div>","null","LF","learning/Slide44.JPG","This is a bim:","","",""
"html-keyboard-response","138","172227","0.0-5.0-0.44","LF","ek1v85vere","1280","720","0","1","0","5bdcd99964215c0001282b34","","null","","","learningBlock1","","","","This is a wug:","null","","","","","",""
"image-keyboard-response","139","172574","0.0-5.0-1.44","LF","ek1v85vere","1280","720","0","1","0","5bdcd99964215c0001282b34","","null","","","","","","","learning/Slide45.JPG","null","","","","","",""
"html-keyboard-response","140","173591","0.0-5.0-2.44","LF","ek1v85vere","1280","720","0","1","0","5bdcd99964215c0001282b34","","null","","","learningBlock1","","","","<div style=""font-size:60px;""> </div>","null","LF","learning/Slide45.JPG","This is a wug:","","",""
"html-keyboard-response","141","174608","0.0-5.0-0.45","LF","ek1v85vere","1280","720","0","1","0","5bdcd99964215c0001282b34","","null","","","learningBlock1","","","","This is a dep:","null","","","","","",""
"image-keyboard-response","142","174953","0.0-5.0-1.45","LF","ek1v85vere","1280","720","0","1","0","5bdcd99964215c0001282b34","","null","","","","","","","learning/Slide46.JPG","null","","","","","",""
"html-keyboard-response","143","175971","0.0-5.0-2.45","LF","ek1v85vere","1280","720","0","1","0","5bdcd99964215c0001282b34","","null","","","learningBlock1","","","","<div style=""font-size:60px;""> </div>","null","LF","learning/Slide46.JPG","This is a dep:","","",""
"html-keyboard-response","144","176987","0.0-5.0-0.46","LF","ek1v85vere","1280","720","0","1","0","5bdcd99964215c0001282b34","","null","","","learningBlock1","","","","This is a tob:","null","","","","","",""
"image-keyboard-response","145","177318","0.0-5.0-1.46","LF","ek1v85vere","1280","720","0","1","0","5bdcd99964215c0001282b34","","null","","","","","","","learning/Slide47.JPG","null","","","","","",""
"html-keyboard-response","146","178337","0.0-5.0-2.46","LF","ek1v85vere","1280","720","0","1","0","5bdcd99964215c0001282b34","","null","","","learningBlock1","","","","<div style=""font-size:60px;""> </div>","null","LF","learning/Slide47.JPG","This is a tob:","","",""
"html-keyboard-response","147","179340","0.0-5.0-0.47","LF","ek1v85vere","1280","720","0","1","0","5bdcd99964215c0001282b34","","null","","","learningBlock1","","","","This is a bim:","null","","","","","",""
"image-keyboard-response","148","179685","0.0-5.0-1.47","LF","ek1v85vere","1280","720","0","1","0","5bdcd99964215c0001282b34","","null","","","","","","","learning/Slide48.JPG","null","","","","","",""
"html-keyboard-response","149","180688","0.0-5.0-2.47","LF","ek1v85vere","1280","720","0","1","0","5bdcd99964215c0001282b34","","null","","","learningBlock1","","","","<div style=""font-size:60px;""> </div>","null","LF","learning/Slide48.JPG","This is a bim:","","",""
"html-keyboard-response","150","181691","0.0-5.0-0.48","LF","ek1v85vere","1280","720","0","1","0","5bdcd99964215c0001282b34","","null","","","learningBlock1","","","","This is a dep:","null","","","","","",""
"image-keyboard-response","151","182039","0.0-5.0-1.48","LF","ek1v85vere","1280","720","0","1","0","5bdcd99964215c0001282b34","","null","","","","","","","learning/Slide49.JPG","null","","","","","",""
"html-keyboard-response","152","183053","0.0-5.0-2.48","LF","ek1v85vere","1280","720","0","1","0","5bdcd99964215c0001282b34","","null","","","learningBlock1","","","","<div style=""font-size:60px;""> </div>","null","LF","learning/Slide49.JPG","This is a dep:","","",""
"html-keyboard-response","153","184067","0.0-5.0-0.49","LF","ek1v85vere","1280","720","0","1","0","5bdcd99964215c0001282b34","","null","","","learningBlock1","","","","This is a tob:","null","","","","","",""
"image-keyboard-response","154","184410","0.0-5.0-1.49","LF","ek1v85vere","1280","720","0","1","0","5bdcd99964215c0001282b34","","null","","","","","","","learning/Slide50.JPG","null","","","","","",""
"html-keyboard-response","155","185415","0.0-5.0-2.49","LF","ek1v85vere","1280","720","0","1","0","5bdcd99964215c0001282b34","","null","","","learningBlock1","","","","<div style=""font-size:60px;""> </div>","null","LF","learning/Slide50.JPG","This is a tob:","","",""
"html-keyboard-response","156","186433","0.0-5.0-0.50","LF","ek1v85vere","1280","720","0","1","0","5bdcd99964215c0001282b34","","null","","","learningBlock1","","","","This is a bim:","null","","","","","",""
"image-keyboard-response","157","186777","0.0-5.0-1.50","LF","ek1v85vere","1280","720","0","1","0","5bdcd99964215c0001282b34","","null","","","","","","","learning/Slide51.JPG","null","","","","","",""
"html-keyboard-response","158","187796","0.0-5.0-2.50","LF","ek1v85vere","1280","720","0","1","0","5bdcd99964215c0001282b34","","null","","","learningBlock1","","","","<div style=""font-size:60px;""> </div>","null","LF","learning/Slide51.JPG","This is a bim:","","",""
"html-keyboard-response","159","188801","0.0-5.0-0.51","LF","ek1v85vere","1280","720","0","1","0","5bdcd99964215c0001282b34","","null","","","learningBlock1","","","","This is a wug:","null","","","","","",""
"image-keyboard-response","160","189146","0.0-5.0-1.51","LF","ek1v85vere","1280","720","0","1","0","5bdcd99964215c0001282b34","","null","","","","","","","learning/Slide52.JPG","null","","","","","",""
"html-keyboard-response","161","190151","0.0-5.0-2.51","LF","ek1v85vere","1280","720","0","1","0","5bdcd99964215c0001282b34","","null","","","learningBlock1","","","","<div style=""font-size:60px;""> </div>","null","LF","learning/Slide52.JPG","This is a wug:","","",""
"html-keyboard-response","162","191155","0.0-5.0-0.52","LF","ek1v85vere","1280","720","0","1","0","5bdcd99964215c0001282b34","","null","","","learningBlock1","","","","This is a tob:","null","","","","","",""
"image-keyboard-response","163","191493","0.0-5.0-1.52","LF","ek1v85vere","1280","720","0","1","0","5bdcd99964215c0001282b34","","null","","","","","","","learning/Slide53.JPG","null","","","","","",""
"html-keyboard-response","164","192509","0.0-5.0-2.52","LF","ek1v85vere","1280","720","0","1","0","5bdcd99964215c0001282b34","","null","","","learningBlock1","","","","<div style=""font-size:60px;""> </div>","null","LF","learning/Slide53.JPG","This is a tob:","","",""
"html-keyboard-response","165","193527","0.0-5.0-0.53","LF","ek1v85vere","1280","720","0","1","0","5bdcd99964215c0001282b34","","null","","","learningBlock1","","","","This is a dep:","null","","","","","",""
"image-keyboard-response","166","193871","0.0-5.0-1.53","LF","ek1v85vere","1280","720","0","1","0","5bdcd99964215c0001282b34","","null","","","","","","","learning/Slide54.JPG","null","","","","","",""
"html-keyboard-response","167","194877","0.0-5.0-2.53","LF","ek1v85vere","1280","720","0","1","0","5bdcd99964215c0001282b34","","null","","","learningBlock1","","","","<div style=""font-size:60px;""> </div>","null","LF","learning/Slide54.JPG","This is a dep:","","",""
"html-keyboard-response","168","195892","0.0-5.0-0.54","LF","ek1v85vere","1280","720","0","1","0","5bdcd99964215c0001282b34","","null","","","learningBlock1","","","","This is a bim:","null","","","","","",""
"image-keyboard-response","169","196238","0.0-5.0-1.54","LF","ek1v85vere","1280","720","0","1","0","5bdcd99964215c0001282b34","","null","","","","","","","learning/Slide55.JPG","null","","","","","",""
"html-keyboard-response","170","197249","0.0-5.0-2.54","LF","ek1v85vere","1280","720","0","1","0","5bdcd99964215c0001282b34","","null","","","learningBlock1","","","","<div style=""font-size:60px;""> </div>","null","LF","learning/Slide55.JPG","This is a bim:","","",""
"html-keyboard-response","171","198267","0.0-5.0-0.55","LF","ek1v85vere","1280","720","0","1","0","5bdcd99964215c0001282b34","","null","","","learningBlock1","","","","This is a tob:","null","","","","","",""
"image-keyboard-response","172","198608","0.0-5.0-1.55","LF","ek1v85vere","1280","720","0","1","0","5bdcd99964215c0001282b34","","null","","","","","","","learning/Slide56.JPG","null","","","","","",""
"html-keyboard-response","173","199611","0.0-5.0-2.55","LF","ek1v85vere","1280","720","0","1","0","5bdcd99964215c0001282b34","","null","","","learningBlock1","","","","<div style=""font-size:60px;""> </div>","null","LF","learning/Slide56.JPG","This is a tob:","","",""
"html-keyboard-response","174","200613","0.0-5.0-0.56","LF","ek1v85vere","1280","720","0","1","0","5bdcd99964215c0001282b34","","null","","","learningBlock1","","","","This is a dep:","null","","","","","",""
"image-keyboard-response","175","200954","0.0-5.0-1.56","LF","ek1v85vere","1280","720","0","1","0","5bdcd99964215c0001282b34","","null","","","","","","","learning/Slide57.JPG","null","","","","","",""
"html-keyboard-response","176","201958","0.0-5.0-2.56","LF","ek1v85vere","1280","720","0","1","0","5bdcd99964215c0001282b34","","null","","","learningBlock1","","","","<div style=""font-size:60px;""> </div>","null","LF","learning/Slide57.JPG","This is a dep:","","",""
"html-keyboard-response","177","202962","0.0-5.0-0.57","LF","ek1v85vere","1280","720","0","1","0","5bdcd99964215c0001282b34","","null","","","learningBlock1","","","","This is a wug:","null","","","","","",""
"image-keyboard-response","178","203312","0.0-5.0-1.57","LF","ek1v85vere","1280","720","0","1","0","5bdcd99964215c0001282b34","","null","","","","","","","learning/Slide58.JPG","null","","","","","",""
"html-keyboard-response","179","204330","0.0-5.0-2.57","LF","ek1v85vere","1280","720","0","1","0","5bdcd99964215c0001282b34","","null","","","learningBlock1","","","","<div style=""font-size:60px;""> </div>","null","LF","learning/Slide58.JPG","This is a wug:","","",""
"html-keyboard-response","180","205349","0.0-5.0-0.58","LF","ek1v85vere","1280","720","0","1","0","5bdcd99964215c0001282b34","","null","","","learningBlock1","","","","This is a dep:","null","","","","","",""
"image-keyboard-response","181","205690","0.0-5.0-1.58","LF","ek1v85vere","1280","720","0","1","0","5bdcd99964215c0001282b34","","null","","","","","","","learning/Slide59.JPG","null","","","","","",""
"html-keyboard-response","182","206707","0.0-5.0-2.58","LF","ek1v85vere","1280","720","0","1","0","5bdcd99964215c0001282b34","","null","","","learningBlock1","","","","<div style=""font-size:60px;""> </div>","null","LF","learning/Slide59.JPG","This is a dep:","","",""
"html-keyboard-response","183","207711","0.0-5.0-0.59","LF","ek1v85vere","1280","720","0","1","0","5bdcd99964215c0001282b34","","null","","","learningBlock1","","","","This is a wug:","null","","","","","",""
"image-keyboard-response","184","208055","0.0-5.0-1.59","LF","ek1v85vere","1280","720","0","1","0","5bdcd99964215c0001282b34","","null","","","","","","","learning/Slide60.JPG","null","","","","","",""
"html-keyboard-response","185","209062","0.0-5.0-2.59","LF","ek1v85vere","1280","720","0","1","0","5bdcd99964215c0001282b34","","null","","","learningBlock1","","","","<div style=""font-size:60px;""> </div>","null","LF","learning/Slide60.JPG","This is a wug:","","",""
"html-keyboard-response","186","210065","0.0-5.0-0.60","LF","ek1v85vere","1280","720","0","1","0","5bdcd99964215c0001282b34","","null","","","learningBlock1","","","","This is a bim:","null","","","","","",""
"image-keyboard-response","187","210399","0.0-5.0-1.60","LF","ek1v85vere","1280","720","0","1","0","5bdcd99964215c0001282b34","","null","","","","","","","learning/Slide61.JPG","null","","","","","",""
"html-keyboard-response","188","211411","0.0-5.0-2.60","LF","ek1v85vere","1280","720","0","1","0","5bdcd99964215c0001282b34","","null","","","learningBlock1","","","","<div style=""font-size:60px;""> </div>","null","LF","learning/Slide61.JPG","This is a bim:","","",""
"html-keyboard-response","189","212420","0.0-5.0-0.61","LF","ek1v85vere","1280","720","0","1","0","5bdcd99964215c0001282b34","","null","","","learningBlock1","","","","This is a dep:","null","","","","","",""
"image-keyboard-response","190","212764","0.0-5.0-1.61","LF","ek1v85vere","1280","720","0","1","0","5bdcd99964215c0001282b34","","null","","","","","","","learning/Slide62.JPG","null","","","","","",""
"html-keyboard-response","191","213781","0.0-5.0-2.61","LF","ek1v85vere","1280","720","0","1","0","5bdcd99964215c0001282b34","","null","","","learningBlock1","","","","<div style=""font-size:60px;""> </div>","null","LF","learning/Slide62.JPG","This is a dep:","","",""
"html-keyboard-response","192","214784","0.0-5.0-0.62","LF","ek1v85vere","1280","720","0","1","0","5bdcd99964215c0001282b34","","null","","","learningBlock1","","","","This is a bim:","null","","","","","",""
"image-keyboard-response","193","215129","0.0-5.0-1.62","LF","ek1v85vere","1280","720","0","1","0","5bdcd99964215c0001282b34","","null","","","","","","","learning/Slide63.JPG","null","","","","","",""
"html-keyboard-response","194","216146","0.0-5.0-2.62","LF","ek1v85vere","1280","720","0","1","0","5bdcd99964215c0001282b34","","null","","","learningBlock1","","","","<div style=""font-size:60px;""> </div>","null","LF","learning/Slide63.JPG","This is a bim:","","",""
"html-keyboard-response","195","217163","0.0-5.0-0.63","LF","ek1v85vere","1280","720","0","1","0","5bdcd99964215c0001282b34","","null","","","learningBlock1","","","","This is a tob:","null","","","","","",""
"image-keyboard-response","196","217509","0.0-5.0-1.63","LF","ek1v85vere","1280","720","0","1","0","5bdcd99964215c0001282b34","","null","","","","","","","learning/Slide64.JPG","null","","","","","",""
"html-keyboard-response","197","218520","0.0-5.0-2.63","LF","ek1v85vere","1280","720","0","1","0","5bdcd99964215c0001282b34","","null","","","learningBlock1","","","","<div style=""font-size:60px;""> </div>","null","LF","learning/Slide64.JPG","This is a tob:","","",""
"html-keyboard-response","198","219537","0.0-5.0-0.64","LF","ek1v85vere","1280","720","0","1","0","5bdcd99964215c0001282b34","","null","","","learningBlock1","","","","This is a wug:","null","","","","","",""
"image-keyboard-response","199","219883","0.0-5.0-1.64","LF","ek1v85vere","1280","720","0","1","0","5bdcd99964215c0001282b34","","null","","","","","","","learning/Slide65.JPG","null","","","","","",""
"html-keyboard-response","200","220888","0.0-5.0-2.64","LF","ek1v85vere","1280","720","0","1","0","5bdcd99964215c0001282b34","","null","","","learningBlock1","","","","<div style=""font-size:60px;""> </div>","null","LF","learning/Slide65.JPG","This is a wug:","","",""
"html-keyboard-response","201","221904","0.0-5.0-0.65","LF","ek1v85vere","1280","720","0","1","0","5bdcd99964215c0001282b34","","null","","","learningBlock1","","","","This is a dep:","null","","","","","",""
"image-keyboard-response","202","222248","0.0-5.0-1.65","LF","ek1v85vere","1280","720","0","1","0","5bdcd99964215c0001282b34","","null","","","","","","","learning/Slide66.JPG","null","","","","","",""
"html-keyboard-response","203","223265","0.0-5.0-2.65","LF","ek1v85vere","1280","720","0","1","0","5bdcd99964215c0001282b34","","null","","","learningBlock1","","","","<div style=""font-size:60px;""> </div>","null","LF","learning/Slide66.JPG","This is a dep:","","",""
"html-keyboard-response","204","224271","0.0-5.0-0.66","LF","ek1v85vere","1280","720","0","1","0","5bdcd99964215c0001282b34","","null","","","learningBlock1","","","","This is a tob:","null","","","","","",""
"image-keyboard-response","205","224613","0.0-5.0-1.66","LF","ek1v85vere","1280","720","0","1","0","5bdcd99964215c0001282b34","","null","","","","","","","learning/Slide67.JPG","null","","","","","",""
"html-keyboard-response","206","225616","0.0-5.0-2.66","LF","ek1v85vere","1280","720","0","1","0","5bdcd99964215c0001282b34","","null","","","learningBlock1","","","","<div style=""font-size:60px;""> </div>","null","LF","learning/Slide67.JPG","This is a tob:","","",""
"html-keyboard-response","207","226621","0.0-5.0-0.67","LF","ek1v85vere","1280","720","0","1","0","5bdcd99964215c0001282b34","","null","","","learningBlock1","","","","This is a wug:","null","","","","","",""
"image-keyboard-response","208","226964","0.0-5.0-1.67","LF","ek1v85vere","1280","720","0","1","0","5bdcd99964215c0001282b34","","null","","","","","","","learning/Slide68.JPG","null","","","","","",""
"html-keyboard-response","209","227970","0.0-5.0-2.67","LF","ek1v85vere","1280","720","0","1","0","5bdcd99964215c0001282b34","","null","","","learningBlock1","","","","<div style=""font-size:60px;""> </div>","null","LF","learning/Slide68.JPG","This is a wug:","","",""
"html-keyboard-response","210","228987","0.0-5.0-0.68","LF","ek1v85vere","1280","720","0","1","0","5bdcd99964215c0001282b34","","null","","","learningBlock1","","","","This is a tob:","null","","","","","",""
"image-keyboard-response","211","229331","0.0-5.0-1.68","LF","ek1v85vere","1280","720","0","1","0","5bdcd99964215c0001282b34","","null","","","","","","","learning/Slide69.JPG","null","","","","","",""
"html-keyboard-response","212","230351","0.0-5.0-2.68","LF","ek1v85vere","1280","720","0","1","0","5bdcd99964215c0001282b34","","null","","","learningBlock1","","","","<div style=""font-size:60px;""> </div>","null","LF","learning/Slide69.JPG","This is a tob:","","",""
"html-keyboard-response","213","231369","0.0-5.0-0.69","LF","ek1v85vere","1280","720","0","1","0","5bdcd99964215c0001282b34","","null","","","learningBlock1","","","","This is a dep:","null","","","","","",""
"image-keyboard-response","214","231715","0.0-5.0-1.69","LF","ek1v85vere","1280","720","0","1","0","5bdcd99964215c0001282b34","","null","","","","","","","learning/Slide70.JPG","null","","","","","",""
"html-keyboard-response","215","232720","0.0-5.0-2.69","LF","ek1v85vere","1280","720","0","1","0","5bdcd99964215c0001282b34","","null","","","learningBlock1","","","","<div style=""font-size:60px;""> </div>","null","LF","learning/Slide70.JPG","This is a dep:","","",""
"html-keyboard-response","216","233727","0.0-5.0-0.70","LF","ek1v85vere","1280","720","0","1","0","5bdcd99964215c0001282b34","","null","","","learningBlock1","","","","This is a wug:","null","","","","","",""
"image-keyboard-response","217","234076","0.0-5.0-1.70","LF","ek1v85vere","1280","720","0","1","0","5bdcd99964215c0001282b34","","null","","","","","","","learning/Slide71.JPG","null","","","","","",""
"html-keyboard-response","218","235093","0.0-5.0-2.70","LF","ek1v85vere","1280","720","0","1","0","5bdcd99964215c0001282b34","","null","","","learningBlock1","","","","<div style=""font-size:60px;""> </div>","null","LF","learning/Slide71.JPG","This is a wug:","","",""
"html-keyboard-response","219","236110","0.0-5.0-0.71","LF","ek1v85vere","1280","720","0","1","0","5bdcd99964215c0001282b34","","null","","","learningBlock1","","","","This is a bim:","null","","","","","",""
"image-keyboard-response","220","236456","0.0-5.0-1.71","LF","ek1v85vere","1280","720","0","1","0","5bdcd99964215c0001282b34","","null","","","","","","","learning/Slide72.JPG","null","","","","","",""
"html-keyboard-response","221","237475","0.0-5.0-2.71","LF","ek1v85vere","1280","720","0","1","0","5bdcd99964215c0001282b34","","null","","","learningBlock1","","","","<div style=""font-size:60px;""> </div>","null","LF","learning/Slide72.JPG","This is a bim:","","",""
"html-keyboard-response","222","238481","0.0-5.0-0.72","LF","ek1v85vere","1280","720","0","1","0","5bdcd99964215c0001282b34","","null","","","learningBlock1","","","","This is a wug:","null","","","","","",""
"image-keyboard-response","223","238830","0.0-5.0-1.72","LF","ek1v85vere","1280","720","0","1","0","5bdcd99964215c0001282b34","","null","","","","","","","learning/Slide73.JPG","null","","","","","",""
"html-keyboard-response","224","239836","0.0-5.0-2.72","LF","ek1v85vere","1280","720","0","1","0","5bdcd99964215c0001282b34","","null","","","learningBlock1","","","","<div style=""font-size:60px;""> </div>","null","LF","learning/Slide73.JPG","This is a wug:","","",""
"html-keyboard-response","225","240854","0.0-5.0-0.73","LF","ek1v85vere","1280","720","0","1","0","5bdcd99964215c0001282b34","","null","","","learningBlock1","","","","This is a dep:","null","","","","","",""
"image-keyboard-response","226","241181","0.0-5.0-1.73","LF","ek1v85vere","1280","720","0","1","0","5bdcd99964215c0001282b34","","null","","","","","","","learning/Slide74.JPG","null","","","","","",""
"html-keyboard-response","227","242185","0.0-5.0-2.73","LF","ek1v85vere","1280","720","0","1","0","5bdcd99964215c0001282b34","","null","","","learningBlock1","","","","<div style=""font-size:60px;""> </div>","null","LF","learning/Slide74.JPG","This is a dep:","","",""
"html-keyboard-response","228","243188","0.0-5.0-0.74","LF","ek1v85vere","1280","720","0","1","0","5bdcd99964215c0001282b34","","null","","","learningBlock1","","","","This is a tob:","null","","","","","",""
"image-keyboard-response","229","243536","0.0-5.0-1.74","LF","ek1v85vere","1280","720","0","1","0","5bdcd99964215c0001282b34","","null","","","","","","","learning/Slide75.JPG","null","","","","","",""
"html-keyboard-response","230","244553","0.0-5.0-2.74","LF","ek1v85vere","1280","720","0","1","0","5bdcd99964215c0001282b34","","null","","","learningBlock1","","","","<div style=""font-size:60px;""> </div>","null","LF","learning/Slide75.JPG","This is a tob:","","",""
"html-keyboard-response","231","245557","0.0-5.0-0.75","LF","ek1v85vere","1280","720","0","1","0","5bdcd99964215c0001282b34","","null","","","learningBlock1","","","","This is a bim:","null","","","","","",""
"image-keyboard-response","232","245905","0.0-5.0-1.75","LF","ek1v85vere","1280","720","0","1","0","5bdcd99964215c0001282b34","","null","","","","","","","learning/Slide76.JPG","null","","","","","",""
"html-keyboard-response","233","246911","0.0-5.0-2.75","LF","ek1v85vere","1280","720","0","1","0","5bdcd99964215c0001282b34","","null","","","learningBlock1","","","","<div style=""font-size:60px;""> </div>","null","LF","learning/Slide76.JPG","This is a bim:","","",""
"html-keyboard-response","234","247919","0.0-5.0-0.76","LF","ek1v85vere","1280","720","0","1","0","5bdcd99964215c0001282b34","","null","","","learningBlock1","","","","This is a tob:","null","","","","","",""
"image-keyboard-response","235","248251","0.0-5.0-1.76","LF","ek1v85vere","1280","720","0","1","0","5bdcd99964215c0001282b34","","null","","","","","","","learning/Slide77.JPG","null","","","","","",""
"html-keyboard-response","236","249271","0.0-5.0-2.76","LF","ek1v85vere","1280","720","0","1","0","5bdcd99964215c0001282b34","","null","","","learningBlock1","","","","<div style=""font-size:60px;""> </div>","null","LF","learning/Slide77.JPG","This is a tob:","","",""
"html-keyboard-response","237","250290","0.0-5.0-0.77","LF","ek1v85vere","1280","720","0","1","0","5bdcd99964215c0001282b34","","null","","","learningBlock1","","","","This is a wug:","null","","","","","",""
"image-keyboard-response","238","250635","0.0-5.0-1.77","LF","ek1v85vere","1280","720","0","1","0","5bdcd99964215c0001282b34","","null","","","","","","","learning/Slide78.JPG","null","","","","","",""
"html-keyboard-response","239","251652","0.0-5.0-2.77","LF","ek1v85vere","1280","720","0","1","0","5bdcd99964215c0001282b34","","null","","","learningBlock1","","","","<div style=""font-size:60px;""> </div>","null","LF","learning/Slide78.JPG","This is a wug:","","",""
"html-keyboard-response","240","252656","0.0-5.0-0.78","LF","ek1v85vere","1280","720","0","1","0","5bdcd99964215c0001282b34","","null","","","learningBlock1","","","","This is a bim:","null","","","","","",""
"image-keyboard-response","241","253001","0.0-5.0-1.78","LF","ek1v85vere","1280","720","0","1","0","5bdcd99964215c0001282b34","","null","","","","","","","learning/Slide79.JPG","null","","","","","",""
"html-keyboard-response","242","254005","0.0-5.0-2.78","LF","ek1v85vere","1280","720","0","1","0","5bdcd99964215c0001282b34","","null","","","learningBlock1","","","","<div style=""font-size:60px;""> </div>","null","LF","learning/Slide79.JPG","This is a bim:","","",""
"html-keyboard-response","243","255021","0.0-5.0-0.79","LF","ek1v85vere","1280","720","0","1","0","5bdcd99964215c0001282b34","","null","","","learningBlock1","","","","This is a tob:","null","","","","","",""
"image-keyboard-response","244","255366","0.0-5.0-1.79","LF","ek1v85vere","1280","720","0","1","0","5bdcd99964215c0001282b34","","null","","","","","","","learning/Slide80.JPG","null","","","","","",""
"html-keyboard-response","245","256381","0.0-5.0-2.79","LF","ek1v85vere","1280","720","0","1","0","5bdcd99964215c0001282b34","","null","","","learningBlock1","","","","<div style=""font-size:60px;""> </div>","null","LF","learning/Slide80.JPG","This is a tob:","","",""
"instructions","246","265562","0.0-6.0","LF","ek1v85vere","1280","720","0","1","0","5bdcd99964215c0001282b34","","NA","","[{""page_index"":0,""viewing_time"":9179.490000009537}]","instructions","","","","","","","","","","",""
"html-keyboard-response","247","266578","0.0-7.0-0.0","LF","ek1v85vere","1280","720","0","1","0","5bdcd99964215c0001282b34","","null","","","learningBlock2","","","","This is a wug:","null","","","","","",""
"image-keyboard-response","248","266926","0.0-7.0-1.0","LF","ek1v85vere","1280","720","0","1","0","5bdcd99964215c0001282b34","","null","","","","","","","learning/Slide81.JPG","null","","","","","",""
"html-keyboard-response","249","267945","0.0-7.0-2.0","LF","ek1v85vere","1280","720","0","1","0","5bdcd99964215c0001282b34","","null","","","learningBlock2","","","","<div style=""font-size:60px;""> </div>","null","LF","learning/Slide81.JPG","This is a wug:","","",""
"html-keyboard-response","250","268957","0.0-7.0-0.1","LF","ek1v85vere","1280","720","0","1","0","5bdcd99964215c0001282b34","","null","","","learningBlock2","","","","This is a bim:","null","","","","","",""
"image-keyboard-response","251","269289","0.0-7.0-1.1","LF","ek1v85vere","1280","720","0","1","0","5bdcd99964215c0001282b34","","null","","","","","","","learning/Slide82.JPG","null","","","","","",""
"html-keyboard-response","252","270303","0.0-7.0-2.1","LF","ek1v85vere","1280","720","0","1","0","5bdcd99964215c0001282b34","","null","","","learningBlock2","","","","<div style=""font-size:60px;""> </div>","null","LF","learning/Slide82.JPG","This is a bim:","","",""
"html-keyboard-response","253","271308","0.0-7.0-0.2","LF","ek1v85vere","1280","720","0","1","0","5bdcd99964215c0001282b34","","null","","","learningBlock2","","","","This is a wug:","null","","","","","",""
"image-keyboard-response","254","271654","0.0-7.0-1.2","LF","ek1v85vere","1280","720","0","1","0","5bdcd99964215c0001282b34","","null","","","","","","","learning/Slide83.JPG","null","","","","","",""
"html-keyboard-response","255","272659","0.0-7.0-2.2","LF","ek1v85vere","1280","720","0","1","0","5bdcd99964215c0001282b34","","null","","","learningBlock2","","","","<div style=""font-size:60px;""> </div>","null","LF","learning/Slide83.JPG","This is a wug:","","",""
"html-keyboard-response","256","273678","0.0-7.0-0.3","LF","ek1v85vere","1280","720","0","1","0","5bdcd99964215c0001282b34","","null","","","learningBlock2","","","","This is a dep:","null","","","","","",""
"image-keyboard-response","257","274022","0.0-7.0-1.3","LF","ek1v85vere","1280","720","0","1","0","5bdcd99964215c0001282b34","","null","","","","","","","learning/Slide84.JPG","null","","","","","",""
"html-keyboard-response","258","275037","0.0-7.0-2.3","LF","ek1v85vere","1280","720","0","1","0","5bdcd99964215c0001282b34","","null","","","learningBlock2","","","","<div style=""font-size:60px;""> </div>","null","LF","learning/Slide84.JPG","This is a dep:","","",""
"html-keyboard-response","259","276047","0.0-7.0-0.4","LF","ek1v85vere","1280","720","0","1","0","5bdcd99964215c0001282b34","","null","","","learningBlock2","","","","This is a bim:","null","","","","","",""
"image-keyboard-response","260","276390","0.0-7.0-1.4","LF","ek1v85vere","1280","720","0","1","0","5bdcd99964215c0001282b34","","null","","","","","","","learning/Slide85.JPG","null","","","","","",""
"html-keyboard-response","261","277402","0.0-7.0-2.4","LF","ek1v85vere","1280","720","0","1","0","5bdcd99964215c0001282b34","","null","","","learningBlock2","","","","<div style=""font-size:60px;""> </div>","null","LF","learning/Slide85.JPG","This is a bim:","","",""
"html-keyboard-response","262","278410","0.0-7.0-0.5","LF","ek1v85vere","1280","720","0","1","0","5bdcd99964215c0001282b34","","null","","","learningBlock2","","","","This is a tob:","null","","","","","",""
"image-keyboard-response","263","278754","0.0-7.0-1.5","LF","ek1v85vere","1280","720","0","1","0","5bdcd99964215c0001282b34","","null","","","","","","","learning/Slide86.JPG","null","","","","","",""
"html-keyboard-response","264","279761","0.0-7.0-2.5","LF","ek1v85vere","1280","720","0","1","0","5bdcd99964215c0001282b34","","null","","","learningBlock2","","","","<div style=""font-size:60px;""> </div>","null","LF","learning/Slide86.JPG","This is a tob:","","",""
"html-keyboard-response","265","280767","0.0-7.0-0.6","LF","ek1v85vere","1280","720","0","1","0","5bdcd99964215c0001282b34","","null","","","learningBlock2","","","","This is a wug:","null","","","","","",""
"image-keyboard-response","266","281099","0.0-7.0-1.6","LF","ek1v85vere","1280","720","0","1","0","5bdcd99964215c0001282b34","","null","","","","","","","learning/Slide87.JPG","null","","","","","",""
"html-keyboard-response","267","282113","0.0-7.0-2.6","LF","ek1v85vere","1280","720","0","1","0","5bdcd99964215c0001282b34","","null","","","learningBlock2","","","","<div style=""font-size:60px;""> </div>","null","LF","learning/Slide87.JPG","This is a wug:","","",""
"html-keyboard-response","268","283121","0.0-7.0-0.7","LF","ek1v85vere","1280","720","0","1","0","5bdcd99964215c0001282b34","","null","","","learningBlock2","","","","This is a tob:","null","","","","","",""
"image-keyboard-response","269","283463","0.0-7.0-1.7","LF","ek1v85vere","1280","720","0","1","0","5bdcd99964215c0001282b34","","null","","","","","","","learning/Slide88.JPG","null","","","","","",""
"html-keyboard-response","270","284482","0.0-7.0-2.7","LF","ek1v85vere","1280","720","0","1","0","5bdcd99964215c0001282b34","","null","","","learningBlock2","","","","<div style=""font-size:60px;""> </div>","null","LF","learning/Slide88.JPG","This is a tob:","","",""
"html-keyboard-response","271","285487","0.0-7.0-0.8","LF","ek1v85vere","1280","720","0","1","0","5bdcd99964215c0001282b34","","null","","","learningBlock2","","","","This is a bim:","null","","","","","",""
"image-keyboard-response","272","285832","0.0-7.0-1.8","LF","ek1v85vere","1280","720","0","1","0","5bdcd99964215c0001282b34","","null","","","","","","","learning/Slide89.JPG","null","","","","","",""
"html-keyboard-response","273","286838","0.0-7.0-2.8","LF","ek1v85vere","1280","720","0","1","0","5bdcd99964215c0001282b34","","null","","","learningBlock2","","","","<div style=""font-size:60px;""> </div>","null","LF","learning/Slide89.JPG","This is a bim:","","",""
"html-keyboard-response","274","287842","0.0-7.0-0.9","LF","ek1v85vere","1280","720","0","1","0","5bdcd99964215c0001282b34","","null","","","learningBlock2","","","","This is a dep:","null","","","","","",""
"image-keyboard-response","275","288184","0.0-7.0-1.9","LF","ek1v85vere","1280","720","0","1","0","5bdcd99964215c0001282b34","","null","","","","","","","learning/Slide90.JPG","null","","","","","",""
"html-keyboard-response","276","289190","0.0-7.0-2.9","LF","ek1v85vere","1280","720","0","1","0","5bdcd99964215c0001282b34","","null","","","learningBlock2","","","","<div style=""font-size:60px;""> </div>","null","LF","learning/Slide90.JPG","This is a dep:","","",""
"html-keyboard-response","277","290193","0.0-7.0-0.10","LF","ek1v85vere","1280","720","0","1","0","5bdcd99964215c0001282b34","","null","","","learningBlock2","","","","This is a wug:","null","","","","","",""
"image-keyboard-response","278","290538","0.0-7.0-1.10","LF","ek1v85vere","1280","720","0","1","0","5bdcd99964215c0001282b34","","null","","","","","","","learning/Slide91.JPG","null","","","","","",""
"html-keyboard-response","279","291544","0.0-7.0-2.10","LF","ek1v85vere","1280","720","0","1","0","5bdcd99964215c0001282b34","","null","","","learningBlock2","","","","<div style=""font-size:60px;""> </div>","null","LF","learning/Slide91.JPG","This is a wug:","","",""
"html-keyboard-response","280","292564","0.0-7.0-0.11","LF","ek1v85vere","1280","720","0","1","0","5bdcd99964215c0001282b34","","null","","","learningBlock2","","","","This is a tob:","null","","","","","",""
"image-keyboard-response","281","292906","0.0-7.0-1.11","LF","ek1v85vere","1280","720","0","1","0","5bdcd99964215c0001282b34","","null","","","","","","","learning/Slide92.JPG","null","","","","","",""
"html-keyboard-response","282","293908","0.0-7.0-2.11","LF","ek1v85vere","1280","720","0","1","0","5bdcd99964215c0001282b34","","null","","","learningBlock2","","","","<div style=""font-size:60px;""> </div>","null","LF","learning/Slide92.JPG","This is a tob:","","",""
"html-keyboard-response","283","294910","0.0-7.0-0.12","LF","ek1v85vere","1280","720","0","1","0","5bdcd99964215c0001282b34","","null","","","learningBlock2","","","","This is a bim:","null","","","","","",""
"image-keyboard-response","284","295256","0.0-7.0-1.12","LF","ek1v85vere","1280","720","0","1","0","5bdcd99964215c0001282b34","","null","","","","","","","learning/Slide93.JPG","null","","","","","",""
"html-keyboard-response","285","296261","0.0-7.0-2.12","LF","ek1v85vere","1280","720","0","1","0","5bdcd99964215c0001282b34","","null","","","learningBlock2","","","","<div style=""font-size:60px;""> </div>","null","LF","learning/Slide93.JPG","This is a bim:","","",""
"html-keyboard-response","286","297280","0.0-7.0-0.13","LF","ek1v85vere","1280","720","0","1","0","5bdcd99964215c0001282b34","","null","","","learningBlock2","","","","This is a tob:","null","","","","","",""
"image-keyboard-response","287","297623","0.0-7.0-1.13","LF","ek1v85vere","1280","720","0","1","0","5bdcd99964215c0001282b34","","null","","","","","","","learning/Slide94.JPG","null","","","","","",""
"html-keyboard-response","288","298627","0.0-7.0-2.13","LF","ek1v85vere","1280","720","0","1","0","5bdcd99964215c0001282b34","","null","","","learningBlock2","","","","<div style=""font-size:60px;""> </div>","null","LF","learning/Slide94.JPG","This is a tob:","","",""
"html-keyboard-response","289","299634","0.0-7.0-0.14","LF","ek1v85vere","1280","720","0","1","0","5bdcd99964215c0001282b34","","null","","","learningBlock2","","","","This is a wug:","null","","","","","",""
"image-keyboard-response","290","299974","0.0-7.0-1.14","LF","ek1v85vere","1280","720","0","1","0","5bdcd99964215c0001282b34","","null","","","","","","","learning/Slide95.JPG","null","","","","","",""
"html-keyboard-response","291","300993","0.0-7.0-2.14","LF","ek1v85vere","1280","720","0","1","0","5bdcd99964215c0001282b34","","null","","","learningBlock2","","","","<div style=""font-size:60px;""> </div>","null","LF","learning/Slide95.JPG","This is a wug:","","",""
"html-keyboard-response","292","301996","0.0-7.0-0.15","LF","ek1v85vere","1280","720","0","1","0","5bdcd99964215c0001282b34","","null","","","learningBlock2","","","","This is a tob:","null","","","","","",""
"image-keyboard-response","293","302343","0.0-7.0-1.15","LF","ek1v85vere","1280","720","0","1","0","5bdcd99964215c0001282b34","","null","","","","","","","learning/Slide96.JPG","null","","","","","",""
"html-keyboard-response","294","303363","0.0-7.0-2.15","LF","ek1v85vere","1280","720","0","1","0","5bdcd99964215c0001282b34","","null","","","learningBlock2","","","","<div style=""font-size:60px;""> </div>","null","LF","learning/Slide96.JPG","This is a tob:","","",""
"html-keyboard-response","295","304371","0.0-7.0-0.16","LF","ek1v85vere","1280","720","0","1","0","5bdcd99964215c0001282b34","","null","","","learningBlock2","","","","This is a dep:","null","","","","","",""
"image-keyboard-response","296","304714","0.0-7.0-1.16","LF","ek1v85vere","1280","720","0","1","0","5bdcd99964215c0001282b34","","null","","","","","","","learning/Slide97.JPG","null","","","","","",""
"html-keyboard-response","297","305728","0.0-7.0-2.16","LF","ek1v85vere","1280","720","0","1","0","5bdcd99964215c0001282b34","","null","","","learningBlock2","","","","<div style=""font-size:60px;""> </div>","null","LF","learning/Slide97.JPG","This is a dep:","","",""
"html-keyboard-response","298","306737","0.0-7.0-0.17","LF","ek1v85vere","1280","720","0","1","0","5bdcd99964215c0001282b34","","null","","","learningBlock2","","","","This is a bim:","null","","","","","",""
"image-keyboard-response","299","307070","0.0-7.0-1.17","LF","ek1v85vere","1280","720","0","1","0","5bdcd99964215c0001282b34","","null","","","","","","","learning/Slide98.JPG","null","","","","","",""
"html-keyboard-response","300","308088","0.0-7.0-2.17","LF","ek1v85vere","1280","720","0","1","0","5bdcd99964215c0001282b34","","null","","","learningBlock2","","","","<div style=""font-size:60px;""> </div>","null","LF","learning/Slide98.JPG","This is a bim:","","",""
"html-keyboard-response","301","309106","0.0-7.0-0.18","LF","ek1v85vere","1280","720","0","1","0","5bdcd99964215c0001282b34","","null","","","learningBlock2","","","","This is a dep:","null","","","","","",""
"image-keyboard-response","302","309448","0.0-7.0-1.18","LF","ek1v85vere","1280","720","0","1","0","5bdcd99964215c0001282b34","","null","","","","","","","learning/Slide99.JPG","null","","","","","",""
"html-keyboard-response","303","310454","0.0-7.0-2.18","LF","ek1v85vere","1280","720","0","1","0","5bdcd99964215c0001282b34","","null","","","learningBlock2","","","","<div style=""font-size:60px;""> </div>","null","LF","learning/Slide99.JPG","This is a dep:","","",""
"html-keyboard-response","304","311469","0.0-7.0-0.19","LF","ek1v85vere","1280","720","0","1","0","5bdcd99964215c0001282b34","","null","","","learningBlock2","","","","This is a bim:","null","","","","","",""
"image-keyboard-response","305","311800","0.0-7.0-1.19","LF","ek1v85vere","1280","720","0","1","0","5bdcd99964215c0001282b34","","null","","","","","","","learning/Slide100.JPG","null","","","","","",""
"html-keyboard-response","306","312815","0.0-7.0-2.19","LF","ek1v85vere","1280","720","0","1","0","5bdcd99964215c0001282b34","","null","","","learningBlock2","","","","<div style=""font-size:60px;""> </div>","null","LF","learning/Slide100.JPG","This is a bim:","","",""
"html-keyboard-response","307","313819","0.0-7.0-0.20","LF","ek1v85vere","1280","720","0","1","0","5bdcd99964215c0001282b34","","null","","","learningBlock2","","","","This is a tob:","null","","","","","",""
"image-keyboard-response","308","314163","0.0-7.0-1.20","LF","ek1v85vere","1280","720","0","1","0","5bdcd99964215c0001282b34","","null","","","","","","","learning/Slide101.JPG","null","","","","","",""
"html-keyboard-response","309","315178","0.0-7.0-2.20","LF","ek1v85vere","1280","720","0","1","0","5bdcd99964215c0001282b34","","null","","","learningBlock2","","","","<div style=""font-size:60px;""> </div>","null","LF","learning/Slide101.JPG","This is a tob:","","",""
"html-keyboard-response","310","316184","0.0-7.0-0.21","LF","ek1v85vere","1280","720","0","1","0","5bdcd99964215c0001282b34","","null","","","learningBlock2","","","","This is a bim:","null","","","","","",""
"image-keyboard-response","311","316527","0.0-7.0-1.21","LF","ek1v85vere","1280","720","0","1","0","5bdcd99964215c0001282b34","","null","","","","","","","learning/Slide102.JPG","null","","","","","",""
"html-keyboard-response","312","317533","0.0-7.0-2.21","LF","ek1v85vere","1280","720","0","1","0","5bdcd99964215c0001282b34","","null","","","learningBlock2","","","","<div style=""font-size:60px;""> </div>","null","LF","learning/Slide102.JPG","This is a bim:","","",""
"html-keyboard-response","313","318537","0.0-7.0-0.22","LF","ek1v85vere","1280","720","0","1","0","5bdcd99964215c0001282b34","","null","","","learningBlock2","","","","This is a dep:","null","","","","","",""
"image-keyboard-response","314","318870","0.0-7.0-1.22","LF","ek1v85vere","1280","720","0","1","0","5bdcd99964215c0001282b34","","null","","","","","","","learning/Slide103.JPG","null","","","","","",""
"html-keyboard-response","315","319887","0.0-7.0-2.22","LF","ek1v85vere","1280","720","0","1","0","5bdcd99964215c0001282b34","","null","","","learningBlock2","","","","<div style=""font-size:60px;""> </div>","null","LF","learning/Slide103.JPG","This is a dep:","","",""
"html-keyboard-response","316","320905","0.0-7.0-0.23","LF","ek1v85vere","1280","720","0","1","0","5bdcd99964215c0001282b34","","null","","","learningBlock2","","","","This is a tob:","null","","","","","",""
"image-keyboard-response","317","321236","0.0-7.0-1.23","LF","ek1v85vere","1280","720","0","1","0","5bdcd99964215c0001282b34","","null","","","","","","","learning/Slide104.JPG","null","","","","","",""
"html-keyboard-response","318","322246","0.0-7.0-2.23","LF","ek1v85vere","1280","720","0","1","0","5bdcd99964215c0001282b34","","null","","","learningBlock2","","","","<div style=""font-size:60px;""> </div>","null","LF","learning/Slide104.JPG","This is a tob:","","",""
"html-keyboard-response","319","323263","0.0-7.0-0.24","LF","ek1v85vere","1280","720","0","1","0","5bdcd99964215c0001282b34","","null","","","learningBlock2","","","","This is a dep:","null","","","","","",""
"image-keyboard-response","320","323609","0.0-7.0-1.24","LF","ek1v85vere","1280","720","0","1","0","5bdcd99964215c0001282b34","","null","","","","","","","learning/Slide105.JPG","null","","","","","",""
"html-keyboard-response","321","324625","0.0-7.0-2.24","LF","ek1v85vere","1280","720","0","1","0","5bdcd99964215c0001282b34","","null","","","learningBlock2","","","","<div style=""font-size:60px;""> </div>","null","LF","learning/Slide105.JPG","This is a dep:","","",""
"html-keyboard-response","322","325634","0.0-7.0-0.25","LF","ek1v85vere","1280","720","0","1","0","5bdcd99964215c0001282b34","","null","","","learningBlock2","","","","This is a wug:","null","","","","","",""
"image-keyboard-response","323","325977","0.0-7.0-1.25","LF","ek1v85vere","1280","720","0","1","0","5bdcd99964215c0001282b34","","null","","","","","","","learning/Slide106.JPG","null","","","","","",""
"html-keyboard-response","324","326993","0.0-7.0-2.25","LF","ek1v85vere","1280","720","0","1","0","5bdcd99964215c0001282b34","","null","","","learningBlock2","","","","<div style=""font-size:60px;""> </div>","null","LF","learning/Slide106.JPG","This is a wug:","","",""
"html-keyboard-response","325","328010","0.0-7.0-0.26","LF","ek1v85vere","1280","720","0","1","0","5bdcd99964215c0001282b34","","null","","","learningBlock2","","","","This is a bim:","null","","","","","",""
"image-keyboard-response","326","328353","0.0-7.0-1.26","LF","ek1v85vere","1280","720","0","1","0","5bdcd99964215c0001282b34","","null","","","","","","","learning/Slide107.JPG","null","","","","","",""
"html-keyboard-response","327","329369","0.0-7.0-2.26","LF","ek1v85vere","1280","720","0","1","0","5bdcd99964215c0001282b34","","null","","","learningBlock2","","","","<div style=""font-size:60px;""> </div>","null","LF","learning/Slide107.JPG","This is a bim:","","",""
"html-keyboard-response","328","330388","0.0-7.0-0.27","LF","ek1v85vere","1280","720","0","1","0","5bdcd99964215c0001282b34","","null","","","learningBlock2","","","","This is a dep:","null","","","","","",""
"image-keyboard-response","329","330735","0.0-7.0-1.27","LF","ek1v85vere","1280","720","0","1","0","5bdcd99964215c0001282b34","","null","","","","","","","learning/Slide108.JPG","null","","","","","",""
"html-keyboard-response","330","331753","0.0-7.0-2.27","LF","ek1v85vere","1280","720","0","1","0","5bdcd99964215c0001282b34","","null","","","learningBlock2","","","","<div style=""font-size:60px;""> </div>","null","LF","learning/Slide108.JPG","This is a dep:","","",""
"html-keyboard-response","331","332770","0.0-7.0-0.28","LF","ek1v85vere","1280","720","0","1","0","5bdcd99964215c0001282b34","","null","","","learningBlock2","","","","This is a wug:","null","","","","","",""
"image-keyboard-response","332","333116","0.0-7.0-1.28","LF","ek1v85vere","1280","720","0","1","0","5bdcd99964215c0001282b34","","null","","","","","","","learning/Slide109.JPG","null","","","","","",""
"html-keyboard-response","333","334118","0.0-7.0-2.28","LF","ek1v85vere","1280","720","0","1","0","5bdcd99964215c0001282b34","","null","","","learningBlock2","","","","<div style=""font-size:60px;""> </div>","null","LF","learning/Slide109.JPG","This is a wug:","","",""
"html-keyboard-response","334","335125","0.0-7.0-0.29","LF","ek1v85vere","1280","720","0","1","0","5bdcd99964215c0001282b34","","null","","","learningBlock2","","","","This is a bim:","null","","","","","",""
"image-keyboard-response","335","335469","0.0-7.0-1.29","LF","ek1v85vere","1280","720","0","1","0","5bdcd99964215c0001282b34","","null","","","","","","","learning/Slide110.JPG","null","","","","","",""
"html-keyboard-response","336","336474","0.0-7.0-2.29","LF","ek1v85vere","1280","720","0","1","0","5bdcd99964215c0001282b34","","null","","","learningBlock2","","","","<div style=""font-size:60px;""> </div>","null","LF","learning/Slide110.JPG","This is a bim:","","",""
"html-keyboard-response","337","337490","0.0-7.0-0.30","LF","ek1v85vere","1280","720","0","1","0","5bdcd99964215c0001282b34","","null","","","learningBlock2","","","","This is a tob:","null","","","","","",""
"image-keyboard-response","338","337835","0.0-7.0-1.30","LF","ek1v85vere","1280","720","0","1","0","5bdcd99964215c0001282b34","","null","","","","","","","learning/Slide111.JPG","null","","","","","",""
"html-keyboard-response","339","338853","0.0-7.0-2.30","LF","ek1v85vere","1280","720","0","1","0","5bdcd99964215c0001282b34","","null","","","learningBlock2","","","","<div style=""font-size:60px;""> </div>","null","LF","learning/Slide111.JPG","This is a tob:","","",""
"html-keyboard-response","340","339869","0.0-7.0-0.31","LF","ek1v85vere","1280","720","0","1","0","5bdcd99964215c0001282b34","","null","","","learningBlock2","","","","This is a wug:","null","","","","","",""
"image-keyboard-response","341","340212","0.0-7.0-1.31","LF","ek1v85vere","1280","720","0","1","0","5bdcd99964215c0001282b34","","null","","","","","","","learning/Slide112.JPG","null","","","","","",""
"html-keyboard-response","342","341217","0.0-7.0-2.31","LF","ek1v85vere","1280","720","0","1","0","5bdcd99964215c0001282b34","","null","","","learningBlock2","","","","<div style=""font-size:60px;""> </div>","null","LF","learning/Slide112.JPG","This is a wug:","","",""
"html-keyboard-response","343","342224","0.0-7.0-0.32","LF","ek1v85vere","1280","720","0","1","0","5bdcd99964215c0001282b34","","null","","","learningBlock2","","","","This is a tob:","null","","","","","",""
"image-keyboard-response","344","342571","0.0-7.0-1.32","LF","ek1v85vere","1280","720","0","1","0","5bdcd99964215c0001282b34","","null","","","","","","","learning/Slide113.JPG","null","","","","","",""
"html-keyboard-response","345","343580","0.0-7.0-2.32","LF","ek1v85vere","1280","720","0","1","0","5bdcd99964215c0001282b34","","null","","","learningBlock2","","","","<div style=""font-size:60px;""> </div>","null","LF","learning/Slide113.JPG","This is a tob:","","",""
"html-keyboard-response","346","344582","0.0-7.0-0.33","LF","ek1v85vere","1280","720","0","1","0","5bdcd99964215c0001282b34","","null","","","learningBlock2","","","","This is a wug:","null","","","","","",""
"image-keyboard-response","347","344928","0.0-7.0-1.33","LF","ek1v85vere","1280","720","0","1","0","5bdcd99964215c0001282b34","","null","","","","","","","learning/Slide114.JPG","null","","","","","",""
"html-keyboard-response","348","345944","0.0-7.0-2.33","LF","ek1v85vere","1280","720","0","1","0","5bdcd99964215c0001282b34","","null","","","learningBlock2","","","","<div style=""font-size:60px;""> </div>","null","LF","learning/Slide114.JPG","This is a wug:","","",""
"html-keyboard-response","349","346954","0.0-7.0-0.34","LF","ek1v85vere","1280","720","0","1","0","5bdcd99964215c0001282b34","","null","","","learningBlock2","","","","This is a bim:","null","","","","","",""
"image-keyboard-response","350","347303","0.0-7.0-1.34","LF","ek1v85vere","1280","720","0","1","0","5bdcd99964215c0001282b34","","null","","","","","","","learning/Slide115.JPG","null","","","","","",""
"html-keyboard-response","351","348321","0.0-7.0-2.34","LF","ek1v85vere","1280","720","0","1","0","5bdcd99964215c0001282b34","","null","","","learningBlock2","","","","<div style=""font-size:60px;""> </div>","null","LF","learning/Slide115.JPG","This is a bim:","","",""
"html-keyboard-response","352","349328","0.0-7.0-0.35","LF","ek1v85vere","1280","720","0","1","0","5bdcd99964215c0001282b34","","null","","","learningBlock2","","","","This is a dep:","null","","","","","",""
"image-keyboard-response","353","349671","0.0-7.0-1.35","LF","ek1v85vere","1280","720","0","1","0","5bdcd99964215c0001282b34","","null","","","","","","","learning/Slide116.JPG","null","","","","","",""
"html-keyboard-response","354","350690","0.0-7.0-2.35","LF","ek1v85vere","1280","720","0","1","0","5bdcd99964215c0001282b34","","null","","","learningBlock2","","","","<div style=""font-size:60px;""> </div>","null","LF","learning/Slide116.JPG","This is a dep:","","",""
"html-keyboard-response","355","351705","0.0-7.0-0.36","LF","ek1v85vere","1280","720","0","1","0","5bdcd99964215c0001282b34","","null","","","learningBlock2","","","","This is a tob:","null","","","","","",""
"image-keyboard-response","356","352050","0.0-7.0-1.36","LF","ek1v85vere","1280","720","0","1","0","5bdcd99964215c0001282b34","","null","","","","","","","learning/Slide117.JPG","null","","","","","",""
"html-keyboard-response","357","353056","0.0-7.0-2.36","LF","ek1v85vere","1280","720","0","1","0","5bdcd99964215c0001282b34","","null","","","learningBlock2","","","","<div style=""font-size:60px;""> </div>","null","LF","learning/Slide117.JPG","This is a tob:","","",""
"html-keyboard-response","358","354064","0.0-7.0-0.37","LF","ek1v85vere","1280","720","0","1","0","5bdcd99964215c0001282b34","","null","","","learningBlock2","","","","This is a dep:","null","","","","","",""
"image-keyboard-response","359","354407","0.0-7.0-1.37","LF","ek1v85vere","1280","720","0","1","0","5bdcd99964215c0001282b34","","null","","","","","","","learning/Slide118.JPG","null","","","","","",""
"html-keyboard-response","360","355426","0.0-7.0-2.37","LF","ek1v85vere","1280","720","0","1","0","5bdcd99964215c0001282b34","","null","","","learningBlock2","","","","<div style=""font-size:60px;""> </div>","null","LF","learning/Slide118.JPG","This is a dep:","","",""
"html-keyboard-response","361","356432","0.0-7.0-0.38","LF","ek1v85vere","1280","720","0","1","0","5bdcd99964215c0001282b34","","null","","","learningBlock2","","","","This is a wug:","null","","","","","",""
"image-keyboard-response","362","356773","0.0-7.0-1.38","LF","ek1v85vere","1280","720","0","1","0","5bdcd99964215c0001282b34","","null","","","","","","","learning/Slide119.JPG","null","","","","","",""
"html-keyboard-response","363","357781","0.0-7.0-2.38","LF","ek1v85vere","1280","720","0","1","0","5bdcd99964215c0001282b34","","null","","","learningBlock2","","","","<div style=""font-size:60px;""> </div>","null","LF","learning/Slide119.JPG","This is a wug:","","",""
"html-keyboard-response","364","358788","0.0-7.0-0.39","LF","ek1v85vere","1280","720","0","1","0","5bdcd99964215c0001282b34","","null","","","learningBlock2","","","","This is a dep:","null","","","","","",""
"image-keyboard-response","365","359134","0.0-7.0-1.39","LF","ek1v85vere","1280","720","0","1","0","5bdcd99964215c0001282b34","","null","","","","","","","learning/Slide120.JPG","null","","","","","",""
"html-keyboard-response","366","360143","0.0-7.0-2.39","LF","ek1v85vere","1280","720","0","1","0","5bdcd99964215c0001282b34","","null","","","learningBlock2","","","","<div style=""font-size:60px;""> </div>","null","LF","learning/Slide120.JPG","This is a dep:","","",""
"html-keyboard-response","367","361161","0.0-7.0-0.40","LF","ek1v85vere","1280","720","0","1","0","5bdcd99964215c0001282b34","","null","","","learningBlock2","","","","This is a bim:","null","","","","","",""
"image-keyboard-response","368","361511","0.0-7.0-1.40","LF","ek1v85vere","1280","720","0","1","0","5bdcd99964215c0001282b34","","null","","","","","","","learning/Slide121.JPG","null","","","","","",""
"html-keyboard-response","369","362531","0.0-7.0-2.40","LF","ek1v85vere","1280","720","0","1","0","5bdcd99964215c0001282b34","","null","","","learningBlock2","","","","<div style=""font-size:60px;""> </div>","null","LF","learning/Slide121.JPG","This is a bim:","","",""
"html-keyboard-response","370","363545","0.0-7.0-0.41","LF","ek1v85vere","1280","720","0","1","0","5bdcd99964215c0001282b34","","null","","","learningBlock2","","","","This is a wug:","null","","","","","",""
"image-keyboard-response","371","363889","0.0-7.0-1.41","LF","ek1v85vere","1280","720","0","1","0","5bdcd99964215c0001282b34","","null","","","","","","","learning/Slide122.JPG","null","","","","","",""
"html-keyboard-response","372","364903","0.0-7.0-2.41","LF","ek1v85vere","1280","720","0","1","0","5bdcd99964215c0001282b34","","null","","","learningBlock2","","","","<div style=""font-size:60px;""> </div>","null","LF","learning/Slide122.JPG","This is a wug:","","",""
"html-keyboard-response","373","365908","0.0-7.0-0.42","LF","ek1v85vere","1280","720","0","1","0","5bdcd99964215c0001282b34","","null","","","learningBlock2","","","","This is a bim:","null","","","","","",""
"image-keyboard-response","374","366255","0.0-7.0-1.42","LF","ek1v85vere","1280","720","0","1","0","5bdcd99964215c0001282b34","","null","","","","","","","learning/Slide123.JPG","null","","","","","",""
"html-keyboard-response","375","367274","0.0-7.0-2.42","LF","ek1v85vere","1280","720","0","1","0","5bdcd99964215c0001282b34","","null","","","learningBlock2","","","","<div style=""font-size:60px;""> </div>","null","LF","learning/Slide123.JPG","This is a bim:","","",""
"html-keyboard-response","376","368290","0.0-7.0-0.43","LF","ek1v85vere","1280","720","0","1","0","5bdcd99964215c0001282b34","","null","","","learningBlock2","","","","This is a tob:","null","","","","","",""
"image-keyboard-response","377","368635","0.0-7.0-1.43","LF","ek1v85vere","1280","720","0","1","0","5bdcd99964215c0001282b34","","null","","","","","","","learning/Slide124.JPG","null","","","","","",""
"html-keyboard-response","378","369639","0.0-7.0-2.43","LF","ek1v85vere","1280","720","0","1","0","5bdcd99964215c0001282b34","","null","","","learningBlock2","","","","<div style=""font-size:60px;""> </div>","null","LF","learning/Slide124.JPG","This is a tob:","","",""
"html-keyboard-response","379","370648","0.0-7.0-0.44","LF","ek1v85vere","1280","720","0","1","0","5bdcd99964215c0001282b34","","null","","","learningBlock2","","","","This is a bim:","null","","","","","",""
"image-keyboard-response","380","370990","0.0-7.0-1.44","LF","ek1v85vere","1280","720","0","1","0","5bdcd99964215c0001282b34","","null","","","","","","","learning/Slide125.JPG","null","","","","","",""
"html-keyboard-response","381","372009","0.0-7.0-2.44","LF","ek1v85vere","1280","720","0","1","0","5bdcd99964215c0001282b34","","null","","","learningBlock2","","","","<div style=""font-size:60px;""> </div>","null","LF","learning/Slide125.JPG","This is a bim:","","",""
"html-keyboard-response","382","373013","0.0-7.0-0.45","LF","ek1v85vere","1280","720","0","1","0","5bdcd99964215c0001282b34","","null","","","learningBlock2","","","","This is a tob:","null","","","","","",""
"image-keyboard-response","383","373358","0.0-7.0-1.45","LF","ek1v85vere","1280","720","0","1","0","5bdcd99964215c0001282b34","","null","","","","","","","learning/Slide126.JPG","null","","","","","",""
"html-keyboard-response","384","374367","0.0-7.0-2.45","LF","ek1v85vere","1280","720","0","1","0","5bdcd99964215c0001282b34","","null","","","learningBlock2","","","","<div style=""font-size:60px;""> </div>","null","LF","learning/Slide126.JPG","This is a tob:","","",""
"html-keyboard-response","385","375373","0.0-7.0-0.46","LF","ek1v85vere","1280","720","0","1","0","5bdcd99964215c0001282b34","","null","","","learningBlock2","","","","This is a dep:","null","","","","","",""
"image-keyboard-response","386","375716","0.0-7.0-1.46","LF","ek1v85vere","1280","720","0","1","0","5bdcd99964215c0001282b34","","null","","","","","","","learning/Slide127.JPG","null","","","","","",""
"html-keyboard-response","387","376725","0.0-7.0-2.46","LF","ek1v85vere","1280","720","0","1","0","5bdcd99964215c0001282b34","","null","","","learningBlock2","","","","<div style=""font-size:60px;""> </div>","null","LF","learning/Slide127.JPG","This is a dep:","","",""
"html-keyboard-response","388","377732","0.0-7.0-0.47","LF","ek1v85vere","1280","720","0","1","0","5bdcd99964215c0001282b34","","null","","","learningBlock2","","","","This is a wug:","null","","","","","",""
"image-keyboard-response","389","378077","0.0-7.0-1.47","LF","ek1v85vere","1280","720","0","1","0","5bdcd99964215c0001282b34","","null","","","","","","","learning/Slide128.JPG","null","","","","","",""
"html-keyboard-response","390","379082","0.0-7.0-2.47","LF","ek1v85vere","1280","720","0","1","0","5bdcd99964215c0001282b34","","null","","","learningBlock2","","","","<div style=""font-size:60px;""> </div>","null","LF","learning/Slide128.JPG","This is a wug:","","",""
"html-keyboard-response","391","380090","0.0-7.0-0.48","LF","ek1v85vere","1280","720","0","1","0","5bdcd99964215c0001282b34","","null","","","learningBlock2","","","","This is a tob:","null","","","","","",""
"image-keyboard-response","392","380434","0.0-7.0-1.48","LF","ek1v85vere","1280","720","0","1","0","5bdcd99964215c0001282b34","","null","","","","","","","learning/Slide129.JPG","null","","","","","",""
"html-keyboard-response","393","381439","0.0-7.0-2.48","LF","ek1v85vere","1280","720","0","1","0","5bdcd99964215c0001282b34","","null","","","learningBlock2","","","","<div style=""font-size:60px;""> </div>","null","LF","learning/Slide129.JPG","This is a tob:","","",""
"html-keyboard-response","394","382443","0.0-7.0-0.49","LF","ek1v85vere","1280","720","0","1","0","5bdcd99964215c0001282b34","","null","","","learningBlock2","","","","This is a wug:","null","","","","","",""
"image-keyboard-response","395","382787","0.0-7.0-1.49","LF","ek1v85vere","1280","720","0","1","0","5bdcd99964215c0001282b34","","null","","","","","","","learning/Slide130.JPG","null","","","","","",""
"html-keyboard-response","396","383791","0.0-7.0-2.49","LF","ek1v85vere","1280","720","0","1","0","5bdcd99964215c0001282b34","","null","","","learningBlock2","","","","<div style=""font-size:60px;""> </div>","null","LF","learning/Slide130.JPG","This is a wug:","","",""
"html-keyboard-response","397","384800","0.0-7.0-0.50","LF","ek1v85vere","1280","720","0","1","0","5bdcd99964215c0001282b34","","null","","","learningBlock2","","","","This is a bim:","null","","","","","",""
"image-keyboard-response","398","385146","0.0-7.0-1.50","LF","ek1v85vere","1280","720","0","1","0","5bdcd99964215c0001282b34","","null","","","","","","","learning/Slide131.JPG","null","","","","","",""
"html-keyboard-response","399","386151","0.0-7.0-2.50","LF","ek1v85vere","1280","720","0","1","0","5bdcd99964215c0001282b34","","null","","","learningBlock2","","","","<div style=""font-size:60px;""> </div>","null","LF","learning/Slide131.JPG","This is a bim:","","",""
"html-keyboard-response","400","387167","0.0-7.0-0.51","LF","ek1v85vere","1280","720","0","1","0","5bdcd99964215c0001282b34","","null","","","learningBlock2","","","","This is a dep:","null","","","","","",""
"image-keyboard-response","401","387513","0.0-7.0-1.51","LF","ek1v85vere","1280","720","0","1","0","5bdcd99964215c0001282b34","","null","","","","","","","learning/Slide132.JPG","null","","","","","",""
"html-keyboard-response","402","388531","0.0-7.0-2.51","LF","ek1v85vere","1280","720","0","1","0","5bdcd99964215c0001282b34","","null","","","learningBlock2","","","","<div style=""font-size:60px;""> </div>","null","LF","learning/Slide132.JPG","This is a dep:","","",""
"html-keyboard-response","403","389547","0.0-7.0-0.52","LF","ek1v85vere","1280","720","0","1","0","5bdcd99964215c0001282b34","","null","","","learningBlock2","","","","This is a tob:","null","","","","","",""
"image-keyboard-response","404","389894","0.0-7.0-1.52","LF","ek1v85vere","1280","720","0","1","0","5bdcd99964215c0001282b34","","null","","","","","","","learning/Slide133.JPG","null","","","","","",""
"html-keyboard-response","405","390912","0.0-7.0-2.52","LF","ek1v85vere","1280","720","0","1","0","5bdcd99964215c0001282b34","","null","","","learningBlock2","","","","<div style=""font-size:60px;""> </div>","null","LF","learning/Slide133.JPG","This is a tob:","","",""
"html-keyboard-response","406","391927","0.0-7.0-0.53","LF","ek1v85vere","1280","720","0","1","0","5bdcd99964215c0001282b34","","null","","","learningBlock2","","","","This is a dep:","null","","","","","",""
"image-keyboard-response","407","392273","0.0-7.0-1.53","LF","ek1v85vere","1280","720","0","1","0","5bdcd99964215c0001282b34","","null","","","","","","","learning/Slide134.JPG","null","","","","","",""
"html-keyboard-response","408","393287","0.0-7.0-2.53","LF","ek1v85vere","1280","720","0","1","0","5bdcd99964215c0001282b34","","null","","","learningBlock2","","","","<div style=""font-size:60px;""> </div>","null","LF","learning/Slide134.JPG","This is a dep:","","",""
"html-keyboard-response","409","394292","0.0-7.0-0.54","LF","ek1v85vere","1280","720","0","1","0","5bdcd99964215c0001282b34","","null","","","learningBlock2","","","","This is a tob:","null","","","","","",""
"image-keyboard-response","410","394636","0.0-7.0-1.54","LF","ek1v85vere","1280","720","0","1","0","5bdcd99964215c0001282b34","","null","","","","","","","learning/Slide135.JPG","null","","","","","",""
"html-keyboard-response","411","395644","0.0-7.0-2.54","LF","ek1v85vere","1280","720","0","1","0","5bdcd99964215c0001282b34","","null","","","learningBlock2","","","","<div style=""font-size:60px;""> </div>","null","LF","learning/Slide135.JPG","This is a tob:","","",""
"html-keyboard-response","412","396649","0.0-7.0-0.55","LF","ek1v85vere","1280","720","0","1","0","5bdcd99964215c0001282b34","","null","","","learningBlock2","","","","This is a wug:","null","","","","","",""
"image-keyboard-response","413","396992","0.0-7.0-1.55","LF","ek1v85vere","1280","720","0","1","0","5bdcd99964215c0001282b34","","null","","","","","","","learning/Slide136.JPG","null","","","","","",""
"html-keyboard-response","414","397997","0.0-7.0-2.55","LF","ek1v85vere","1280","720","0","1","0","5bdcd99964215c0001282b34","","null","","","learningBlock2","","","","<div style=""font-size:60px;""> </div>","null","LF","learning/Slide136.JPG","This is a wug:","","",""
"html-keyboard-response","415","399005","0.0-7.0-0.56","LF","ek1v85vere","1280","720","0","1","0","5bdcd99964215c0001282b34","","null","","","learningBlock2","","","","This is a tob:","null","","","","","",""
"image-keyboard-response","416","399349","0.0-7.0-1.56","LF","ek1v85vere","1280","720","0","1","0","5bdcd99964215c0001282b34","","null","","","","","","","learning/Slide137.JPG","null","","","","","",""
"html-keyboard-response","417","400367","0.0-7.0-2.56","LF","ek1v85vere","1280","720","0","1","0","5bdcd99964215c0001282b34","","null","","","learningBlock2","","","","<div style=""font-size:60px;""> </div>","null","LF","learning/Slide137.JPG","This is a tob:","","",""
"html-keyboard-response","418","401381","0.0-7.0-0.57","LF","ek1v85vere","1280","720","0","1","0","5bdcd99964215c0001282b34","","null","","","learningBlock2","","","","This is a bim:","null","","","","","",""
"image-keyboard-response","419","401722","0.0-7.0-1.57","LF","ek1v85vere","1280","720","0","1","0","5bdcd99964215c0001282b34","","null","","","","","","","learning/Slide138.JPG","null","","","","","",""
"html-keyboard-response","420","402728","0.0-7.0-2.57","LF","ek1v85vere","1280","720","0","1","0","5bdcd99964215c0001282b34","","null","","","learningBlock2","","","","<div style=""font-size:60px;""> </div>","null","LF","learning/Slide138.JPG","This is a bim:","","",""
"html-keyboard-response","421","403736","0.0-7.0-0.58","LF","ek1v85vere","1280","720","0","1","0","5bdcd99964215c0001282b34","","null","","","learningBlock2","","","","This is a wug:","null","","","","","",""
"image-keyboard-response","422","404078","0.0-7.0-1.58","LF","ek1v85vere","1280","720","0","1","0","5bdcd99964215c0001282b34","","null","","","","","","","learning/Slide139.JPG","null","","","","","",""
"html-keyboard-response","423","405081","0.0-7.0-2.58","LF","ek1v85vere","1280","720","0","1","0","5bdcd99964215c0001282b34","","null","","","learningBlock2","","","","<div style=""font-size:60px;""> </div>","null","LF","learning/Slide139.JPG","This is a wug:","","",""
"html-keyboard-response","424","406087","0.0-7.0-0.59","LF","ek1v85vere","1280","720","0","1","0","5bdcd99964215c0001282b34","","null","","","learningBlock2","","","","This is a dep:","null","","","","","",""
"image-keyboard-response","425","406431","0.0-7.0-1.59","LF","ek1v85vere","1280","720","0","1","0","5bdcd99964215c0001282b34","","null","","","","","","","learning/Slide140.JPG","null","","","","","",""
"html-keyboard-response","426","407433","0.0-7.0-2.59","LF","ek1v85vere","1280","720","0","1","0","5bdcd99964215c0001282b34","","null","","","learningBlock2","","","","<div style=""font-size:60px;""> </div>","null","LF","learning/Slide140.JPG","This is a dep:","","",""
"html-keyboard-response","427","408441","0.0-7.0-0.60","LF","ek1v85vere","1280","720","0","1","0","5bdcd99964215c0001282b34","","null","","","learningBlock2","","","","This is a tob:","null","","","","","",""
"image-keyboard-response","428","408789","0.0-7.0-1.60","LF","ek1v85vere","1280","720","0","1","0","5bdcd99964215c0001282b34","","null","","","","","","","learning/Slide141.JPG","null","","","","","",""
"html-keyboard-response","429","409793","0.0-7.0-2.60","LF","ek1v85vere","1280","720","0","1","0","5bdcd99964215c0001282b34","","null","","","learningBlock2","","","","<div style=""font-size:60px;""> </div>","null","LF","learning/Slide141.JPG","This is a tob:","","",""
"html-keyboard-response","430","410810","0.0-7.0-0.61","LF","ek1v85vere","1280","720","0","1","0","5bdcd99964215c0001282b34","","null","","","learningBlock2","","","","This is a wug:","null","","","","","",""
"image-keyboard-response","431","411152","0.0-7.0-1.61","LF","ek1v85vere","1280","720","0","1","0","5bdcd99964215c0001282b34","","null","","","","","","","learning/Slide142.JPG","null","","","","","",""
"html-keyboard-response","432","412155","0.0-7.0-2.61","LF","ek1v85vere","1280","720","0","1","0","5bdcd99964215c0001282b34","","null","","","learningBlock2","","","","<div style=""font-size:60px;""> </div>","null","LF","learning/Slide142.JPG","This is a wug:","","",""
"html-keyboard-response","433","413173","0.0-7.0-0.62","LF","ek1v85vere","1280","720","0","1","0","5bdcd99964215c0001282b34","","null","","","learningBlock2","","","","This is a bim:","null","","","","","",""
"image-keyboard-response","434","413522","0.0-7.0-1.62","LF","ek1v85vere","1280","720","0","1","0","5bdcd99964215c0001282b34","","null","","","","","","","learning/Slide143.JPG","null","","","","","",""
"html-keyboard-response","435","414529","0.0-7.0-2.62","LF","ek1v85vere","1280","720","0","1","0","5bdcd99964215c0001282b34","","null","","","learningBlock2","","","","<div style=""font-size:60px;""> </div>","null","LF","learning/Slide143.JPG","This is a bim:","","",""
"html-keyboard-response","436","415536","0.0-7.0-0.63","LF","ek1v85vere","1280","720","0","1","0","5bdcd99964215c0001282b34","","null","","","learningBlock2","","","","This is a dep:","null","","","","","",""
"image-keyboard-response","437","415882","0.0-7.0-1.63","LF","ek1v85vere","1280","720","0","1","0","5bdcd99964215c0001282b34","","null","","","","","","","learning/Slide144.JPG","null","","","","","",""
"html-keyboard-response","438","416899","0.0-7.0-2.63","LF","ek1v85vere","1280","720","0","1","0","5bdcd99964215c0001282b34","","null","","","learningBlock2","","","","<div style=""font-size:60px;""> </div>","null","LF","learning/Slide144.JPG","This is a dep:","","",""
