"trial_type","trial_index","time_elapsed","internal_node_id","condition","subject","screen_width","screen_height","attention","distraction","conscientious","prolificID","success","rt","url","view_history","test_part","final_height_px","final_width_px","scale_factor","stimulus","key_press","learningType","presentedImage","presentedLabel","button_pressed","response","responses"
"pavlovia","0","75","0.0-0.0","LF","8k7ujzqkju","1280","720","0","1","0","5e8b2e599abd417d9512a877","","","","","","","","","","","","","","","",""
"fullscreen","1","3413","0.0-1.0","LF","8k7ujzqkju","1280","720","0","1","0","5e8b2e599abd417d9512a877","true","","","","","","","","","","","","","","",""
"external-html","2","112482","0.0-2.0-0.0","LF","8k7ujzqkju","1280","720","0","1","0","5e8b2e599abd417d9512a877","","109026.13000001293","text/information_english.html","","","","","","","","","","","","",""
"external-html","3","117546","0.0-2.0-1.0","LF","8k7ujzqkju","1280","720","0","1","0","5e8b2e599abd417d9512a877","","5020.4999999841675","text/consent_english.html","","","","","","","","","","","","",""
"instructions","4","130626","0.0-3.0","LF","8k7ujzqkju","1280","720","0","1","0","5e8b2e599abd417d9512a877","","NA","","[{""page_index"":0,""viewing_time"":3438.0399999790825},{""page_index"":1,""viewing_time"":9639.92500002496}]","instructions","","","","","","","","","","",""
"resize","5","178897","0.0-4.0","LF","8k7ujzqkju","1280","720","0","1","0","5e8b2e599abd417d9512a877","","","","","","","376","2.3873015873015873","","","","","","","",""
"html-keyboard-response","6","179910","0.0-5.0-0.0","LF","8k7ujzqkju","1280","720","0","1","0","5e8b2e599abd417d9512a877","","null","","","learningBlock1","","","","This is a tob:","null","","","","","",""
"image-keyboard-response","7","180239","0.0-5.0-1.0","LF","8k7ujzqkju","1280","720","0","1","0","5e8b2e599abd417d9512a877","","null","","","","","","","learning/Slide1.JPG","null","","","","","",""
"html-keyboard-response","8","181243","0.0-5.0-2.0","LF","8k7ujzqkju","1280","720","0","1","0","5e8b2e599abd417d9512a877","","null","","","learningBlock1","","","","<div style=""font-size:60px;""> </div>","null","LF","learning/Slide1.JPG","This is a tob:","","",""
"html-keyboard-response","9","182252","0.0-5.0-0.1","LF","8k7ujzqkju","1280","720","0","1","0","5e8b2e599abd417d9512a877","","null","","","learningBlock1","","","","This is a wug:","null","","","","","",""
"image-keyboard-response","10","182583","0.0-5.0-1.1","LF","8k7ujzqkju","1280","720","0","1","0","5e8b2e599abd417d9512a877","","null","","","","","","","learning/Slide2.JPG","null","","","","","",""
"html-keyboard-response","11","183588","0.0-5.0-2.1","LF","8k7ujzqkju","1280","720","0","1","0","5e8b2e599abd417d9512a877","","null","","","learningBlock1","","","","<div style=""font-size:60px;""> </div>","null","LF","learning/Slide2.JPG","This is a wug:","","",""
"html-keyboard-response","12","184599","0.0-5.0-0.2","LF","8k7ujzqkju","1280","720","0","1","0","5e8b2e599abd417d9512a877","","null","","","learningBlock1","","","","This is a bim:","null","","","","","",""
"image-keyboard-response","13","184933","0.0-5.0-1.2","LF","8k7ujzqkju","1280","720","0","1","0","5e8b2e599abd417d9512a877","","null","","","","","","","learning/Slide3.JPG","null","","","","","",""
"html-keyboard-response","14","185938","0.0-5.0-2.2","LF","8k7ujzqkju","1280","720","0","1","0","5e8b2e599abd417d9512a877","","null","","","learningBlock1","","","","<div style=""font-size:60px;""> </div>","null","LF","learning/Slide3.JPG","This is a bim:","","",""
"html-keyboard-response","15","186947","0.0-5.0-0.3","LF","8k7ujzqkju","1280","720","0","1","0","5e8b2e599abd417d9512a877","","null","","","learningBlock1","","","","This is a dep:","null","","","","","",""
"image-keyboard-response","16","187277","0.0-5.0-1.3","LF","8k7ujzqkju","1280","720","0","1","0","5e8b2e599abd417d9512a877","","null","","","","","","","learning/Slide4.JPG","null","","","","","",""
"html-keyboard-response","17","188284","0.0-5.0-2.3","LF","8k7ujzqkju","1280","720","0","1","0","5e8b2e599abd417d9512a877","","null","","","learningBlock1","","","","<div style=""font-size:60px;""> </div>","null","LF","learning/Slide4.JPG","This is a dep:","","",""
"html-keyboard-response","18","189295","0.0-5.0-0.4","LF","8k7ujzqkju","1280","720","0","1","0","5e8b2e599abd417d9512a877","","null","","","learningBlock1","","","","This is a wug:","null","","","","","",""
"image-keyboard-response","19","189626","0.0-5.0-1.4","LF","8k7ujzqkju","1280","720","0","1","0","5e8b2e599abd417d9512a877","","null","","","","","","","learning/Slide5.JPG","null","","","","","",""
"html-keyboard-response","20","190635","0.0-5.0-2.4","LF","8k7ujzqkju","1280","720","0","1","0","5e8b2e599abd417d9512a877","","null","","","learningBlock1","","","","<div style=""font-size:60px;""> </div>","null","LF","learning/Slide5.JPG","This is a wug:","","",""
"html-keyboard-response","21","191646","0.0-5.0-0.5","LF","8k7ujzqkju","1280","720","0","1","0","5e8b2e599abd417d9512a877","","null","","","learningBlock1","","","","This is a dep:","null","","","","","",""
"image-keyboard-response","22","191977","0.0-5.0-1.5","LF","8k7ujzqkju","1280","720","0","1","0","5e8b2e599abd417d9512a877","","null","","","","","","","learning/Slide6.JPG","null","","","","","",""
"html-keyboard-response","23","192986","0.0-5.0-2.5","LF","8k7ujzqkju","1280","720","0","1","0","5e8b2e599abd417d9512a877","","null","","","learningBlock1","","","","<div style=""font-size:60px;""> </div>","null","LF","learning/Slide6.JPG","This is a dep:","","",""
"html-keyboard-response","24","193990","0.0-5.0-0.6","LF","8k7ujzqkju","1280","720","0","1","0","5e8b2e599abd417d9512a877","","null","","","learningBlock1","","","","This is a wug:","null","","","","","",""
"image-keyboard-response","25","194319","0.0-5.0-1.6","LF","8k7ujzqkju","1280","720","0","1","0","5e8b2e599abd417d9512a877","","null","","","","","","","learning/Slide7.JPG","null","","","","","",""
"html-keyboard-response","26","195335","0.0-5.0-2.6","LF","8k7ujzqkju","1280","720","0","1","0","5e8b2e599abd417d9512a877","","null","","","learningBlock1","","","","<div style=""font-size:60px;""> </div>","null","LF","learning/Slide7.JPG","This is a wug:","","",""
"html-keyboard-response","27","196350","0.0-5.0-0.7","LF","8k7ujzqkju","1280","720","0","1","0","5e8b2e599abd417d9512a877","","null","","","learningBlock1","","","","This is a bim:","null","","","","","",""
"image-keyboard-response","28","196682","0.0-5.0-1.7","LF","8k7ujzqkju","1280","720","0","1","0","5e8b2e599abd417d9512a877","","null","","","","","","","learning/Slide8.JPG","null","","","","","",""
"html-keyboard-response","29","197699","0.0-5.0-2.7","LF","8k7ujzqkju","1280","720","0","1","0","5e8b2e599abd417d9512a877","","null","","","learningBlock1","","","","<div style=""font-size:60px;""> </div>","null","LF","learning/Slide8.JPG","This is a bim:","","",""
"html-keyboard-response","30","198705","0.0-5.0-0.8","LF","8k7ujzqkju","1280","720","0","1","0","5e8b2e599abd417d9512a877","","null","","","learningBlock1","","","","This is a wug:","null","","","","","",""
"image-keyboard-response","31","199037","0.0-5.0-1.8","LF","8k7ujzqkju","1280","720","0","1","0","5e8b2e599abd417d9512a877","","null","","","","","","","learning/Slide9.JPG","null","","","","","",""
"html-keyboard-response","32","200053","0.0-5.0-2.8","LF","8k7ujzqkju","1280","720","0","1","0","5e8b2e599abd417d9512a877","","null","","","learningBlock1","","","","<div style=""font-size:60px;""> </div>","null","LF","learning/Slide9.JPG","This is a wug:","","",""
"html-keyboard-response","33","201065","0.0-5.0-0.9","LF","8k7ujzqkju","1280","720","0","1","0","5e8b2e599abd417d9512a877","","null","","","learningBlock1","","","","This is a dep:","null","","","","","",""
"image-keyboard-response","34","201399","0.0-5.0-1.9","LF","8k7ujzqkju","1280","720","0","1","0","5e8b2e599abd417d9512a877","","null","","","","","","","learning/Slide10.JPG","null","","","","","",""
"html-keyboard-response","35","202409","0.0-5.0-2.9","LF","8k7ujzqkju","1280","720","0","1","0","5e8b2e599abd417d9512a877","","null","","","learningBlock1","","","","<div style=""font-size:60px;""> </div>","null","LF","learning/Slide10.JPG","This is a dep:","","",""
"html-keyboard-response","36","203422","0.0-5.0-0.10","LF","8k7ujzqkju","1280","720","0","1","0","5e8b2e599abd417d9512a877","","null","","","learningBlock1","","","","This is a tob:","null","","","","","",""
"image-keyboard-response","37","203765","0.0-5.0-1.10","LF","8k7ujzqkju","1280","720","0","1","0","5e8b2e599abd417d9512a877","","null","","","","","","","learning/Slide11.JPG","null","","","","","",""
"html-keyboard-response","38","204772","0.0-5.0-2.10","LF","8k7ujzqkju","1280","720","0","1","0","5e8b2e599abd417d9512a877","","null","","","learningBlock1","","","","<div style=""font-size:60px;""> </div>","null","LF","learning/Slide11.JPG","This is a tob:","","",""
"html-keyboard-response","39","205782","0.0-5.0-0.11","LF","8k7ujzqkju","1280","720","0","1","0","5e8b2e599abd417d9512a877","","null","","","learningBlock1","","","","This is a dep:","null","","","","","",""
"image-keyboard-response","40","206116","0.0-5.0-1.11","LF","8k7ujzqkju","1280","720","0","1","0","5e8b2e599abd417d9512a877","","null","","","","","","","learning/Slide12.JPG","null","","","","","",""
"html-keyboard-response","41","207121","0.0-5.0-2.11","LF","8k7ujzqkju","1280","720","0","1","0","5e8b2e599abd417d9512a877","","null","","","learningBlock1","","","","<div style=""font-size:60px;""> </div>","null","LF","learning/Slide12.JPG","This is a dep:","","",""
"html-keyboard-response","42","208133","0.0-5.0-0.12","LF","8k7ujzqkju","1280","720","0","1","0","5e8b2e599abd417d9512a877","","null","","","learningBlock1","","","","This is a bim:","null","","","","","",""
"image-keyboard-response","43","208463","0.0-5.0-1.12","LF","8k7ujzqkju","1280","720","0","1","0","5e8b2e599abd417d9512a877","","null","","","","","","","learning/Slide13.JPG","null","","","","","",""
"html-keyboard-response","44","209466","0.0-5.0-2.12","LF","8k7ujzqkju","1280","720","0","1","0","5e8b2e599abd417d9512a877","","null","","","learningBlock1","","","","<div style=""font-size:60px;""> </div>","null","LF","learning/Slide13.JPG","This is a bim:","","",""
"html-keyboard-response","45","210469","0.0-5.0-0.13","LF","8k7ujzqkju","1280","720","0","1","0","5e8b2e599abd417d9512a877","","null","","","learningBlock1","","","","This is a wug:","null","","","","","",""
"image-keyboard-response","46","210814","0.0-5.0-1.13","LF","8k7ujzqkju","1280","720","0","1","0","5e8b2e599abd417d9512a877","","null","","","","","","","learning/Slide14.JPG","null","","","","","",""
"html-keyboard-response","47","211819","0.0-5.0-2.13","LF","8k7ujzqkju","1280","720","0","1","0","5e8b2e599abd417d9512a877","","null","","","learningBlock1","","","","<div style=""font-size:60px;""> </div>","null","LF","learning/Slide14.JPG","This is a wug:","","",""
"html-keyboard-response","48","212831","0.0-5.0-0.14","LF","8k7ujzqkju","1280","720","0","1","0","5e8b2e599abd417d9512a877","","null","","","learningBlock1","","","","This is a tob:","null","","","","","",""
"image-keyboard-response","49","213162","0.0-5.0-1.14","LF","8k7ujzqkju","1280","720","0","1","0","5e8b2e599abd417d9512a877","","null","","","","","","","learning/Slide15.JPG","null","","","","","",""
"html-keyboard-response","50","214178","0.0-5.0-2.14","LF","8k7ujzqkju","1280","720","0","1","0","5e8b2e599abd417d9512a877","","null","","","learningBlock1","","","","<div style=""font-size:60px;""> </div>","null","LF","learning/Slide15.JPG","This is a tob:","","",""
"html-keyboard-response","51","215182","0.0-5.0-0.15","LF","8k7ujzqkju","1280","720","0","1","0","5e8b2e599abd417d9512a877","","null","","","learningBlock1","","","","This is a dep:","null","","","","","",""
"image-keyboard-response","52","215510","0.0-5.0-1.15","LF","8k7ujzqkju","1280","720","0","1","0","5e8b2e599abd417d9512a877","","null","","","","","","","learning/Slide16.JPG","null","","","","","",""
"html-keyboard-response","53","216516","0.0-5.0-2.15","LF","8k7ujzqkju","1280","720","0","1","0","5e8b2e599abd417d9512a877","","null","","","learningBlock1","","","","<div style=""font-size:60px;""> </div>","null","LF","learning/Slide16.JPG","This is a dep:","","",""
"html-keyboard-response","54","217523","0.0-5.0-0.16","LF","8k7ujzqkju","1280","720","0","1","0","5e8b2e599abd417d9512a877","","null","","","learningBlock1","","","","This is a bim:","null","","","","","",""
"image-keyboard-response","55","217857","0.0-5.0-1.16","LF","8k7ujzqkju","1280","720","0","1","0","5e8b2e599abd417d9512a877","","null","","","","","","","learning/Slide17.JPG","null","","","","","",""
"html-keyboard-response","56","218868","0.0-5.0-2.16","LF","8k7ujzqkju","1280","720","0","1","0","5e8b2e599abd417d9512a877","","null","","","learningBlock1","","","","<div style=""font-size:60px;""> </div>","null","LF","learning/Slide17.JPG","This is a bim:","","",""
"html-keyboard-response","57","219873","0.0-5.0-0.17","LF","8k7ujzqkju","1280","720","0","1","0","5e8b2e599abd417d9512a877","","null","","","learningBlock1","","","","This is a tob:","null","","","","","",""
"image-keyboard-response","58","220207","0.0-5.0-1.17","LF","8k7ujzqkju","1280","720","0","1","0","5e8b2e599abd417d9512a877","","null","","","","","","","learning/Slide18.JPG","null","","","","","",""
"html-keyboard-response","59","221217","0.0-5.0-2.17","LF","8k7ujzqkju","1280","720","0","1","0","5e8b2e599abd417d9512a877","","null","","","learningBlock1","","","","<div style=""font-size:60px;""> </div>","null","LF","learning/Slide18.JPG","This is a tob:","","",""
"html-keyboard-response","60","222219","0.0-5.0-0.18","LF","8k7ujzqkju","1280","720","0","1","0","5e8b2e599abd417d9512a877","","null","","","learningBlock1","","","","This is a wug:","null","","","","","",""
"image-keyboard-response","61","222551","0.0-5.0-1.18","LF","8k7ujzqkju","1280","720","0","1","0","5e8b2e599abd417d9512a877","","null","","","","","","","learning/Slide19.JPG","null","","","","","",""
"html-keyboard-response","62","223564","0.0-5.0-2.18","LF","8k7ujzqkju","1280","720","0","1","0","5e8b2e599abd417d9512a877","","null","","","learningBlock1","","","","<div style=""font-size:60px;""> </div>","null","LF","learning/Slide19.JPG","This is a wug:","","",""
"html-keyboard-response","63","224567","0.0-5.0-0.19","LF","8k7ujzqkju","1280","720","0","1","0","5e8b2e599abd417d9512a877","","null","","","learningBlock1","","","","This is a bim:","null","","","","","",""
"image-keyboard-response","64","224900","0.0-5.0-1.19","LF","8k7ujzqkju","1280","720","0","1","0","5e8b2e599abd417d9512a877","","null","","","","","","","learning/Slide20.JPG","null","","","","","",""
"html-keyboard-response","65","225906","0.0-5.0-2.19","LF","8k7ujzqkju","1280","720","0","1","0","5e8b2e599abd417d9512a877","","null","","","learningBlock1","","","","<div style=""font-size:60px;""> </div>","null","LF","learning/Slide20.JPG","This is a bim:","","",""
"html-keyboard-response","66","226911","0.0-5.0-0.20","LF","8k7ujzqkju","1280","720","0","1","0","5e8b2e599abd417d9512a877","","null","","","learningBlock1","","","","This is a dep:","null","","","","","",""
"image-keyboard-response","67","227251","0.0-5.0-1.20","LF","8k7ujzqkju","1280","720","0","1","0","5e8b2e599abd417d9512a877","","null","","","","","","","learning/Slide21.JPG","null","","","","","",""
"html-keyboard-response","68","228255","0.0-5.0-2.20","LF","8k7ujzqkju","1280","720","0","1","0","5e8b2e599abd417d9512a877","","null","","","learningBlock1","","","","<div style=""font-size:60px;""> </div>","null","LF","learning/Slide21.JPG","This is a dep:","","",""
"html-keyboard-response","69","229268","0.0-5.0-0.21","LF","8k7ujzqkju","1280","720","0","1","0","5e8b2e599abd417d9512a877","","null","","","learningBlock1","","","","This is a bim:","null","","","","","",""
"image-keyboard-response","70","229602","0.0-5.0-1.21","LF","8k7ujzqkju","1280","720","0","1","0","5e8b2e599abd417d9512a877","","null","","","","","","","learning/Slide22.JPG","null","","","","","",""
"html-keyboard-response","71","230605","0.0-5.0-2.21","LF","8k7ujzqkju","1280","720","0","1","0","5e8b2e599abd417d9512a877","","null","","","learningBlock1","","","","<div style=""font-size:60px;""> </div>","null","LF","learning/Slide22.JPG","This is a bim:","","",""
"html-keyboard-response","72","231616","0.0-5.0-0.22","LF","8k7ujzqkju","1280","720","0","1","0","5e8b2e599abd417d9512a877","","null","","","learningBlock1","","","","This is a tob:","null","","","","","",""
"image-keyboard-response","73","231953","0.0-5.0-1.22","LF","8k7ujzqkju","1280","720","0","1","0","5e8b2e599abd417d9512a877","","null","","","","","","","learning/Slide23.JPG","null","","","","","",""
"html-keyboard-response","74","232958","0.0-5.0-2.22","LF","8k7ujzqkju","1280","720","0","1","0","5e8b2e599abd417d9512a877","","null","","","learningBlock1","","","","<div style=""font-size:60px;""> </div>","null","LF","learning/Slide23.JPG","This is a tob:","","",""
"html-keyboard-response","75","233970","0.0-5.0-0.23","LF","8k7ujzqkju","1280","720","0","1","0","5e8b2e599abd417d9512a877","","null","","","learningBlock1","","","","This is a wug:","null","","","","","",""
"image-keyboard-response","76","234299","0.0-5.0-1.23","LF","8k7ujzqkju","1280","720","0","1","0","5e8b2e599abd417d9512a877","","null","","","","","","","learning/Slide24.JPG","null","","","","","",""
"html-keyboard-response","77","235311","0.0-5.0-2.23","LF","8k7ujzqkju","1280","720","0","1","0","5e8b2e599abd417d9512a877","","null","","","learningBlock1","","","","<div style=""font-size:60px;""> </div>","null","LF","learning/Slide24.JPG","This is a wug:","","",""
"html-keyboard-response","78","236312","0.0-5.0-0.24","LF","8k7ujzqkju","1280","720","0","1","0","5e8b2e599abd417d9512a877","","null","","","learningBlock1","","","","This is a dep:","null","","","","","",""
"image-keyboard-response","79","236647","0.0-5.0-1.24","LF","8k7ujzqkju","1280","720","0","1","0","5e8b2e599abd417d9512a877","","null","","","","","","","learning/Slide25.JPG","null","","","","","",""
"html-keyboard-response","80","237663","0.0-5.0-2.24","LF","8k7ujzqkju","1280","720","0","1","0","5e8b2e599abd417d9512a877","","null","","","learningBlock1","","","","<div style=""font-size:60px;""> </div>","null","LF","learning/Slide25.JPG","This is a dep:","","",""
"html-keyboard-response","81","238665","0.0-5.0-0.25","LF","8k7ujzqkju","1280","720","0","1","0","5e8b2e599abd417d9512a877","","null","","","learningBlock1","","","","This is a wug:","null","","","","","",""
"image-keyboard-response","82","239005","0.0-5.0-1.25","LF","8k7ujzqkju","1280","720","0","1","0","5e8b2e599abd417d9512a877","","null","","","","","","","learning/Slide26.JPG","null","","","","","",""
"html-keyboard-response","83","240021","0.0-5.0-2.25","LF","8k7ujzqkju","1280","720","0","1","0","5e8b2e599abd417d9512a877","","null","","","learningBlock1","","","","<div style=""font-size:60px;""> </div>","null","LF","learning/Slide26.JPG","This is a wug:","","",""
"html-keyboard-response","84","241025","0.0-5.0-0.26","LF","8k7ujzqkju","1280","720","0","1","0","5e8b2e599abd417d9512a877","","null","","","learningBlock1","","","","This is a bim:","null","","","","","",""
"image-keyboard-response","85","241371","0.0-5.0-1.26","LF","8k7ujzqkju","1280","720","0","1","0","5e8b2e599abd417d9512a877","","null","","","","","","","learning/Slide27.JPG","null","","","","","",""
"html-keyboard-response","86","242377","0.0-5.0-2.26","LF","8k7ujzqkju","1280","720","0","1","0","5e8b2e599abd417d9512a877","","null","","","learningBlock1","","","","<div style=""font-size:60px;""> </div>","null","LF","learning/Slide27.JPG","This is a bim:","","",""
"html-keyboard-response","87","243380","0.0-5.0-0.27","LF","8k7ujzqkju","1280","720","0","1","0","5e8b2e599abd417d9512a877","","null","","","learningBlock1","","","","This is a dep:","null","","","","","",""
"image-keyboard-response","88","243720","0.0-5.0-1.27","LF","8k7ujzqkju","1280","720","0","1","0","5e8b2e599abd417d9512a877","","null","","","","","","","learning/Slide28.JPG","null","","","","","",""
"html-keyboard-response","89","244730","0.0-5.0-2.27","LF","8k7ujzqkju","1280","720","0","1","0","5e8b2e599abd417d9512a877","","null","","","learningBlock1","","","","<div style=""font-size:60px;""> </div>","null","LF","learning/Slide28.JPG","This is a dep:","","",""
"html-keyboard-response","90","245743","0.0-5.0-0.28","LF","8k7ujzqkju","1280","720","0","1","0","5e8b2e599abd417d9512a877","","null","","","learningBlock1","","","","This is a tob:","null","","","","","",""
"image-keyboard-response","91","246076","0.0-5.0-1.28","LF","8k7ujzqkju","1280","720","0","1","0","5e8b2e599abd417d9512a877","","null","","","","","","","learning/Slide29.JPG","null","","","","","",""
"html-keyboard-response","92","247079","0.0-5.0-2.28","LF","8k7ujzqkju","1280","720","0","1","0","5e8b2e599abd417d9512a877","","null","","","learningBlock1","","","","<div style=""font-size:60px;""> </div>","null","LF","learning/Slide29.JPG","This is a tob:","","",""
"html-keyboard-response","93","248088","0.0-5.0-0.29","LF","8k7ujzqkju","1280","720","0","1","0","5e8b2e599abd417d9512a877","","null","","","learningBlock1","","","","This is a dep:","null","","","","","",""
"image-keyboard-response","94","248416","0.0-5.0-1.29","LF","8k7ujzqkju","1280","720","0","1","0","5e8b2e599abd417d9512a877","","null","","","","","","","learning/Slide30.JPG","null","","","","","",""
"html-keyboard-response","95","249426","0.0-5.0-2.29","LF","8k7ujzqkju","1280","720","0","1","0","5e8b2e599abd417d9512a877","","null","","","learningBlock1","","","","<div style=""font-size:60px;""> </div>","null","LF","learning/Slide30.JPG","This is a dep:","","",""
"html-keyboard-response","96","250435","0.0-5.0-0.30","LF","8k7ujzqkju","1280","720","0","1","0","5e8b2e599abd417d9512a877","","null","","","learningBlock1","","","","This is a wug:","null","","","","","",""
"image-keyboard-response","97","250766","0.0-5.0-1.30","LF","8k7ujzqkju","1280","720","0","1","0","5e8b2e599abd417d9512a877","","null","","","","","","","learning/Slide31.JPG","null","","","","","",""
"html-keyboard-response","98","251769","0.0-5.0-2.30","LF","8k7ujzqkju","1280","720","0","1","0","5e8b2e599abd417d9512a877","","null","","","learningBlock1","","","","<div style=""font-size:60px;""> </div>","null","LF","learning/Slide31.JPG","This is a wug:","","",""
"html-keyboard-response","99","252772","0.0-5.0-0.31","LF","8k7ujzqkju","1280","720","0","1","0","5e8b2e599abd417d9512a877","","null","","","learningBlock1","","","","This is a tob:","null","","","","","",""
"image-keyboard-response","100","253102","0.0-5.0-1.31","LF","8k7ujzqkju","1280","720","0","1","0","5e8b2e599abd417d9512a877","","null","","","","","","","learning/Slide32.JPG","null","","","","","",""
"html-keyboard-response","101","254115","0.0-5.0-2.31","LF","8k7ujzqkju","1280","720","0","1","0","5e8b2e599abd417d9512a877","","null","","","learningBlock1","","","","<div style=""font-size:60px;""> </div>","null","LF","learning/Slide32.JPG","This is a tob:","","",""
"html-keyboard-response","102","255131","0.0-5.0-0.32","LF","8k7ujzqkju","1280","720","0","1","0","5e8b2e599abd417d9512a877","","null","","","learningBlock1","","","","This is a bim:","null","","","","","",""
"image-keyboard-response","103","255471","0.0-5.0-1.32","LF","8k7ujzqkju","1280","720","0","1","0","5e8b2e599abd417d9512a877","","null","","","","","","","learning/Slide33.JPG","null","","","","","",""
"html-keyboard-response","104","256486","0.0-5.0-2.32","LF","8k7ujzqkju","1280","720","0","1","0","5e8b2e599abd417d9512a877","","null","","","learningBlock1","","","","<div style=""font-size:60px;""> </div>","null","LF","learning/Slide33.JPG","This is a bim:","","",""
"html-keyboard-response","105","257497","0.0-5.0-0.33","LF","8k7ujzqkju","1280","720","0","1","0","5e8b2e599abd417d9512a877","","null","","","learningBlock1","","","","This is a tob:","null","","","","","",""
"image-keyboard-response","106","257839","0.0-5.0-1.33","LF","8k7ujzqkju","1280","720","0","1","0","5e8b2e599abd417d9512a877","","null","","","","","","","learning/Slide34.JPG","null","","","","","",""
"html-keyboard-response","107","258852","0.0-5.0-2.33","LF","8k7ujzqkju","1280","720","0","1","0","5e8b2e599abd417d9512a877","","null","","","learningBlock1","","","","<div style=""font-size:60px;""> </div>","null","LF","learning/Slide34.JPG","This is a tob:","","",""
"html-keyboard-response","108","259867","0.0-5.0-0.34","LF","8k7ujzqkju","1280","720","0","1","0","5e8b2e599abd417d9512a877","","null","","","learningBlock1","","","","This is a bim:","null","","","","","",""
"image-keyboard-response","109","260211","0.0-5.0-1.34","LF","8k7ujzqkju","1280","720","0","1","0","5e8b2e599abd417d9512a877","","null","","","","","","","learning/Slide35.JPG","null","","","","","",""
"html-keyboard-response","110","261214","0.0-5.0-2.34","LF","8k7ujzqkju","1280","720","0","1","0","5e8b2e599abd417d9512a877","","null","","","learningBlock1","","","","<div style=""font-size:60px;""> </div>","null","LF","learning/Slide35.JPG","This is a bim:","","",""
"html-keyboard-response","111","262225","0.0-5.0-0.35","LF","8k7ujzqkju","1280","720","0","1","0","5e8b2e599abd417d9512a877","","null","","","learningBlock1","","","","This is a dep:","null","","","","","",""
"image-keyboard-response","112","262558","0.0-5.0-1.35","LF","8k7ujzqkju","1280","720","0","1","0","5e8b2e599abd417d9512a877","","null","","","","","","","learning/Slide36.JPG","null","","","","","",""
"html-keyboard-response","113","263572","0.0-5.0-2.35","LF","8k7ujzqkju","1280","720","0","1","0","5e8b2e599abd417d9512a877","","null","","","learningBlock1","","","","<div style=""font-size:60px;""> </div>","null","LF","learning/Slide36.JPG","This is a dep:","","",""
"html-keyboard-response","114","264577","0.0-5.0-0.36","LF","8k7ujzqkju","1280","720","0","1","0","5e8b2e599abd417d9512a877","","null","","","learningBlock1","","","","This is a tob:","null","","","","","",""
"image-keyboard-response","115","264907","0.0-5.0-1.36","LF","8k7ujzqkju","1280","720","0","1","0","5e8b2e599abd417d9512a877","","null","","","","","","","learning/Slide37.JPG","null","","","","","",""
"html-keyboard-response","116","265915","0.0-5.0-2.36","LF","8k7ujzqkju","1280","720","0","1","0","5e8b2e599abd417d9512a877","","null","","","learningBlock1","","","","<div style=""font-size:60px;""> </div>","null","LF","learning/Slide37.JPG","This is a tob:","","",""
"html-keyboard-response","117","266916","0.0-5.0-0.37","LF","8k7ujzqkju","1280","720","0","1","0","5e8b2e599abd417d9512a877","","null","","","learningBlock1","","","","This is a wug:","null","","","","","",""
"image-keyboard-response","118","267263","0.0-5.0-1.37","LF","8k7ujzqkju","1280","720","0","1","0","5e8b2e599abd417d9512a877","","null","","","","","","","learning/Slide38.JPG","null","","","","","",""
"html-keyboard-response","119","268278","0.0-5.0-2.37","LF","8k7ujzqkju","1280","720","0","1","0","5e8b2e599abd417d9512a877","","null","","","learningBlock1","","","","<div style=""font-size:60px;""> </div>","null","LF","learning/Slide38.JPG","This is a wug:","","",""
"html-keyboard-response","120","269288","0.0-5.0-0.38","LF","8k7ujzqkju","1280","720","0","1","0","5e8b2e599abd417d9512a877","","null","","","learningBlock1","","","","This is a bim:","null","","","","","",""
"image-keyboard-response","121","269623","0.0-5.0-1.38","LF","8k7ujzqkju","1280","720","0","1","0","5e8b2e599abd417d9512a877","","null","","","","","","","learning/Slide39.JPG","null","","","","","",""
"html-keyboard-response","122","270639","0.0-5.0-2.38","LF","8k7ujzqkju","1280","720","0","1","0","5e8b2e599abd417d9512a877","","null","","","learningBlock1","","","","<div style=""font-size:60px;""> </div>","null","LF","learning/Slide39.JPG","This is a bim:","","",""
"html-keyboard-response","123","271642","0.0-5.0-0.39","LF","8k7ujzqkju","1280","720","0","1","0","5e8b2e599abd417d9512a877","","null","","","learningBlock1","","","","This is a tob:","null","","","","","",""
"image-keyboard-response","124","271972","0.0-5.0-1.39","LF","8k7ujzqkju","1280","720","0","1","0","5e8b2e599abd417d9512a877","","null","","","","","","","learning/Slide40.JPG","null","","","","","",""
"html-keyboard-response","125","272976","0.0-5.0-2.39","LF","8k7ujzqkju","1280","720","0","1","0","5e8b2e599abd417d9512a877","","null","","","learningBlock1","","","","<div style=""font-size:60px;""> </div>","null","LF","learning/Slide40.JPG","This is a tob:","","",""
"html-keyboard-response","126","273981","0.0-5.0-0.40","LF","8k7ujzqkju","1280","720","0","1","0","5e8b2e599abd417d9512a877","","null","","","learningBlock1","","","","This is a bim:","null","","","","","",""
"image-keyboard-response","127","274311","0.0-5.0-1.40","LF","8k7ujzqkju","1280","720","0","1","0","5e8b2e599abd417d9512a877","","null","","","","","","","learning/Slide41.JPG","null","","","","","",""
"html-keyboard-response","128","275314","0.0-5.0-2.40","LF","8k7ujzqkju","1280","720","0","1","0","5e8b2e599abd417d9512a877","","null","","","learningBlock1","","","","<div style=""font-size:60px;""> </div>","null","LF","learning/Slide41.JPG","This is a bim:","","",""
"html-keyboard-response","129","276899","0.0-5.0-0.41","LF","8k7ujzqkju","1280","720","0","1","0","5e8b2e599abd417d9512a877","","null","","","learningBlock1","","","","This is a dep:","null","","","","","",""
"image-keyboard-response","130","278897","0.0-5.0-1.41","LF","8k7ujzqkju","1280","720","0","1","0","5e8b2e599abd417d9512a877","","null","","","","","","","learning/Slide42.JPG","null","","","","","",""
"html-keyboard-response","131","280889","0.0-5.0-2.41","LF","8k7ujzqkju","1280","720","0","1","0","5e8b2e599abd417d9512a877","","null","","","learningBlock1","","","","<div style=""font-size:60px;""> </div>","null","LF","learning/Slide42.JPG","This is a dep:","","",""
"html-keyboard-response","132","282901","0.0-5.0-0.42","LF","8k7ujzqkju","1280","720","0","1","0","5e8b2e599abd417d9512a877","","null","","","learningBlock1","","","","This is a wug:","null","","","","","",""
"image-keyboard-response","133","284898","0.0-5.0-1.42","LF","8k7ujzqkju","1280","720","0","1","0","5e8b2e599abd417d9512a877","","null","","","","","","","learning/Slide43.JPG","null","","","","","",""
"html-keyboard-response","134","286900","0.0-5.0-2.42","LF","8k7ujzqkju","1280","720","0","1","0","5e8b2e599abd417d9512a877","","null","","","learningBlock1","","","","<div style=""font-size:60px;""> </div>","null","LF","learning/Slide43.JPG","This is a wug:","","",""
"html-keyboard-response","135","287906","0.0-5.0-0.43","LF","8k7ujzqkju","1280","720","0","1","0","5e8b2e599abd417d9512a877","","null","","","learningBlock1","","","","This is a bim:","null","","","","","",""
"image-keyboard-response","136","288240","0.0-5.0-1.43","LF","8k7ujzqkju","1280","720","0","1","0","5e8b2e599abd417d9512a877","","null","","","","","","","learning/Slide44.JPG","null","","","","","",""
"html-keyboard-response","137","289254","0.0-5.0-2.43","LF","8k7ujzqkju","1280","720","0","1","0","5e8b2e599abd417d9512a877","","null","","","learningBlock1","","","","<div style=""font-size:60px;""> </div>","null","LF","learning/Slide44.JPG","This is a bim:","","",""
"html-keyboard-response","138","290266","0.0-5.0-0.44","LF","8k7ujzqkju","1280","720","0","1","0","5e8b2e599abd417d9512a877","","null","","","learningBlock1","","","","This is a wug:","null","","","","","",""
"image-keyboard-response","139","290594","0.0-5.0-1.44","LF","8k7ujzqkju","1280","720","0","1","0","5e8b2e599abd417d9512a877","","null","","","","","","","learning/Slide45.JPG","null","","","","","",""
"html-keyboard-response","140","291600","0.0-5.0-2.44","LF","8k7ujzqkju","1280","720","0","1","0","5e8b2e599abd417d9512a877","","null","","","learningBlock1","","","","<div style=""font-size:60px;""> </div>","null","LF","learning/Slide45.JPG","This is a wug:","","",""
"html-keyboard-response","141","292602","0.0-5.0-0.45","LF","8k7ujzqkju","1280","720","0","1","0","5e8b2e599abd417d9512a877","","null","","","learningBlock1","","","","This is a dep:","null","","","","","",""
"image-keyboard-response","142","292934","0.0-5.0-1.45","LF","8k7ujzqkju","1280","720","0","1","0","5e8b2e599abd417d9512a877","","null","","","","","","","learning/Slide46.JPG","null","","","","","",""
"html-keyboard-response","143","293939","0.0-5.0-2.45","LF","8k7ujzqkju","1280","720","0","1","0","5e8b2e599abd417d9512a877","","null","","","learningBlock1","","","","<div style=""font-size:60px;""> </div>","null","LF","learning/Slide46.JPG","This is a dep:","","",""
"html-keyboard-response","144","294944","0.0-5.0-0.46","LF","8k7ujzqkju","1280","720","0","1","0","5e8b2e599abd417d9512a877","","null","","","learningBlock1","","","","This is a tob:","null","","","","","",""
"image-keyboard-response","145","295272","0.0-5.0-1.46","LF","8k7ujzqkju","1280","720","0","1","0","5e8b2e599abd417d9512a877","","null","","","","","","","learning/Slide47.JPG","null","","","","","",""
"html-keyboard-response","146","296893","0.0-5.0-2.46","LF","8k7ujzqkju","1280","720","0","1","0","5e8b2e599abd417d9512a877","","null","","","learningBlock1","","","","<div style=""font-size:60px;""> </div>","null","LF","learning/Slide47.JPG","This is a tob:","","",""
"html-keyboard-response","147","298892","0.0-5.0-0.47","LF","8k7ujzqkju","1280","720","0","1","0","5e8b2e599abd417d9512a877","","null","","","learningBlock1","","","","This is a bim:","null","","","","","",""
"image-keyboard-response","148","300899","0.0-5.0-1.47","LF","8k7ujzqkju","1280","720","0","1","0","5e8b2e599abd417d9512a877","","null","","","","","","","learning/Slide48.JPG","null","","","","","",""
"html-keyboard-response","149","302889","0.0-5.0-2.47","LF","8k7ujzqkju","1280","720","0","1","0","5e8b2e599abd417d9512a877","","null","","","learningBlock1","","","","<div style=""font-size:60px;""> </div>","null","LF","learning/Slide48.JPG","This is a bim:","","",""
"html-keyboard-response","150","304886","0.0-5.0-0.48","LF","8k7ujzqkju","1280","720","0","1","0","5e8b2e599abd417d9512a877","","null","","","learningBlock1","","","","This is a dep:","null","","","","","",""
"image-keyboard-response","151","306888","0.0-5.0-1.48","LF","8k7ujzqkju","1280","720","0","1","0","5e8b2e599abd417d9512a877","","null","","","","","","","learning/Slide49.JPG","null","","","","","",""
"html-keyboard-response","152","308894","0.0-5.0-2.48","LF","8k7ujzqkju","1280","720","0","1","0","5e8b2e599abd417d9512a877","","null","","","learningBlock1","","","","<div style=""font-size:60px;""> </div>","null","LF","learning/Slide49.JPG","This is a dep:","","",""
"html-keyboard-response","153","310888","0.0-5.0-0.49","LF","8k7ujzqkju","1280","720","0","1","0","5e8b2e599abd417d9512a877","","null","","","learningBlock1","","","","This is a tob:","null","","","","","",""
"image-keyboard-response","154","311443","0.0-5.0-1.49","LF","8k7ujzqkju","1280","720","0","1","0","5e8b2e599abd417d9512a877","","null","","","","","","","learning/Slide50.JPG","null","","","","","",""
"html-keyboard-response","155","312449","0.0-5.0-2.49","LF","8k7ujzqkju","1280","720","0","1","0","5e8b2e599abd417d9512a877","","null","","","learningBlock1","","","","<div style=""font-size:60px;""> </div>","null","LF","learning/Slide50.JPG","This is a tob:","","",""
"html-keyboard-response","156","313459","0.0-5.0-0.50","LF","8k7ujzqkju","1280","720","0","1","0","5e8b2e599abd417d9512a877","","null","","","learningBlock1","","","","This is a bim:","null","","","","","",""
"image-keyboard-response","157","313789","0.0-5.0-1.50","LF","8k7ujzqkju","1280","720","0","1","0","5e8b2e599abd417d9512a877","","null","","","","","","","learning/Slide51.JPG","null","","","","","",""
"html-keyboard-response","158","314807","0.0-5.0-2.50","LF","8k7ujzqkju","1280","720","0","1","0","5e8b2e599abd417d9512a877","","null","","","learningBlock1","","","","<div style=""font-size:60px;""> </div>","null","LF","learning/Slide51.JPG","This is a bim:","","",""
"html-keyboard-response","159","315809","0.0-5.0-0.51","LF","8k7ujzqkju","1280","720","0","1","0","5e8b2e599abd417d9512a877","","null","","","learningBlock1","","","","This is a wug:","null","","","","","",""
"image-keyboard-response","160","316145","0.0-5.0-1.51","LF","8k7ujzqkju","1280","720","0","1","0","5e8b2e599abd417d9512a877","","null","","","","","","","learning/Slide52.JPG","null","","","","","",""
"html-keyboard-response","161","317154","0.0-5.0-2.51","LF","8k7ujzqkju","1280","720","0","1","0","5e8b2e599abd417d9512a877","","null","","","learningBlock1","","","","<div style=""font-size:60px;""> </div>","null","LF","learning/Slide52.JPG","This is a wug:","","",""
"html-keyboard-response","162","318898","0.0-5.0-0.52","LF","8k7ujzqkju","1280","720","0","1","0","5e8b2e599abd417d9512a877","","null","","","learningBlock1","","","","This is a tob:","null","","","","","",""
"image-keyboard-response","163","320895","0.0-5.0-1.52","LF","8k7ujzqkju","1280","720","0","1","0","5e8b2e599abd417d9512a877","","null","","","","","","","learning/Slide53.JPG","null","","","","","",""
"html-keyboard-response","164","322898","0.0-5.0-2.52","LF","8k7ujzqkju","1280","720","0","1","0","5e8b2e599abd417d9512a877","","null","","","learningBlock1","","","","<div style=""font-size:60px;""> </div>","null","LF","learning/Slide53.JPG","This is a tob:","","",""
"html-keyboard-response","165","324895","0.0-5.0-0.53","LF","8k7ujzqkju","1280","720","0","1","0","5e8b2e599abd417d9512a877","","null","","","learningBlock1","","","","This is a dep:","null","","","","","",""
"image-keyboard-response","166","326898","0.0-5.0-1.53","LF","8k7ujzqkju","1280","720","0","1","0","5e8b2e599abd417d9512a877","","null","","","","","","","learning/Slide54.JPG","null","","","","","",""
"html-keyboard-response","167","328893","0.0-5.0-2.53","LF","8k7ujzqkju","1280","720","0","1","0","5e8b2e599abd417d9512a877","","null","","","learningBlock1","","","","<div style=""font-size:60px;""> </div>","null","LF","learning/Slide54.JPG","This is a dep:","","",""
"html-keyboard-response","168","330889","0.0-5.0-0.54","LF","8k7ujzqkju","1280","720","0","1","0","5e8b2e599abd417d9512a877","","null","","","learningBlock1","","","","This is a bim:","null","","","","","",""
"image-keyboard-response","169","331973","0.0-5.0-1.54","LF","8k7ujzqkju","1280","720","0","1","0","5e8b2e599abd417d9512a877","","null","","","","","","","learning/Slide55.JPG","null","","","","","",""
"html-keyboard-response","170","333889","0.0-5.0-2.54","LF","8k7ujzqkju","1280","720","0","1","0","5e8b2e599abd417d9512a877","","null","","","learningBlock1","","","","<div style=""font-size:60px;""> </div>","null","LF","learning/Slide55.JPG","This is a bim:","","",""
"html-keyboard-response","171","335897","0.0-5.0-0.55","LF","8k7ujzqkju","1280","720","0","1","0","5e8b2e599abd417d9512a877","","null","","","learningBlock1","","","","This is a tob:","null","","","","","",""
"image-keyboard-response","172","337891","0.0-5.0-1.55","LF","8k7ujzqkju","1280","720","0","1","0","5e8b2e599abd417d9512a877","","null","","","","","","","learning/Slide56.JPG","null","","","","","",""
"html-keyboard-response","173","339897","0.0-5.0-2.55","LF","8k7ujzqkju","1280","720","0","1","0","5e8b2e599abd417d9512a877","","null","","","learningBlock1","","","","<div style=""font-size:60px;""> </div>","null","LF","learning/Slide56.JPG","This is a tob:","","",""
"html-keyboard-response","174","341894","0.0-5.0-0.56","LF","8k7ujzqkju","1280","720","0","1","0","5e8b2e599abd417d9512a877","","null","","","learningBlock1","","","","This is a dep:","null","","","","","",""
"image-keyboard-response","175","343890","0.0-5.0-1.56","LF","8k7ujzqkju","1280","720","0","1","0","5e8b2e599abd417d9512a877","","null","","","","","","","learning/Slide57.JPG","null","","","","","",""
"html-keyboard-response","176","345888","0.0-5.0-2.56","LF","8k7ujzqkju","1280","720","0","1","0","5e8b2e599abd417d9512a877","","null","","","learningBlock1","","","","<div style=""font-size:60px;""> </div>","null","LF","learning/Slide57.JPG","This is a dep:","","",""
"html-keyboard-response","177","346893","0.0-5.0-0.57","LF","8k7ujzqkju","1280","720","0","1","0","5e8b2e599abd417d9512a877","","null","","","learningBlock1","","","","This is a wug:","null","","","","","",""
"image-keyboard-response","178","347234","0.0-5.0-1.57","LF","8k7ujzqkju","1280","720","0","1","0","5e8b2e599abd417d9512a877","","null","","","","","","","learning/Slide58.JPG","null","","","","","",""
"html-keyboard-response","179","348890","0.0-5.0-2.57","LF","8k7ujzqkju","1280","720","0","1","0","5e8b2e599abd417d9512a877","","null","","","learningBlock1","","","","<div style=""font-size:60px;""> </div>","null","LF","learning/Slide58.JPG","This is a wug:","","",""
"html-keyboard-response","180","350889","0.0-5.0-0.58","LF","8k7ujzqkju","1280","720","0","1","0","5e8b2e599abd417d9512a877","","null","","","learningBlock1","","","","This is a dep:","null","","","","","",""
"image-keyboard-response","181","352898","0.0-5.0-1.58","LF","8k7ujzqkju","1280","720","0","1","0","5e8b2e599abd417d9512a877","","null","","","","","","","learning/Slide59.JPG","null","","","","","",""
"html-keyboard-response","182","354894","0.0-5.0-2.58","LF","8k7ujzqkju","1280","720","0","1","0","5e8b2e599abd417d9512a877","","null","","","learningBlock1","","","","<div style=""font-size:60px;""> </div>","null","LF","learning/Slide59.JPG","This is a dep:","","",""
"html-keyboard-response","183","356897","0.0-5.0-0.59","LF","8k7ujzqkju","1280","720","0","1","0","5e8b2e599abd417d9512a877","","null","","","learningBlock1","","","","This is a wug:","null","","","","","",""
"image-keyboard-response","184","358891","0.0-5.0-1.59","LF","8k7ujzqkju","1280","720","0","1","0","5e8b2e599abd417d9512a877","","null","","","","","","","learning/Slide60.JPG","null","","","","","",""
"html-keyboard-response","185","360895","0.0-5.0-2.59","LF","8k7ujzqkju","1280","720","0","1","0","5e8b2e599abd417d9512a877","","null","","","learningBlock1","","","","<div style=""font-size:60px;""> </div>","null","LF","learning/Slide60.JPG","This is a wug:","","",""
"html-keyboard-response","186","362898","0.0-5.0-0.60","LF","8k7ujzqkju","1280","720","0","1","0","5e8b2e599abd417d9512a877","","null","","","learningBlock1","","","","This is a bim:","null","","","","","",""
"image-keyboard-response","187","364898","0.0-5.0-1.60","LF","8k7ujzqkju","1280","720","0","1","0","5e8b2e599abd417d9512a877","","null","","","","","","","learning/Slide61.JPG","null","","","","","",""
"html-keyboard-response","188","366898","0.0-5.0-2.60","LF","8k7ujzqkju","1280","720","0","1","0","5e8b2e599abd417d9512a877","","null","","","learningBlock1","","","","<div style=""font-size:60px;""> </div>","null","LF","learning/Slide61.JPG","This is a bim:","","",""
"html-keyboard-response","189","368904","0.0-5.0-0.61","LF","8k7ujzqkju","1280","720","0","1","0","5e8b2e599abd417d9512a877","","null","","","learningBlock1","","","","This is a dep:","null","","","","","",""
"image-keyboard-response","190","370891","0.0-5.0-1.61","LF","8k7ujzqkju","1280","720","0","1","0","5e8b2e599abd417d9512a877","","null","","","","","","","learning/Slide62.JPG","null","","","","","",""
"html-keyboard-response","191","372898","0.0-5.0-2.61","LF","8k7ujzqkju","1280","720","0","1","0","5e8b2e599abd417d9512a877","","null","","","learningBlock1","","","","<div style=""font-size:60px;""> </div>","null","LF","learning/Slide62.JPG","This is a dep:","","",""
"html-keyboard-response","192","374893","0.0-5.0-0.62","LF","8k7ujzqkju","1280","720","0","1","0","5e8b2e599abd417d9512a877","","null","","","learningBlock1","","","","This is a bim:","null","","","","","",""
"image-keyboard-response","193","376894","0.0-5.0-1.62","LF","8k7ujzqkju","1280","720","0","1","0","5e8b2e599abd417d9512a877","","null","","","","","","","learning/Slide63.JPG","null","","","","","",""
"html-keyboard-response","194","378897","0.0-5.0-2.62","LF","8k7ujzqkju","1280","720","0","1","0","5e8b2e599abd417d9512a877","","null","","","learningBlock1","","","","<div style=""font-size:60px;""> </div>","null","LF","learning/Slide63.JPG","This is a bim:","","",""
"html-keyboard-response","195","380895","0.0-5.0-0.63","LF","8k7ujzqkju","1280","720","0","1","0","5e8b2e599abd417d9512a877","","null","","","learningBlock1","","","","This is a tob:","null","","","","","",""
"image-keyboard-response","196","382899","0.0-5.0-1.63","LF","8k7ujzqkju","1280","720","0","1","0","5e8b2e599abd417d9512a877","","null","","","","","","","learning/Slide64.JPG","null","","","","","",""
"html-keyboard-response","197","383910","0.0-5.0-2.63","LF","8k7ujzqkju","1280","720","0","1","0","5e8b2e599abd417d9512a877","","null","","","learningBlock1","","","","<div style=""font-size:60px;""> </div>","null","LF","learning/Slide64.JPG","This is a tob:","","",""
"html-keyboard-response","198","384920","0.0-5.0-0.64","LF","8k7ujzqkju","1280","720","0","1","0","5e8b2e599abd417d9512a877","","null","","","learningBlock1","","","","This is a wug:","null","","","","","",""
"image-keyboard-response","199","385249","0.0-5.0-1.64","LF","8k7ujzqkju","1280","720","0","1","0","5e8b2e599abd417d9512a877","","null","","","","","","","learning/Slide65.JPG","null","","","","","",""
"html-keyboard-response","200","386900","0.0-5.0-2.64","LF","8k7ujzqkju","1280","720","0","1","0","5e8b2e599abd417d9512a877","","null","","","learningBlock1","","","","<div style=""font-size:60px;""> </div>","null","LF","learning/Slide65.JPG","This is a wug:","","",""
"html-keyboard-response","201","388889","0.0-5.0-0.65","LF","8k7ujzqkju","1280","720","0","1","0","5e8b2e599abd417d9512a877","","null","","","learningBlock1","","","","This is a dep:","null","","","","","",""
"image-keyboard-response","202","390887","0.0-5.0-1.65","LF","8k7ujzqkju","1280","720","0","1","0","5e8b2e599abd417d9512a877","","null","","","","","","","learning/Slide66.JPG","null","","","","","",""
"html-keyboard-response","203","392893","0.0-5.0-2.65","LF","8k7ujzqkju","1280","720","0","1","0","5e8b2e599abd417d9512a877","","null","","","learningBlock1","","","","<div style=""font-size:60px;""> </div>","null","LF","learning/Slide66.JPG","This is a dep:","","",""
"html-keyboard-response","204","394895","0.0-5.0-0.66","LF","8k7ujzqkju","1280","720","0","1","0","5e8b2e599abd417d9512a877","","null","","","learningBlock1","","","","This is a tob:","null","","","","","",""
"image-keyboard-response","205","396895","0.0-5.0-1.66","LF","8k7ujzqkju","1280","720","0","1","0","5e8b2e599abd417d9512a877","","null","","","","","","","learning/Slide67.JPG","null","","","","","",""
"html-keyboard-response","206","398888","0.0-5.0-2.66","LF","8k7ujzqkju","1280","720","0","1","0","5e8b2e599abd417d9512a877","","null","","","learningBlock1","","","","<div style=""font-size:60px;""> </div>","null","LF","learning/Slide67.JPG","This is a tob:","","",""
"html-keyboard-response","207","400898","0.0-5.0-0.67","LF","8k7ujzqkju","1280","720","0","1","0","5e8b2e599abd417d9512a877","","null","","","learningBlock1","","","","This is a wug:","null","","","","","",""
"image-keyboard-response","208","402897","0.0-5.0-1.67","LF","8k7ujzqkju","1280","720","0","1","0","5e8b2e599abd417d9512a877","","null","","","","","","","learning/Slide68.JPG","null","","","","","",""
"html-keyboard-response","209","404889","0.0-5.0-2.67","LF","8k7ujzqkju","1280","720","0","1","0","5e8b2e599abd417d9512a877","","null","","","learningBlock1","","","","<div style=""font-size:60px;""> </div>","null","LF","learning/Slide68.JPG","This is a wug:","","",""
"html-keyboard-response","210","406891","0.0-5.0-0.68","LF","8k7ujzqkju","1280","720","0","1","0","5e8b2e599abd417d9512a877","","null","","","learningBlock1","","","","This is a tob:","null","","","","","",""
"image-keyboard-response","211","408888","0.0-5.0-1.68","LF","8k7ujzqkju","1280","720","0","1","0","5e8b2e599abd417d9512a877","","null","","","","","","","learning/Slide69.JPG","null","","","","","",""
"html-keyboard-response","212","410897","0.0-5.0-2.68","LF","8k7ujzqkju","1280","720","0","1","0","5e8b2e599abd417d9512a877","","null","","","learningBlock1","","","","<div style=""font-size:60px;""> </div>","null","LF","learning/Slide69.JPG","This is a tob:","","",""
"html-keyboard-response","213","412891","0.0-5.0-0.69","LF","8k7ujzqkju","1280","720","0","1","0","5e8b2e599abd417d9512a877","","null","","","learningBlock1","","","","This is a dep:","null","","","","","",""
"image-keyboard-response","214","413774","0.0-5.0-1.69","LF","8k7ujzqkju","1280","720","0","1","0","5e8b2e599abd417d9512a877","","null","","","","","","","learning/Slide70.JPG","null","","","","","",""
"html-keyboard-response","215","414778","0.0-5.0-2.69","LF","8k7ujzqkju","1280","720","0","1","0","5e8b2e599abd417d9512a877","","null","","","learningBlock1","","","","<div style=""font-size:60px;""> </div>","null","LF","learning/Slide70.JPG","This is a dep:","","",""
"html-keyboard-response","216","415788","0.0-5.0-0.70","LF","8k7ujzqkju","1280","720","0","1","0","5e8b2e599abd417d9512a877","","null","","","learningBlock1","","","","This is a wug:","null","","","","","",""
"image-keyboard-response","217","416121","0.0-5.0-1.70","LF","8k7ujzqkju","1280","720","0","1","0","5e8b2e599abd417d9512a877","","null","","","","","","","learning/Slide71.JPG","null","","","","","",""
"html-keyboard-response","218","417133","0.0-5.0-2.70","LF","8k7ujzqkju","1280","720","0","1","0","5e8b2e599abd417d9512a877","","null","","","learningBlock1","","","","<div style=""font-size:60px;""> </div>","null","LF","learning/Slide71.JPG","This is a wug:","","",""
"html-keyboard-response","219","418144","0.0-5.0-0.71","LF","8k7ujzqkju","1280","720","0","1","0","5e8b2e599abd417d9512a877","","null","","","learningBlock1","","","","This is a bim:","null","","","","","",""
"image-keyboard-response","220","418476","0.0-5.0-1.71","LF","8k7ujzqkju","1280","720","0","1","0","5e8b2e599abd417d9512a877","","null","","","","","","","learning/Slide72.JPG","null","","","","","",""
"html-keyboard-response","221","419479","0.0-5.0-2.71","LF","8k7ujzqkju","1280","720","0","1","0","5e8b2e599abd417d9512a877","","null","","","learningBlock1","","","","<div style=""font-size:60px;""> </div>","null","LF","learning/Slide72.JPG","This is a bim:","","",""
"html-keyboard-response","222","420496","0.0-5.0-0.72","LF","8k7ujzqkju","1280","720","0","1","0","5e8b2e599abd417d9512a877","","null","","","learningBlock1","","","","This is a wug:","null","","","","","",""
"image-keyboard-response","223","420845","0.0-5.0-1.72","LF","8k7ujzqkju","1280","720","0","1","0","5e8b2e599abd417d9512a877","","null","","","","","","","learning/Slide73.JPG","null","","","","","",""
"html-keyboard-response","224","421853","0.0-5.0-2.72","LF","8k7ujzqkju","1280","720","0","1","0","5e8b2e599abd417d9512a877","","null","","","learningBlock1","","","","<div style=""font-size:60px;""> </div>","null","LF","learning/Slide73.JPG","This is a wug:","","",""
"html-keyboard-response","225","422869","0.0-5.0-0.73","LF","8k7ujzqkju","1280","720","0","1","0","5e8b2e599abd417d9512a877","","null","","","learningBlock1","","","","This is a dep:","null","","","","","",""
"image-keyboard-response","226","423202","0.0-5.0-1.73","LF","8k7ujzqkju","1280","720","0","1","0","5e8b2e599abd417d9512a877","","null","","","","","","","learning/Slide74.JPG","null","","","","","",""
"html-keyboard-response","227","424216","0.0-5.0-2.73","LF","8k7ujzqkju","1280","720","0","1","0","5e8b2e599abd417d9512a877","","null","","","learningBlock1","","","","<div style=""font-size:60px;""> </div>","null","LF","learning/Slide74.JPG","This is a dep:","","",""
"html-keyboard-response","228","425226","0.0-5.0-0.74","LF","8k7ujzqkju","1280","720","0","1","0","5e8b2e599abd417d9512a877","","null","","","learningBlock1","","","","This is a tob:","null","","","","","",""
"image-keyboard-response","229","425559","0.0-5.0-1.74","LF","8k7ujzqkju","1280","720","0","1","0","5e8b2e599abd417d9512a877","","null","","","","","","","learning/Slide75.JPG","null","","","","","",""
"html-keyboard-response","230","426564","0.0-5.0-2.74","LF","8k7ujzqkju","1280","720","0","1","0","5e8b2e599abd417d9512a877","","null","","","learningBlock1","","","","<div style=""font-size:60px;""> </div>","null","LF","learning/Slide75.JPG","This is a tob:","","",""
"html-keyboard-response","231","427567","0.0-5.0-0.75","LF","8k7ujzqkju","1280","720","0","1","0","5e8b2e599abd417d9512a877","","null","","","learningBlock1","","","","This is a bim:","null","","","","","",""
"image-keyboard-response","232","427911","0.0-5.0-1.75","LF","8k7ujzqkju","1280","720","0","1","0","5e8b2e599abd417d9512a877","","null","","","","","","","learning/Slide76.JPG","null","","","","","",""
"html-keyboard-response","233","428916","0.0-5.0-2.75","LF","8k7ujzqkju","1280","720","0","1","0","5e8b2e599abd417d9512a877","","null","","","learningBlock1","","","","<div style=""font-size:60px;""> </div>","null","LF","learning/Slide76.JPG","This is a bim:","","",""
"html-keyboard-response","234","429926","0.0-5.0-0.76","LF","8k7ujzqkju","1280","720","0","1","0","5e8b2e599abd417d9512a877","","null","","","learningBlock1","","","","This is a tob:","null","","","","","",""
"image-keyboard-response","235","430260","0.0-5.0-1.76","LF","8k7ujzqkju","1280","720","0","1","0","5e8b2e599abd417d9512a877","","null","","","","","","","learning/Slide77.JPG","null","","","","","",""
"html-keyboard-response","236","431274","0.0-5.0-2.76","LF","8k7ujzqkju","1280","720","0","1","0","5e8b2e599abd417d9512a877","","null","","","learningBlock1","","","","<div style=""font-size:60px;""> </div>","null","LF","learning/Slide77.JPG","This is a tob:","","",""
"html-keyboard-response","237","432290","0.0-5.0-0.77","LF","8k7ujzqkju","1280","720","0","1","0","5e8b2e599abd417d9512a877","","null","","","learningBlock1","","","","This is a wug:","null","","","","","",""
"image-keyboard-response","238","432622","0.0-5.0-1.77","LF","8k7ujzqkju","1280","720","0","1","0","5e8b2e599abd417d9512a877","","null","","","","","","","learning/Slide78.JPG","null","","","","","",""
"html-keyboard-response","239","433633","0.0-5.0-2.77","LF","8k7ujzqkju","1280","720","0","1","0","5e8b2e599abd417d9512a877","","null","","","learningBlock1","","","","<div style=""font-size:60px;""> </div>","null","LF","learning/Slide78.JPG","This is a wug:","","",""
"html-keyboard-response","240","434641","0.0-5.0-0.78","LF","8k7ujzqkju","1280","720","0","1","0","5e8b2e599abd417d9512a877","","null","","","learningBlock1","","","","This is a bim:","null","","","","","",""
"image-keyboard-response","241","434980","0.0-5.0-1.78","LF","8k7ujzqkju","1280","720","0","1","0","5e8b2e599abd417d9512a877","","null","","","","","","","learning/Slide79.JPG","null","","","","","",""
"html-keyboard-response","242","435985","0.0-5.0-2.78","LF","8k7ujzqkju","1280","720","0","1","0","5e8b2e599abd417d9512a877","","null","","","learningBlock1","","","","<div style=""font-size:60px;""> </div>","null","LF","learning/Slide79.JPG","This is a bim:","","",""
"html-keyboard-response","243","436987","0.0-5.0-0.79","LF","8k7ujzqkju","1280","720","0","1","0","5e8b2e599abd417d9512a877","","null","","","learningBlock1","","","","This is a tob:","null","","","","","",""
"image-keyboard-response","244","437316","0.0-5.0-1.79","LF","8k7ujzqkju","1280","720","0","1","0","5e8b2e599abd417d9512a877","","null","","","","","","","learning/Slide80.JPG","null","","","","","",""
"html-keyboard-response","245","438320","0.0-5.0-2.79","LF","8k7ujzqkju","1280","720","0","1","0","5e8b2e599abd417d9512a877","","null","","","learningBlock1","","","","<div style=""font-size:60px;""> </div>","null","LF","learning/Slide80.JPG","This is a tob:","","",""
"instructions","246","447617","0.0-6.0","LF","8k7ujzqkju","1280","720","0","1","0","5e8b2e599abd417d9512a877","","NA","","[{""page_index"":0,""viewing_time"":9296.519999974407}]","instructions","","","","","","","","","","",""
"html-keyboard-response","247","448625","0.0-7.0-0.0","LF","8k7ujzqkju","1280","720","0","1","0","5e8b2e599abd417d9512a877","","null","","","learningBlock2","","","","This is a wug:","null","","","","","",""
"image-keyboard-response","248","448958","0.0-7.0-1.0","LF","8k7ujzqkju","1280","720","0","1","0","5e8b2e599abd417d9512a877","","null","","","","","","","learning/Slide81.JPG","null","","","","","",""
"html-keyboard-response","249","449973","0.0-7.0-2.0","LF","8k7ujzqkju","1280","720","0","1","0","5e8b2e599abd417d9512a877","","null","","","learningBlock2","","","","<div style=""font-size:60px;""> </div>","null","LF","learning/Slide81.JPG","This is a wug:","","",""
"html-keyboard-response","250","450987","0.0-7.0-0.1","LF","8k7ujzqkju","1280","720","0","1","0","5e8b2e599abd417d9512a877","","null","","","learningBlock2","","","","This is a bim:","null","","","","","",""
"image-keyboard-response","251","451325","0.0-7.0-1.1","LF","8k7ujzqkju","1280","720","0","1","0","5e8b2e599abd417d9512a877","","null","","","","","","","learning/Slide82.JPG","null","","","","","",""
"html-keyboard-response","252","452894","0.0-7.0-2.1","LF","8k7ujzqkju","1280","720","0","1","0","5e8b2e599abd417d9512a877","","null","","","learningBlock2","","","","<div style=""font-size:60px;""> </div>","null","LF","learning/Slide82.JPG","This is a bim:","","",""
"html-keyboard-response","253","454896","0.0-7.0-0.2","LF","8k7ujzqkju","1280","720","0","1","0","5e8b2e599abd417d9512a877","","null","","","learningBlock2","","","","This is a wug:","null","","","","","",""
"image-keyboard-response","254","456889","0.0-7.0-1.2","LF","8k7ujzqkju","1280","720","0","1","0","5e8b2e599abd417d9512a877","","null","","","","","","","learning/Slide83.JPG","null","","","","","",""
"html-keyboard-response","255","458910","0.0-7.0-2.2","LF","8k7ujzqkju","1280","720","0","1","0","5e8b2e599abd417d9512a877","","null","","","learningBlock2","","","","<div style=""font-size:60px;""> </div>","null","LF","learning/Slide83.JPG","This is a wug:","","",""
"html-keyboard-response","256","460896","0.0-7.0-0.3","LF","8k7ujzqkju","1280","720","0","1","0","5e8b2e599abd417d9512a877","","null","","","learningBlock2","","","","This is a dep:","null","","","","","",""
"image-keyboard-response","257","462899","0.0-7.0-1.3","LF","8k7ujzqkju","1280","720","0","1","0","5e8b2e599abd417d9512a877","","null","","","","","","","learning/Slide84.JPG","null","","","","","",""
"html-keyboard-response","258","464897","0.0-7.0-2.3","LF","8k7ujzqkju","1280","720","0","1","0","5e8b2e599abd417d9512a877","","null","","","learningBlock2","","","","<div style=""font-size:60px;""> </div>","null","LF","learning/Slide84.JPG","This is a dep:","","",""
"html-keyboard-response","259","465908","0.0-7.0-0.4","LF","8k7ujzqkju","1280","720","0","1","0","5e8b2e599abd417d9512a877","","null","","","learningBlock2","","","","This is a bim:","null","","","","","",""
"image-keyboard-response","260","466241","0.0-7.0-1.4","LF","8k7ujzqkju","1280","720","0","1","0","5e8b2e599abd417d9512a877","","null","","","","","","","learning/Slide85.JPG","null","","","","","",""
"html-keyboard-response","261","467244","0.0-7.0-2.4","LF","8k7ujzqkju","1280","720","0","1","0","5e8b2e599abd417d9512a877","","null","","","learningBlock2","","","","<div style=""font-size:60px;""> </div>","null","LF","learning/Slide85.JPG","This is a bim:","","",""
"html-keyboard-response","262","468246","0.0-7.0-0.5","LF","8k7ujzqkju","1280","720","0","1","0","5e8b2e599abd417d9512a877","","null","","","learningBlock2","","","","This is a tob:","null","","","","","",""
"image-keyboard-response","263","468575","0.0-7.0-1.5","LF","8k7ujzqkju","1280","720","0","1","0","5e8b2e599abd417d9512a877","","null","","","","","","","learning/Slide86.JPG","null","","","","","",""
"html-keyboard-response","264","469590","0.0-7.0-2.5","LF","8k7ujzqkju","1280","720","0","1","0","5e8b2e599abd417d9512a877","","null","","","learningBlock2","","","","<div style=""font-size:60px;""> </div>","null","LF","learning/Slide86.JPG","This is a tob:","","",""
"html-keyboard-response","265","470600","0.0-7.0-0.6","LF","8k7ujzqkju","1280","720","0","1","0","5e8b2e599abd417d9512a877","","null","","","learningBlock2","","","","This is a wug:","null","","","","","",""
"image-keyboard-response","266","470941","0.0-7.0-1.6","LF","8k7ujzqkju","1280","720","0","1","0","5e8b2e599abd417d9512a877","","null","","","","","","","learning/Slide87.JPG","null","","","","","",""
"html-keyboard-response","267","471945","0.0-7.0-2.6","LF","8k7ujzqkju","1280","720","0","1","0","5e8b2e599abd417d9512a877","","null","","","learningBlock2","","","","<div style=""font-size:60px;""> </div>","null","LF","learning/Slide87.JPG","This is a wug:","","",""
"html-keyboard-response","268","472948","0.0-7.0-0.7","LF","8k7ujzqkju","1280","720","0","1","0","5e8b2e599abd417d9512a877","","null","","","learningBlock2","","","","This is a tob:","null","","","","","",""
"image-keyboard-response","269","473286","0.0-7.0-1.7","LF","8k7ujzqkju","1280","720","0","1","0","5e8b2e599abd417d9512a877","","null","","","","","","","learning/Slide88.JPG","null","","","","","",""
"html-keyboard-response","270","474893","0.0-7.0-2.7","LF","8k7ujzqkju","1280","720","0","1","0","5e8b2e599abd417d9512a877","","null","","","learningBlock2","","","","<div style=""font-size:60px;""> </div>","null","LF","learning/Slide88.JPG","This is a tob:","","",""
"html-keyboard-response","271","476889","0.0-7.0-0.8","LF","8k7ujzqkju","1280","720","0","1","0","5e8b2e599abd417d9512a877","","null","","","learningBlock2","","","","This is a bim:","null","","","","","",""
"image-keyboard-response","272","478895","0.0-7.0-1.8","LF","8k7ujzqkju","1280","720","0","1","0","5e8b2e599abd417d9512a877","","null","","","","","","","learning/Slide89.JPG","null","","","","","",""
"html-keyboard-response","273","480897","0.0-7.0-2.8","LF","8k7ujzqkju","1280","720","0","1","0","5e8b2e599abd417d9512a877","","null","","","learningBlock2","","","","<div style=""font-size:60px;""> </div>","null","LF","learning/Slide89.JPG","This is a bim:","","",""
"html-keyboard-response","274","482283","0.0-7.0-0.9","LF","8k7ujzqkju","1280","720","0","1","0","5e8b2e599abd417d9512a877","","null","","","learningBlock2","","","","This is a dep:","null","","","","","",""
"image-keyboard-response","275","482615","0.0-7.0-1.9","LF","8k7ujzqkju","1280","720","0","1","0","5e8b2e599abd417d9512a877","","null","","","","","","","learning/Slide90.JPG","null","","","","","",""
"html-keyboard-response","276","483889","0.0-7.0-2.9","LF","8k7ujzqkju","1280","720","0","1","0","5e8b2e599abd417d9512a877","","null","","","learningBlock2","","","","<div style=""font-size:60px;""> </div>","null","LF","learning/Slide90.JPG","This is a dep:","","",""
"html-keyboard-response","277","485903","0.0-7.0-0.10","LF","8k7ujzqkju","1280","720","0","1","0","5e8b2e599abd417d9512a877","","null","","","learningBlock2","","","","This is a wug:","null","","","","","",""
"image-keyboard-response","278","487903","0.0-7.0-1.10","LF","8k7ujzqkju","1280","720","0","1","0","5e8b2e599abd417d9512a877","","null","","","","","","","learning/Slide91.JPG","null","","","","","",""
"html-keyboard-response","279","489897","0.0-7.0-2.10","LF","8k7ujzqkju","1280","720","0","1","0","5e8b2e599abd417d9512a877","","null","","","learningBlock2","","","","<div style=""font-size:60px;""> </div>","null","LF","learning/Slide91.JPG","This is a wug:","","",""
"html-keyboard-response","280","491888","0.0-7.0-0.11","LF","8k7ujzqkju","1280","720","0","1","0","5e8b2e599abd417d9512a877","","null","","","learningBlock2","","","","This is a tob:","null","","","","","",""
"image-keyboard-response","281","493888","0.0-7.0-1.11","LF","8k7ujzqkju","1280","720","0","1","0","5e8b2e599abd417d9512a877","","null","","","","","","","learning/Slide92.JPG","null","","","","","",""
"html-keyboard-response","282","496071","0.0-7.0-2.11","LF","8k7ujzqkju","1280","720","0","1","0","5e8b2e599abd417d9512a877","","null","","","learningBlock2","","","","<div style=""font-size:60px;""> </div>","null","LF","learning/Slide92.JPG","This is a tob:","","",""
"html-keyboard-response","283","497894","0.0-7.0-0.12","LF","8k7ujzqkju","1280","720","0","1","0","5e8b2e599abd417d9512a877","","null","","","learningBlock2","","","","This is a bim:","null","","","","","",""
"image-keyboard-response","284","499894","0.0-7.0-1.12","LF","8k7ujzqkju","1280","720","0","1","0","5e8b2e599abd417d9512a877","","null","","","","","","","learning/Slide93.JPG","null","","","","","",""
"html-keyboard-response","285","500899","0.0-7.0-2.12","LF","8k7ujzqkju","1280","720","0","1","0","5e8b2e599abd417d9512a877","","null","","","learningBlock2","","","","<div style=""font-size:60px;""> </div>","null","LF","learning/Slide93.JPG","This is a bim:","","",""
"html-keyboard-response","286","501903","0.0-7.0-0.13","LF","8k7ujzqkju","1280","720","0","1","0","5e8b2e599abd417d9512a877","","null","","","learningBlock2","","","","This is a tob:","null","","","","","",""
"image-keyboard-response","287","502246","0.0-7.0-1.13","LF","8k7ujzqkju","1280","720","0","1","0","5e8b2e599abd417d9512a877","","null","","","","","","","learning/Slide94.JPG","null","","","","","",""
"html-keyboard-response","288","503260","0.0-7.0-2.13","LF","8k7ujzqkju","1280","720","0","1","0","5e8b2e599abd417d9512a877","","null","","","learningBlock2","","","","<div style=""font-size:60px;""> </div>","null","LF","learning/Slide94.JPG","This is a tob:","","",""
"html-keyboard-response","289","504272","0.0-7.0-0.14","LF","8k7ujzqkju","1280","720","0","1","0","5e8b2e599abd417d9512a877","","null","","","learningBlock2","","","","This is a wug:","null","","","","","",""
"image-keyboard-response","290","504602","0.0-7.0-1.14","LF","8k7ujzqkju","1280","720","0","1","0","5e8b2e599abd417d9512a877","","null","","","","","","","learning/Slide95.JPG","null","","","","","",""
"html-keyboard-response","291","505619","0.0-7.0-2.14","LF","8k7ujzqkju","1280","720","0","1","0","5e8b2e599abd417d9512a877","","null","","","learningBlock2","","","","<div style=""font-size:60px;""> </div>","null","LF","learning/Slide95.JPG","This is a wug:","","",""
"html-keyboard-response","292","506633","0.0-7.0-0.15","LF","8k7ujzqkju","1280","720","0","1","0","5e8b2e599abd417d9512a877","","null","","","learningBlock2","","","","This is a tob:","null","","","","","",""
"image-keyboard-response","293","506962","0.0-7.0-1.15","LF","8k7ujzqkju","1280","720","0","1","0","5e8b2e599abd417d9512a877","","null","","","","","","","learning/Slide96.JPG","null","","","","","",""
"html-keyboard-response","294","507964","0.0-7.0-2.15","LF","8k7ujzqkju","1280","720","0","1","0","5e8b2e599abd417d9512a877","","null","","","learningBlock2","","","","<div style=""font-size:60px;""> </div>","null","LF","learning/Slide96.JPG","This is a tob:","","",""
"html-keyboard-response","295","508979","0.0-7.0-0.16","LF","8k7ujzqkju","1280","720","0","1","0","5e8b2e599abd417d9512a877","","null","","","learningBlock2","","","","This is a dep:","null","","","","","",""
"image-keyboard-response","296","509307","0.0-7.0-1.16","LF","8k7ujzqkju","1280","720","0","1","0","5e8b2e599abd417d9512a877","","null","","","","","","","learning/Slide97.JPG","null","","","","","",""
"html-keyboard-response","297","510320","0.0-7.0-2.16","LF","8k7ujzqkju","1280","720","0","1","0","5e8b2e599abd417d9512a877","","null","","","learningBlock2","","","","<div style=""font-size:60px;""> </div>","null","LF","learning/Slide97.JPG","This is a dep:","","",""
"html-keyboard-response","298","511332","0.0-7.0-0.17","LF","8k7ujzqkju","1280","720","0","1","0","5e8b2e599abd417d9512a877","","null","","","learningBlock2","","","","This is a bim:","null","","","","","",""
"image-keyboard-response","299","511663","0.0-7.0-1.17","LF","8k7ujzqkju","1280","720","0","1","0","5e8b2e599abd417d9512a877","","null","","","","","","","learning/Slide98.JPG","null","","","","","",""
"html-keyboard-response","300","512671","0.0-7.0-2.17","LF","8k7ujzqkju","1280","720","0","1","0","5e8b2e599abd417d9512a877","","null","","","learningBlock2","","","","<div style=""font-size:60px;""> </div>","null","LF","learning/Slide98.JPG","This is a bim:","","",""
"html-keyboard-response","301","513679","0.0-7.0-0.18","LF","8k7ujzqkju","1280","720","0","1","0","5e8b2e599abd417d9512a877","","null","","","learningBlock2","","","","This is a dep:","null","","","","","",""
"image-keyboard-response","302","514009","0.0-7.0-1.18","LF","8k7ujzqkju","1280","720","0","1","0","5e8b2e599abd417d9512a877","","null","","","","","","","learning/Slide99.JPG","null","","","","","",""
"html-keyboard-response","303","515898","0.0-7.0-2.18","LF","8k7ujzqkju","1280","720","0","1","0","5e8b2e599abd417d9512a877","","null","","","learningBlock2","","","","<div style=""font-size:60px;""> </div>","null","LF","learning/Slide99.JPG","This is a dep:","","",""
"html-keyboard-response","304","517893","0.0-7.0-0.19","LF","8k7ujzqkju","1280","720","0","1","0","5e8b2e599abd417d9512a877","","null","","","learningBlock2","","","","This is a bim:","null","","","","","",""
"image-keyboard-response","305","519898","0.0-7.0-1.19","LF","8k7ujzqkju","1280","720","0","1","0","5e8b2e599abd417d9512a877","","null","","","","","","","learning/Slide100.JPG","null","","","","","",""
"html-keyboard-response","306","521895","0.0-7.0-2.19","LF","8k7ujzqkju","1280","720","0","1","0","5e8b2e599abd417d9512a877","","null","","","learningBlock2","","","","<div style=""font-size:60px;""> </div>","null","LF","learning/Slide100.JPG","This is a bim:","","",""
"html-keyboard-response","307","523069","0.0-7.0-0.20","LF","8k7ujzqkju","1280","720","0","1","0","5e8b2e599abd417d9512a877","","null","","","learningBlock2","","","","This is a tob:","null","","","","","",""
"image-keyboard-response","308","523427","0.0-7.0-1.20","LF","8k7ujzqkju","1280","720","0","1","0","5e8b2e599abd417d9512a877","","null","","","","","","","learning/Slide101.JPG","null","","","","","",""
"html-keyboard-response","309","524443","0.0-7.0-2.20","LF","8k7ujzqkju","1280","720","0","1","0","5e8b2e599abd417d9512a877","","null","","","learningBlock2","","","","<div style=""font-size:60px;""> </div>","null","LF","learning/Slide101.JPG","This is a tob:","","",""
"html-keyboard-response","310","525446","0.0-7.0-0.21","LF","8k7ujzqkju","1280","720","0","1","0","5e8b2e599abd417d9512a877","","null","","","learningBlock2","","","","This is a bim:","null","","","","","",""
"image-keyboard-response","311","525777","0.0-7.0-1.21","LF","8k7ujzqkju","1280","720","0","1","0","5e8b2e599abd417d9512a877","","null","","","","","","","learning/Slide102.JPG","null","","","","","",""
"html-keyboard-response","312","526782","0.0-7.0-2.21","LF","8k7ujzqkju","1280","720","0","1","0","5e8b2e599abd417d9512a877","","null","","","learningBlock2","","","","<div style=""font-size:60px;""> </div>","null","LF","learning/Slide102.JPG","This is a bim:","","",""
"html-keyboard-response","313","527798","0.0-7.0-0.22","LF","8k7ujzqkju","1280","720","0","1","0","5e8b2e599abd417d9512a877","","null","","","learningBlock2","","","","This is a dep:","null","","","","","",""
"image-keyboard-response","314","528144","0.0-7.0-1.22","LF","8k7ujzqkju","1280","720","0","1","0","5e8b2e599abd417d9512a877","","null","","","","","","","learning/Slide103.JPG","null","","","","","",""
"html-keyboard-response","315","529147","0.0-7.0-2.22","LF","8k7ujzqkju","1280","720","0","1","0","5e8b2e599abd417d9512a877","","null","","","learningBlock2","","","","<div style=""font-size:60px;""> </div>","null","LF","learning/Slide103.JPG","This is a dep:","","",""
"html-keyboard-response","316","530902","0.0-7.0-0.23","LF","8k7ujzqkju","1280","720","0","1","0","5e8b2e599abd417d9512a877","","null","","","learningBlock2","","","","This is a tob:","null","","","","","",""
"image-keyboard-response","317","532889","0.0-7.0-1.23","LF","8k7ujzqkju","1280","720","0","1","0","5e8b2e599abd417d9512a877","","null","","","","","","","learning/Slide104.JPG","null","","","","","",""
"html-keyboard-response","318","534901","0.0-7.0-2.23","LF","8k7ujzqkju","1280","720","0","1","0","5e8b2e599abd417d9512a877","","null","","","learningBlock2","","","","<div style=""font-size:60px;""> </div>","null","LF","learning/Slide104.JPG","This is a tob:","","",""
"html-keyboard-response","319","536890","0.0-7.0-0.24","LF","8k7ujzqkju","1280","720","0","1","0","5e8b2e599abd417d9512a877","","null","","","learningBlock2","","","","This is a dep:","null","","","","","",""
"image-keyboard-response","320","538890","0.0-7.0-1.24","LF","8k7ujzqkju","1280","720","0","1","0","5e8b2e599abd417d9512a877","","null","","","","","","","learning/Slide105.JPG","null","","","","","",""
"html-keyboard-response","321","540887","0.0-7.0-2.24","LF","8k7ujzqkju","1280","720","0","1","0","5e8b2e599abd417d9512a877","","null","","","learningBlock2","","","","<div style=""font-size:60px;""> </div>","null","LF","learning/Slide105.JPG","This is a dep:","","",""
"html-keyboard-response","322","542899","0.0-7.0-0.25","LF","8k7ujzqkju","1280","720","0","1","0","5e8b2e599abd417d9512a877","","null","","","learningBlock2","","","","This is a wug:","null","","","","","",""
"image-keyboard-response","323","544898","0.0-7.0-1.25","LF","8k7ujzqkju","1280","720","0","1","0","5e8b2e599abd417d9512a877","","null","","","","","","","learning/Slide106.JPG","null","","","","","",""
"html-keyboard-response","324","546888","0.0-7.0-2.25","LF","8k7ujzqkju","1280","720","0","1","0","5e8b2e599abd417d9512a877","","null","","","learningBlock2","","","","<div style=""font-size:60px;""> </div>","null","LF","learning/Slide106.JPG","This is a wug:","","",""
"html-keyboard-response","325","548887","0.0-7.0-0.26","LF","8k7ujzqkju","1280","720","0","1","0","5e8b2e599abd417d9512a877","","null","","","learningBlock2","","","","This is a bim:","null","","","","","",""
"image-keyboard-response","326","550901","0.0-7.0-1.26","LF","8k7ujzqkju","1280","720","0","1","0","5e8b2e599abd417d9512a877","","null","","","","","","","learning/Slide107.JPG","null","","","","","",""
"html-keyboard-response","327","552887","0.0-7.0-2.26","LF","8k7ujzqkju","1280","720","0","1","0","5e8b2e599abd417d9512a877","","null","","","learningBlock2","","","","<div style=""font-size:60px;""> </div>","null","LF","learning/Slide107.JPG","This is a bim:","","",""
"html-keyboard-response","328","554892","0.0-7.0-0.27","LF","8k7ujzqkju","1280","720","0","1","0","5e8b2e599abd417d9512a877","","null","","","learningBlock2","","","","This is a dep:","null","","","","","",""
"image-keyboard-response","329","555744","0.0-7.0-1.27","LF","8k7ujzqkju","1280","720","0","1","0","5e8b2e599abd417d9512a877","","null","","","","","","","learning/Slide108.JPG","null","","","","","",""
"html-keyboard-response","330","556748","0.0-7.0-2.27","LF","8k7ujzqkju","1280","720","0","1","0","5e8b2e599abd417d9512a877","","null","","","learningBlock2","","","","<div style=""font-size:60px;""> </div>","null","LF","learning/Slide108.JPG","This is a dep:","","",""
"html-keyboard-response","331","557895","0.0-7.0-0.28","LF","8k7ujzqkju","1280","720","0","1","0","5e8b2e599abd417d9512a877","","null","","","learningBlock2","","","","This is a wug:","null","","","","","",""
"image-keyboard-response","332","559897","0.0-7.0-1.28","LF","8k7ujzqkju","1280","720","0","1","0","5e8b2e599abd417d9512a877","","null","","","","","","","learning/Slide109.JPG","null","","","","","",""
"html-keyboard-response","333","561903","0.0-7.0-2.28","LF","8k7ujzqkju","1280","720","0","1","0","5e8b2e599abd417d9512a877","","null","","","learningBlock2","","","","<div style=""font-size:60px;""> </div>","null","LF","learning/Slide109.JPG","This is a wug:","","",""
"html-keyboard-response","334","563891","0.0-7.0-0.29","LF","8k7ujzqkju","1280","720","0","1","0","5e8b2e599abd417d9512a877","","null","","","learningBlock2","","","","This is a bim:","null","","","","","",""
"image-keyboard-response","335","565896","0.0-7.0-1.29","LF","8k7ujzqkju","1280","720","0","1","0","5e8b2e599abd417d9512a877","","null","","","","","","","learning/Slide110.JPG","null","","","","","",""
"html-keyboard-response","336","567920","0.0-7.0-2.29","LF","8k7ujzqkju","1280","720","0","1","0","5e8b2e599abd417d9512a877","","null","","","learningBlock2","","","","<div style=""font-size:60px;""> </div>","null","LF","learning/Slide110.JPG","This is a bim:","","",""
"html-keyboard-response","337","569903","0.0-7.0-0.30","LF","8k7ujzqkju","1280","720","0","1","0","5e8b2e599abd417d9512a877","","null","","","learningBlock2","","","","This is a tob:","null","","","","","",""
"image-keyboard-response","338","571890","0.0-7.0-1.30","LF","8k7ujzqkju","1280","720","0","1","0","5e8b2e599abd417d9512a877","","null","","","","","","","learning/Slide111.JPG","null","","","","","",""
"html-keyboard-response","339","573892","0.0-7.0-2.30","LF","8k7ujzqkju","1280","720","0","1","0","5e8b2e599abd417d9512a877","","null","","","learningBlock2","","","","<div style=""font-size:60px;""> </div>","null","LF","learning/Slide111.JPG","This is a tob:","","",""
"html-keyboard-response","340","575892","0.0-7.0-0.31","LF","8k7ujzqkju","1280","720","0","1","0","5e8b2e599abd417d9512a877","","null","","","learningBlock2","","","","This is a wug:","null","","","","","",""
"image-keyboard-response","341","577895","0.0-7.0-1.31","LF","8k7ujzqkju","1280","720","0","1","0","5e8b2e599abd417d9512a877","","null","","","","","","","learning/Slide112.JPG","null","","","","","",""
"html-keyboard-response","342","579888","0.0-7.0-2.31","LF","8k7ujzqkju","1280","720","0","1","0","5e8b2e599abd417d9512a877","","null","","","learningBlock2","","","","<div style=""font-size:60px;""> </div>","null","LF","learning/Slide112.JPG","This is a wug:","","",""
"html-keyboard-response","343","581900","0.0-7.0-0.32","LF","8k7ujzqkju","1280","720","0","1","0","5e8b2e599abd417d9512a877","","null","","","learningBlock2","","","","This is a tob:","null","","","","","",""
"image-keyboard-response","344","583887","0.0-7.0-1.32","LF","8k7ujzqkju","1280","720","0","1","0","5e8b2e599abd417d9512a877","","null","","","","","","","learning/Slide113.JPG","null","","","","","",""
"html-keyboard-response","345","585891","0.0-7.0-2.32","LF","8k7ujzqkju","1280","720","0","1","0","5e8b2e599abd417d9512a877","","null","","","learningBlock2","","","","<div style=""font-size:60px;""> </div>","null","LF","learning/Slide113.JPG","This is a tob:","","",""
"html-keyboard-response","346","587898","0.0-7.0-0.33","LF","8k7ujzqkju","1280","720","0","1","0","5e8b2e599abd417d9512a877","","null","","","learningBlock2","","","","This is a wug:","null","","","","","",""
"image-keyboard-response","347","589894","0.0-7.0-1.33","LF","8k7ujzqkju","1280","720","0","1","0","5e8b2e599abd417d9512a877","","null","","","","","","","learning/Slide114.JPG","null","","","","","",""
"html-keyboard-response","348","591899","0.0-7.0-2.33","LF","8k7ujzqkju","1280","720","0","1","0","5e8b2e599abd417d9512a877","","null","","","learningBlock2","","","","<div style=""font-size:60px;""> </div>","null","LF","learning/Slide114.JPG","This is a wug:","","",""
"html-keyboard-response","349","593895","0.0-7.0-0.34","LF","8k7ujzqkju","1280","720","0","1","0","5e8b2e599abd417d9512a877","","null","","","learningBlock2","","","","This is a bim:","null","","","","","",""
"image-keyboard-response","350","595898","0.0-7.0-1.34","LF","8k7ujzqkju","1280","720","0","1","0","5e8b2e599abd417d9512a877","","null","","","","","","","learning/Slide115.JPG","null","","","","","",""
"html-keyboard-response","351","597888","0.0-7.0-2.34","LF","8k7ujzqkju","1280","720","0","1","0","5e8b2e599abd417d9512a877","","null","","","learningBlock2","","","","<div style=""font-size:60px;""> </div>","null","LF","learning/Slide115.JPG","This is a bim:","","",""
"html-keyboard-response","352","599899","0.0-7.0-0.35","LF","8k7ujzqkju","1280","720","0","1","0","5e8b2e599abd417d9512a877","","null","","","learningBlock2","","","","This is a dep:","null","","","","","",""
"image-keyboard-response","353","601887","0.0-7.0-1.35","LF","8k7ujzqkju","1280","720","0","1","0","5e8b2e599abd417d9512a877","","null","","","","","","","learning/Slide116.JPG","null","","","","","",""
"html-keyboard-response","354","603887","0.0-7.0-2.35","LF","8k7ujzqkju","1280","720","0","1","0","5e8b2e599abd417d9512a877","","null","","","learningBlock2","","","","<div style=""font-size:60px;""> </div>","null","LF","learning/Slide116.JPG","This is a dep:","","",""
"html-keyboard-response","355","605901","0.0-7.0-0.36","LF","8k7ujzqkju","1280","720","0","1","0","5e8b2e599abd417d9512a877","","null","","","learningBlock2","","","","This is a tob:","null","","","","","",""
"image-keyboard-response","356","606430","0.0-7.0-1.36","LF","8k7ujzqkju","1280","720","0","1","0","5e8b2e599abd417d9512a877","","null","","","","","","","learning/Slide117.JPG","null","","","","","",""
"html-keyboard-response","357","607444","0.0-7.0-2.36","LF","8k7ujzqkju","1280","720","0","1","0","5e8b2e599abd417d9512a877","","null","","","learningBlock2","","","","<div style=""font-size:60px;""> </div>","null","LF","learning/Slide117.JPG","This is a tob:","","",""
"html-keyboard-response","358","608890","0.0-7.0-0.37","LF","8k7ujzqkju","1280","720","0","1","0","5e8b2e599abd417d9512a877","","null","","","learningBlock2","","","","This is a dep:","null","","","","","",""
"image-keyboard-response","359","610904","0.0-7.0-1.37","LF","8k7ujzqkju","1280","720","0","1","0","5e8b2e599abd417d9512a877","","null","","","","","","","learning/Slide118.JPG","null","","","","","",""
"html-keyboard-response","360","612891","0.0-7.0-2.37","LF","8k7ujzqkju","1280","720","0","1","0","5e8b2e599abd417d9512a877","","null","","","learningBlock2","","","","<div style=""font-size:60px;""> </div>","null","LF","learning/Slide118.JPG","This is a dep:","","",""
"html-keyboard-response","361","614887","0.0-7.0-0.38","LF","8k7ujzqkju","1280","720","0","1","0","5e8b2e599abd417d9512a877","","null","","","learningBlock2","","","","This is a wug:","null","","","","","",""
"image-keyboard-response","362","616894","0.0-7.0-1.38","LF","8k7ujzqkju","1280","720","0","1","0","5e8b2e599abd417d9512a877","","null","","","","","","","learning/Slide119.JPG","null","","","","","",""
"html-keyboard-response","363","618892","0.0-7.0-2.38","LF","8k7ujzqkju","1280","720","0","1","0","5e8b2e599abd417d9512a877","","null","","","learningBlock2","","","","<div style=""font-size:60px;""> </div>","null","LF","learning/Slide119.JPG","This is a wug:","","",""
"html-keyboard-response","364","620901","0.0-7.0-0.39","LF","8k7ujzqkju","1280","720","0","1","0","5e8b2e599abd417d9512a877","","null","","","learningBlock2","","","","This is a dep:","null","","","","","",""
"image-keyboard-response","365","622895","0.0-7.0-1.39","LF","8k7ujzqkju","1280","720","0","1","0","5e8b2e599abd417d9512a877","","null","","","","","","","learning/Slide120.JPG","null","","","","","",""
"html-keyboard-response","366","624887","0.0-7.0-2.39","LF","8k7ujzqkju","1280","720","0","1","0","5e8b2e599abd417d9512a877","","null","","","learningBlock2","","","","<div style=""font-size:60px;""> </div>","null","LF","learning/Slide120.JPG","This is a dep:","","",""
"html-keyboard-response","367","626900","0.0-7.0-0.40","LF","8k7ujzqkju","1280","720","0","1","0","5e8b2e599abd417d9512a877","","null","","","learningBlock2","","","","This is a bim:","null","","","","","",""
"image-keyboard-response","368","628898","0.0-7.0-1.40","LF","8k7ujzqkju","1280","720","0","1","0","5e8b2e599abd417d9512a877","","null","","","","","","","learning/Slide121.JPG","null","","","","","",""
"html-keyboard-response","369","630888","0.0-7.0-2.40","LF","8k7ujzqkju","1280","720","0","1","0","5e8b2e599abd417d9512a877","","null","","","learningBlock2","","","","<div style=""font-size:60px;""> </div>","null","LF","learning/Slide121.JPG","This is a bim:","","",""
"html-keyboard-response","370","632899","0.0-7.0-0.41","LF","8k7ujzqkju","1280","720","0","1","0","5e8b2e599abd417d9512a877","","null","","","learningBlock2","","","","This is a wug:","null","","","","","",""
"image-keyboard-response","371","634896","0.0-7.0-1.41","LF","8k7ujzqkju","1280","720","0","1","0","5e8b2e599abd417d9512a877","","null","","","","","","","learning/Slide122.JPG","null","","","","","",""
"html-keyboard-response","372","636888","0.0-7.0-2.41","LF","8k7ujzqkju","1280","720","0","1","0","5e8b2e599abd417d9512a877","","null","","","learningBlock2","","","","<div style=""font-size:60px;""> </div>","null","LF","learning/Slide122.JPG","This is a wug:","","",""
"html-keyboard-response","373","638902","0.0-7.0-0.42","LF","8k7ujzqkju","1280","720","0","1","0","5e8b2e599abd417d9512a877","","null","","","learningBlock2","","","","This is a bim:","null","","","","","",""
"image-keyboard-response","374","640899","0.0-7.0-1.42","LF","8k7ujzqkju","1280","720","0","1","0","5e8b2e599abd417d9512a877","","null","","","","","","","learning/Slide123.JPG","null","","","","","",""
"html-keyboard-response","375","642896","0.0-7.0-2.42","LF","8k7ujzqkju","1280","720","0","1","0","5e8b2e599abd417d9512a877","","null","","","learningBlock2","","","","<div style=""font-size:60px;""> </div>","null","LF","learning/Slide123.JPG","This is a bim:","","",""
"html-keyboard-response","376","644893","0.0-7.0-0.43","LF","8k7ujzqkju","1280","720","0","1","0","5e8b2e599abd417d9512a877","","null","","","learningBlock2","","","","This is a tob:","null","","","","","",""
"image-keyboard-response","377","646896","0.0-7.0-1.43","LF","8k7ujzqkju","1280","720","0","1","0","5e8b2e599abd417d9512a877","","null","","","","","","","learning/Slide124.JPG","null","","","","","",""
"html-keyboard-response","378","648939","0.0-7.0-2.43","LF","8k7ujzqkju","1280","720","0","1","0","5e8b2e599abd417d9512a877","","null","","","learningBlock2","","","","<div style=""font-size:60px;""> </div>","null","LF","learning/Slide124.JPG","This is a tob:","","",""
"html-keyboard-response","379","650890","0.0-7.0-0.44","LF","8k7ujzqkju","1280","720","0","1","0","5e8b2e599abd417d9512a877","","null","","","learningBlock2","","","","This is a bim:","null","","","","","",""
"image-keyboard-response","380","652893","0.0-7.0-1.44","LF","8k7ujzqkju","1280","720","0","1","0","5e8b2e599abd417d9512a877","","null","","","","","","","learning/Slide125.JPG","null","","","","","",""
"html-keyboard-response","381","654889","0.0-7.0-2.44","LF","8k7ujzqkju","1280","720","0","1","0","5e8b2e599abd417d9512a877","","null","","","learningBlock2","","","","<div style=""font-size:60px;""> </div>","null","LF","learning/Slide125.JPG","This is a bim:","","",""
"html-keyboard-response","382","656899","0.0-7.0-0.45","LF","8k7ujzqkju","1280","720","0","1","0","5e8b2e599abd417d9512a877","","null","","","learningBlock2","","","","This is a tob:","null","","","","","",""
"image-keyboard-response","383","658896","0.0-7.0-1.45","LF","8k7ujzqkju","1280","720","0","1","0","5e8b2e599abd417d9512a877","","null","","","","","","","learning/Slide126.JPG","null","","","","","",""
"html-keyboard-response","384","660900","0.0-7.0-2.45","LF","8k7ujzqkju","1280","720","0","1","0","5e8b2e599abd417d9512a877","","null","","","learningBlock2","","","","<div style=""font-size:60px;""> </div>","null","LF","learning/Slide126.JPG","This is a tob:","","",""
"html-keyboard-response","385","662887","0.0-7.0-0.46","LF","8k7ujzqkju","1280","720","0","1","0","5e8b2e599abd417d9512a877","","null","","","learningBlock2","","","","This is a dep:","null","","","","","",""
"image-keyboard-response","386","664898","0.0-7.0-1.46","LF","8k7ujzqkju","1280","720","0","1","0","5e8b2e599abd417d9512a877","","null","","","","","","","learning/Slide127.JPG","null","","","","","",""
"html-keyboard-response","387","666897","0.0-7.0-2.46","LF","8k7ujzqkju","1280","720","0","1","0","5e8b2e599abd417d9512a877","","null","","","learningBlock2","","","","<div style=""font-size:60px;""> </div>","null","LF","learning/Slide127.JPG","This is a dep:","","",""
"html-keyboard-response","388","668894","0.0-7.0-0.47","LF","8k7ujzqkju","1280","720","0","1","0","5e8b2e599abd417d9512a877","","null","","","learningBlock2","","","","This is a wug:","null","","","","","",""
"image-keyboard-response","389","670898","0.0-7.0-1.47","LF","8k7ujzqkju","1280","720","0","1","0","5e8b2e599abd417d9512a877","","null","","","","","","","learning/Slide128.JPG","null","","","","","",""
"html-keyboard-response","390","672899","0.0-7.0-2.47","LF","8k7ujzqkju","1280","720","0","1","0","5e8b2e599abd417d9512a877","","null","","","learningBlock2","","","","<div style=""font-size:60px;""> </div>","null","LF","learning/Slide128.JPG","This is a wug:","","",""
"html-keyboard-response","391","674887","0.0-7.0-0.48","LF","8k7ujzqkju","1280","720","0","1","0","5e8b2e599abd417d9512a877","","null","","","learningBlock2","","","","This is a tob:","null","","","","","",""
"image-keyboard-response","392","676899","0.0-7.0-1.48","LF","8k7ujzqkju","1280","720","0","1","0","5e8b2e599abd417d9512a877","","null","","","","","","","learning/Slide129.JPG","null","","","","","",""
"html-keyboard-response","393","678897","0.0-7.0-2.48","LF","8k7ujzqkju","1280","720","0","1","0","5e8b2e599abd417d9512a877","","null","","","learningBlock2","","","","<div style=""font-size:60px;""> </div>","null","LF","learning/Slide129.JPG","This is a tob:","","",""
"html-keyboard-response","394","680892","0.0-7.0-0.49","LF","8k7ujzqkju","1280","720","0","1","0","5e8b2e599abd417d9512a877","","null","","","learningBlock2","","","","This is a wug:","null","","","","","",""
"image-keyboard-response","395","682897","0.0-7.0-1.49","LF","8k7ujzqkju","1280","720","0","1","0","5e8b2e599abd417d9512a877","","null","","","","","","","learning/Slide130.JPG","null","","","","","",""
"html-keyboard-response","396","684898","0.0-7.0-2.49","LF","8k7ujzqkju","1280","720","0","1","0","5e8b2e599abd417d9512a877","","null","","","learningBlock2","","","","<div style=""font-size:60px;""> </div>","null","LF","learning/Slide130.JPG","This is a wug:","","",""
"html-keyboard-response","397","686897","0.0-7.0-0.50","LF","8k7ujzqkju","1280","720","0","1","0","5e8b2e599abd417d9512a877","","null","","","learningBlock2","","","","This is a bim:","null","","","","","",""
"image-keyboard-response","398","688433","0.0-7.0-1.50","LF","8k7ujzqkju","1280","720","0","1","0","5e8b2e599abd417d9512a877","","null","","","","","","","learning/Slide131.JPG","null","","","","","",""
"html-keyboard-response","399","689449","0.0-7.0-2.50","LF","8k7ujzqkju","1280","720","0","1","0","5e8b2e599abd417d9512a877","","null","","","learningBlock2","","","","<div style=""font-size:60px;""> </div>","null","LF","learning/Slide131.JPG","This is a bim:","","",""
"html-keyboard-response","400","690454","0.0-7.0-0.51","LF","8k7ujzqkju","1280","720","0","1","0","5e8b2e599abd417d9512a877","","null","","","learningBlock2","","","","This is a dep:","null","","","","","",""
"image-keyboard-response","401","690805","0.0-7.0-1.51","LF","8k7ujzqkju","1280","720","0","1","0","5e8b2e599abd417d9512a877","","null","","","","","","","learning/Slide132.JPG","null","","","","","",""
"html-keyboard-response","402","691889","0.0-7.0-2.51","LF","8k7ujzqkju","1280","720","0","1","0","5e8b2e599abd417d9512a877","","null","","","learningBlock2","","","","<div style=""font-size:60px;""> </div>","null","LF","learning/Slide132.JPG","This is a dep:","","",""
"html-keyboard-response","403","693895","0.0-7.0-0.52","LF","8k7ujzqkju","1280","720","0","1","0","5e8b2e599abd417d9512a877","","null","","","learningBlock2","","","","This is a tob:","null","","","","","",""
"image-keyboard-response","404","695900","0.0-7.0-1.52","LF","8k7ujzqkju","1280","720","0","1","0","5e8b2e599abd417d9512a877","","null","","","","","","","learning/Slide133.JPG","null","","","","","",""
"html-keyboard-response","405","697887","0.0-7.0-2.52","LF","8k7ujzqkju","1280","720","0","1","0","5e8b2e599abd417d9512a877","","null","","","learningBlock2","","","","<div style=""font-size:60px;""> </div>","null","LF","learning/Slide133.JPG","This is a tob:","","",""
"html-keyboard-response","406","699897","0.0-7.0-0.53","LF","8k7ujzqkju","1280","720","0","1","0","5e8b2e599abd417d9512a877","","null","","","learningBlock2","","","","This is a dep:","null","","","","","",""
"image-keyboard-response","407","701897","0.0-7.0-1.53","LF","8k7ujzqkju","1280","720","0","1","0","5e8b2e599abd417d9512a877","","null","","","","","","","learning/Slide134.JPG","null","","","","","",""
"html-keyboard-response","408","703894","0.0-7.0-2.53","LF","8k7ujzqkju","1280","720","0","1","0","5e8b2e599abd417d9512a877","","null","","","learningBlock2","","","","<div style=""font-size:60px;""> </div>","null","LF","learning/Slide134.JPG","This is a dep:","","",""
"html-keyboard-response","409","705897","0.0-7.0-0.54","LF","8k7ujzqkju","1280","720","0","1","0","5e8b2e599abd417d9512a877","","null","","","learningBlock2","","","","This is a tob:","null","","","","","",""
"image-keyboard-response","410","707895","0.0-7.0-1.54","LF","8k7ujzqkju","1280","720","0","1","0","5e8b2e599abd417d9512a877","","null","","","","","","","learning/Slide135.JPG","null","","","","","",""
"html-keyboard-response","411","709911","0.0-7.0-2.54","LF","8k7ujzqkju","1280","720","0","1","0","5e8b2e599abd417d9512a877","","null","","","learningBlock2","","","","<div style=""font-size:60px;""> </div>","null","LF","learning/Slide135.JPG","This is a tob:","","",""
"html-keyboard-response","412","711888","0.0-7.0-0.55","LF","8k7ujzqkju","1280","720","0","1","0","5e8b2e599abd417d9512a877","","null","","","learningBlock2","","","","This is a wug:","null","","","","","",""
"image-keyboard-response","413","713891","0.0-7.0-1.55","LF","8k7ujzqkju","1280","720","0","1","0","5e8b2e599abd417d9512a877","","null","","","","","","","learning/Slide136.JPG","null","","","","","",""
"html-keyboard-response","414","715895","0.0-7.0-2.55","LF","8k7ujzqkju","1280","720","0","1","0","5e8b2e599abd417d9512a877","","null","","","learningBlock2","","","","<div style=""font-size:60px;""> </div>","null","LF","learning/Slide136.JPG","This is a wug:","","",""
"html-keyboard-response","415","717775","0.0-7.0-0.56","LF","8k7ujzqkju","1280","720","0","1","0","5e8b2e599abd417d9512a877","","null","","","learningBlock2","","","","This is a tob:","null","","","","","",""
"image-keyboard-response","416","718125","0.0-7.0-1.56","LF","8k7ujzqkju","1280","720","0","1","0","5e8b2e599abd417d9512a877","","null","","","","","","","learning/Slide137.JPG","null","","","","","",""
"html-keyboard-response","417","719135","0.0-7.0-2.56","LF","8k7ujzqkju","1280","720","0","1","0","5e8b2e599abd417d9512a877","","null","","","learningBlock2","","","","<div style=""font-size:60px;""> </div>","null","LF","learning/Slide137.JPG","This is a tob:","","",""
"html-keyboard-response","418","720140","0.0-7.0-0.57","LF","8k7ujzqkju","1280","720","0","1","0","5e8b2e599abd417d9512a877","","null","","","learningBlock2","","","","This is a bim:","null","","","","","",""
"image-keyboard-response","419","720468","0.0-7.0-1.57","LF","8k7ujzqkju","1280","720","0","1","0","5e8b2e599abd417d9512a877","","null","","","","","","","learning/Slide138.JPG","null","","","","","",""
"html-keyboard-response","420","721471","0.0-7.0-2.57","LF","8k7ujzqkju","1280","720","0","1","0","5e8b2e599abd417d9512a877","","null","","","learningBlock2","","","","<div style=""font-size:60px;""> </div>","null","LF","learning/Slide138.JPG","This is a bim:","","",""
"html-keyboard-response","421","722478","0.0-7.0-0.58","LF","8k7ujzqkju","1280","720","0","1","0","5e8b2e599abd417d9512a877","","null","","","learningBlock2","","","","This is a wug:","null","","","","","",""
"image-keyboard-response","422","722806","0.0-7.0-1.58","LF","8k7ujzqkju","1280","720","0","1","0","5e8b2e599abd417d9512a877","","null","","","","","","","learning/Slide139.JPG","null","","","","","",""
"html-keyboard-response","423","723821","0.0-7.0-2.58","LF","8k7ujzqkju","1280","720","0","1","0","5e8b2e599abd417d9512a877","","null","","","learningBlock2","","","","<div style=""font-size:60px;""> </div>","null","LF","learning/Slide139.JPG","This is a wug:","","",""
"html-keyboard-response","424","724839","0.0-7.0-0.59","LF","8k7ujzqkju","1280","720","0","1","0","5e8b2e599abd417d9512a877","","null","","","learningBlock2","","","","This is a dep:","null","","","","","",""
"image-keyboard-response","425","725174","0.0-7.0-1.59","LF","8k7ujzqkju","1280","720","0","1","0","5e8b2e599abd417d9512a877","","null","","","","","","","learning/Slide140.JPG","null","","","","","",""
"html-keyboard-response","426","726178","0.0-7.0-2.59","LF","8k7ujzqkju","1280","720","0","1","0","5e8b2e599abd417d9512a877","","null","","","learningBlock2","","","","<div style=""font-size:60px;""> </div>","null","LF","learning/Slide140.JPG","This is a dep:","","",""
"html-keyboard-response","427","727894","0.0-7.0-0.60","LF","8k7ujzqkju","1280","720","0","1","0","5e8b2e599abd417d9512a877","","null","","","learningBlock2","","","","This is a tob:","null","","","","","",""
"image-keyboard-response","428","729893","0.0-7.0-1.60","LF","8k7ujzqkju","1280","720","0","1","0","5e8b2e599abd417d9512a877","","null","","","","","","","learning/Slide141.JPG","null","","","","","",""
"html-keyboard-response","429","731900","0.0-7.0-2.60","LF","8k7ujzqkju","1280","720","0","1","0","5e8b2e599abd417d9512a877","","null","","","learningBlock2","","","","<div style=""font-size:60px;""> </div>","null","LF","learning/Slide141.JPG","This is a tob:","","",""
"html-keyboard-response","430","733900","0.0-7.0-0.61","LF","8k7ujzqkju","1280","720","0","1","0","5e8b2e599abd417d9512a877","","null","","","learningBlock2","","","","This is a wug:","null","","","","","",""
"image-keyboard-response","431","735899","0.0-7.0-1.61","LF","8k7ujzqkju","1280","720","0","1","0","5e8b2e599abd417d9512a877","","null","","","","","","","learning/Slide142.JPG","null","","","","","",""
"html-keyboard-response","432","737893","0.0-7.0-2.61","LF","8k7ujzqkju","1280","720","0","1","0","5e8b2e599abd417d9512a877","","null","","","learningBlock2","","","","<div style=""font-size:60px;""> </div>","null","LF","learning/Slide142.JPG","This is a wug:","","",""
"html-keyboard-response","433","739888","0.0-7.0-0.62","LF","8k7ujzqkju","1280","720","0","1","0","5e8b2e599abd417d9512a877","","null","","","learningBlock2","","","","This is a bim:","null","","","","","",""
"image-keyboard-response","434","741886","0.0-7.0-1.62","LF","8k7ujzqkju","1280","720","0","1","0","5e8b2e599abd417d9512a877","","null","","","","","","","learning/Slide143.JPG","null","","","","","",""
"html-keyboard-response","435","743900","0.0-7.0-2.62","LF","8k7ujzqkju","1280","720","0","1","0","5e8b2e599abd417d9512a877","","null","","","learningBlock2","","","","<div style=""font-size:60px;""> </div>","null","LF","learning/Slide143.JPG","This is a bim:","","",""
"html-keyboard-response","436","745892","0.0-7.0-0.63","LF","8k7ujzqkju","1280","720","0","1","0","5e8b2e599abd417d9512a877","","null","","","learningBlock2","","","","This is a dep:","null","","","","","",""
"image-keyboard-response","437","747892","0.0-7.0-1.63","LF","8k7ujzqkju","1280","720","0","1","0","5e8b2e599abd417d9512a877","","null","","","","","","","learning/Slide144.JPG","null","","","","","",""
