"trial_type","trial_index","time_elapsed","internal_node_id","condition","subject","screen_width","screen_height","attention","distraction","conscientious","prolificID","success","rt","url","view_history","test_part","final_height_px","final_width_px","scale_factor","stimulus","key_press","learningType","presentedImage","presentedLabel","button_pressed","response","responses"
"pavlovia","0","78","0.0-0.0","FL","3b8h3oor4p","1280","800","0","0","0","5f61bbe3c18cc915aac68b32","","","","","","","","","","","","","","","",""
"fullscreen","1","10409","0.0-1.0","FL","3b8h3oor4p","1280","800","0","0","0","5f61bbe3c18cc915aac68b32","true","","","","","","","","","","","","","","",""
"external-html","2","26638","0.0-2.0-0.0","FL","3b8h3oor4p","1280","800","0","0","0","5f61bbe3c18cc915aac68b32","","16028.640000004089","text/information_english.html","","","","","","","","","","","","",""
"external-html","3","35018","0.0-2.0-1.0","FL","3b8h3oor4p","1280","800","0","0","0","5f61bbe3c18cc915aac68b32","","8172.800000000279","text/consent_english.html","","","","","","","","","","","","",""
"instructions","4","46656","0.0-3.0","FL","3b8h3oor4p","1280","800","0","0","0","5f61bbe3c18cc915aac68b32","","NA","","[{""page_index"":0,""viewing_time"":2053.37999999756},{""page_index"":1,""viewing_time"":9577.619999996386}]","instructions","","","","","","","","","","",""
"resize","5","112458","0.0-4.0","FL","3b8h3oor4p","1280","800","0","0","0","5f61bbe3c18cc915aac68b32","","","","","","","392","2.488888888888889","","","","","","","",""
"image-keyboard-response","6","112639","0.0-5.0-0.0","FL","3b8h3oor4p","1280","800","0","0","0","5f61bbe3c18cc915aac68b32","","null","","","","","","","learning/Slide1.JPG","null","","","","","",""
"html-keyboard-response","7","113795","0.0-5.0-1.0","FL","3b8h3oor4p","1280","800","0","0","0","5f61bbe3c18cc915aac68b32","","null","","","learningBlock1","","","","That was a tob.","null","","","","","",""
"html-keyboard-response","8","114800","0.0-5.0-2.0","FL","3b8h3oor4p","1280","800","0","0","0","5f61bbe3c18cc915aac68b32","","null","","","learningBlock1","","","","<div style=""font-size:60px;""> </div>","null","FL","learning/Slide1.JPG","That was a tob.","","",""
"image-keyboard-response","9","114979","0.0-5.0-0.1","FL","3b8h3oor4p","1280","800","0","0","0","5f61bbe3c18cc915aac68b32","","null","","","","","","","learning/Slide2.JPG","null","","","","","",""
"html-keyboard-response","10","116134","0.0-5.0-1.1","FL","3b8h3oor4p","1280","800","0","0","0","5f61bbe3c18cc915aac68b32","","null","","","learningBlock1","","","","That was a wug.","null","","","","","",""
"html-keyboard-response","11","117136","0.0-5.0-2.1","FL","3b8h3oor4p","1280","800","0","0","0","5f61bbe3c18cc915aac68b32","","null","","","learningBlock1","","","","<div style=""font-size:60px;""> </div>","null","FL","learning/Slide2.JPG","That was a wug.","","",""
"image-keyboard-response","12","117317","0.0-5.0-0.2","FL","3b8h3oor4p","1280","800","0","0","0","5f61bbe3c18cc915aac68b32","","null","","","","","","","learning/Slide3.JPG","null","","","","","",""
"html-keyboard-response","13","118471","0.0-5.0-1.2","FL","3b8h3oor4p","1280","800","0","0","0","5f61bbe3c18cc915aac68b32","","null","","","learningBlock1","","","","That was a bim.","null","","","","","",""
"html-keyboard-response","14","119473","0.0-5.0-2.2","FL","3b8h3oor4p","1280","800","0","0","0","5f61bbe3c18cc915aac68b32","","null","","","learningBlock1","","","","<div style=""font-size:60px;""> </div>","null","FL","learning/Slide3.JPG","That was a bim.","","",""
"image-keyboard-response","15","119650","0.0-5.0-0.3","FL","3b8h3oor4p","1280","800","0","0","0","5f61bbe3c18cc915aac68b32","","null","","","","","","","learning/Slide4.JPG","null","","","","","",""
"html-keyboard-response","16","120807","0.0-5.0-1.3","FL","3b8h3oor4p","1280","800","0","0","0","5f61bbe3c18cc915aac68b32","","null","","","learningBlock1","","","","That was a dep.","null","","","","","",""
"html-keyboard-response","17","121810","0.0-5.0-2.3","FL","3b8h3oor4p","1280","800","0","0","0","5f61bbe3c18cc915aac68b32","","null","","","learningBlock1","","","","<div style=""font-size:60px;""> </div>","null","FL","learning/Slide4.JPG","That was a dep.","","",""
"image-keyboard-response","18","121988","0.0-5.0-0.4","FL","3b8h3oor4p","1280","800","0","0","0","5f61bbe3c18cc915aac68b32","","null","","","","","","","learning/Slide5.JPG","null","","","","","",""
"html-keyboard-response","19","123140","0.0-5.0-1.4","FL","3b8h3oor4p","1280","800","0","0","0","5f61bbe3c18cc915aac68b32","","null","","","learningBlock1","","","","That was a wug.","null","","","","","",""
"html-keyboard-response","20","124144","0.0-5.0-2.4","FL","3b8h3oor4p","1280","800","0","0","0","5f61bbe3c18cc915aac68b32","","null","","","learningBlock1","","","","<div style=""font-size:60px;""> </div>","null","FL","learning/Slide5.JPG","That was a wug.","","",""
"image-keyboard-response","21","124323","0.0-5.0-0.5","FL","3b8h3oor4p","1280","800","0","0","0","5f61bbe3c18cc915aac68b32","","null","","","","","","","learning/Slide6.JPG","null","","","","","",""
"html-keyboard-response","22","125477","0.0-5.0-1.5","FL","3b8h3oor4p","1280","800","0","0","0","5f61bbe3c18cc915aac68b32","","null","","","learningBlock1","","","","That was a dep.","null","","","","","",""
"html-keyboard-response","23","126479","0.0-5.0-2.5","FL","3b8h3oor4p","1280","800","0","0","0","5f61bbe3c18cc915aac68b32","","null","","","learningBlock1","","","","<div style=""font-size:60px;""> </div>","null","FL","learning/Slide6.JPG","That was a dep.","","",""
"image-keyboard-response","24","126660","0.0-5.0-0.6","FL","3b8h3oor4p","1280","800","0","0","0","5f61bbe3c18cc915aac68b32","","null","","","","","","","learning/Slide7.JPG","null","","","","","",""
"html-keyboard-response","25","127814","0.0-5.0-1.6","FL","3b8h3oor4p","1280","800","0","0","0","5f61bbe3c18cc915aac68b32","","null","","","learningBlock1","","","","That was a wug.","null","","","","","",""
"html-keyboard-response","26","128816","0.0-5.0-2.6","FL","3b8h3oor4p","1280","800","0","0","0","5f61bbe3c18cc915aac68b32","","null","","","learningBlock1","","","","<div style=""font-size:60px;""> </div>","null","FL","learning/Slide7.JPG","That was a wug.","","",""
"image-keyboard-response","27","128995","0.0-5.0-0.7","FL","3b8h3oor4p","1280","800","0","0","0","5f61bbe3c18cc915aac68b32","","null","","","","","","","learning/Slide8.JPG","null","","","","","",""
"html-keyboard-response","28","130149","0.0-5.0-1.7","FL","3b8h3oor4p","1280","800","0","0","0","5f61bbe3c18cc915aac68b32","","null","","","learningBlock1","","","","That was a bim.","null","","","","","",""
"html-keyboard-response","29","131153","0.0-5.0-2.7","FL","3b8h3oor4p","1280","800","0","0","0","5f61bbe3c18cc915aac68b32","","null","","","learningBlock1","","","","<div style=""font-size:60px;""> </div>","null","FL","learning/Slide8.JPG","That was a bim.","","",""
"image-keyboard-response","30","131333","0.0-5.0-0.8","FL","3b8h3oor4p","1280","800","0","0","0","5f61bbe3c18cc915aac68b32","","null","","","","","","","learning/Slide9.JPG","null","","","","","",""
"html-keyboard-response","31","132489","0.0-5.0-1.8","FL","3b8h3oor4p","1280","800","0","0","0","5f61bbe3c18cc915aac68b32","","null","","","learningBlock1","","","","That was a wug.","null","","","","","",""
"html-keyboard-response","32","133493","0.0-5.0-2.8","FL","3b8h3oor4p","1280","800","0","0","0","5f61bbe3c18cc915aac68b32","","null","","","learningBlock1","","","","<div style=""font-size:60px;""> </div>","null","FL","learning/Slide9.JPG","That was a wug.","","",""
"image-keyboard-response","33","133671","0.0-5.0-0.9","FL","3b8h3oor4p","1280","800","0","0","0","5f61bbe3c18cc915aac68b32","","null","","","","","","","learning/Slide10.JPG","null","","","","","",""
"html-keyboard-response","34","134826","0.0-5.0-1.9","FL","3b8h3oor4p","1280","800","0","0","0","5f61bbe3c18cc915aac68b32","","null","","","learningBlock1","","","","That was a dep.","null","","","","","",""
"html-keyboard-response","35","135829","0.0-5.0-2.9","FL","3b8h3oor4p","1280","800","0","0","0","5f61bbe3c18cc915aac68b32","","null","","","learningBlock1","","","","<div style=""font-size:60px;""> </div>","null","FL","learning/Slide10.JPG","That was a dep.","","",""
"image-keyboard-response","36","136008","0.0-5.0-0.10","FL","3b8h3oor4p","1280","800","0","0","0","5f61bbe3c18cc915aac68b32","","null","","","","","","","learning/Slide11.JPG","null","","","","","",""
"html-keyboard-response","37","137162","0.0-5.0-1.10","FL","3b8h3oor4p","1280","800","0","0","0","5f61bbe3c18cc915aac68b32","","null","","","learningBlock1","","","","That was a tob.","null","","","","","",""
"html-keyboard-response","38","138164","0.0-5.0-2.10","FL","3b8h3oor4p","1280","800","0","0","0","5f61bbe3c18cc915aac68b32","","null","","","learningBlock1","","","","<div style=""font-size:60px;""> </div>","null","FL","learning/Slide11.JPG","That was a tob.","","",""
"image-keyboard-response","39","138342","0.0-5.0-0.11","FL","3b8h3oor4p","1280","800","0","0","0","5f61bbe3c18cc915aac68b32","","null","","","","","","","learning/Slide12.JPG","null","","","","","",""
"html-keyboard-response","40","139496","0.0-5.0-1.11","FL","3b8h3oor4p","1280","800","0","0","0","5f61bbe3c18cc915aac68b32","","null","","","learningBlock1","","","","That was a dep.","null","","","","","",""
"html-keyboard-response","41","140501","0.0-5.0-2.11","FL","3b8h3oor4p","1280","800","0","0","0","5f61bbe3c18cc915aac68b32","","null","","","learningBlock1","","","","<div style=""font-size:60px;""> </div>","null","FL","learning/Slide12.JPG","That was a dep.","","",""
"image-keyboard-response","42","140681","0.0-5.0-0.12","FL","3b8h3oor4p","1280","800","0","0","0","5f61bbe3c18cc915aac68b32","","null","","","","","","","learning/Slide13.JPG","null","","","","","",""
"html-keyboard-response","43","141833","0.0-5.0-1.12","FL","3b8h3oor4p","1280","800","0","0","0","5f61bbe3c18cc915aac68b32","","null","","","learningBlock1","","","","That was a bim.","null","","","","","",""
"html-keyboard-response","44","142835","0.0-5.0-2.12","FL","3b8h3oor4p","1280","800","0","0","0","5f61bbe3c18cc915aac68b32","","null","","","learningBlock1","","","","<div style=""font-size:60px;""> </div>","null","FL","learning/Slide13.JPG","That was a bim.","","",""
"image-keyboard-response","45","143011","0.0-5.0-0.13","FL","3b8h3oor4p","1280","800","0","0","0","5f61bbe3c18cc915aac68b32","","null","","","","","","","learning/Slide14.JPG","null","","","","","",""
"html-keyboard-response","46","144169","0.0-5.0-1.13","FL","3b8h3oor4p","1280","800","0","0","0","5f61bbe3c18cc915aac68b32","","null","","","learningBlock1","","","","That was a wug.","null","","","","","",""
"html-keyboard-response","47","145171","0.0-5.0-2.13","FL","3b8h3oor4p","1280","800","0","0","0","5f61bbe3c18cc915aac68b32","","null","","","learningBlock1","","","","<div style=""font-size:60px;""> </div>","null","FL","learning/Slide14.JPG","That was a wug.","","",""
"image-keyboard-response","48","145347","0.0-5.0-0.14","FL","3b8h3oor4p","1280","800","0","0","0","5f61bbe3c18cc915aac68b32","","null","","","","","","","learning/Slide15.JPG","null","","","","","",""
"html-keyboard-response","49","146503","0.0-5.0-1.14","FL","3b8h3oor4p","1280","800","0","0","0","5f61bbe3c18cc915aac68b32","","null","","","learningBlock1","","","","That was a tob.","null","","","","","",""
"html-keyboard-response","50","147507","0.0-5.0-2.14","FL","3b8h3oor4p","1280","800","0","0","0","5f61bbe3c18cc915aac68b32","","null","","","learningBlock1","","","","<div style=""font-size:60px;""> </div>","null","FL","learning/Slide15.JPG","That was a tob.","","",""
"image-keyboard-response","51","147684","0.0-5.0-0.15","FL","3b8h3oor4p","1280","800","0","0","0","5f61bbe3c18cc915aac68b32","","null","","","","","","","learning/Slide16.JPG","null","","","","","",""
"html-keyboard-response","52","148838","0.0-5.0-1.15","FL","3b8h3oor4p","1280","800","0","0","0","5f61bbe3c18cc915aac68b32","","null","","","learningBlock1","","","","That was a dep.","null","","","","","",""
"html-keyboard-response","53","149840","0.0-5.0-2.15","FL","3b8h3oor4p","1280","800","0","0","0","5f61bbe3c18cc915aac68b32","","null","","","learningBlock1","","","","<div style=""font-size:60px;""> </div>","null","FL","learning/Slide16.JPG","That was a dep.","","",""
"image-keyboard-response","54","150017","0.0-5.0-0.16","FL","3b8h3oor4p","1280","800","0","0","0","5f61bbe3c18cc915aac68b32","","null","","","","","","","learning/Slide17.JPG","null","","","","","",""
"html-keyboard-response","55","151172","0.0-5.0-1.16","FL","3b8h3oor4p","1280","800","0","0","0","5f61bbe3c18cc915aac68b32","","null","","","learningBlock1","","","","That was a bim.","null","","","","","",""
"html-keyboard-response","56","152176","0.0-5.0-2.16","FL","3b8h3oor4p","1280","800","0","0","0","5f61bbe3c18cc915aac68b32","","null","","","learningBlock1","","","","<div style=""font-size:60px;""> </div>","null","FL","learning/Slide17.JPG","That was a bim.","","",""
"image-keyboard-response","57","152354","0.0-5.0-0.17","FL","3b8h3oor4p","1280","800","0","0","0","5f61bbe3c18cc915aac68b32","","null","","","","","","","learning/Slide18.JPG","null","","","","","",""
"html-keyboard-response","58","153508","0.0-5.0-1.17","FL","3b8h3oor4p","1280","800","0","0","0","5f61bbe3c18cc915aac68b32","","null","","","learningBlock1","","","","That was a tob.","null","","","","","",""
"html-keyboard-response","59","154512","0.0-5.0-2.17","FL","3b8h3oor4p","1280","800","0","0","0","5f61bbe3c18cc915aac68b32","","null","","","learningBlock1","","","","<div style=""font-size:60px;""> </div>","null","FL","learning/Slide18.JPG","That was a tob.","","",""
"image-keyboard-response","60","154690","0.0-5.0-0.18","FL","3b8h3oor4p","1280","800","0","0","0","5f61bbe3c18cc915aac68b32","","null","","","","","","","learning/Slide19.JPG","null","","","","","",""
"html-keyboard-response","61","155844","0.0-5.0-1.18","FL","3b8h3oor4p","1280","800","0","0","0","5f61bbe3c18cc915aac68b32","","null","","","learningBlock1","","","","That was a wug.","null","","","","","",""
"html-keyboard-response","62","156846","0.0-5.0-2.18","FL","3b8h3oor4p","1280","800","0","0","0","5f61bbe3c18cc915aac68b32","","null","","","learningBlock1","","","","<div style=""font-size:60px;""> </div>","null","FL","learning/Slide19.JPG","That was a wug.","","",""
"image-keyboard-response","63","157023","0.0-5.0-0.19","FL","3b8h3oor4p","1280","800","0","0","0","5f61bbe3c18cc915aac68b32","","null","","","","","","","learning/Slide20.JPG","null","","","","","",""
"html-keyboard-response","64","158178","0.0-5.0-1.19","FL","3b8h3oor4p","1280","800","0","0","0","5f61bbe3c18cc915aac68b32","","null","","","learningBlock1","","","","That was a bim.","null","","","","","",""
"html-keyboard-response","65","159180","0.0-5.0-2.19","FL","3b8h3oor4p","1280","800","0","0","0","5f61bbe3c18cc915aac68b32","","null","","","learningBlock1","","","","<div style=""font-size:60px;""> </div>","null","FL","learning/Slide20.JPG","That was a bim.","","",""
"image-keyboard-response","66","159358","0.0-5.0-0.20","FL","3b8h3oor4p","1280","800","0","0","0","5f61bbe3c18cc915aac68b32","","null","","","","","","","learning/Slide21.JPG","null","","","","","",""
"html-keyboard-response","67","160511","0.0-5.0-1.20","FL","3b8h3oor4p","1280","800","0","0","0","5f61bbe3c18cc915aac68b32","","null","","","learningBlock1","","","","That was a dep.","null","","","","","",""
"html-keyboard-response","68","161516","0.0-5.0-2.20","FL","3b8h3oor4p","1280","800","0","0","0","5f61bbe3c18cc915aac68b32","","null","","","learningBlock1","","","","<div style=""font-size:60px;""> </div>","null","FL","learning/Slide21.JPG","That was a dep.","","",""
"image-keyboard-response","69","161724","0.0-5.0-0.21","FL","3b8h3oor4p","1280","800","0","0","0","5f61bbe3c18cc915aac68b32","","null","","","","","","","learning/Slide22.JPG","null","","","","","",""
"html-keyboard-response","70","162878","0.0-5.0-1.21","FL","3b8h3oor4p","1280","800","0","0","0","5f61bbe3c18cc915aac68b32","","null","","","learningBlock1","","","","That was a bim.","null","","","","","",""
"html-keyboard-response","71","163880","0.0-5.0-2.21","FL","3b8h3oor4p","1280","800","0","0","0","5f61bbe3c18cc915aac68b32","","null","","","learningBlock1","","","","<div style=""font-size:60px;""> </div>","null","FL","learning/Slide22.JPG","That was a bim.","","",""
"image-keyboard-response","72","164058","0.0-5.0-0.22","FL","3b8h3oor4p","1280","800","0","0","0","5f61bbe3c18cc915aac68b32","","null","","","","","","","learning/Slide23.JPG","null","","","","","",""
"html-keyboard-response","73","165213","0.0-5.0-1.22","FL","3b8h3oor4p","1280","800","0","0","0","5f61bbe3c18cc915aac68b32","","null","","","learningBlock1","","","","That was a tob.","null","","","","","",""
"html-keyboard-response","74","166219","0.0-5.0-2.22","FL","3b8h3oor4p","1280","800","0","0","0","5f61bbe3c18cc915aac68b32","","null","","","learningBlock1","","","","<div style=""font-size:60px;""> </div>","null","FL","learning/Slide23.JPG","That was a tob.","","",""
"image-keyboard-response","75","166398","0.0-5.0-0.23","FL","3b8h3oor4p","1280","800","0","0","0","5f61bbe3c18cc915aac68b32","","null","","","","","","","learning/Slide24.JPG","null","","","","","",""
"html-keyboard-response","76","167555","0.0-5.0-1.23","FL","3b8h3oor4p","1280","800","0","0","0","5f61bbe3c18cc915aac68b32","","null","","","learningBlock1","","","","That was a wug.","null","","","","","",""
"html-keyboard-response","77","168559","0.0-5.0-2.23","FL","3b8h3oor4p","1280","800","0","0","0","5f61bbe3c18cc915aac68b32","","null","","","learningBlock1","","","","<div style=""font-size:60px;""> </div>","null","FL","learning/Slide24.JPG","That was a wug.","","",""
"image-keyboard-response","78","168738","0.0-5.0-0.24","FL","3b8h3oor4p","1280","800","0","0","0","5f61bbe3c18cc915aac68b32","","null","","","","","","","learning/Slide25.JPG","null","","","","","",""
"html-keyboard-response","79","169895","0.0-5.0-1.24","FL","3b8h3oor4p","1280","800","0","0","0","5f61bbe3c18cc915aac68b32","","null","","","learningBlock1","","","","That was a dep.","null","","","","","",""
"html-keyboard-response","80","170897","0.0-5.0-2.24","FL","3b8h3oor4p","1280","800","0","0","0","5f61bbe3c18cc915aac68b32","","null","","","learningBlock1","","","","<div style=""font-size:60px;""> </div>","null","FL","learning/Slide25.JPG","That was a dep.","","",""
"image-keyboard-response","81","171075","0.0-5.0-0.25","FL","3b8h3oor4p","1280","800","0","0","0","5f61bbe3c18cc915aac68b32","","null","","","","","","","learning/Slide26.JPG","null","","","","","",""
"html-keyboard-response","82","172230","0.0-5.0-1.25","FL","3b8h3oor4p","1280","800","0","0","0","5f61bbe3c18cc915aac68b32","","null","","","learningBlock1","","","","That was a wug.","null","","","","","",""
"html-keyboard-response","83","173234","0.0-5.0-2.25","FL","3b8h3oor4p","1280","800","0","0","0","5f61bbe3c18cc915aac68b32","","null","","","learningBlock1","","","","<div style=""font-size:60px;""> </div>","null","FL","learning/Slide26.JPG","That was a wug.","","",""
"image-keyboard-response","84","173412","0.0-5.0-0.26","FL","3b8h3oor4p","1280","800","0","0","0","5f61bbe3c18cc915aac68b32","","null","","","","","","","learning/Slide27.JPG","null","","","","","",""
"html-keyboard-response","85","174566","0.0-5.0-1.26","FL","3b8h3oor4p","1280","800","0","0","0","5f61bbe3c18cc915aac68b32","","null","","","learningBlock1","","","","That was a bim.","null","","","","","",""
"html-keyboard-response","86","175567","0.0-5.0-2.26","FL","3b8h3oor4p","1280","800","0","0","0","5f61bbe3c18cc915aac68b32","","null","","","learningBlock1","","","","<div style=""font-size:60px;""> </div>","null","FL","learning/Slide27.JPG","That was a bim.","","",""
"image-keyboard-response","87","175744","0.0-5.0-0.27","FL","3b8h3oor4p","1280","800","0","0","0","5f61bbe3c18cc915aac68b32","","null","","","","","","","learning/Slide28.JPG","null","","","","","",""
"html-keyboard-response","88","176900","0.0-5.0-1.27","FL","3b8h3oor4p","1280","800","0","0","0","5f61bbe3c18cc915aac68b32","","null","","","learningBlock1","","","","That was a dep.","null","","","","","",""
"html-keyboard-response","89","177906","0.0-5.0-2.27","FL","3b8h3oor4p","1280","800","0","0","0","5f61bbe3c18cc915aac68b32","","null","","","learningBlock1","","","","<div style=""font-size:60px;""> </div>","null","FL","learning/Slide28.JPG","That was a dep.","","",""
"image-keyboard-response","90","178085","0.0-5.0-0.28","FL","3b8h3oor4p","1280","800","0","0","0","5f61bbe3c18cc915aac68b32","","null","","","","","","","learning/Slide29.JPG","null","","","","","",""
"html-keyboard-response","91","179239","0.0-5.0-1.28","FL","3b8h3oor4p","1280","800","0","0","0","5f61bbe3c18cc915aac68b32","","null","","","learningBlock1","","","","That was a tob.","null","","","","","",""
"html-keyboard-response","92","180243","0.0-5.0-2.28","FL","3b8h3oor4p","1280","800","0","0","0","5f61bbe3c18cc915aac68b32","","null","","","learningBlock1","","","","<div style=""font-size:60px;""> </div>","null","FL","learning/Slide29.JPG","That was a tob.","","",""
"image-keyboard-response","93","180423","0.0-5.0-0.29","FL","3b8h3oor4p","1280","800","0","0","0","5f61bbe3c18cc915aac68b32","","null","","","","","","","learning/Slide30.JPG","null","","","","","",""
"html-keyboard-response","94","181578","0.0-5.0-1.29","FL","3b8h3oor4p","1280","800","0","0","0","5f61bbe3c18cc915aac68b32","","null","","","learningBlock1","","","","That was a dep.","null","","","","","",""
"html-keyboard-response","95","182580","0.0-5.0-2.29","FL","3b8h3oor4p","1280","800","0","0","0","5f61bbe3c18cc915aac68b32","","null","","","learningBlock1","","","","<div style=""font-size:60px;""> </div>","null","FL","learning/Slide30.JPG","That was a dep.","","",""
"image-keyboard-response","96","182760","0.0-5.0-0.30","FL","3b8h3oor4p","1280","800","0","0","0","5f61bbe3c18cc915aac68b32","","null","","","","","","","learning/Slide31.JPG","null","","","","","",""
"html-keyboard-response","97","183915","0.0-5.0-1.30","FL","3b8h3oor4p","1280","800","0","0","0","5f61bbe3c18cc915aac68b32","","null","","","learningBlock1","","","","That was a wug.","null","","","","","",""
"html-keyboard-response","98","184918","0.0-5.0-2.30","FL","3b8h3oor4p","1280","800","0","0","0","5f61bbe3c18cc915aac68b32","","null","","","learningBlock1","","","","<div style=""font-size:60px;""> </div>","null","FL","learning/Slide31.JPG","That was a wug.","","",""
"image-keyboard-response","99","185096","0.0-5.0-0.31","FL","3b8h3oor4p","1280","800","0","0","0","5f61bbe3c18cc915aac68b32","","null","","","","","","","learning/Slide32.JPG","null","","","","","",""
"html-keyboard-response","100","186249","0.0-5.0-1.31","FL","3b8h3oor4p","1280","800","0","0","0","5f61bbe3c18cc915aac68b32","","null","","","learningBlock1","","","","That was a tob.","null","","","","","",""
"html-keyboard-response","101","187251","0.0-5.0-2.31","FL","3b8h3oor4p","1280","800","0","0","0","5f61bbe3c18cc915aac68b32","","null","","","learningBlock1","","","","<div style=""font-size:60px;""> </div>","null","FL","learning/Slide32.JPG","That was a tob.","","",""
"image-keyboard-response","102","187431","0.0-5.0-0.32","FL","3b8h3oor4p","1280","800","0","0","0","5f61bbe3c18cc915aac68b32","","null","","","","","","","learning/Slide33.JPG","null","","","","","",""
"html-keyboard-response","103","188584","0.0-5.0-1.32","FL","3b8h3oor4p","1280","800","0","0","0","5f61bbe3c18cc915aac68b32","","null","","","learningBlock1","","","","That was a bim.","null","","","","","",""
"html-keyboard-response","104","189586","0.0-5.0-2.32","FL","3b8h3oor4p","1280","800","0","0","0","5f61bbe3c18cc915aac68b32","","null","","","learningBlock1","","","","<div style=""font-size:60px;""> </div>","null","FL","learning/Slide33.JPG","That was a bim.","","",""
"image-keyboard-response","105","189764","0.0-5.0-0.33","FL","3b8h3oor4p","1280","800","0","0","0","5f61bbe3c18cc915aac68b32","","null","","","","","","","learning/Slide34.JPG","null","","","","","",""
"html-keyboard-response","106","190916","0.0-5.0-1.33","FL","3b8h3oor4p","1280","800","0","0","0","5f61bbe3c18cc915aac68b32","","null","","","learningBlock1","","","","That was a tob.","null","","","","","",""
"html-keyboard-response","107","191919","0.0-5.0-2.33","FL","3b8h3oor4p","1280","800","0","0","0","5f61bbe3c18cc915aac68b32","","null","","","learningBlock1","","","","<div style=""font-size:60px;""> </div>","null","FL","learning/Slide34.JPG","That was a tob.","","",""
"image-keyboard-response","108","192096","0.0-5.0-0.34","FL","3b8h3oor4p","1280","800","0","0","0","5f61bbe3c18cc915aac68b32","","null","","","","","","","learning/Slide35.JPG","null","","","","","",""
"html-keyboard-response","109","193251","0.0-5.0-1.34","FL","3b8h3oor4p","1280","800","0","0","0","5f61bbe3c18cc915aac68b32","","null","","","learningBlock1","","","","That was a bim.","null","","","","","",""
"html-keyboard-response","110","194253","0.0-5.0-2.34","FL","3b8h3oor4p","1280","800","0","0","0","5f61bbe3c18cc915aac68b32","","null","","","learningBlock1","","","","<div style=""font-size:60px;""> </div>","null","FL","learning/Slide35.JPG","That was a bim.","","",""
"image-keyboard-response","111","194432","0.0-5.0-0.35","FL","3b8h3oor4p","1280","800","0","0","0","5f61bbe3c18cc915aac68b32","","null","","","","","","","learning/Slide36.JPG","null","","","","","",""
"html-keyboard-response","112","195586","0.0-5.0-1.35","FL","3b8h3oor4p","1280","800","0","0","0","5f61bbe3c18cc915aac68b32","","null","","","learningBlock1","","","","That was a dep.","null","","","","","",""
"html-keyboard-response","113","196590","0.0-5.0-2.35","FL","3b8h3oor4p","1280","800","0","0","0","5f61bbe3c18cc915aac68b32","","null","","","learningBlock1","","","","<div style=""font-size:60px;""> </div>","null","FL","learning/Slide36.JPG","That was a dep.","","",""
"image-keyboard-response","114","196768","0.0-5.0-0.36","FL","3b8h3oor4p","1280","800","0","0","0","5f61bbe3c18cc915aac68b32","","null","","","","","","","learning/Slide37.JPG","null","","","","","",""
"html-keyboard-response","115","197922","0.0-5.0-1.36","FL","3b8h3oor4p","1280","800","0","0","0","5f61bbe3c18cc915aac68b32","","null","","","learningBlock1","","","","That was a tob.","null","","","","","",""
"html-keyboard-response","116","198928","0.0-5.0-2.36","FL","3b8h3oor4p","1280","800","0","0","0","5f61bbe3c18cc915aac68b32","","null","","","learningBlock1","","","","<div style=""font-size:60px;""> </div>","null","FL","learning/Slide37.JPG","That was a tob.","","",""
"image-keyboard-response","117","199105","0.0-5.0-0.37","FL","3b8h3oor4p","1280","800","0","0","0","5f61bbe3c18cc915aac68b32","","null","","","","","","","learning/Slide38.JPG","null","","","","","",""
"html-keyboard-response","118","200261","0.0-5.0-1.37","FL","3b8h3oor4p","1280","800","0","0","0","5f61bbe3c18cc915aac68b32","","null","","","learningBlock1","","","","That was a wug.","null","","","","","",""
"html-keyboard-response","119","201264","0.0-5.0-2.37","FL","3b8h3oor4p","1280","800","0","0","0","5f61bbe3c18cc915aac68b32","","null","","","learningBlock1","","","","<div style=""font-size:60px;""> </div>","null","FL","learning/Slide38.JPG","That was a wug.","","",""
"image-keyboard-response","120","201442","0.0-5.0-0.38","FL","3b8h3oor4p","1280","800","0","0","0","5f61bbe3c18cc915aac68b32","","null","","","","","","","learning/Slide39.JPG","null","","","","","",""
"html-keyboard-response","121","202600","0.0-5.0-1.38","FL","3b8h3oor4p","1280","800","0","0","0","5f61bbe3c18cc915aac68b32","","null","","","learningBlock1","","","","That was a bim.","null","","","","","",""
"html-keyboard-response","122","203603","0.0-5.0-2.38","FL","3b8h3oor4p","1280","800","0","0","0","5f61bbe3c18cc915aac68b32","","null","","","learningBlock1","","","","<div style=""font-size:60px;""> </div>","null","FL","learning/Slide39.JPG","That was a bim.","","",""
"image-keyboard-response","123","203784","0.0-5.0-0.39","FL","3b8h3oor4p","1280","800","0","0","0","5f61bbe3c18cc915aac68b32","","null","","","","","","","learning/Slide40.JPG","null","","","","","",""
"html-keyboard-response","124","204939","0.0-5.0-1.39","FL","3b8h3oor4p","1280","800","0","0","0","5f61bbe3c18cc915aac68b32","","null","","","learningBlock1","","","","That was a tob.","null","","","","","",""
"html-keyboard-response","125","205941","0.0-5.0-2.39","FL","3b8h3oor4p","1280","800","0","0","0","5f61bbe3c18cc915aac68b32","","null","","","learningBlock1","","","","<div style=""font-size:60px;""> </div>","null","FL","learning/Slide40.JPG","That was a tob.","","",""
"image-keyboard-response","126","206121","0.0-5.0-0.40","FL","3b8h3oor4p","1280","800","0","0","0","5f61bbe3c18cc915aac68b32","","null","","","","","","","learning/Slide41.JPG","null","","","","","",""
"html-keyboard-response","127","207275","0.0-5.0-1.40","FL","3b8h3oor4p","1280","800","0","0","0","5f61bbe3c18cc915aac68b32","","null","","","learningBlock1","","","","That was a bim.","null","","","","","",""
"html-keyboard-response","128","214059","0.0-5.0-2.40","FL","3b8h3oor4p","1280","800","0","0","0","5f61bbe3c18cc915aac68b32","","null","","","learningBlock1","","","","<div style=""font-size:60px;""> </div>","null","FL","learning/Slide41.JPG","That was a bim.","","",""
"image-keyboard-response","129","215046","0.0-5.0-0.41","FL","3b8h3oor4p","1280","800","0","0","0","5f61bbe3c18cc915aac68b32","","null","","","","","","","learning/Slide42.JPG","null","","","","","",""
"html-keyboard-response","130","216203","0.0-5.0-1.41","FL","3b8h3oor4p","1280","800","0","0","0","5f61bbe3c18cc915aac68b32","","null","","","learningBlock1","","","","That was a dep.","null","","","","","",""
"html-keyboard-response","131","217244","0.0-5.0-2.41","FL","3b8h3oor4p","1280","800","0","0","0","5f61bbe3c18cc915aac68b32","","null","","","learningBlock1","","","","<div style=""font-size:60px;""> </div>","null","FL","learning/Slide42.JPG","That was a dep.","","",""
"image-keyboard-response","132","217420","0.0-5.0-0.42","FL","3b8h3oor4p","1280","800","0","0","0","5f61bbe3c18cc915aac68b32","","null","","","","","","","learning/Slide43.JPG","null","","","","","",""
"html-keyboard-response","133","218578","0.0-5.0-1.42","FL","3b8h3oor4p","1280","800","0","0","0","5f61bbe3c18cc915aac68b32","","null","","","learningBlock1","","","","That was a wug.","null","","","","","",""
"html-keyboard-response","134","219580","0.0-5.0-2.42","FL","3b8h3oor4p","1280","800","0","0","0","5f61bbe3c18cc915aac68b32","","null","","","learningBlock1","","","","<div style=""font-size:60px;""> </div>","null","FL","learning/Slide43.JPG","That was a wug.","","",""
"image-keyboard-response","135","219757","0.0-5.0-0.43","FL","3b8h3oor4p","1280","800","0","0","0","5f61bbe3c18cc915aac68b32","","null","","","","","","","learning/Slide44.JPG","null","","","","","",""
"html-keyboard-response","136","220911","0.0-5.0-1.43","FL","3b8h3oor4p","1280","800","0","0","0","5f61bbe3c18cc915aac68b32","","null","","","learningBlock1","","","","That was a bim.","null","","","","","",""
"html-keyboard-response","137","221914","0.0-5.0-2.43","FL","3b8h3oor4p","1280","800","0","0","0","5f61bbe3c18cc915aac68b32","","null","","","learningBlock1","","","","<div style=""font-size:60px;""> </div>","null","FL","learning/Slide44.JPG","That was a bim.","","",""
"image-keyboard-response","138","222093","0.0-5.0-0.44","FL","3b8h3oor4p","1280","800","0","0","0","5f61bbe3c18cc915aac68b32","","null","","","","","","","learning/Slide45.JPG","null","","","","","",""
"html-keyboard-response","139","223249","0.0-5.0-1.44","FL","3b8h3oor4p","1280","800","0","0","0","5f61bbe3c18cc915aac68b32","","null","","","learningBlock1","","","","That was a wug.","null","","","","","",""
"html-keyboard-response","140","224250","0.0-5.0-2.44","FL","3b8h3oor4p","1280","800","0","0","0","5f61bbe3c18cc915aac68b32","","null","","","learningBlock1","","","","<div style=""font-size:60px;""> </div>","null","FL","learning/Slide45.JPG","That was a wug.","","",""
"image-keyboard-response","141","224429","0.0-5.0-0.45","FL","3b8h3oor4p","1280","800","0","0","0","5f61bbe3c18cc915aac68b32","","null","","","","","","","learning/Slide46.JPG","null","","","","","",""
"html-keyboard-response","142","225582","0.0-5.0-1.45","FL","3b8h3oor4p","1280","800","0","0","0","5f61bbe3c18cc915aac68b32","","null","","","learningBlock1","","","","That was a dep.","null","","","","","",""
"html-keyboard-response","143","226583","0.0-5.0-2.45","FL","3b8h3oor4p","1280","800","0","0","0","5f61bbe3c18cc915aac68b32","","null","","","learningBlock1","","","","<div style=""font-size:60px;""> </div>","null","FL","learning/Slide46.JPG","That was a dep.","","",""
"image-keyboard-response","144","226762","0.0-5.0-0.46","FL","3b8h3oor4p","1280","800","0","0","0","5f61bbe3c18cc915aac68b32","","null","","","","","","","learning/Slide47.JPG","null","","","","","",""
"html-keyboard-response","145","227915","0.0-5.0-1.46","FL","3b8h3oor4p","1280","800","0","0","0","5f61bbe3c18cc915aac68b32","","null","","","learningBlock1","","","","That was a tob.","null","","","","","",""
"html-keyboard-response","146","228922","0.0-5.0-2.46","FL","3b8h3oor4p","1280","800","0","0","0","5f61bbe3c18cc915aac68b32","","null","","","learningBlock1","","","","<div style=""font-size:60px;""> </div>","null","FL","learning/Slide47.JPG","That was a tob.","","",""
"image-keyboard-response","147","229101","0.0-5.0-0.47","FL","3b8h3oor4p","1280","800","0","0","0","5f61bbe3c18cc915aac68b32","","null","","","","","","","learning/Slide48.JPG","null","","","","","",""
"html-keyboard-response","148","230257","0.0-5.0-1.47","FL","3b8h3oor4p","1280","800","0","0","0","5f61bbe3c18cc915aac68b32","","null","","","learningBlock1","","","","That was a bim.","null","","","","","",""
"html-keyboard-response","149","231260","0.0-5.0-2.47","FL","3b8h3oor4p","1280","800","0","0","0","5f61bbe3c18cc915aac68b32","","null","","","learningBlock1","","","","<div style=""font-size:60px;""> </div>","null","FL","learning/Slide48.JPG","That was a bim.","","",""
"image-keyboard-response","150","231437","0.0-5.0-0.48","FL","3b8h3oor4p","1280","800","0","0","0","5f61bbe3c18cc915aac68b32","","null","","","","","","","learning/Slide49.JPG","null","","","","","",""
"html-keyboard-response","151","232588","0.0-5.0-1.48","FL","3b8h3oor4p","1280","800","0","0","0","5f61bbe3c18cc915aac68b32","","null","","","learningBlock1","","","","That was a dep.","null","","","","","",""
"html-keyboard-response","152","233591","0.0-5.0-2.48","FL","3b8h3oor4p","1280","800","0","0","0","5f61bbe3c18cc915aac68b32","","null","","","learningBlock1","","","","<div style=""font-size:60px;""> </div>","null","FL","learning/Slide49.JPG","That was a dep.","","",""
"image-keyboard-response","153","233768","0.0-5.0-0.49","FL","3b8h3oor4p","1280","800","0","0","0","5f61bbe3c18cc915aac68b32","","null","","","","","","","learning/Slide50.JPG","null","","","","","",""
"html-keyboard-response","154","234922","0.0-5.0-1.49","FL","3b8h3oor4p","1280","800","0","0","0","5f61bbe3c18cc915aac68b32","","null","","","learningBlock1","","","","That was a tob.","null","","","","","",""
"html-keyboard-response","155","235926","0.0-5.0-2.49","FL","3b8h3oor4p","1280","800","0","0","0","5f61bbe3c18cc915aac68b32","","null","","","learningBlock1","","","","<div style=""font-size:60px;""> </div>","null","FL","learning/Slide50.JPG","That was a tob.","","",""
"image-keyboard-response","156","236103","0.0-5.0-0.50","FL","3b8h3oor4p","1280","800","0","0","0","5f61bbe3c18cc915aac68b32","","null","","","","","","","learning/Slide51.JPG","null","","","","","",""
"html-keyboard-response","157","237261","0.0-5.0-1.50","FL","3b8h3oor4p","1280","800","0","0","0","5f61bbe3c18cc915aac68b32","","null","","","learningBlock1","","","","That was a bim.","null","","","","","",""
"html-keyboard-response","158","238262","0.0-5.0-2.50","FL","3b8h3oor4p","1280","800","0","0","0","5f61bbe3c18cc915aac68b32","","null","","","learningBlock1","","","","<div style=""font-size:60px;""> </div>","null","FL","learning/Slide51.JPG","That was a bim.","","",""
"image-keyboard-response","159","238441","0.0-5.0-0.51","FL","3b8h3oor4p","1280","800","0","0","0","5f61bbe3c18cc915aac68b32","","null","","","","","","","learning/Slide52.JPG","null","","","","","",""
"html-keyboard-response","160","239598","0.0-5.0-1.51","FL","3b8h3oor4p","1280","800","0","0","0","5f61bbe3c18cc915aac68b32","","null","","","learningBlock1","","","","That was a wug.","null","","","","","",""
"html-keyboard-response","161","240601","0.0-5.0-2.51","FL","3b8h3oor4p","1280","800","0","0","0","5f61bbe3c18cc915aac68b32","","null","","","learningBlock1","","","","<div style=""font-size:60px;""> </div>","null","FL","learning/Slide52.JPG","That was a wug.","","",""
"image-keyboard-response","162","240779","0.0-5.0-0.52","FL","3b8h3oor4p","1280","800","0","0","0","5f61bbe3c18cc915aac68b32","","null","","","","","","","learning/Slide53.JPG","null","","","","","",""
"html-keyboard-response","163","241935","0.0-5.0-1.52","FL","3b8h3oor4p","1280","800","0","0","0","5f61bbe3c18cc915aac68b32","","null","","","learningBlock1","","","","That was a tob.","null","","","","","",""
"html-keyboard-response","164","242939","0.0-5.0-2.52","FL","3b8h3oor4p","1280","800","0","0","0","5f61bbe3c18cc915aac68b32","","null","","","learningBlock1","","","","<div style=""font-size:60px;""> </div>","null","FL","learning/Slide53.JPG","That was a tob.","","",""
"image-keyboard-response","165","243119","0.0-5.0-0.53","FL","3b8h3oor4p","1280","800","0","0","0","5f61bbe3c18cc915aac68b32","","null","","","","","","","learning/Slide54.JPG","null","","","","","",""
"html-keyboard-response","166","244275","0.0-5.0-1.53","FL","3b8h3oor4p","1280","800","0","0","0","5f61bbe3c18cc915aac68b32","","null","","","learningBlock1","","","","That was a dep.","null","","","","","",""
"html-keyboard-response","167","245277","0.0-5.0-2.53","FL","3b8h3oor4p","1280","800","0","0","0","5f61bbe3c18cc915aac68b32","","null","","","learningBlock1","","","","<div style=""font-size:60px;""> </div>","null","FL","learning/Slide54.JPG","That was a dep.","","",""
"image-keyboard-response","168","245457","0.0-5.0-0.54","FL","3b8h3oor4p","1280","800","0","0","0","5f61bbe3c18cc915aac68b32","","null","","","","","","","learning/Slide55.JPG","null","","","","","",""
"html-keyboard-response","169","246610","0.0-5.0-1.54","FL","3b8h3oor4p","1280","800","0","0","0","5f61bbe3c18cc915aac68b32","","null","","","learningBlock1","","","","That was a bim.","null","","","","","",""
"html-keyboard-response","170","247615","0.0-5.0-2.54","FL","3b8h3oor4p","1280","800","0","0","0","5f61bbe3c18cc915aac68b32","","null","","","learningBlock1","","","","<div style=""font-size:60px;""> </div>","null","FL","learning/Slide55.JPG","That was a bim.","","",""
"image-keyboard-response","171","247795","0.0-5.0-0.55","FL","3b8h3oor4p","1280","800","0","0","0","5f61bbe3c18cc915aac68b32","","null","","","","","","","learning/Slide56.JPG","null","","","","","",""
"html-keyboard-response","172","248950","0.0-5.0-1.55","FL","3b8h3oor4p","1280","800","0","0","0","5f61bbe3c18cc915aac68b32","","null","","","learningBlock1","","","","That was a tob.","null","","","","","",""
"html-keyboard-response","173","249954","0.0-5.0-2.55","FL","3b8h3oor4p","1280","800","0","0","0","5f61bbe3c18cc915aac68b32","","null","","","learningBlock1","","","","<div style=""font-size:60px;""> </div>","null","FL","learning/Slide56.JPG","That was a tob.","","",""
"image-keyboard-response","174","250133","0.0-5.0-0.56","FL","3b8h3oor4p","1280","800","0","0","0","5f61bbe3c18cc915aac68b32","","null","","","","","","","learning/Slide57.JPG","null","","","","","",""
"html-keyboard-response","175","251286","0.0-5.0-1.56","FL","3b8h3oor4p","1280","800","0","0","0","5f61bbe3c18cc915aac68b32","","null","","","learningBlock1","","","","That was a dep.","null","","","","","",""
"html-keyboard-response","176","252288","0.0-5.0-2.56","FL","3b8h3oor4p","1280","800","0","0","0","5f61bbe3c18cc915aac68b32","","null","","","learningBlock1","","","","<div style=""font-size:60px;""> </div>","null","FL","learning/Slide57.JPG","That was a dep.","","",""
"image-keyboard-response","177","252467","0.0-5.0-0.57","FL","3b8h3oor4p","1280","800","0","0","0","5f61bbe3c18cc915aac68b32","","null","","","","","","","learning/Slide58.JPG","null","","","","","",""
"html-keyboard-response","178","253623","0.0-5.0-1.57","FL","3b8h3oor4p","1280","800","0","0","0","5f61bbe3c18cc915aac68b32","","null","","","learningBlock1","","","","That was a wug.","null","","","","","",""
"html-keyboard-response","179","254626","0.0-5.0-2.57","FL","3b8h3oor4p","1280","800","0","0","0","5f61bbe3c18cc915aac68b32","","null","","","learningBlock1","","","","<div style=""font-size:60px;""> </div>","null","FL","learning/Slide58.JPG","That was a wug.","","",""
"image-keyboard-response","180","254805","0.0-5.0-0.58","FL","3b8h3oor4p","1280","800","0","0","0","5f61bbe3c18cc915aac68b32","","null","","","","","","","learning/Slide59.JPG","null","","","","","",""
"html-keyboard-response","181","255958","0.0-5.0-1.58","FL","3b8h3oor4p","1280","800","0","0","0","5f61bbe3c18cc915aac68b32","","null","","","learningBlock1","","","","That was a dep.","null","","","","","",""
"html-keyboard-response","182","256961","0.0-5.0-2.58","FL","3b8h3oor4p","1280","800","0","0","0","5f61bbe3c18cc915aac68b32","","null","","","learningBlock1","","","","<div style=""font-size:60px;""> </div>","null","FL","learning/Slide59.JPG","That was a dep.","","",""
"image-keyboard-response","183","257140","0.0-5.0-0.59","FL","3b8h3oor4p","1280","800","0","0","0","5f61bbe3c18cc915aac68b32","","null","","","","","","","learning/Slide60.JPG","null","","","","","",""
"html-keyboard-response","184","258293","0.0-5.0-1.59","FL","3b8h3oor4p","1280","800","0","0","0","5f61bbe3c18cc915aac68b32","","null","","","learningBlock1","","","","That was a wug.","null","","","","","",""
"html-keyboard-response","185","259296","0.0-5.0-2.59","FL","3b8h3oor4p","1280","800","0","0","0","5f61bbe3c18cc915aac68b32","","null","","","learningBlock1","","","","<div style=""font-size:60px;""> </div>","null","FL","learning/Slide60.JPG","That was a wug.","","",""
"image-keyboard-response","186","259474","0.0-5.0-0.60","FL","3b8h3oor4p","1280","800","0","0","0","5f61bbe3c18cc915aac68b32","","null","","","","","","","learning/Slide61.JPG","null","","","","","",""
"html-keyboard-response","187","260631","0.0-5.0-1.60","FL","3b8h3oor4p","1280","800","0","0","0","5f61bbe3c18cc915aac68b32","","null","","","learningBlock1","","","","That was a bim.","null","","","","","",""
"html-keyboard-response","188","261635","0.0-5.0-2.60","FL","3b8h3oor4p","1280","800","0","0","0","5f61bbe3c18cc915aac68b32","","null","","","learningBlock1","","","","<div style=""font-size:60px;""> </div>","null","FL","learning/Slide61.JPG","That was a bim.","","",""
"image-keyboard-response","189","261816","0.0-5.0-0.61","FL","3b8h3oor4p","1280","800","0","0","0","5f61bbe3c18cc915aac68b32","","null","","","","","","","learning/Slide62.JPG","null","","","","","",""
"html-keyboard-response","190","262969","0.0-5.0-1.61","FL","3b8h3oor4p","1280","800","0","0","0","5f61bbe3c18cc915aac68b32","","null","","","learningBlock1","","","","That was a dep.","null","","","","","",""
"html-keyboard-response","191","263973","0.0-5.0-2.61","FL","3b8h3oor4p","1280","800","0","0","0","5f61bbe3c18cc915aac68b32","","null","","","learningBlock1","","","","<div style=""font-size:60px;""> </div>","null","FL","learning/Slide62.JPG","That was a dep.","","",""
"image-keyboard-response","192","264154","0.0-5.0-0.62","FL","3b8h3oor4p","1280","800","0","0","0","5f61bbe3c18cc915aac68b32","","null","","","","","","","learning/Slide63.JPG","null","","","","","",""
"html-keyboard-response","193","265309","0.0-5.0-1.62","FL","3b8h3oor4p","1280","800","0","0","0","5f61bbe3c18cc915aac68b32","","null","","","learningBlock1","","","","That was a bim.","null","","","","","",""
"html-keyboard-response","194","266315","0.0-5.0-2.62","FL","3b8h3oor4p","1280","800","0","0","0","5f61bbe3c18cc915aac68b32","","null","","","learningBlock1","","","","<div style=""font-size:60px;""> </div>","null","FL","learning/Slide63.JPG","That was a bim.","","",""
"image-keyboard-response","195","266496","0.0-5.0-0.63","FL","3b8h3oor4p","1280","800","0","0","0","5f61bbe3c18cc915aac68b32","","null","","","","","","","learning/Slide64.JPG","null","","","","","",""
"html-keyboard-response","196","267650","0.0-5.0-1.63","FL","3b8h3oor4p","1280","800","0","0","0","5f61bbe3c18cc915aac68b32","","null","","","learningBlock1","","","","That was a tob.","null","","","","","",""
"html-keyboard-response","197","268654","0.0-5.0-2.63","FL","3b8h3oor4p","1280","800","0","0","0","5f61bbe3c18cc915aac68b32","","null","","","learningBlock1","","","","<div style=""font-size:60px;""> </div>","null","FL","learning/Slide64.JPG","That was a tob.","","",""
"image-keyboard-response","198","268831","0.0-5.0-0.64","FL","3b8h3oor4p","1280","800","0","0","0","5f61bbe3c18cc915aac68b32","","null","","","","","","","learning/Slide65.JPG","null","","","","","",""
"html-keyboard-response","199","269983","0.0-5.0-1.64","FL","3b8h3oor4p","1280","800","0","0","0","5f61bbe3c18cc915aac68b32","","null","","","learningBlock1","","","","That was a wug.","null","","","","","",""
"html-keyboard-response","200","270984","0.0-5.0-2.64","FL","3b8h3oor4p","1280","800","0","0","0","5f61bbe3c18cc915aac68b32","","null","","","learningBlock1","","","","<div style=""font-size:60px;""> </div>","null","FL","learning/Slide65.JPG","That was a wug.","","",""
"image-keyboard-response","201","271162","0.0-5.0-0.65","FL","3b8h3oor4p","1280","800","0","0","0","5f61bbe3c18cc915aac68b32","","null","","","","","","","learning/Slide66.JPG","null","","","","","",""
"html-keyboard-response","202","272319","0.0-5.0-1.65","FL","3b8h3oor4p","1280","800","0","0","0","5f61bbe3c18cc915aac68b32","","null","","","learningBlock1","","","","That was a dep.","null","","","","","",""
"html-keyboard-response","203","273322","0.0-5.0-2.65","FL","3b8h3oor4p","1280","800","0","0","0","5f61bbe3c18cc915aac68b32","","null","","","learningBlock1","","","","<div style=""font-size:60px;""> </div>","null","FL","learning/Slide66.JPG","That was a dep.","","",""
"image-keyboard-response","204","273501","0.0-5.0-0.66","FL","3b8h3oor4p","1280","800","0","0","0","5f61bbe3c18cc915aac68b32","","null","","","","","","","learning/Slide67.JPG","null","","","","","",""
"html-keyboard-response","205","274654","0.0-5.0-1.66","FL","3b8h3oor4p","1280","800","0","0","0","5f61bbe3c18cc915aac68b32","","null","","","learningBlock1","","","","That was a tob.","null","","","","","",""
"html-keyboard-response","206","275656","0.0-5.0-2.66","FL","3b8h3oor4p","1280","800","0","0","0","5f61bbe3c18cc915aac68b32","","null","","","learningBlock1","","","","<div style=""font-size:60px;""> </div>","null","FL","learning/Slide67.JPG","That was a tob.","","",""
"image-keyboard-response","207","275834","0.0-5.0-0.67","FL","3b8h3oor4p","1280","800","0","0","0","5f61bbe3c18cc915aac68b32","","null","","","","","","","learning/Slide68.JPG","null","","","","","",""
"html-keyboard-response","208","276989","0.0-5.0-1.67","FL","3b8h3oor4p","1280","800","0","0","0","5f61bbe3c18cc915aac68b32","","null","","","learningBlock1","","","","That was a wug.","null","","","","","",""
"html-keyboard-response","209","277992","0.0-5.0-2.67","FL","3b8h3oor4p","1280","800","0","0","0","5f61bbe3c18cc915aac68b32","","null","","","learningBlock1","","","","<div style=""font-size:60px;""> </div>","null","FL","learning/Slide68.JPG","That was a wug.","","",""
"image-keyboard-response","210","278170","0.0-5.0-0.68","FL","3b8h3oor4p","1280","800","0","0","0","5f61bbe3c18cc915aac68b32","","null","","","","","","","learning/Slide69.JPG","null","","","","","",""
"html-keyboard-response","211","279325","0.0-5.0-1.68","FL","3b8h3oor4p","1280","800","0","0","0","5f61bbe3c18cc915aac68b32","","null","","","learningBlock1","","","","That was a tob.","null","","","","","",""
"html-keyboard-response","212","280329","0.0-5.0-2.68","FL","3b8h3oor4p","1280","800","0","0","0","5f61bbe3c18cc915aac68b32","","null","","","learningBlock1","","","","<div style=""font-size:60px;""> </div>","null","FL","learning/Slide69.JPG","That was a tob.","","",""
"image-keyboard-response","213","280505","0.0-5.0-0.69","FL","3b8h3oor4p","1280","800","0","0","0","5f61bbe3c18cc915aac68b32","","null","","","","","","","learning/Slide70.JPG","null","","","","","",""
"html-keyboard-response","214","281662","0.0-5.0-1.69","FL","3b8h3oor4p","1280","800","0","0","0","5f61bbe3c18cc915aac68b32","","null","","","learningBlock1","","","","That was a dep.","null","","","","","",""
"html-keyboard-response","215","282665","0.0-5.0-2.69","FL","3b8h3oor4p","1280","800","0","0","0","5f61bbe3c18cc915aac68b32","","null","","","learningBlock1","","","","<div style=""font-size:60px;""> </div>","null","FL","learning/Slide70.JPG","That was a dep.","","",""
"image-keyboard-response","216","282844","0.0-5.0-0.70","FL","3b8h3oor4p","1280","800","0","0","0","5f61bbe3c18cc915aac68b32","","null","","","","","","","learning/Slide71.JPG","null","","","","","",""
"html-keyboard-response","217","283998","0.0-5.0-1.70","FL","3b8h3oor4p","1280","800","0","0","0","5f61bbe3c18cc915aac68b32","","null","","","learningBlock1","","","","That was a wug.","null","","","","","",""
"html-keyboard-response","218","285000","0.0-5.0-2.70","FL","3b8h3oor4p","1280","800","0","0","0","5f61bbe3c18cc915aac68b32","","null","","","learningBlock1","","","","<div style=""font-size:60px;""> </div>","null","FL","learning/Slide71.JPG","That was a wug.","","",""
"image-keyboard-response","219","285178","0.0-5.0-0.71","FL","3b8h3oor4p","1280","800","0","0","0","5f61bbe3c18cc915aac68b32","","null","","","","","","","learning/Slide72.JPG","null","","","","","",""
"html-keyboard-response","220","286332","0.0-5.0-1.71","FL","3b8h3oor4p","1280","800","0","0","0","5f61bbe3c18cc915aac68b32","","null","","","learningBlock1","","","","That was a bim.","null","","","","","",""
"html-keyboard-response","221","287335","0.0-5.0-2.71","FL","3b8h3oor4p","1280","800","0","0","0","5f61bbe3c18cc915aac68b32","","null","","","learningBlock1","","","","<div style=""font-size:60px;""> </div>","null","FL","learning/Slide72.JPG","That was a bim.","","",""
"image-keyboard-response","222","287514","0.0-5.0-0.72","FL","3b8h3oor4p","1280","800","0","0","0","5f61bbe3c18cc915aac68b32","","null","","","","","","","learning/Slide73.JPG","null","","","","","",""
"html-keyboard-response","223","288668","0.0-5.0-1.72","FL","3b8h3oor4p","1280","800","0","0","0","5f61bbe3c18cc915aac68b32","","null","","","learningBlock1","","","","That was a wug.","null","","","","","",""
"html-keyboard-response","224","289672","0.0-5.0-2.72","FL","3b8h3oor4p","1280","800","0","0","0","5f61bbe3c18cc915aac68b32","","null","","","learningBlock1","","","","<div style=""font-size:60px;""> </div>","null","FL","learning/Slide73.JPG","That was a wug.","","",""
"image-keyboard-response","225","289850","0.0-5.0-0.73","FL","3b8h3oor4p","1280","800","0","0","0","5f61bbe3c18cc915aac68b32","","null","","","","","","","learning/Slide74.JPG","null","","","","","",""
"html-keyboard-response","226","291003","0.0-5.0-1.73","FL","3b8h3oor4p","1280","800","0","0","0","5f61bbe3c18cc915aac68b32","","null","","","learningBlock1","","","","That was a dep.","null","","","","","",""
"html-keyboard-response","227","292007","0.0-5.0-2.73","FL","3b8h3oor4p","1280","800","0","0","0","5f61bbe3c18cc915aac68b32","","null","","","learningBlock1","","","","<div style=""font-size:60px;""> </div>","null","FL","learning/Slide74.JPG","That was a dep.","","",""
"image-keyboard-response","228","292185","0.0-5.0-0.74","FL","3b8h3oor4p","1280","800","0","0","0","5f61bbe3c18cc915aac68b32","","null","","","","","","","learning/Slide75.JPG","null","","","","","",""
"html-keyboard-response","229","293339","0.0-5.0-1.74","FL","3b8h3oor4p","1280","800","0","0","0","5f61bbe3c18cc915aac68b32","","null","","","learningBlock1","","","","That was a tob.","null","","","","","",""
"html-keyboard-response","230","294342","0.0-5.0-2.74","FL","3b8h3oor4p","1280","800","0","0","0","5f61bbe3c18cc915aac68b32","","null","","","learningBlock1","","","","<div style=""font-size:60px;""> </div>","null","FL","learning/Slide75.JPG","That was a tob.","","",""
"image-keyboard-response","231","294521","0.0-5.0-0.75","FL","3b8h3oor4p","1280","800","0","0","0","5f61bbe3c18cc915aac68b32","","null","","","","","","","learning/Slide76.JPG","null","","","","","",""
"html-keyboard-response","232","295673","0.0-5.0-1.75","FL","3b8h3oor4p","1280","800","0","0","0","5f61bbe3c18cc915aac68b32","","null","","","learningBlock1","","","","That was a bim.","null","","","","","",""
"html-keyboard-response","233","296675","0.0-5.0-2.75","FL","3b8h3oor4p","1280","800","0","0","0","5f61bbe3c18cc915aac68b32","","null","","","learningBlock1","","","","<div style=""font-size:60px;""> </div>","null","FL","learning/Slide76.JPG","That was a bim.","","",""
"image-keyboard-response","234","296854","0.0-5.0-0.76","FL","3b8h3oor4p","1280","800","0","0","0","5f61bbe3c18cc915aac68b32","","null","","","","","","","learning/Slide77.JPG","null","","","","","",""
"html-keyboard-response","235","298010","0.0-5.0-1.76","FL","3b8h3oor4p","1280","800","0","0","0","5f61bbe3c18cc915aac68b32","","null","","","learningBlock1","","","","That was a tob.","null","","","","","",""
"html-keyboard-response","236","299011","0.0-5.0-2.76","FL","3b8h3oor4p","1280","800","0","0","0","5f61bbe3c18cc915aac68b32","","null","","","learningBlock1","","","","<div style=""font-size:60px;""> </div>","null","FL","learning/Slide77.JPG","That was a tob.","","",""
"image-keyboard-response","237","299189","0.0-5.0-0.77","FL","3b8h3oor4p","1280","800","0","0","0","5f61bbe3c18cc915aac68b32","","null","","","","","","","learning/Slide78.JPG","null","","","","","",""
"html-keyboard-response","238","300343","0.0-5.0-1.77","FL","3b8h3oor4p","1280","800","0","0","0","5f61bbe3c18cc915aac68b32","","null","","","learningBlock1","","","","That was a wug.","null","","","","","",""
"html-keyboard-response","239","301345","0.0-5.0-2.77","FL","3b8h3oor4p","1280","800","0","0","0","5f61bbe3c18cc915aac68b32","","null","","","learningBlock1","","","","<div style=""font-size:60px;""> </div>","null","FL","learning/Slide78.JPG","That was a wug.","","",""
"image-keyboard-response","240","301523","0.0-5.0-0.78","FL","3b8h3oor4p","1280","800","0","0","0","5f61bbe3c18cc915aac68b32","","null","","","","","","","learning/Slide79.JPG","null","","","","","",""
"html-keyboard-response","241","302677","0.0-5.0-1.78","FL","3b8h3oor4p","1280","800","0","0","0","5f61bbe3c18cc915aac68b32","","null","","","learningBlock1","","","","That was a bim.","null","","","","","",""
"html-keyboard-response","242","303680","0.0-5.0-2.78","FL","3b8h3oor4p","1280","800","0","0","0","5f61bbe3c18cc915aac68b32","","null","","","learningBlock1","","","","<div style=""font-size:60px;""> </div>","null","FL","learning/Slide79.JPG","That was a bim.","","",""
"image-keyboard-response","243","303858","0.0-5.0-0.79","FL","3b8h3oor4p","1280","800","0","0","0","5f61bbe3c18cc915aac68b32","","null","","","","","","","learning/Slide80.JPG","null","","","","","",""
"html-keyboard-response","244","305015","0.0-5.0-1.79","FL","3b8h3oor4p","1280","800","0","0","0","5f61bbe3c18cc915aac68b32","","null","","","learningBlock1","","","","That was a tob.","null","","","","","",""
"html-keyboard-response","245","306019","0.0-5.0-2.79","FL","3b8h3oor4p","1280","800","0","0","0","5f61bbe3c18cc915aac68b32","","null","","","learningBlock1","","","","<div style=""font-size:60px;""> </div>","null","FL","learning/Slide80.JPG","That was a tob.","","",""
"instructions","246","383257","0.0-6.0","FL","3b8h3oor4p","1280","800","0","0","0","5f61bbe3c18cc915aac68b32","","NA","","[{""page_index"":0,""viewing_time"":77241.12500000047}]","instructions","","","","","","","","","","",""
"image-keyboard-response","247","383478","0.0-7.0-0.0","FL","3b8h3oor4p","1280","800","0","0","0","5f61bbe3c18cc915aac68b32","","null","","","","","","","learning/Slide81.JPG","null","","","","","",""
"html-keyboard-response","248","384633","0.0-7.0-1.0","FL","3b8h3oor4p","1280","800","0","0","0","5f61bbe3c18cc915aac68b32","","null","","","learningBlock2","","","","That was a wug.","null","","","","","",""
"html-keyboard-response","249","385634","0.0-7.0-2.0","FL","3b8h3oor4p","1280","800","0","0","0","5f61bbe3c18cc915aac68b32","","null","","","learningBlock2","","","","<div style=""font-size:60px;""> </div>","null","FL","learning/Slide81.JPG","That was a wug.","","",""
"image-keyboard-response","250","385812","0.0-7.0-0.1","FL","3b8h3oor4p","1280","800","0","0","0","5f61bbe3c18cc915aac68b32","","null","","","","","","","learning/Slide82.JPG","null","","","","","",""
"html-keyboard-response","251","386968","0.0-7.0-1.1","FL","3b8h3oor4p","1280","800","0","0","0","5f61bbe3c18cc915aac68b32","","null","","","learningBlock2","","","","That was a bim.","null","","","","","",""
"html-keyboard-response","252","387972","0.0-7.0-2.1","FL","3b8h3oor4p","1280","800","0","0","0","5f61bbe3c18cc915aac68b32","","null","","","learningBlock2","","","","<div style=""font-size:60px;""> </div>","null","FL","learning/Slide82.JPG","That was a bim.","","",""
"image-keyboard-response","253","388152","0.0-7.0-0.2","FL","3b8h3oor4p","1280","800","0","0","0","5f61bbe3c18cc915aac68b32","","null","","","","","","","learning/Slide83.JPG","null","","","","","",""
"html-keyboard-response","254","389306","0.0-7.0-1.2","FL","3b8h3oor4p","1280","800","0","0","0","5f61bbe3c18cc915aac68b32","","null","","","learningBlock2","","","","That was a wug.","null","","","","","",""
"html-keyboard-response","255","390310","0.0-7.0-2.2","FL","3b8h3oor4p","1280","800","0","0","0","5f61bbe3c18cc915aac68b32","","null","","","learningBlock2","","","","<div style=""font-size:60px;""> </div>","null","FL","learning/Slide83.JPG","That was a wug.","","",""
"image-keyboard-response","256","390489","0.0-7.0-0.3","FL","3b8h3oor4p","1280","800","0","0","0","5f61bbe3c18cc915aac68b32","","null","","","","","","","learning/Slide84.JPG","null","","","","","",""
"html-keyboard-response","257","391643","0.0-7.0-1.3","FL","3b8h3oor4p","1280","800","0","0","0","5f61bbe3c18cc915aac68b32","","null","","","learningBlock2","","","","That was a dep.","null","","","","","",""
"html-keyboard-response","258","392647","0.0-7.0-2.3","FL","3b8h3oor4p","1280","800","0","0","0","5f61bbe3c18cc915aac68b32","","null","","","learningBlock2","","","","<div style=""font-size:60px;""> </div>","null","FL","learning/Slide84.JPG","That was a dep.","","",""
"image-keyboard-response","259","392826","0.0-7.0-0.4","FL","3b8h3oor4p","1280","800","0","0","0","5f61bbe3c18cc915aac68b32","","null","","","","","","","learning/Slide85.JPG","null","","","","","",""
"html-keyboard-response","260","393981","0.0-7.0-1.4","FL","3b8h3oor4p","1280","800","0","0","0","5f61bbe3c18cc915aac68b32","","null","","","learningBlock2","","","","That was a bim.","null","","","","","",""
"html-keyboard-response","261","394984","0.0-7.0-2.4","FL","3b8h3oor4p","1280","800","0","0","0","5f61bbe3c18cc915aac68b32","","null","","","learningBlock2","","","","<div style=""font-size:60px;""> </div>","null","FL","learning/Slide85.JPG","That was a bim.","","",""
"image-keyboard-response","262","395163","0.0-7.0-0.5","FL","3b8h3oor4p","1280","800","0","0","0","5f61bbe3c18cc915aac68b32","","null","","","","","","","learning/Slide86.JPG","null","","","","","",""
"html-keyboard-response","263","396315","0.0-7.0-1.5","FL","3b8h3oor4p","1280","800","0","0","0","5f61bbe3c18cc915aac68b32","","null","","","learningBlock2","","","","That was a tob.","null","","","","","",""
"html-keyboard-response","264","397317","0.0-7.0-2.5","FL","3b8h3oor4p","1280","800","0","0","0","5f61bbe3c18cc915aac68b32","","null","","","learningBlock2","","","","<div style=""font-size:60px;""> </div>","null","FL","learning/Slide86.JPG","That was a tob.","","",""
"image-keyboard-response","265","397498","0.0-7.0-0.6","FL","3b8h3oor4p","1280","800","0","0","0","5f61bbe3c18cc915aac68b32","","null","","","","","","","learning/Slide87.JPG","null","","","","","",""
"html-keyboard-response","266","398653","0.0-7.0-1.6","FL","3b8h3oor4p","1280","800","0","0","0","5f61bbe3c18cc915aac68b32","","null","","","learningBlock2","","","","That was a wug.","null","","","","","",""
"html-keyboard-response","267","399657","0.0-7.0-2.6","FL","3b8h3oor4p","1280","800","0","0","0","5f61bbe3c18cc915aac68b32","","null","","","learningBlock2","","","","<div style=""font-size:60px;""> </div>","null","FL","learning/Slide87.JPG","That was a wug.","","",""
"image-keyboard-response","268","399835","0.0-7.0-0.7","FL","3b8h3oor4p","1280","800","0","0","0","5f61bbe3c18cc915aac68b32","","null","","","","","","","learning/Slide88.JPG","null","","","","","",""
"html-keyboard-response","269","400990","0.0-7.0-1.7","FL","3b8h3oor4p","1280","800","0","0","0","5f61bbe3c18cc915aac68b32","","null","","","learningBlock2","","","","That was a tob.","null","","","","","",""
"html-keyboard-response","270","401993","0.0-7.0-2.7","FL","3b8h3oor4p","1280","800","0","0","0","5f61bbe3c18cc915aac68b32","","null","","","learningBlock2","","","","<div style=""font-size:60px;""> </div>","null","FL","learning/Slide88.JPG","That was a tob.","","",""
"image-keyboard-response","271","402173","0.0-7.0-0.8","FL","3b8h3oor4p","1280","800","0","0","0","5f61bbe3c18cc915aac68b32","","null","","","","","","","learning/Slide89.JPG","null","","","","","",""
"html-keyboard-response","272","403329","0.0-7.0-1.8","FL","3b8h3oor4p","1280","800","0","0","0","5f61bbe3c18cc915aac68b32","","null","","","learningBlock2","","","","That was a bim.","null","","","","","",""
"html-keyboard-response","273","404331","0.0-7.0-2.8","FL","3b8h3oor4p","1280","800","0","0","0","5f61bbe3c18cc915aac68b32","","null","","","learningBlock2","","","","<div style=""font-size:60px;""> </div>","null","FL","learning/Slide89.JPG","That was a bim.","","",""
"image-keyboard-response","274","404508","0.0-7.0-0.9","FL","3b8h3oor4p","1280","800","0","0","0","5f61bbe3c18cc915aac68b32","","null","","","","","","","learning/Slide90.JPG","null","","","","","",""
"html-keyboard-response","275","405662","0.0-7.0-1.9","FL","3b8h3oor4p","1280","800","0","0","0","5f61bbe3c18cc915aac68b32","","null","","","learningBlock2","","","","That was a dep.","null","","","","","",""
"html-keyboard-response","276","406667","0.0-7.0-2.9","FL","3b8h3oor4p","1280","800","0","0","0","5f61bbe3c18cc915aac68b32","","null","","","learningBlock2","","","","<div style=""font-size:60px;""> </div>","null","FL","learning/Slide90.JPG","That was a dep.","","",""
"image-keyboard-response","277","406846","0.0-7.0-0.10","FL","3b8h3oor4p","1280","800","0","0","0","5f61bbe3c18cc915aac68b32","","null","","","","","","","learning/Slide91.JPG","null","","","","","",""
"html-keyboard-response","278","408000","0.0-7.0-1.10","FL","3b8h3oor4p","1280","800","0","0","0","5f61bbe3c18cc915aac68b32","","null","","","learningBlock2","","","","That was a wug.","null","","","","","",""
"html-keyboard-response","279","409003","0.0-7.0-2.10","FL","3b8h3oor4p","1280","800","0","0","0","5f61bbe3c18cc915aac68b32","","null","","","learningBlock2","","","","<div style=""font-size:60px;""> </div>","null","FL","learning/Slide91.JPG","That was a wug.","","",""
"image-keyboard-response","280","409181","0.0-7.0-0.11","FL","3b8h3oor4p","1280","800","0","0","0","5f61bbe3c18cc915aac68b32","","null","","","","","","","learning/Slide92.JPG","null","","","","","",""
"html-keyboard-response","281","410333","0.0-7.0-1.11","FL","3b8h3oor4p","1280","800","0","0","0","5f61bbe3c18cc915aac68b32","","null","","","learningBlock2","","","","That was a tob.","null","","","","","",""
"html-keyboard-response","282","411335","0.0-7.0-2.11","FL","3b8h3oor4p","1280","800","0","0","0","5f61bbe3c18cc915aac68b32","","null","","","learningBlock2","","","","<div style=""font-size:60px;""> </div>","null","FL","learning/Slide92.JPG","That was a tob.","","",""
"image-keyboard-response","283","411512","0.0-7.0-0.12","FL","3b8h3oor4p","1280","800","0","0","0","5f61bbe3c18cc915aac68b32","","null","","","","","","","learning/Slide93.JPG","null","","","","","",""
"html-keyboard-response","284","412665","0.0-7.0-1.12","FL","3b8h3oor4p","1280","800","0","0","0","5f61bbe3c18cc915aac68b32","","null","","","learningBlock2","","","","That was a bim.","null","","","","","",""
"html-keyboard-response","285","413667","0.0-7.0-2.12","FL","3b8h3oor4p","1280","800","0","0","0","5f61bbe3c18cc915aac68b32","","null","","","learningBlock2","","","","<div style=""font-size:60px;""> </div>","null","FL","learning/Slide93.JPG","That was a bim.","","",""
"image-keyboard-response","286","413845","0.0-7.0-0.13","FL","3b8h3oor4p","1280","800","0","0","0","5f61bbe3c18cc915aac68b32","","null","","","","","","","learning/Slide94.JPG","null","","","","","",""
"html-keyboard-response","287","414999","0.0-7.0-1.13","FL","3b8h3oor4p","1280","800","0","0","0","5f61bbe3c18cc915aac68b32","","null","","","learningBlock2","","","","That was a tob.","null","","","","","",""
"html-keyboard-response","288","416002","0.0-7.0-2.13","FL","3b8h3oor4p","1280","800","0","0","0","5f61bbe3c18cc915aac68b32","","null","","","learningBlock2","","","","<div style=""font-size:60px;""> </div>","null","FL","learning/Slide94.JPG","That was a tob.","","",""
"image-keyboard-response","289","416179","0.0-7.0-0.14","FL","3b8h3oor4p","1280","800","0","0","0","5f61bbe3c18cc915aac68b32","","null","","","","","","","learning/Slide95.JPG","null","","","","","",""
"html-keyboard-response","290","417331","0.0-7.0-1.14","FL","3b8h3oor4p","1280","800","0","0","0","5f61bbe3c18cc915aac68b32","","null","","","learningBlock2","","","","That was a wug.","null","","","","","",""
"html-keyboard-response","291","418332","0.0-7.0-2.14","FL","3b8h3oor4p","1280","800","0","0","0","5f61bbe3c18cc915aac68b32","","null","","","learningBlock2","","","","<div style=""font-size:60px;""> </div>","null","FL","learning/Slide95.JPG","That was a wug.","","",""
"image-keyboard-response","292","418510","0.0-7.0-0.15","FL","3b8h3oor4p","1280","800","0","0","0","5f61bbe3c18cc915aac68b32","","null","","","","","","","learning/Slide96.JPG","null","","","","","",""
"html-keyboard-response","293","419665","0.0-7.0-1.15","FL","3b8h3oor4p","1280","800","0","0","0","5f61bbe3c18cc915aac68b32","","null","","","learningBlock2","","","","That was a tob.","null","","","","","",""
"html-keyboard-response","294","420668","0.0-7.0-2.15","FL","3b8h3oor4p","1280","800","0","0","0","5f61bbe3c18cc915aac68b32","","null","","","learningBlock2","","","","<div style=""font-size:60px;""> </div>","null","FL","learning/Slide96.JPG","That was a tob.","","",""
"image-keyboard-response","295","420848","0.0-7.0-0.16","FL","3b8h3oor4p","1280","800","0","0","0","5f61bbe3c18cc915aac68b32","","null","","","","","","","learning/Slide97.JPG","null","","","","","",""
"html-keyboard-response","296","422003","0.0-7.0-1.16","FL","3b8h3oor4p","1280","800","0","0","0","5f61bbe3c18cc915aac68b32","","null","","","learningBlock2","","","","That was a dep.","null","","","","","",""
"html-keyboard-response","297","423005","0.0-7.0-2.16","FL","3b8h3oor4p","1280","800","0","0","0","5f61bbe3c18cc915aac68b32","","null","","","learningBlock2","","","","<div style=""font-size:60px;""> </div>","null","FL","learning/Slide97.JPG","That was a dep.","","",""
"image-keyboard-response","298","423184","0.0-7.0-0.17","FL","3b8h3oor4p","1280","800","0","0","0","5f61bbe3c18cc915aac68b32","","null","","","","","","","learning/Slide98.JPG","null","","","","","",""
"html-keyboard-response","299","424338","0.0-7.0-1.17","FL","3b8h3oor4p","1280","800","0","0","0","5f61bbe3c18cc915aac68b32","","null","","","learningBlock2","","","","That was a bim.","null","","","","","",""
"html-keyboard-response","300","425340","0.0-7.0-2.17","FL","3b8h3oor4p","1280","800","0","0","0","5f61bbe3c18cc915aac68b32","","null","","","learningBlock2","","","","<div style=""font-size:60px;""> </div>","null","FL","learning/Slide98.JPG","That was a bim.","","",""
"image-keyboard-response","301","425519","0.0-7.0-0.18","FL","3b8h3oor4p","1280","800","0","0","0","5f61bbe3c18cc915aac68b32","","null","","","","","","","learning/Slide99.JPG","null","","","","","",""
"html-keyboard-response","302","426674","0.0-7.0-1.18","FL","3b8h3oor4p","1280","800","0","0","0","5f61bbe3c18cc915aac68b32","","null","","","learningBlock2","","","","That was a dep.","null","","","","","",""
"html-keyboard-response","303","427677","0.0-7.0-2.18","FL","3b8h3oor4p","1280","800","0","0","0","5f61bbe3c18cc915aac68b32","","null","","","learningBlock2","","","","<div style=""font-size:60px;""> </div>","null","FL","learning/Slide99.JPG","That was a dep.","","",""
"image-keyboard-response","304","427857","0.0-7.0-0.19","FL","3b8h3oor4p","1280","800","0","0","0","5f61bbe3c18cc915aac68b32","","null","","","","","","","learning/Slide100.JPG","null","","","","","",""
"html-keyboard-response","305","429013","0.0-7.0-1.19","FL","3b8h3oor4p","1280","800","0","0","0","5f61bbe3c18cc915aac68b32","","null","","","learningBlock2","","","","That was a bim.","null","","","","","",""
"html-keyboard-response","306","430015","0.0-7.0-2.19","FL","3b8h3oor4p","1280","800","0","0","0","5f61bbe3c18cc915aac68b32","","null","","","learningBlock2","","","","<div style=""font-size:60px;""> </div>","null","FL","learning/Slide100.JPG","That was a bim.","","",""
"image-keyboard-response","307","430193","0.0-7.0-0.20","FL","3b8h3oor4p","1280","800","0","0","0","5f61bbe3c18cc915aac68b32","","null","","","","","","","learning/Slide101.JPG","null","","","","","",""
"html-keyboard-response","308","431348","0.0-7.0-1.20","FL","3b8h3oor4p","1280","800","0","0","0","5f61bbe3c18cc915aac68b32","","null","","","learningBlock2","","","","That was a tob.","null","","","","","",""
"html-keyboard-response","309","432350","0.0-7.0-2.20","FL","3b8h3oor4p","1280","800","0","0","0","5f61bbe3c18cc915aac68b32","","null","","","learningBlock2","","","","<div style=""font-size:60px;""> </div>","null","FL","learning/Slide101.JPG","That was a tob.","","",""
"image-keyboard-response","310","432527","0.0-7.0-0.21","FL","3b8h3oor4p","1280","800","0","0","0","5f61bbe3c18cc915aac68b32","","null","","","","","","","learning/Slide102.JPG","null","","","","","",""
"html-keyboard-response","311","433682","0.0-7.0-1.21","FL","3b8h3oor4p","1280","800","0","0","0","5f61bbe3c18cc915aac68b32","","null","","","learningBlock2","","","","That was a bim.","null","","","","","",""
"html-keyboard-response","312","434685","0.0-7.0-2.21","FL","3b8h3oor4p","1280","800","0","0","0","5f61bbe3c18cc915aac68b32","","null","","","learningBlock2","","","","<div style=""font-size:60px;""> </div>","null","FL","learning/Slide102.JPG","That was a bim.","","",""
"image-keyboard-response","313","434862","0.0-7.0-0.22","FL","3b8h3oor4p","1280","800","0","0","0","5f61bbe3c18cc915aac68b32","","null","","","","","","","learning/Slide103.JPG","null","","","","","",""
"html-keyboard-response","314","436014","0.0-7.0-1.22","FL","3b8h3oor4p","1280","800","0","0","0","5f61bbe3c18cc915aac68b32","","null","","","learningBlock2","","","","That was a dep.","null","","","","","",""
"html-keyboard-response","315","437016","0.0-7.0-2.22","FL","3b8h3oor4p","1280","800","0","0","0","5f61bbe3c18cc915aac68b32","","null","","","learningBlock2","","","","<div style=""font-size:60px;""> </div>","null","FL","learning/Slide103.JPG","That was a dep.","","",""
"image-keyboard-response","316","437195","0.0-7.0-0.23","FL","3b8h3oor4p","1280","800","0","0","0","5f61bbe3c18cc915aac68b32","","null","","","","","","","learning/Slide104.JPG","null","","","","","",""
"html-keyboard-response","317","438347","0.0-7.0-1.23","FL","3b8h3oor4p","1280","800","0","0","0","5f61bbe3c18cc915aac68b32","","null","","","learningBlock2","","","","That was a tob.","null","","","","","",""
"html-keyboard-response","318","439349","0.0-7.0-2.23","FL","3b8h3oor4p","1280","800","0","0","0","5f61bbe3c18cc915aac68b32","","null","","","learningBlock2","","","","<div style=""font-size:60px;""> </div>","null","FL","learning/Slide104.JPG","That was a tob.","","",""
"image-keyboard-response","319","439528","0.0-7.0-0.24","FL","3b8h3oor4p","1280","800","0","0","0","5f61bbe3c18cc915aac68b32","","null","","","","","","","learning/Slide105.JPG","null","","","","","",""
"html-keyboard-response","320","440684","0.0-7.0-1.24","FL","3b8h3oor4p","1280","800","0","0","0","5f61bbe3c18cc915aac68b32","","null","","","learningBlock2","","","","That was a dep.","null","","","","","",""
"html-keyboard-response","321","441686","0.0-7.0-2.24","FL","3b8h3oor4p","1280","800","0","0","0","5f61bbe3c18cc915aac68b32","","null","","","learningBlock2","","","","<div style=""font-size:60px;""> </div>","null","FL","learning/Slide105.JPG","That was a dep.","","",""
"image-keyboard-response","322","441864","0.0-7.0-0.25","FL","3b8h3oor4p","1280","800","0","0","0","5f61bbe3c18cc915aac68b32","","null","","","","","","","learning/Slide106.JPG","null","","","","","",""
"html-keyboard-response","323","443017","0.0-7.0-1.25","FL","3b8h3oor4p","1280","800","0","0","0","5f61bbe3c18cc915aac68b32","","null","","","learningBlock2","","","","That was a wug.","null","","","","","",""
"html-keyboard-response","324","444020","0.0-7.0-2.25","FL","3b8h3oor4p","1280","800","0","0","0","5f61bbe3c18cc915aac68b32","","null","","","learningBlock2","","","","<div style=""font-size:60px;""> </div>","null","FL","learning/Slide106.JPG","That was a wug.","","",""
"image-keyboard-response","325","444200","0.0-7.0-0.26","FL","3b8h3oor4p","1280","800","0","0","0","5f61bbe3c18cc915aac68b32","","null","","","","","","","learning/Slide107.JPG","null","","","","","",""
"html-keyboard-response","326","445354","0.0-7.0-1.26","FL","3b8h3oor4p","1280","800","0","0","0","5f61bbe3c18cc915aac68b32","","null","","","learningBlock2","","","","That was a bim.","null","","","","","",""
"html-keyboard-response","327","446357","0.0-7.0-2.26","FL","3b8h3oor4p","1280","800","0","0","0","5f61bbe3c18cc915aac68b32","","null","","","learningBlock2","","","","<div style=""font-size:60px;""> </div>","null","FL","learning/Slide107.JPG","That was a bim.","","",""
"image-keyboard-response","328","446535","0.0-7.0-0.27","FL","3b8h3oor4p","1280","800","0","0","0","5f61bbe3c18cc915aac68b32","","null","","","","","","","learning/Slide108.JPG","null","","","","","",""
"html-keyboard-response","329","447691","0.0-7.0-1.27","FL","3b8h3oor4p","1280","800","0","0","0","5f61bbe3c18cc915aac68b32","","null","","","learningBlock2","","","","That was a dep.","null","","","","","",""
"html-keyboard-response","330","448694","0.0-7.0-2.27","FL","3b8h3oor4p","1280","800","0","0","0","5f61bbe3c18cc915aac68b32","","null","","","learningBlock2","","","","<div style=""font-size:60px;""> </div>","null","FL","learning/Slide108.JPG","That was a dep.","","",""
"image-keyboard-response","331","448872","0.0-7.0-0.28","FL","3b8h3oor4p","1280","800","0","0","0","5f61bbe3c18cc915aac68b32","","null","","","","","","","learning/Slide109.JPG","null","","","","","",""
"html-keyboard-response","332","450026","0.0-7.0-1.28","FL","3b8h3oor4p","1280","800","0","0","0","5f61bbe3c18cc915aac68b32","","null","","","learningBlock2","","","","That was a wug.","null","","","","","",""
"html-keyboard-response","333","451030","0.0-7.0-2.28","FL","3b8h3oor4p","1280","800","0","0","0","5f61bbe3c18cc915aac68b32","","null","","","learningBlock2","","","","<div style=""font-size:60px;""> </div>","null","FL","learning/Slide109.JPG","That was a wug.","","",""
"image-keyboard-response","334","451209","0.0-7.0-0.29","FL","3b8h3oor4p","1280","800","0","0","0","5f61bbe3c18cc915aac68b32","","null","","","","","","","learning/Slide110.JPG","null","","","","","",""
"html-keyboard-response","335","452363","0.0-7.0-1.29","FL","3b8h3oor4p","1280","800","0","0","0","5f61bbe3c18cc915aac68b32","","null","","","learningBlock2","","","","That was a bim.","null","","","","","",""
"html-keyboard-response","336","453364","0.0-7.0-2.29","FL","3b8h3oor4p","1280","800","0","0","0","5f61bbe3c18cc915aac68b32","","null","","","learningBlock2","","","","<div style=""font-size:60px;""> </div>","null","FL","learning/Slide110.JPG","That was a bim.","","",""
"image-keyboard-response","337","453541","0.0-7.0-0.30","FL","3b8h3oor4p","1280","800","0","0","0","5f61bbe3c18cc915aac68b32","","null","","","","","","","learning/Slide111.JPG","null","","","","","",""
"html-keyboard-response","338","454698","0.0-7.0-1.30","FL","3b8h3oor4p","1280","800","0","0","0","5f61bbe3c18cc915aac68b32","","null","","","learningBlock2","","","","That was a tob.","null","","","","","",""
"html-keyboard-response","339","455701","0.0-7.0-2.30","FL","3b8h3oor4p","1280","800","0","0","0","5f61bbe3c18cc915aac68b32","","null","","","learningBlock2","","","","<div style=""font-size:60px;""> </div>","null","FL","learning/Slide111.JPG","That was a tob.","","",""
"image-keyboard-response","340","455879","0.0-7.0-0.31","FL","3b8h3oor4p","1280","800","0","0","0","5f61bbe3c18cc915aac68b32","","null","","","","","","","learning/Slide112.JPG","null","","","","","",""
"html-keyboard-response","341","457034","0.0-7.0-1.31","FL","3b8h3oor4p","1280","800","0","0","0","5f61bbe3c18cc915aac68b32","","null","","","learningBlock2","","","","That was a wug.","null","","","","","",""
"html-keyboard-response","342","458036","0.0-7.0-2.31","FL","3b8h3oor4p","1280","800","0","0","0","5f61bbe3c18cc915aac68b32","","null","","","learningBlock2","","","","<div style=""font-size:60px;""> </div>","null","FL","learning/Slide112.JPG","That was a wug.","","",""
"image-keyboard-response","343","458216","0.0-7.0-0.32","FL","3b8h3oor4p","1280","800","0","0","0","5f61bbe3c18cc915aac68b32","","null","","","","","","","learning/Slide113.JPG","null","","","","","",""
"html-keyboard-response","344","459371","0.0-7.0-1.32","FL","3b8h3oor4p","1280","800","0","0","0","5f61bbe3c18cc915aac68b32","","null","","","learningBlock2","","","","That was a tob.","null","","","","","",""
"html-keyboard-response","345","460375","0.0-7.0-2.32","FL","3b8h3oor4p","1280","800","0","0","0","5f61bbe3c18cc915aac68b32","","null","","","learningBlock2","","","","<div style=""font-size:60px;""> </div>","null","FL","learning/Slide113.JPG","That was a tob.","","",""
"image-keyboard-response","346","460552","0.0-7.0-0.33","FL","3b8h3oor4p","1280","800","0","0","0","5f61bbe3c18cc915aac68b32","","null","","","","","","","learning/Slide114.JPG","null","","","","","",""
"html-keyboard-response","347","461707","0.0-7.0-1.33","FL","3b8h3oor4p","1280","800","0","0","0","5f61bbe3c18cc915aac68b32","","null","","","learningBlock2","","","","That was a wug.","null","","","","","",""
"html-keyboard-response","348","462710","0.0-7.0-2.33","FL","3b8h3oor4p","1280","800","0","0","0","5f61bbe3c18cc915aac68b32","","null","","","learningBlock2","","","","<div style=""font-size:60px;""> </div>","null","FL","learning/Slide114.JPG","That was a wug.","","",""
"image-keyboard-response","349","462887","0.0-7.0-0.34","FL","3b8h3oor4p","1280","800","0","0","0","5f61bbe3c18cc915aac68b32","","null","","","","","","","learning/Slide115.JPG","null","","","","","",""
"html-keyboard-response","350","464042","0.0-7.0-1.34","FL","3b8h3oor4p","1280","800","0","0","0","5f61bbe3c18cc915aac68b32","","null","","","learningBlock2","","","","That was a bim.","null","","","","","",""
"html-keyboard-response","351","465045","0.0-7.0-2.34","FL","3b8h3oor4p","1280","800","0","0","0","5f61bbe3c18cc915aac68b32","","null","","","learningBlock2","","","","<div style=""font-size:60px;""> </div>","null","FL","learning/Slide115.JPG","That was a bim.","","",""
"image-keyboard-response","352","465221","0.0-7.0-0.35","FL","3b8h3oor4p","1280","800","0","0","0","5f61bbe3c18cc915aac68b32","","null","","","","","","","learning/Slide116.JPG","null","","","","","",""
"html-keyboard-response","353","466375","0.0-7.0-1.35","FL","3b8h3oor4p","1280","800","0","0","0","5f61bbe3c18cc915aac68b32","","null","","","learningBlock2","","","","That was a dep.","null","","","","","",""
"html-keyboard-response","354","467376","0.0-7.0-2.35","FL","3b8h3oor4p","1280","800","0","0","0","5f61bbe3c18cc915aac68b32","","null","","","learningBlock2","","","","<div style=""font-size:60px;""> </div>","null","FL","learning/Slide116.JPG","That was a dep.","","",""
"image-keyboard-response","355","467553","0.0-7.0-0.36","FL","3b8h3oor4p","1280","800","0","0","0","5f61bbe3c18cc915aac68b32","","null","","","","","","","learning/Slide117.JPG","null","","","","","",""
"html-keyboard-response","356","468707","0.0-7.0-1.36","FL","3b8h3oor4p","1280","800","0","0","0","5f61bbe3c18cc915aac68b32","","null","","","learningBlock2","","","","That was a tob.","null","","","","","",""
"html-keyboard-response","357","469710","0.0-7.0-2.36","FL","3b8h3oor4p","1280","800","0","0","0","5f61bbe3c18cc915aac68b32","","null","","","learningBlock2","","","","<div style=""font-size:60px;""> </div>","null","FL","learning/Slide117.JPG","That was a tob.","","",""
"image-keyboard-response","358","469887","0.0-7.0-0.37","FL","3b8h3oor4p","1280","800","0","0","0","5f61bbe3c18cc915aac68b32","","null","","","","","","","learning/Slide118.JPG","null","","","","","",""
"html-keyboard-response","359","471041","0.0-7.0-1.37","FL","3b8h3oor4p","1280","800","0","0","0","5f61bbe3c18cc915aac68b32","","null","","","learningBlock2","","","","That was a dep.","null","","","","","",""
"html-keyboard-response","360","472043","0.0-7.0-2.37","FL","3b8h3oor4p","1280","800","0","0","0","5f61bbe3c18cc915aac68b32","","null","","","learningBlock2","","","","<div style=""font-size:60px;""> </div>","null","FL","learning/Slide118.JPG","That was a dep.","","",""
"image-keyboard-response","361","472222","0.0-7.0-0.38","FL","3b8h3oor4p","1280","800","0","0","0","5f61bbe3c18cc915aac68b32","","null","","","","","","","learning/Slide119.JPG","null","","","","","",""
"html-keyboard-response","362","473375","0.0-7.0-1.38","FL","3b8h3oor4p","1280","800","0","0","0","5f61bbe3c18cc915aac68b32","","null","","","learningBlock2","","","","That was a wug.","null","","","","","",""
"html-keyboard-response","363","474377","0.0-7.0-2.38","FL","3b8h3oor4p","1280","800","0","0","0","5f61bbe3c18cc915aac68b32","","null","","","learningBlock2","","","","<div style=""font-size:60px;""> </div>","null","FL","learning/Slide119.JPG","That was a wug.","","",""
"image-keyboard-response","364","474556","0.0-7.0-0.39","FL","3b8h3oor4p","1280","800","0","0","0","5f61bbe3c18cc915aac68b32","","null","","","","","","","learning/Slide120.JPG","null","","","","","",""
"html-keyboard-response","365","475710","0.0-7.0-1.39","FL","3b8h3oor4p","1280","800","0","0","0","5f61bbe3c18cc915aac68b32","","null","","","learningBlock2","","","","That was a dep.","null","","","","","",""
"html-keyboard-response","366","476713","0.0-7.0-2.39","FL","3b8h3oor4p","1280","800","0","0","0","5f61bbe3c18cc915aac68b32","","null","","","learningBlock2","","","","<div style=""font-size:60px;""> </div>","null","FL","learning/Slide120.JPG","That was a dep.","","",""
"image-keyboard-response","367","476891","0.0-7.0-0.40","FL","3b8h3oor4p","1280","800","0","0","0","5f61bbe3c18cc915aac68b32","","null","","","","","","","learning/Slide121.JPG","null","","","","","",""
"html-keyboard-response","368","478047","0.0-7.0-1.40","FL","3b8h3oor4p","1280","800","0","0","0","5f61bbe3c18cc915aac68b32","","null","","","learningBlock2","","","","That was a bim.","null","","","","","",""
"html-keyboard-response","369","479050","0.0-7.0-2.40","FL","3b8h3oor4p","1280","800","0","0","0","5f61bbe3c18cc915aac68b32","","null","","","learningBlock2","","","","<div style=""font-size:60px;""> </div>","null","FL","learning/Slide121.JPG","That was a bim.","","",""
"image-keyboard-response","370","479229","0.0-7.0-0.41","FL","3b8h3oor4p","1280","800","0","0","0","5f61bbe3c18cc915aac68b32","","null","","","","","","","learning/Slide122.JPG","null","","","","","",""
"html-keyboard-response","371","480381","0.0-7.0-1.41","FL","3b8h3oor4p","1280","800","0","0","0","5f61bbe3c18cc915aac68b32","","null","","","learningBlock2","","","","That was a wug.","null","","","","","",""
"html-keyboard-response","372","481384","0.0-7.0-2.41","FL","3b8h3oor4p","1280","800","0","0","0","5f61bbe3c18cc915aac68b32","","null","","","learningBlock2","","","","<div style=""font-size:60px;""> </div>","null","FL","learning/Slide122.JPG","That was a wug.","","",""
"image-keyboard-response","373","481563","0.0-7.0-0.42","FL","3b8h3oor4p","1280","800","0","0","0","5f61bbe3c18cc915aac68b32","","null","","","","","","","learning/Slide123.JPG","null","","","","","",""
"html-keyboard-response","374","482716","0.0-7.0-1.42","FL","3b8h3oor4p","1280","800","0","0","0","5f61bbe3c18cc915aac68b32","","null","","","learningBlock2","","","","That was a bim.","null","","","","","",""
"html-keyboard-response","375","483719","0.0-7.0-2.42","FL","3b8h3oor4p","1280","800","0","0","0","5f61bbe3c18cc915aac68b32","","null","","","learningBlock2","","","","<div style=""font-size:60px;""> </div>","null","FL","learning/Slide123.JPG","That was a bim.","","",""
"image-keyboard-response","376","483898","0.0-7.0-0.43","FL","3b8h3oor4p","1280","800","0","0","0","5f61bbe3c18cc915aac68b32","","null","","","","","","","learning/Slide124.JPG","null","","","","","",""
"html-keyboard-response","377","485053","0.0-7.0-1.43","FL","3b8h3oor4p","1280","800","0","0","0","5f61bbe3c18cc915aac68b32","","null","","","learningBlock2","","","","That was a tob.","null","","","","","",""
"html-keyboard-response","378","486057","0.0-7.0-2.43","FL","3b8h3oor4p","1280","800","0","0","0","5f61bbe3c18cc915aac68b32","","null","","","learningBlock2","","","","<div style=""font-size:60px;""> </div>","null","FL","learning/Slide124.JPG","That was a tob.","","",""
"image-keyboard-response","379","486236","0.0-7.0-0.44","FL","3b8h3oor4p","1280","800","0","0","0","5f61bbe3c18cc915aac68b32","","null","","","","","","","learning/Slide125.JPG","null","","","","","",""
"html-keyboard-response","380","487388","0.0-7.0-1.44","FL","3b8h3oor4p","1280","800","0","0","0","5f61bbe3c18cc915aac68b32","","null","","","learningBlock2","","","","That was a bim.","null","","","","","",""
"html-keyboard-response","381","488392","0.0-7.0-2.44","FL","3b8h3oor4p","1280","800","0","0","0","5f61bbe3c18cc915aac68b32","","null","","","learningBlock2","","","","<div style=""font-size:60px;""> </div>","null","FL","learning/Slide125.JPG","That was a bim.","","",""
"image-keyboard-response","382","488571","0.0-7.0-0.45","FL","3b8h3oor4p","1280","800","0","0","0","5f61bbe3c18cc915aac68b32","","null","","","","","","","learning/Slide126.JPG","null","","","","","",""
"html-keyboard-response","383","489724","0.0-7.0-1.45","FL","3b8h3oor4p","1280","800","0","0","0","5f61bbe3c18cc915aac68b32","","null","","","learningBlock2","","","","That was a tob.","null","","","","","",""
"html-keyboard-response","384","490727","0.0-7.0-2.45","FL","3b8h3oor4p","1280","800","0","0","0","5f61bbe3c18cc915aac68b32","","null","","","learningBlock2","","","","<div style=""font-size:60px;""> </div>","null","FL","learning/Slide126.JPG","That was a tob.","","",""
"image-keyboard-response","385","490907","0.0-7.0-0.46","FL","3b8h3oor4p","1280","800","0","0","0","5f61bbe3c18cc915aac68b32","","null","","","","","","","learning/Slide127.JPG","null","","","","","",""
"html-keyboard-response","386","492060","0.0-7.0-1.46","FL","3b8h3oor4p","1280","800","0","0","0","5f61bbe3c18cc915aac68b32","","null","","","learningBlock2","","","","That was a dep.","null","","","","","",""
"html-keyboard-response","387","493061","0.0-7.0-2.46","FL","3b8h3oor4p","1280","800","0","0","0","5f61bbe3c18cc915aac68b32","","null","","","learningBlock2","","","","<div style=""font-size:60px;""> </div>","null","FL","learning/Slide127.JPG","That was a dep.","","",""
"image-keyboard-response","388","493240","0.0-7.0-0.47","FL","3b8h3oor4p","1280","800","0","0","0","5f61bbe3c18cc915aac68b32","","null","","","","","","","learning/Slide128.JPG","null","","","","","",""
"html-keyboard-response","389","494392","0.0-7.0-1.47","FL","3b8h3oor4p","1280","800","0","0","0","5f61bbe3c18cc915aac68b32","","null","","","learningBlock2","","","","That was a wug.","null","","","","","",""
"html-keyboard-response","390","495394","0.0-7.0-2.47","FL","3b8h3oor4p","1280","800","0","0","0","5f61bbe3c18cc915aac68b32","","null","","","learningBlock2","","","","<div style=""font-size:60px;""> </div>","null","FL","learning/Slide128.JPG","That was a wug.","","",""
"image-keyboard-response","391","495574","0.0-7.0-0.48","FL","3b8h3oor4p","1280","800","0","0","0","5f61bbe3c18cc915aac68b32","","null","","","","","","","learning/Slide129.JPG","null","","","","","",""
"html-keyboard-response","392","496732","0.0-7.0-1.48","FL","3b8h3oor4p","1280","800","0","0","0","5f61bbe3c18cc915aac68b32","","null","","","learningBlock2","","","","That was a tob.","null","","","","","",""
"html-keyboard-response","393","497735","0.0-7.0-2.48","FL","3b8h3oor4p","1280","800","0","0","0","5f61bbe3c18cc915aac68b32","","null","","","learningBlock2","","","","<div style=""font-size:60px;""> </div>","null","FL","learning/Slide129.JPG","That was a tob.","","",""
"image-keyboard-response","394","497918","0.0-7.0-0.49","FL","3b8h3oor4p","1280","800","0","0","0","5f61bbe3c18cc915aac68b32","","null","","","","","","","learning/Slide130.JPG","null","","","","","",""
"html-keyboard-response","395","499077","0.0-7.0-1.49","FL","3b8h3oor4p","1280","800","0","0","0","5f61bbe3c18cc915aac68b32","","null","","","learningBlock2","","","","That was a wug.","null","","","","","",""
"html-keyboard-response","396","500079","0.0-7.0-2.49","FL","3b8h3oor4p","1280","800","0","0","0","5f61bbe3c18cc915aac68b32","","null","","","learningBlock2","","","","<div style=""font-size:60px;""> </div>","null","FL","learning/Slide130.JPG","That was a wug.","","",""
"image-keyboard-response","397","500259","0.0-7.0-0.50","FL","3b8h3oor4p","1280","800","0","0","0","5f61bbe3c18cc915aac68b32","","null","","","","","","","learning/Slide131.JPG","null","","","","","",""
"html-keyboard-response","398","501418","0.0-7.0-1.50","FL","3b8h3oor4p","1280","800","0","0","0","5f61bbe3c18cc915aac68b32","","null","","","learningBlock2","","","","That was a bim.","null","","","","","",""
"html-keyboard-response","399","502420","0.0-7.0-2.50","FL","3b8h3oor4p","1280","800","0","0","0","5f61bbe3c18cc915aac68b32","","null","","","learningBlock2","","","","<div style=""font-size:60px;""> </div>","null","FL","learning/Slide131.JPG","That was a bim.","","",""
"image-keyboard-response","400","502598","0.0-7.0-0.51","FL","3b8h3oor4p","1280","800","0","0","0","5f61bbe3c18cc915aac68b32","","null","","","","","","","learning/Slide132.JPG","null","","","","","",""
"html-keyboard-response","401","503755","0.0-7.0-1.51","FL","3b8h3oor4p","1280","800","0","0","0","5f61bbe3c18cc915aac68b32","","null","","","learningBlock2","","","","That was a dep.","null","","","","","",""
"html-keyboard-response","402","504758","0.0-7.0-2.51","FL","3b8h3oor4p","1280","800","0","0","0","5f61bbe3c18cc915aac68b32","","null","","","learningBlock2","","","","<div style=""font-size:60px;""> </div>","null","FL","learning/Slide132.JPG","That was a dep.","","",""
"image-keyboard-response","403","504935","0.0-7.0-0.52","FL","3b8h3oor4p","1280","800","0","0","0","5f61bbe3c18cc915aac68b32","","null","","","","","","","learning/Slide133.JPG","null","","","","","",""
"html-keyboard-response","404","506095","0.0-7.0-1.52","FL","3b8h3oor4p","1280","800","0","0","0","5f61bbe3c18cc915aac68b32","","null","","","learningBlock2","","","","That was a tob.","null","","","","","",""
"html-keyboard-response","405","512096","0.0-7.0-2.52","FL","3b8h3oor4p","1280","800","0","0","0","5f61bbe3c18cc915aac68b32","","null","","","learningBlock2","","","","<div style=""font-size:60px;""> </div>","null","FL","learning/Slide133.JPG","That was a tob.","","",""
"image-keyboard-response","406","523046","0.0-7.0-0.53","FL","3b8h3oor4p","1280","800","0","0","0","5f61bbe3c18cc915aac68b32","","null","","","","","","","learning/Slide134.JPG","null","","","","","",""
"html-keyboard-response","407","524374","0.0-7.0-1.53","FL","3b8h3oor4p","1280","800","0","0","0","5f61bbe3c18cc915aac68b32","","null","","","learningBlock2","","","","That was a dep.","null","","","","","",""
"html-keyboard-response","408","525379","0.0-7.0-2.53","FL","3b8h3oor4p","1280","800","0","0","0","5f61bbe3c18cc915aac68b32","","null","","","learningBlock2","","","","<div style=""font-size:60px;""> </div>","null","FL","learning/Slide134.JPG","That was a dep.","","",""
"image-keyboard-response","409","525559","0.0-7.0-0.54","FL","3b8h3oor4p","1280","800","0","0","0","5f61bbe3c18cc915aac68b32","","null","","","","","","","learning/Slide135.JPG","null","","","","","",""
"html-keyboard-response","410","526714","0.0-7.0-1.54","FL","3b8h3oor4p","1280","800","0","0","0","5f61bbe3c18cc915aac68b32","","null","","","learningBlock2","","","","That was a tob.","null","","","","","",""
"html-keyboard-response","411","527717","0.0-7.0-2.54","FL","3b8h3oor4p","1280","800","0","0","0","5f61bbe3c18cc915aac68b32","","null","","","learningBlock2","","","","<div style=""font-size:60px;""> </div>","null","FL","learning/Slide135.JPG","That was a tob.","","",""
"image-keyboard-response","412","527893","0.0-7.0-0.55","FL","3b8h3oor4p","1280","800","0","0","0","5f61bbe3c18cc915aac68b32","","null","","","","","","","learning/Slide136.JPG","null","","","","","",""
"html-keyboard-response","413","529048","0.0-7.0-1.55","FL","3b8h3oor4p","1280","800","0","0","0","5f61bbe3c18cc915aac68b32","","null","","","learningBlock2","","","","That was a wug.","null","","","","","",""
"html-keyboard-response","414","530206","0.0-7.0-2.55","FL","3b8h3oor4p","1280","800","0","0","0","5f61bbe3c18cc915aac68b32","","null","","","learningBlock2","","","","<div style=""font-size:60px;""> </div>","null","FL","learning/Slide136.JPG","That was a wug.","","",""
"image-keyboard-response","415","530384","0.0-7.0-0.56","FL","3b8h3oor4p","1280","800","0","0","0","5f61bbe3c18cc915aac68b32","","null","","","","","","","learning/Slide137.JPG","null","","","","","",""
"html-keyboard-response","416","531541","0.0-7.0-1.56","FL","3b8h3oor4p","1280","800","0","0","0","5f61bbe3c18cc915aac68b32","","null","","","learningBlock2","","","","That was a tob.","null","","","","","",""
"html-keyboard-response","417","532545","0.0-7.0-2.56","FL","3b8h3oor4p","1280","800","0","0","0","5f61bbe3c18cc915aac68b32","","null","","","learningBlock2","","","","<div style=""font-size:60px;""> </div>","null","FL","learning/Slide137.JPG","That was a tob.","","",""
"image-keyboard-response","418","532724","0.0-7.0-0.57","FL","3b8h3oor4p","1280","800","0","0","0","5f61bbe3c18cc915aac68b32","","null","","","","","","","learning/Slide138.JPG","null","","","","","",""
"html-keyboard-response","419","533876","0.0-7.0-1.57","FL","3b8h3oor4p","1280","800","0","0","0","5f61bbe3c18cc915aac68b32","","null","","","learningBlock2","","","","That was a bim.","null","","","","","",""
"html-keyboard-response","420","534878","0.0-7.0-2.57","FL","3b8h3oor4p","1280","800","0","0","0","5f61bbe3c18cc915aac68b32","","null","","","learningBlock2","","","","<div style=""font-size:60px;""> </div>","null","FL","learning/Slide138.JPG","That was a bim.","","",""
"image-keyboard-response","421","535056","0.0-7.0-0.58","FL","3b8h3oor4p","1280","800","0","0","0","5f61bbe3c18cc915aac68b32","","null","","","","","","","learning/Slide139.JPG","null","","","","","",""
"html-keyboard-response","422","536209","0.0-7.0-1.58","FL","3b8h3oor4p","1280","800","0","0","0","5f61bbe3c18cc915aac68b32","","null","","","learningBlock2","","","","That was a wug.","null","","","","","",""
"html-keyboard-response","423","537211","0.0-7.0-2.58","FL","3b8h3oor4p","1280","800","0","0","0","5f61bbe3c18cc915aac68b32","","null","","","learningBlock2","","","","<div style=""font-size:60px;""> </div>","null","FL","learning/Slide139.JPG","That was a wug.","","",""
"image-keyboard-response","424","537389","0.0-7.0-0.59","FL","3b8h3oor4p","1280","800","0","0","0","5f61bbe3c18cc915aac68b32","","null","","","","","","","learning/Slide140.JPG","null","","","","","",""
"html-keyboard-response","425","538542","0.0-7.0-1.59","FL","3b8h3oor4p","1280","800","0","0","0","5f61bbe3c18cc915aac68b32","","null","","","learningBlock2","","","","That was a dep.","null","","","","","",""
"html-keyboard-response","426","548717","0.0-7.0-2.59","FL","3b8h3oor4p","1280","800","0","0","0","5f61bbe3c18cc915aac68b32","","null","","","learningBlock2","","","","<div style=""font-size:60px;""> </div>","null","FL","learning/Slide140.JPG","That was a dep.","","",""
"image-keyboard-response","427","555435","0.0-7.0-0.60","FL","3b8h3oor4p","1280","800","0","0","0","5f61bbe3c18cc915aac68b32","","null","","","","","","","learning/Slide141.JPG","null","","","","","",""
"html-keyboard-response","428","556631","0.0-7.0-1.60","FL","3b8h3oor4p","1280","800","0","0","0","5f61bbe3c18cc915aac68b32","","null","","","learningBlock2","","","","That was a tob.","null","","","","","",""
"html-keyboard-response","429","557864","0.0-7.0-2.60","FL","3b8h3oor4p","1280","800","0","0","0","5f61bbe3c18cc915aac68b32","","null","","","learningBlock2","","","","<div style=""font-size:60px;""> </div>","null","FL","learning/Slide141.JPG","That was a tob.","","",""
"image-keyboard-response","430","558045","0.0-7.0-0.61","FL","3b8h3oor4p","1280","800","0","0","0","5f61bbe3c18cc915aac68b32","","null","","","","","","","learning/Slide142.JPG","null","","","","","",""
"html-keyboard-response","431","559243","0.0-7.0-1.61","FL","3b8h3oor4p","1280","800","0","0","0","5f61bbe3c18cc915aac68b32","","null","","","learningBlock2","","","","That was a wug.","null","","","","","",""
"html-keyboard-response","432","560271","0.0-7.0-2.61","FL","3b8h3oor4p","1280","800","0","0","0","5f61bbe3c18cc915aac68b32","","null","","","learningBlock2","","","","<div style=""font-size:60px;""> </div>","null","FL","learning/Slide142.JPG","That was a wug.","","",""
"image-keyboard-response","433","560450","0.0-7.0-0.62","FL","3b8h3oor4p","1280","800","0","0","0","5f61bbe3c18cc915aac68b32","","null","","","","","","","learning/Slide143.JPG","null","","","","","",""
"html-keyboard-response","434","561603","0.0-7.0-1.62","FL","3b8h3oor4p","1280","800","0","0","0","5f61bbe3c18cc915aac68b32","","null","","","learningBlock2","","","","That was a bim.","null","","","","","",""
"html-keyboard-response","435","562606","0.0-7.0-2.62","FL","3b8h3oor4p","1280","800","0","0","0","5f61bbe3c18cc915aac68b32","","null","","","learningBlock2","","","","<div style=""font-size:60px;""> </div>","null","FL","learning/Slide143.JPG","That was a bim.","","",""
"image-keyboard-response","436","562785","0.0-7.0-0.63","FL","3b8h3oor4p","1280","800","0","0","0","5f61bbe3c18cc915aac68b32","","null","","","","","","","learning/Slide144.JPG","null","","","","","",""
