"trial_type","trial_index","time_elapsed","internal_node_id","condition","subject","screen_width","screen_height","attention","distraction","conscientious","prolificID","success","rt","url","view_history","test_part","final_height_px","final_width_px","scale_factor","stimulus","key_press","learningType","presentedImage","presentedLabel","button_pressed","response","responses"
"pavlovia","0","24","0.0-0.0","LF","1e9hhup9lf","1536","864","0","1","0","5cbc680bfb8dfe0001839ba2","","","","","","","","","","","","","","","",""
"fullscreen","1","13768","0.0-1.0","LF","1e9hhup9lf","1536","864","0","1","0","5cbc680bfb8dfe0001839ba2","true","","","","","","","","","","","","","","",""
"external-html","2","31204","0.0-2.0-0.0","LF","1e9hhup9lf","1536","864","0","1","0","5cbc680bfb8dfe0001839ba2","","17391.804999962915","text/information_english.html","","","","","","","","","","","","",""
"external-html","3","44729","0.0-2.0-1.0","LF","1e9hhup9lf","1536","864","0","1","0","5cbc680bfb8dfe0001839ba2","","13461.739999998827","text/consent_english.html","","","","","","","","","","","","",""
"instructions","4","54191","0.0-3.0","LF","1e9hhup9lf","1536","864","0","1","0","5cbc680bfb8dfe0001839ba2","","NA","","[{""page_index"":0,""viewing_time"":1291.014999966137},{""page_index"":1,""viewing_time"":8165.855000028387}]","instructions","","","","","","","","","","",""
"resize","5","85779","0.0-4.0","LF","1e9hhup9lf","1536","864","0","1","0","5cbc680bfb8dfe0001839ba2","","","","","","","386","2.450793650793651","","","","","","","",""
"html-keyboard-response","6","86784","0.0-5.0-0.0","LF","1e9hhup9lf","1536","864","0","1","0","5cbc680bfb8dfe0001839ba2","","null","","","learningBlock1","","","","This is a tob:","null","","","","","",""
"image-keyboard-response","7","87127","0.0-5.0-1.0","LF","1e9hhup9lf","1536","864","0","1","0","5cbc680bfb8dfe0001839ba2","","null","","","","","","","learning/Slide1.JPG","null","","","","","",""
"html-keyboard-response","8","88128","0.0-5.0-2.0","LF","1e9hhup9lf","1536","864","0","1","0","5cbc680bfb8dfe0001839ba2","","null","","","learningBlock1","","","","<div style=""font-size:60px;""> </div>","null","LF","learning/Slide1.JPG","This is a tob:","","",""
"html-keyboard-response","9","89130","0.0-5.0-0.1","LF","1e9hhup9lf","1536","864","0","1","0","5cbc680bfb8dfe0001839ba2","","null","","","learningBlock1","","","","This is a wug:","null","","","","","",""
"image-keyboard-response","10","89480","0.0-5.0-1.1","LF","1e9hhup9lf","1536","864","0","1","0","5cbc680bfb8dfe0001839ba2","","null","","","","","","","learning/Slide2.JPG","null","","","","","",""
"html-keyboard-response","11","90496","0.0-5.0-2.1","LF","1e9hhup9lf","1536","864","0","1","0","5cbc680bfb8dfe0001839ba2","","null","","","learningBlock1","","","","<div style=""font-size:60px;""> </div>","null","LF","learning/Slide2.JPG","This is a wug:","","",""
"html-keyboard-response","12","91511","0.0-5.0-0.2","LF","1e9hhup9lf","1536","864","0","1","0","5cbc680bfb8dfe0001839ba2","","null","","","learningBlock1","","","","This is a bim:","null","","","","","",""
"image-keyboard-response","13","91855","0.0-5.0-1.2","LF","1e9hhup9lf","1536","864","0","1","0","5cbc680bfb8dfe0001839ba2","","null","","","","","","","learning/Slide3.JPG","null","","","","","",""
"html-keyboard-response","14","92871","0.0-5.0-2.2","LF","1e9hhup9lf","1536","864","0","1","0","5cbc680bfb8dfe0001839ba2","","null","","","learningBlock1","","","","<div style=""font-size:60px;""> </div>","null","LF","learning/Slide3.JPG","This is a bim:","","",""
"html-keyboard-response","15","93876","0.0-5.0-0.3","LF","1e9hhup9lf","1536","864","0","1","0","5cbc680bfb8dfe0001839ba2","","null","","","learningBlock1","","","","This is a dep:","null","","","","","",""
"image-keyboard-response","16","94214","0.0-5.0-1.3","LF","1e9hhup9lf","1536","864","0","1","0","5cbc680bfb8dfe0001839ba2","","null","","","","","","","learning/Slide4.JPG","null","","","","","",""
"html-keyboard-response","17","95229","0.0-5.0-2.3","LF","1e9hhup9lf","1536","864","0","1","0","5cbc680bfb8dfe0001839ba2","","null","","","learningBlock1","","","","<div style=""font-size:60px;""> </div>","null","LF","learning/Slide4.JPG","This is a dep:","","",""
"html-keyboard-response","18","96234","0.0-5.0-0.4","LF","1e9hhup9lf","1536","864","0","1","0","5cbc680bfb8dfe0001839ba2","","null","","","learningBlock1","","","","This is a wug:","null","","","","","",""
"image-keyboard-response","19","96577","0.0-5.0-1.4","LF","1e9hhup9lf","1536","864","0","1","0","5cbc680bfb8dfe0001839ba2","","null","","","","","","","learning/Slide5.JPG","null","","","","","",""
"html-keyboard-response","20","97582","0.0-5.0-2.4","LF","1e9hhup9lf","1536","864","0","1","0","5cbc680bfb8dfe0001839ba2","","null","","","learningBlock1","","","","<div style=""font-size:60px;""> </div>","null","LF","learning/Slide5.JPG","This is a wug:","","",""
"html-keyboard-response","21","98595","0.0-5.0-0.5","LF","1e9hhup9lf","1536","864","0","1","0","5cbc680bfb8dfe0001839ba2","","null","","","learningBlock1","","","","This is a dep:","null","","","","","",""
"image-keyboard-response","22","98939","0.0-5.0-1.5","LF","1e9hhup9lf","1536","864","0","1","0","5cbc680bfb8dfe0001839ba2","","null","","","","","","","learning/Slide6.JPG","null","","","","","",""
"html-keyboard-response","23","99953","0.0-5.0-2.5","LF","1e9hhup9lf","1536","864","0","1","0","5cbc680bfb8dfe0001839ba2","","null","","","learningBlock1","","","","<div style=""font-size:60px;""> </div>","null","LF","learning/Slide6.JPG","This is a dep:","","",""
"html-keyboard-response","24","100960","0.0-5.0-0.6","LF","1e9hhup9lf","1536","864","0","1","0","5cbc680bfb8dfe0001839ba2","","null","","","learningBlock1","","","","This is a wug:","null","","","","","",""
"image-keyboard-response","25","101302","0.0-5.0-1.6","LF","1e9hhup9lf","1536","864","0","1","0","5cbc680bfb8dfe0001839ba2","","null","","","","","","","learning/Slide7.JPG","null","","","","","",""
"html-keyboard-response","26","102314","0.0-5.0-2.6","LF","1e9hhup9lf","1536","864","0","1","0","5cbc680bfb8dfe0001839ba2","","null","","","learningBlock1","","","","<div style=""font-size:60px;""> </div>","null","LF","learning/Slide7.JPG","This is a wug:","","",""
"html-keyboard-response","27","103328","0.0-5.0-0.7","LF","1e9hhup9lf","1536","864","0","1","0","5cbc680bfb8dfe0001839ba2","","null","","","learningBlock1","","","","This is a bim:","null","","","","","",""
"image-keyboard-response","28","103673","0.0-5.0-1.7","LF","1e9hhup9lf","1536","864","0","1","0","5cbc680bfb8dfe0001839ba2","","null","","","","","","","learning/Slide8.JPG","null","","","","","",""
"html-keyboard-response","29","104689","0.0-5.0-2.7","LF","1e9hhup9lf","1536","864","0","1","0","5cbc680bfb8dfe0001839ba2","","null","","","learningBlock1","","","","<div style=""font-size:60px;""> </div>","null","LF","learning/Slide8.JPG","This is a bim:","","",""
"html-keyboard-response","30","105705","0.0-5.0-0.8","LF","1e9hhup9lf","1536","864","0","1","0","5cbc680bfb8dfe0001839ba2","","null","","","learningBlock1","","","","This is a wug:","null","","","","","",""
"image-keyboard-response","31","106048","0.0-5.0-1.8","LF","1e9hhup9lf","1536","864","0","1","0","5cbc680bfb8dfe0001839ba2","","null","","","","","","","learning/Slide9.JPG","null","","","","","",""
"html-keyboard-response","32","107058","0.0-5.0-2.8","LF","1e9hhup9lf","1536","864","0","1","0","5cbc680bfb8dfe0001839ba2","","null","","","learningBlock1","","","","<div style=""font-size:60px;""> </div>","null","LF","learning/Slide9.JPG","This is a wug:","","",""
"html-keyboard-response","33","108074","0.0-5.0-0.9","LF","1e9hhup9lf","1536","864","0","1","0","5cbc680bfb8dfe0001839ba2","","null","","","learningBlock1","","","","This is a dep:","null","","","","","",""
"image-keyboard-response","34","108417","0.0-5.0-1.9","LF","1e9hhup9lf","1536","864","0","1","0","5cbc680bfb8dfe0001839ba2","","null","","","","","","","learning/Slide10.JPG","null","","","","","",""
"html-keyboard-response","35","109432","0.0-5.0-2.9","LF","1e9hhup9lf","1536","864","0","1","0","5cbc680bfb8dfe0001839ba2","","null","","","learningBlock1","","","","<div style=""font-size:60px;""> </div>","null","LF","learning/Slide10.JPG","This is a dep:","","",""
"html-keyboard-response","36","110435","0.0-5.0-0.10","LF","1e9hhup9lf","1536","864","0","1","0","5cbc680bfb8dfe0001839ba2","","null","","","learningBlock1","","","","This is a tob:","null","","","","","",""
"image-keyboard-response","37","110782","0.0-5.0-1.10","LF","1e9hhup9lf","1536","864","0","1","0","5cbc680bfb8dfe0001839ba2","","null","","","","","","","learning/Slide11.JPG","null","","","","","",""
"html-keyboard-response","38","111791","0.0-5.0-2.10","LF","1e9hhup9lf","1536","864","0","1","0","5cbc680bfb8dfe0001839ba2","","null","","","learningBlock1","","","","<div style=""font-size:60px;""> </div>","null","LF","learning/Slide11.JPG","This is a tob:","","",""
"html-keyboard-response","39","112793","0.0-5.0-0.11","LF","1e9hhup9lf","1536","864","0","1","0","5cbc680bfb8dfe0001839ba2","","null","","","learningBlock1","","","","This is a dep:","null","","","","","",""
"image-keyboard-response","40","113122","0.0-5.0-1.11","LF","1e9hhup9lf","1536","864","0","1","0","5cbc680bfb8dfe0001839ba2","","null","","","","","","","learning/Slide12.JPG","null","","","","","",""
"html-keyboard-response","41","114134","0.0-5.0-2.11","LF","1e9hhup9lf","1536","864","0","1","0","5cbc680bfb8dfe0001839ba2","","null","","","learningBlock1","","","","<div style=""font-size:60px;""> </div>","null","LF","learning/Slide12.JPG","This is a dep:","","",""
"html-keyboard-response","42","115137","0.0-5.0-0.12","LF","1e9hhup9lf","1536","864","0","1","0","5cbc680bfb8dfe0001839ba2","","null","","","learningBlock1","","","","This is a bim:","null","","","","","",""
"image-keyboard-response","43","115481","0.0-5.0-1.12","LF","1e9hhup9lf","1536","864","0","1","0","5cbc680bfb8dfe0001839ba2","","null","","","","","","","learning/Slide13.JPG","null","","","","","",""
"html-keyboard-response","44","116496","0.0-5.0-2.12","LF","1e9hhup9lf","1536","864","0","1","0","5cbc680bfb8dfe0001839ba2","","null","","","learningBlock1","","","","<div style=""font-size:60px;""> </div>","null","LF","learning/Slide13.JPG","This is a bim:","","",""
"html-keyboard-response","45","117497","0.0-5.0-0.13","LF","1e9hhup9lf","1536","864","0","1","0","5cbc680bfb8dfe0001839ba2","","null","","","learningBlock1","","","","This is a wug:","null","","","","","",""
"image-keyboard-response","46","117840","0.0-5.0-1.13","LF","1e9hhup9lf","1536","864","0","1","0","5cbc680bfb8dfe0001839ba2","","null","","","","","","","learning/Slide14.JPG","null","","","","","",""
"html-keyboard-response","47","118842","0.0-5.0-2.13","LF","1e9hhup9lf","1536","864","0","1","0","5cbc680bfb8dfe0001839ba2","","null","","","learningBlock1","","","","<div style=""font-size:60px;""> </div>","null","LF","learning/Slide14.JPG","This is a wug:","","",""
"html-keyboard-response","48","119855","0.0-5.0-0.14","LF","1e9hhup9lf","1536","864","0","1","0","5cbc680bfb8dfe0001839ba2","","null","","","learningBlock1","","","","This is a tob:","null","","","","","",""
"image-keyboard-response","49","120201","0.0-5.0-1.14","LF","1e9hhup9lf","1536","864","0","1","0","5cbc680bfb8dfe0001839ba2","","null","","","","","","","learning/Slide15.JPG","null","","","","","",""
"html-keyboard-response","50","121205","0.0-5.0-2.14","LF","1e9hhup9lf","1536","864","0","1","0","5cbc680bfb8dfe0001839ba2","","null","","","learningBlock1","","","","<div style=""font-size:60px;""> </div>","null","LF","learning/Slide15.JPG","This is a tob:","","",""
"html-keyboard-response","51","122220","0.0-5.0-0.15","LF","1e9hhup9lf","1536","864","0","1","0","5cbc680bfb8dfe0001839ba2","","null","","","learningBlock1","","","","This is a dep:","null","","","","","",""
"image-keyboard-response","52","122562","0.0-5.0-1.15","LF","1e9hhup9lf","1536","864","0","1","0","5cbc680bfb8dfe0001839ba2","","null","","","","","","","learning/Slide16.JPG","null","","","","","",""
"html-keyboard-response","53","123564","0.0-5.0-2.15","LF","1e9hhup9lf","1536","864","0","1","0","5cbc680bfb8dfe0001839ba2","","null","","","learningBlock1","","","","<div style=""font-size:60px;""> </div>","null","LF","learning/Slide16.JPG","This is a dep:","","",""
"html-keyboard-response","54","124581","0.0-5.0-0.16","LF","1e9hhup9lf","1536","864","0","1","0","5cbc680bfb8dfe0001839ba2","","null","","","learningBlock1","","","","This is a bim:","null","","","","","",""
"image-keyboard-response","55","124925","0.0-5.0-1.16","LF","1e9hhup9lf","1536","864","0","1","0","5cbc680bfb8dfe0001839ba2","","null","","","","","","","learning/Slide17.JPG","null","","","","","",""
"html-keyboard-response","56","125940","0.0-5.0-2.16","LF","1e9hhup9lf","1536","864","0","1","0","5cbc680bfb8dfe0001839ba2","","null","","","learningBlock1","","","","<div style=""font-size:60px;""> </div>","null","LF","learning/Slide17.JPG","This is a bim:","","",""
"html-keyboard-response","57","126942","0.0-5.0-0.17","LF","1e9hhup9lf","1536","864","0","1","0","5cbc680bfb8dfe0001839ba2","","null","","","learningBlock1","","","","This is a tob:","null","","","","","",""
"image-keyboard-response","58","127293","0.0-5.0-1.17","LF","1e9hhup9lf","1536","864","0","1","0","5cbc680bfb8dfe0001839ba2","","null","","","","","","","learning/Slide18.JPG","null","","","","","",""
"html-keyboard-response","59","128309","0.0-5.0-2.17","LF","1e9hhup9lf","1536","864","0","1","0","5cbc680bfb8dfe0001839ba2","","null","","","learningBlock1","","","","<div style=""font-size:60px;""> </div>","null","LF","learning/Slide18.JPG","This is a tob:","","",""
"html-keyboard-response","60","129324","0.0-5.0-0.18","LF","1e9hhup9lf","1536","864","0","1","0","5cbc680bfb8dfe0001839ba2","","null","","","learningBlock1","","","","This is a wug:","null","","","","","",""
"image-keyboard-response","61","129669","0.0-5.0-1.18","LF","1e9hhup9lf","1536","864","0","1","0","5cbc680bfb8dfe0001839ba2","","null","","","","","","","learning/Slide19.JPG","null","","","","","",""
"html-keyboard-response","62","130672","0.0-5.0-2.18","LF","1e9hhup9lf","1536","864","0","1","0","5cbc680bfb8dfe0001839ba2","","null","","","learningBlock1","","","","<div style=""font-size:60px;""> </div>","null","LF","learning/Slide19.JPG","This is a wug:","","",""
"html-keyboard-response","63","131688","0.0-5.0-0.19","LF","1e9hhup9lf","1536","864","0","1","0","5cbc680bfb8dfe0001839ba2","","null","","","learningBlock1","","","","This is a bim:","null","","","","","",""
"image-keyboard-response","64","132033","0.0-5.0-1.19","LF","1e9hhup9lf","1536","864","0","1","0","5cbc680bfb8dfe0001839ba2","","null","","","","","","","learning/Slide20.JPG","null","","","","","",""
"html-keyboard-response","65","133049","0.0-5.0-2.19","LF","1e9hhup9lf","1536","864","0","1","0","5cbc680bfb8dfe0001839ba2","","null","","","learningBlock1","","","","<div style=""font-size:60px;""> </div>","null","LF","learning/Slide20.JPG","This is a bim:","","",""
"html-keyboard-response","66","134064","0.0-5.0-0.20","LF","1e9hhup9lf","1536","864","0","1","0","5cbc680bfb8dfe0001839ba2","","null","","","learningBlock1","","","","This is a dep:","null","","","","","",""
"image-keyboard-response","67","134406","0.0-5.0-1.20","LF","1e9hhup9lf","1536","864","0","1","0","5cbc680bfb8dfe0001839ba2","","null","","","","","","","learning/Slide21.JPG","null","","","","","",""
"html-keyboard-response","68","135407","0.0-5.0-2.20","LF","1e9hhup9lf","1536","864","0","1","0","5cbc680bfb8dfe0001839ba2","","null","","","learningBlock1","","","","<div style=""font-size:60px;""> </div>","null","LF","learning/Slide21.JPG","This is a dep:","","",""
"html-keyboard-response","69","136423","0.0-5.0-0.21","LF","1e9hhup9lf","1536","864","0","1","0","5cbc680bfb8dfe0001839ba2","","null","","","learningBlock1","","","","This is a bim:","null","","","","","",""
"image-keyboard-response","70","136766","0.0-5.0-1.21","LF","1e9hhup9lf","1536","864","0","1","0","5cbc680bfb8dfe0001839ba2","","null","","","","","","","learning/Slide22.JPG","null","","","","","",""
"html-keyboard-response","71","137767","0.0-5.0-2.21","LF","1e9hhup9lf","1536","864","0","1","0","5cbc680bfb8dfe0001839ba2","","null","","","learningBlock1","","","","<div style=""font-size:60px;""> </div>","null","LF","learning/Slide22.JPG","This is a bim:","","",""
"html-keyboard-response","72","138781","0.0-5.0-0.22","LF","1e9hhup9lf","1536","864","0","1","0","5cbc680bfb8dfe0001839ba2","","null","","","learningBlock1","","","","This is a tob:","null","","","","","",""
"image-keyboard-response","73","139123","0.0-5.0-1.22","LF","1e9hhup9lf","1536","864","0","1","0","5cbc680bfb8dfe0001839ba2","","null","","","","","","","learning/Slide23.JPG","null","","","","","",""
"html-keyboard-response","74","140128","0.0-5.0-2.22","LF","1e9hhup9lf","1536","864","0","1","0","5cbc680bfb8dfe0001839ba2","","null","","","learningBlock1","","","","<div style=""font-size:60px;""> </div>","null","LF","learning/Slide23.JPG","This is a tob:","","",""
"html-keyboard-response","75","141142","0.0-5.0-0.23","LF","1e9hhup9lf","1536","864","0","1","0","5cbc680bfb8dfe0001839ba2","","null","","","learningBlock1","","","","This is a wug:","null","","","","","",""
"image-keyboard-response","76","141482","0.0-5.0-1.23","LF","1e9hhup9lf","1536","864","0","1","0","5cbc680bfb8dfe0001839ba2","","null","","","","","","","learning/Slide24.JPG","null","","","","","",""
"html-keyboard-response","77","142497","0.0-5.0-2.23","LF","1e9hhup9lf","1536","864","0","1","0","5cbc680bfb8dfe0001839ba2","","null","","","learningBlock1","","","","<div style=""font-size:60px;""> </div>","null","LF","learning/Slide24.JPG","This is a wug:","","",""
"html-keyboard-response","78","143513","0.0-5.0-0.24","LF","1e9hhup9lf","1536","864","0","1","0","5cbc680bfb8dfe0001839ba2","","null","","","learningBlock1","","","","This is a dep:","null","","","","","",""
"image-keyboard-response","79","143856","0.0-5.0-1.24","LF","1e9hhup9lf","1536","864","0","1","0","5cbc680bfb8dfe0001839ba2","","null","","","","","","","learning/Slide25.JPG","null","","","","","",""
"html-keyboard-response","80","144869","0.0-5.0-2.24","LF","1e9hhup9lf","1536","864","0","1","0","5cbc680bfb8dfe0001839ba2","","null","","","learningBlock1","","","","<div style=""font-size:60px;""> </div>","null","LF","learning/Slide25.JPG","This is a dep:","","",""
"html-keyboard-response","81","145885","0.0-5.0-0.25","LF","1e9hhup9lf","1536","864","0","1","0","5cbc680bfb8dfe0001839ba2","","null","","","learningBlock1","","","","This is a wug:","null","","","","","",""
"image-keyboard-response","82","146230","0.0-5.0-1.25","LF","1e9hhup9lf","1536","864","0","1","0","5cbc680bfb8dfe0001839ba2","","null","","","","","","","learning/Slide26.JPG","null","","","","","",""
"html-keyboard-response","83","147243","0.0-5.0-2.25","LF","1e9hhup9lf","1536","864","0","1","0","5cbc680bfb8dfe0001839ba2","","null","","","learningBlock1","","","","<div style=""font-size:60px;""> </div>","null","LF","learning/Slide26.JPG","This is a wug:","","",""
"html-keyboard-response","84","148258","0.0-5.0-0.26","LF","1e9hhup9lf","1536","864","0","1","0","5cbc680bfb8dfe0001839ba2","","null","","","learningBlock1","","","","This is a bim:","null","","","","","",""
"image-keyboard-response","85","148602","0.0-5.0-1.26","LF","1e9hhup9lf","1536","864","0","1","0","5cbc680bfb8dfe0001839ba2","","null","","","","","","","learning/Slide27.JPG","null","","","","","",""
"html-keyboard-response","86","149614","0.0-5.0-2.26","LF","1e9hhup9lf","1536","864","0","1","0","5cbc680bfb8dfe0001839ba2","","null","","","learningBlock1","","","","<div style=""font-size:60px;""> </div>","null","LF","learning/Slide27.JPG","This is a bim:","","",""
"html-keyboard-response","87","150628","0.0-5.0-0.27","LF","1e9hhup9lf","1536","864","0","1","0","5cbc680bfb8dfe0001839ba2","","null","","","learningBlock1","","","","This is a dep:","null","","","","","",""
"image-keyboard-response","88","150972","0.0-5.0-1.27","LF","1e9hhup9lf","1536","864","0","1","0","5cbc680bfb8dfe0001839ba2","","null","","","","","","","learning/Slide28.JPG","null","","","","","",""
"html-keyboard-response","89","151981","0.0-5.0-2.27","LF","1e9hhup9lf","1536","864","0","1","0","5cbc680bfb8dfe0001839ba2","","null","","","learningBlock1","","","","<div style=""font-size:60px;""> </div>","null","LF","learning/Slide28.JPG","This is a dep:","","",""
"html-keyboard-response","90","152996","0.0-5.0-0.28","LF","1e9hhup9lf","1536","864","0","1","0","5cbc680bfb8dfe0001839ba2","","null","","","learningBlock1","","","","This is a tob:","null","","","","","",""
"image-keyboard-response","91","153340","0.0-5.0-1.28","LF","1e9hhup9lf","1536","864","0","1","0","5cbc680bfb8dfe0001839ba2","","null","","","","","","","learning/Slide29.JPG","null","","","","","",""
"html-keyboard-response","92","154345","0.0-5.0-2.28","LF","1e9hhup9lf","1536","864","0","1","0","5cbc680bfb8dfe0001839ba2","","null","","","learningBlock1","","","","<div style=""font-size:60px;""> </div>","null","LF","learning/Slide29.JPG","This is a tob:","","",""
"html-keyboard-response","93","155358","0.0-5.0-0.29","LF","1e9hhup9lf","1536","864","0","1","0","5cbc680bfb8dfe0001839ba2","","null","","","learningBlock1","","","","This is a dep:","null","","","","","",""
"image-keyboard-response","94","155704","0.0-5.0-1.29","LF","1e9hhup9lf","1536","864","0","1","0","5cbc680bfb8dfe0001839ba2","","null","","","","","","","learning/Slide30.JPG","null","","","","","",""
"html-keyboard-response","95","156716","0.0-5.0-2.29","LF","1e9hhup9lf","1536","864","0","1","0","5cbc680bfb8dfe0001839ba2","","null","","","learningBlock1","","","","<div style=""font-size:60px;""> </div>","null","LF","learning/Slide30.JPG","This is a dep:","","",""
"html-keyboard-response","96","157717","0.0-5.0-0.30","LF","1e9hhup9lf","1536","864","0","1","0","5cbc680bfb8dfe0001839ba2","","null","","","learningBlock1","","","","This is a wug:","null","","","","","",""
"image-keyboard-response","97","158058","0.0-5.0-1.30","LF","1e9hhup9lf","1536","864","0","1","0","5cbc680bfb8dfe0001839ba2","","null","","","","","","","learning/Slide31.JPG","null","","","","","",""
"html-keyboard-response","98","159075","0.0-5.0-2.30","LF","1e9hhup9lf","1536","864","0","1","0","5cbc680bfb8dfe0001839ba2","","null","","","learningBlock1","","","","<div style=""font-size:60px;""> </div>","null","LF","learning/Slide31.JPG","This is a wug:","","",""
"html-keyboard-response","99","160079","0.0-5.0-0.31","LF","1e9hhup9lf","1536","864","0","1","0","5cbc680bfb8dfe0001839ba2","","null","","","learningBlock1","","","","This is a tob:","null","","","","","",""
"image-keyboard-response","100","160423","0.0-5.0-1.31","LF","1e9hhup9lf","1536","864","0","1","0","5cbc680bfb8dfe0001839ba2","","null","","","","","","","learning/Slide32.JPG","null","","","","","",""
"html-keyboard-response","101","161437","0.0-5.0-2.31","LF","1e9hhup9lf","1536","864","0","1","0","5cbc680bfb8dfe0001839ba2","","null","","","learningBlock1","","","","<div style=""font-size:60px;""> </div>","null","LF","learning/Slide32.JPG","This is a tob:","","",""
"html-keyboard-response","102","162453","0.0-5.0-0.32","LF","1e9hhup9lf","1536","864","0","1","0","5cbc680bfb8dfe0001839ba2","","null","","","learningBlock1","","","","This is a bim:","null","","","","","",""
"image-keyboard-response","103","162794","0.0-5.0-1.32","LF","1e9hhup9lf","1536","864","0","1","0","5cbc680bfb8dfe0001839ba2","","null","","","","","","","learning/Slide33.JPG","null","","","","","",""
"html-keyboard-response","104","163809","0.0-5.0-2.32","LF","1e9hhup9lf","1536","864","0","1","0","5cbc680bfb8dfe0001839ba2","","null","","","learningBlock1","","","","<div style=""font-size:60px;""> </div>","null","LF","learning/Slide33.JPG","This is a bim:","","",""
"html-keyboard-response","105","164810","0.0-5.0-0.33","LF","1e9hhup9lf","1536","864","0","1","0","5cbc680bfb8dfe0001839ba2","","null","","","learningBlock1","","","","This is a tob:","null","","","","","",""
"image-keyboard-response","106","165151","0.0-5.0-1.33","LF","1e9hhup9lf","1536","864","0","1","0","5cbc680bfb8dfe0001839ba2","","null","","","","","","","learning/Slide34.JPG","null","","","","","",""
"html-keyboard-response","107","166152","0.0-5.0-2.33","LF","1e9hhup9lf","1536","864","0","1","0","5cbc680bfb8dfe0001839ba2","","null","","","learningBlock1","","","","<div style=""font-size:60px;""> </div>","null","LF","learning/Slide34.JPG","This is a tob:","","",""
"html-keyboard-response","108","167160","0.0-5.0-0.34","LF","1e9hhup9lf","1536","864","0","1","0","5cbc680bfb8dfe0001839ba2","","null","","","learningBlock1","","","","This is a bim:","null","","","","","",""
"image-keyboard-response","109","167505","0.0-5.0-1.34","LF","1e9hhup9lf","1536","864","0","1","0","5cbc680bfb8dfe0001839ba2","","null","","","","","","","learning/Slide35.JPG","null","","","","","",""
"html-keyboard-response","110","168518","0.0-5.0-2.34","LF","1e9hhup9lf","1536","864","0","1","0","5cbc680bfb8dfe0001839ba2","","null","","","learningBlock1","","","","<div style=""font-size:60px;""> </div>","null","LF","learning/Slide35.JPG","This is a bim:","","",""
"html-keyboard-response","111","169532","0.0-5.0-0.35","LF","1e9hhup9lf","1536","864","0","1","0","5cbc680bfb8dfe0001839ba2","","null","","","learningBlock1","","","","This is a dep:","null","","","","","",""
"image-keyboard-response","112","169877","0.0-5.0-1.35","LF","1e9hhup9lf","1536","864","0","1","0","5cbc680bfb8dfe0001839ba2","","null","","","","","","","learning/Slide36.JPG","null","","","","","",""
"html-keyboard-response","113","170890","0.0-5.0-2.35","LF","1e9hhup9lf","1536","864","0","1","0","5cbc680bfb8dfe0001839ba2","","null","","","learningBlock1","","","","<div style=""font-size:60px;""> </div>","null","LF","learning/Slide36.JPG","This is a dep:","","",""
"html-keyboard-response","114","171893","0.0-5.0-0.36","LF","1e9hhup9lf","1536","864","0","1","0","5cbc680bfb8dfe0001839ba2","","null","","","learningBlock1","","","","This is a tob:","null","","","","","",""
"image-keyboard-response","115","172239","0.0-5.0-1.36","LF","1e9hhup9lf","1536","864","0","1","0","5cbc680bfb8dfe0001839ba2","","null","","","","","","","learning/Slide37.JPG","null","","","","","",""
"html-keyboard-response","116","173253","0.0-5.0-2.36","LF","1e9hhup9lf","1536","864","0","1","0","5cbc680bfb8dfe0001839ba2","","null","","","learningBlock1","","","","<div style=""font-size:60px;""> </div>","null","LF","learning/Slide37.JPG","This is a tob:","","",""
"html-keyboard-response","117","174268","0.0-5.0-0.37","LF","1e9hhup9lf","1536","864","0","1","0","5cbc680bfb8dfe0001839ba2","","null","","","learningBlock1","","","","This is a wug:","null","","","","","",""
"image-keyboard-response","118","174610","0.0-5.0-1.37","LF","1e9hhup9lf","1536","864","0","1","0","5cbc680bfb8dfe0001839ba2","","null","","","","","","","learning/Slide38.JPG","null","","","","","",""
"html-keyboard-response","119","175611","0.0-5.0-2.37","LF","1e9hhup9lf","1536","864","0","1","0","5cbc680bfb8dfe0001839ba2","","null","","","learningBlock1","","","","<div style=""font-size:60px;""> </div>","null","LF","learning/Slide38.JPG","This is a wug:","","",""
"html-keyboard-response","120","176612","0.0-5.0-0.38","LF","1e9hhup9lf","1536","864","0","1","0","5cbc680bfb8dfe0001839ba2","","null","","","learningBlock1","","","","This is a bim:","null","","","","","",""
"image-keyboard-response","121","176956","0.0-5.0-1.38","LF","1e9hhup9lf","1536","864","0","1","0","5cbc680bfb8dfe0001839ba2","","null","","","","","","","learning/Slide39.JPG","null","","","","","",""
"html-keyboard-response","122","177966","0.0-5.0-2.38","LF","1e9hhup9lf","1536","864","0","1","0","5cbc680bfb8dfe0001839ba2","","null","","","learningBlock1","","","","<div style=""font-size:60px;""> </div>","null","LF","learning/Slide39.JPG","This is a bim:","","",""
"html-keyboard-response","123","178968","0.0-5.0-0.39","LF","1e9hhup9lf","1536","864","0","1","0","5cbc680bfb8dfe0001839ba2","","null","","","learningBlock1","","","","This is a tob:","null","","","","","",""
"image-keyboard-response","124","179313","0.0-5.0-1.39","LF","1e9hhup9lf","1536","864","0","1","0","5cbc680bfb8dfe0001839ba2","","null","","","","","","","learning/Slide40.JPG","null","","","","","",""
"html-keyboard-response","125","180315","0.0-5.0-2.39","LF","1e9hhup9lf","1536","864","0","1","0","5cbc680bfb8dfe0001839ba2","","null","","","learningBlock1","","","","<div style=""font-size:60px;""> </div>","null","LF","learning/Slide40.JPG","This is a tob:","","",""
"html-keyboard-response","126","181331","0.0-5.0-0.40","LF","1e9hhup9lf","1536","864","0","1","0","5cbc680bfb8dfe0001839ba2","","null","","","learningBlock1","","","","This is a bim:","null","","","","","",""
"image-keyboard-response","127","181674","0.0-5.0-1.40","LF","1e9hhup9lf","1536","864","0","1","0","5cbc680bfb8dfe0001839ba2","","null","","","","","","","learning/Slide41.JPG","null","","","","","",""
"html-keyboard-response","128","182688","0.0-5.0-2.40","LF","1e9hhup9lf","1536","864","0","1","0","5cbc680bfb8dfe0001839ba2","","null","","","learningBlock1","","","","<div style=""font-size:60px;""> </div>","null","LF","learning/Slide41.JPG","This is a bim:","","",""
"html-keyboard-response","129","183699","0.0-5.0-0.41","LF","1e9hhup9lf","1536","864","0","1","0","5cbc680bfb8dfe0001839ba2","","null","","","learningBlock1","","","","This is a dep:","null","","","","","",""
"image-keyboard-response","130","184046","0.0-5.0-1.41","LF","1e9hhup9lf","1536","864","0","1","0","5cbc680bfb8dfe0001839ba2","","null","","","","","","","learning/Slide42.JPG","null","","","","","",""
"html-keyboard-response","131","185050","0.0-5.0-2.41","LF","1e9hhup9lf","1536","864","0","1","0","5cbc680bfb8dfe0001839ba2","","null","","","learningBlock1","","","","<div style=""font-size:60px;""> </div>","null","LF","learning/Slide42.JPG","This is a dep:","","",""
"html-keyboard-response","132","186064","0.0-5.0-0.42","LF","1e9hhup9lf","1536","864","0","1","0","5cbc680bfb8dfe0001839ba2","","null","","","learningBlock1","","","","This is a wug:","null","","","","","",""
"image-keyboard-response","133","186408","0.0-5.0-1.42","LF","1e9hhup9lf","1536","864","0","1","0","5cbc680bfb8dfe0001839ba2","","null","","","","","","","learning/Slide43.JPG","null","","","","","",""
"html-keyboard-response","134","187425","0.0-5.0-2.42","LF","1e9hhup9lf","1536","864","0","1","0","5cbc680bfb8dfe0001839ba2","","null","","","learningBlock1","","","","<div style=""font-size:60px;""> </div>","null","LF","learning/Slide43.JPG","This is a wug:","","",""
"html-keyboard-response","135","188425","0.0-5.0-0.43","LF","1e9hhup9lf","1536","864","0","1","0","5cbc680bfb8dfe0001839ba2","","null","","","learningBlock1","","","","This is a bim:","null","","","","","",""
"image-keyboard-response","136","188768","0.0-5.0-1.43","LF","1e9hhup9lf","1536","864","0","1","0","5cbc680bfb8dfe0001839ba2","","null","","","","","","","learning/Slide44.JPG","null","","","","","",""
"html-keyboard-response","137","189783","0.0-5.0-2.43","LF","1e9hhup9lf","1536","864","0","1","0","5cbc680bfb8dfe0001839ba2","","null","","","learningBlock1","","","","<div style=""font-size:60px;""> </div>","null","LF","learning/Slide44.JPG","This is a bim:","","",""
"html-keyboard-response","138","190799","0.0-5.0-0.44","LF","1e9hhup9lf","1536","864","0","1","0","5cbc680bfb8dfe0001839ba2","","null","","","learningBlock1","","","","This is a wug:","null","","","","","",""
"image-keyboard-response","139","191144","0.0-5.0-1.44","LF","1e9hhup9lf","1536","864","0","1","0","5cbc680bfb8dfe0001839ba2","","null","","","","","","","learning/Slide45.JPG","null","","","","","",""
"html-keyboard-response","140","192153","0.0-5.0-2.44","LF","1e9hhup9lf","1536","864","0","1","0","5cbc680bfb8dfe0001839ba2","","null","","","learningBlock1","","","","<div style=""font-size:60px;""> </div>","null","LF","learning/Slide45.JPG","This is a wug:","","",""
"html-keyboard-response","141","193168","0.0-5.0-0.45","LF","1e9hhup9lf","1536","864","0","1","0","5cbc680bfb8dfe0001839ba2","","null","","","learningBlock1","","","","This is a dep:","null","","","","","",""
"image-keyboard-response","142","193513","0.0-5.0-1.45","LF","1e9hhup9lf","1536","864","0","1","0","5cbc680bfb8dfe0001839ba2","","null","","","","","","","learning/Slide46.JPG","null","","","","","",""
"html-keyboard-response","143","194516","0.0-5.0-2.45","LF","1e9hhup9lf","1536","864","0","1","0","5cbc680bfb8dfe0001839ba2","","null","","","learningBlock1","","","","<div style=""font-size:60px;""> </div>","null","LF","learning/Slide46.JPG","This is a dep:","","",""
"html-keyboard-response","144","195518","0.0-5.0-0.46","LF","1e9hhup9lf","1536","864","0","1","0","5cbc680bfb8dfe0001839ba2","","null","","","learningBlock1","","","","This is a tob:","null","","","","","",""
"image-keyboard-response","145","195861","0.0-5.0-1.46","LF","1e9hhup9lf","1536","864","0","1","0","5cbc680bfb8dfe0001839ba2","","null","","","","","","","learning/Slide47.JPG","null","","","","","",""
"html-keyboard-response","146","196870","0.0-5.0-2.46","LF","1e9hhup9lf","1536","864","0","1","0","5cbc680bfb8dfe0001839ba2","","null","","","learningBlock1","","","","<div style=""font-size:60px;""> </div>","null","LF","learning/Slide47.JPG","This is a tob:","","",""
"html-keyboard-response","147","197885","0.0-5.0-0.47","LF","1e9hhup9lf","1536","864","0","1","0","5cbc680bfb8dfe0001839ba2","","null","","","learningBlock1","","","","This is a bim:","null","","","","","",""
"image-keyboard-response","148","198227","0.0-5.0-1.47","LF","1e9hhup9lf","1536","864","0","1","0","5cbc680bfb8dfe0001839ba2","","null","","","","","","","learning/Slide48.JPG","null","","","","","",""
"html-keyboard-response","149","199229","0.0-5.0-2.47","LF","1e9hhup9lf","1536","864","0","1","0","5cbc680bfb8dfe0001839ba2","","null","","","learningBlock1","","","","<div style=""font-size:60px;""> </div>","null","LF","learning/Slide48.JPG","This is a bim:","","",""
"html-keyboard-response","150","200230","0.0-5.0-0.48","LF","1e9hhup9lf","1536","864","0","1","0","5cbc680bfb8dfe0001839ba2","","null","","","learningBlock1","","","","This is a dep:","null","","","","","",""
"image-keyboard-response","151","200576","0.0-5.0-1.48","LF","1e9hhup9lf","1536","864","0","1","0","5cbc680bfb8dfe0001839ba2","","null","","","","","","","learning/Slide49.JPG","null","","","","","",""
"html-keyboard-response","152","201579","0.0-5.0-2.48","LF","1e9hhup9lf","1536","864","0","1","0","5cbc680bfb8dfe0001839ba2","","null","","","learningBlock1","","","","<div style=""font-size:60px;""> </div>","null","LF","learning/Slide49.JPG","This is a dep:","","",""
"html-keyboard-response","153","202581","0.0-5.0-0.49","LF","1e9hhup9lf","1536","864","0","1","0","5cbc680bfb8dfe0001839ba2","","null","","","learningBlock1","","","","This is a tob:","null","","","","","",""
"image-keyboard-response","154","202925","0.0-5.0-1.49","LF","1e9hhup9lf","1536","864","0","1","0","5cbc680bfb8dfe0001839ba2","","null","","","","","","","learning/Slide50.JPG","null","","","","","",""
"html-keyboard-response","155","203940","0.0-5.0-2.49","LF","1e9hhup9lf","1536","864","0","1","0","5cbc680bfb8dfe0001839ba2","","null","","","learningBlock1","","","","<div style=""font-size:60px;""> </div>","null","LF","learning/Slide50.JPG","This is a tob:","","",""
"html-keyboard-response","156","204954","0.0-5.0-0.50","LF","1e9hhup9lf","1536","864","0","1","0","5cbc680bfb8dfe0001839ba2","","null","","","learningBlock1","","","","This is a bim:","null","","","","","",""
"image-keyboard-response","157","205296","0.0-5.0-1.50","LF","1e9hhup9lf","1536","864","0","1","0","5cbc680bfb8dfe0001839ba2","","null","","","","","","","learning/Slide51.JPG","null","","","","","",""
"html-keyboard-response","158","206310","0.0-5.0-2.50","LF","1e9hhup9lf","1536","864","0","1","0","5cbc680bfb8dfe0001839ba2","","null","","","learningBlock1","","","","<div style=""font-size:60px;""> </div>","null","LF","learning/Slide51.JPG","This is a bim:","","",""
"html-keyboard-response","159","207314","0.0-5.0-0.51","LF","1e9hhup9lf","1536","864","0","1","0","5cbc680bfb8dfe0001839ba2","","null","","","learningBlock1","","","","This is a wug:","null","","","","","",""
"image-keyboard-response","160","207655","0.0-5.0-1.51","LF","1e9hhup9lf","1536","864","0","1","0","5cbc680bfb8dfe0001839ba2","","null","","","","","","","learning/Slide52.JPG","null","","","","","",""
"html-keyboard-response","161","208667","0.0-5.0-2.51","LF","1e9hhup9lf","1536","864","0","1","0","5cbc680bfb8dfe0001839ba2","","null","","","learningBlock1","","","","<div style=""font-size:60px;""> </div>","null","LF","learning/Slide52.JPG","This is a wug:","","",""
"html-keyboard-response","162","209683","0.0-5.0-0.52","LF","1e9hhup9lf","1536","864","0","1","0","5cbc680bfb8dfe0001839ba2","","null","","","learningBlock1","","","","This is a tob:","null","","","","","",""
"image-keyboard-response","163","210026","0.0-5.0-1.52","LF","1e9hhup9lf","1536","864","0","1","0","5cbc680bfb8dfe0001839ba2","","null","","","","","","","learning/Slide53.JPG","null","","","","","",""
"html-keyboard-response","164","211030","0.0-5.0-2.52","LF","1e9hhup9lf","1536","864","0","1","0","5cbc680bfb8dfe0001839ba2","","null","","","learningBlock1","","","","<div style=""font-size:60px;""> </div>","null","LF","learning/Slide53.JPG","This is a tob:","","",""
"html-keyboard-response","165","212033","0.0-5.0-0.53","LF","1e9hhup9lf","1536","864","0","1","0","5cbc680bfb8dfe0001839ba2","","null","","","learningBlock1","","","","This is a dep:","null","","","","","",""
"image-keyboard-response","166","212374","0.0-5.0-1.53","LF","1e9hhup9lf","1536","864","0","1","0","5cbc680bfb8dfe0001839ba2","","null","","","","","","","learning/Slide54.JPG","null","","","","","",""
"html-keyboard-response","167","213376","0.0-5.0-2.53","LF","1e9hhup9lf","1536","864","0","1","0","5cbc680bfb8dfe0001839ba2","","null","","","learningBlock1","","","","<div style=""font-size:60px;""> </div>","null","LF","learning/Slide54.JPG","This is a dep:","","",""
"html-keyboard-response","168","214379","0.0-5.0-0.54","LF","1e9hhup9lf","1536","864","0","1","0","5cbc680bfb8dfe0001839ba2","","null","","","learningBlock1","","","","This is a bim:","null","","","","","",""
"image-keyboard-response","169","214722","0.0-5.0-1.54","LF","1e9hhup9lf","1536","864","0","1","0","5cbc680bfb8dfe0001839ba2","","null","","","","","","","learning/Slide55.JPG","null","","","","","",""
"html-keyboard-response","170","215737","0.0-5.0-2.54","LF","1e9hhup9lf","1536","864","0","1","0","5cbc680bfb8dfe0001839ba2","","null","","","learningBlock1","","","","<div style=""font-size:60px;""> </div>","null","LF","learning/Slide55.JPG","This is a bim:","","",""
"html-keyboard-response","171","216751","0.0-5.0-0.55","LF","1e9hhup9lf","1536","864","0","1","0","5cbc680bfb8dfe0001839ba2","","null","","","learningBlock1","","","","This is a tob:","null","","","","","",""
"image-keyboard-response","172","217094","0.0-5.0-1.55","LF","1e9hhup9lf","1536","864","0","1","0","5cbc680bfb8dfe0001839ba2","","null","","","","","","","learning/Slide56.JPG","null","","","","","",""
"html-keyboard-response","173","218107","0.0-5.0-2.55","LF","1e9hhup9lf","1536","864","0","1","0","5cbc680bfb8dfe0001839ba2","","null","","","learningBlock1","","","","<div style=""font-size:60px;""> </div>","null","LF","learning/Slide56.JPG","This is a tob:","","",""
"html-keyboard-response","174","219124","0.0-5.0-0.56","LF","1e9hhup9lf","1536","864","0","1","0","5cbc680bfb8dfe0001839ba2","","null","","","learningBlock1","","","","This is a dep:","null","","","","","",""
"image-keyboard-response","175","219466","0.0-5.0-1.56","LF","1e9hhup9lf","1536","864","0","1","0","5cbc680bfb8dfe0001839ba2","","null","","","","","","","learning/Slide57.JPG","null","","","","","",""
"html-keyboard-response","176","220469","0.0-5.0-2.56","LF","1e9hhup9lf","1536","864","0","1","0","5cbc680bfb8dfe0001839ba2","","null","","","learningBlock1","","","","<div style=""font-size:60px;""> </div>","null","LF","learning/Slide57.JPG","This is a dep:","","",""
"html-keyboard-response","177","221474","0.0-5.0-0.57","LF","1e9hhup9lf","1536","864","0","1","0","5cbc680bfb8dfe0001839ba2","","null","","","learningBlock1","","","","This is a wug:","null","","","","","",""
"image-keyboard-response","178","221816","0.0-5.0-1.57","LF","1e9hhup9lf","1536","864","0","1","0","5cbc680bfb8dfe0001839ba2","","null","","","","","","","learning/Slide58.JPG","null","","","","","",""
"html-keyboard-response","179","222831","0.0-5.0-2.57","LF","1e9hhup9lf","1536","864","0","1","0","5cbc680bfb8dfe0001839ba2","","null","","","learningBlock1","","","","<div style=""font-size:60px;""> </div>","null","LF","learning/Slide58.JPG","This is a wug:","","",""
"html-keyboard-response","180","223847","0.0-5.0-0.58","LF","1e9hhup9lf","1536","864","0","1","0","5cbc680bfb8dfe0001839ba2","","null","","","learningBlock1","","","","This is a dep:","null","","","","","",""
"image-keyboard-response","181","224192","0.0-5.0-1.58","LF","1e9hhup9lf","1536","864","0","1","0","5cbc680bfb8dfe0001839ba2","","null","","","","","","","learning/Slide59.JPG","null","","","","","",""
"html-keyboard-response","182","225207","0.0-5.0-2.58","LF","1e9hhup9lf","1536","864","0","1","0","5cbc680bfb8dfe0001839ba2","","null","","","learningBlock1","","","","<div style=""font-size:60px;""> </div>","null","LF","learning/Slide59.JPG","This is a dep:","","",""
"html-keyboard-response","183","226221","0.0-5.0-0.59","LF","1e9hhup9lf","1536","864","0","1","0","5cbc680bfb8dfe0001839ba2","","null","","","learningBlock1","","","","This is a wug:","null","","","","","",""
"image-keyboard-response","184","226566","0.0-5.0-1.59","LF","1e9hhup9lf","1536","864","0","1","0","5cbc680bfb8dfe0001839ba2","","null","","","","","","","learning/Slide60.JPG","null","","","","","",""
"html-keyboard-response","185","227576","0.0-5.0-2.59","LF","1e9hhup9lf","1536","864","0","1","0","5cbc680bfb8dfe0001839ba2","","null","","","learningBlock1","","","","<div style=""font-size:60px;""> </div>","null","LF","learning/Slide60.JPG","This is a wug:","","",""
"html-keyboard-response","186","228579","0.0-5.0-0.60","LF","1e9hhup9lf","1536","864","0","1","0","5cbc680bfb8dfe0001839ba2","","null","","","learningBlock1","","","","This is a bim:","null","","","","","",""
"image-keyboard-response","187","228925","0.0-5.0-1.60","LF","1e9hhup9lf","1536","864","0","1","0","5cbc680bfb8dfe0001839ba2","","null","","","","","","","learning/Slide61.JPG","null","","","","","",""
"html-keyboard-response","188","229938","0.0-5.0-2.60","LF","1e9hhup9lf","1536","864","0","1","0","5cbc680bfb8dfe0001839ba2","","null","","","learningBlock1","","","","<div style=""font-size:60px;""> </div>","null","LF","learning/Slide61.JPG","This is a bim:","","",""
"html-keyboard-response","189","230953","0.0-5.0-0.61","LF","1e9hhup9lf","1536","864","0","1","0","5cbc680bfb8dfe0001839ba2","","null","","","learningBlock1","","","","This is a dep:","null","","","","","",""
"image-keyboard-response","190","231297","0.0-5.0-1.61","LF","1e9hhup9lf","1536","864","0","1","0","5cbc680bfb8dfe0001839ba2","","null","","","","","","","learning/Slide62.JPG","null","","","","","",""
"html-keyboard-response","191","232299","0.0-5.0-2.61","LF","1e9hhup9lf","1536","864","0","1","0","5cbc680bfb8dfe0001839ba2","","null","","","learningBlock1","","","","<div style=""font-size:60px;""> </div>","null","LF","learning/Slide62.JPG","This is a dep:","","",""
"html-keyboard-response","192","233314","0.0-5.0-0.62","LF","1e9hhup9lf","1536","864","0","1","0","5cbc680bfb8dfe0001839ba2","","null","","","learningBlock1","","","","This is a bim:","null","","","","","",""
"image-keyboard-response","193","233657","0.0-5.0-1.62","LF","1e9hhup9lf","1536","864","0","1","0","5cbc680bfb8dfe0001839ba2","","null","","","","","","","learning/Slide63.JPG","null","","","","","",""
"html-keyboard-response","194","234666","0.0-5.0-2.62","LF","1e9hhup9lf","1536","864","0","1","0","5cbc680bfb8dfe0001839ba2","","null","","","learningBlock1","","","","<div style=""font-size:60px;""> </div>","null","LF","learning/Slide63.JPG","This is a bim:","","",""
"html-keyboard-response","195","235681","0.0-5.0-0.63","LF","1e9hhup9lf","1536","864","0","1","0","5cbc680bfb8dfe0001839ba2","","null","","","learningBlock1","","","","This is a tob:","null","","","","","",""
"image-keyboard-response","196","236024","0.0-5.0-1.63","LF","1e9hhup9lf","1536","864","0","1","0","5cbc680bfb8dfe0001839ba2","","null","","","","","","","learning/Slide64.JPG","null","","","","","",""
"html-keyboard-response","197","237025","0.0-5.0-2.63","LF","1e9hhup9lf","1536","864","0","1","0","5cbc680bfb8dfe0001839ba2","","null","","","learningBlock1","","","","<div style=""font-size:60px;""> </div>","null","LF","learning/Slide64.JPG","This is a tob:","","",""
"html-keyboard-response","198","238040","0.0-5.0-0.64","LF","1e9hhup9lf","1536","864","0","1","0","5cbc680bfb8dfe0001839ba2","","null","","","learningBlock1","","","","This is a wug:","null","","","","","",""
"image-keyboard-response","199","238382","0.0-5.0-1.64","LF","1e9hhup9lf","1536","864","0","1","0","5cbc680bfb8dfe0001839ba2","","null","","","","","","","learning/Slide65.JPG","null","","","","","",""
"html-keyboard-response","200","239393","0.0-5.0-2.64","LF","1e9hhup9lf","1536","864","0","1","0","5cbc680bfb8dfe0001839ba2","","null","","","learningBlock1","","","","<div style=""font-size:60px;""> </div>","null","LF","learning/Slide65.JPG","This is a wug:","","",""
"html-keyboard-response","201","240405","0.0-5.0-0.65","LF","1e9hhup9lf","1536","864","0","1","0","5cbc680bfb8dfe0001839ba2","","null","","","learningBlock1","","","","This is a dep:","null","","","","","",""
"image-keyboard-response","202","240746","0.0-5.0-1.65","LF","1e9hhup9lf","1536","864","0","1","0","5cbc680bfb8dfe0001839ba2","","null","","","","","","","learning/Slide66.JPG","null","","","","","",""
"html-keyboard-response","203","241762","0.0-5.0-2.65","LF","1e9hhup9lf","1536","864","0","1","0","5cbc680bfb8dfe0001839ba2","","null","","","learningBlock1","","","","<div style=""font-size:60px;""> </div>","null","LF","learning/Slide66.JPG","This is a dep:","","",""
"html-keyboard-response","204","242764","0.0-5.0-0.66","LF","1e9hhup9lf","1536","864","0","1","0","5cbc680bfb8dfe0001839ba2","","null","","","learningBlock1","","","","This is a tob:","null","","","","","",""
"image-keyboard-response","205","243107","0.0-5.0-1.66","LF","1e9hhup9lf","1536","864","0","1","0","5cbc680bfb8dfe0001839ba2","","null","","","","","","","learning/Slide67.JPG","null","","","","","",""
"html-keyboard-response","206","244123","0.0-5.0-2.66","LF","1e9hhup9lf","1536","864","0","1","0","5cbc680bfb8dfe0001839ba2","","null","","","learningBlock1","","","","<div style=""font-size:60px;""> </div>","null","LF","learning/Slide67.JPG","This is a tob:","","",""
"html-keyboard-response","207","245137","0.0-5.0-0.67","LF","1e9hhup9lf","1536","864","0","1","0","5cbc680bfb8dfe0001839ba2","","null","","","learningBlock1","","","","This is a wug:","null","","","","","",""
"image-keyboard-response","208","245482","0.0-5.0-1.67","LF","1e9hhup9lf","1536","864","0","1","0","5cbc680bfb8dfe0001839ba2","","null","","","","","","","learning/Slide68.JPG","null","","","","","",""
"html-keyboard-response","209","246494","0.0-5.0-2.67","LF","1e9hhup9lf","1536","864","0","1","0","5cbc680bfb8dfe0001839ba2","","null","","","learningBlock1","","","","<div style=""font-size:60px;""> </div>","null","LF","learning/Slide68.JPG","This is a wug:","","",""
"html-keyboard-response","210","247508","0.0-5.0-0.68","LF","1e9hhup9lf","1536","864","0","1","0","5cbc680bfb8dfe0001839ba2","","null","","","learningBlock1","","","","This is a tob:","null","","","","","",""
"image-keyboard-response","211","247849","0.0-5.0-1.68","LF","1e9hhup9lf","1536","864","0","1","0","5cbc680bfb8dfe0001839ba2","","null","","","","","","","learning/Slide69.JPG","null","","","","","",""
"html-keyboard-response","212","248862","0.0-5.0-2.68","LF","1e9hhup9lf","1536","864","0","1","0","5cbc680bfb8dfe0001839ba2","","null","","","learningBlock1","","","","<div style=""font-size:60px;""> </div>","null","LF","learning/Slide69.JPG","This is a tob:","","",""
"html-keyboard-response","213","249873","0.0-5.0-0.69","LF","1e9hhup9lf","1536","864","0","1","0","5cbc680bfb8dfe0001839ba2","","null","","","learningBlock1","","","","This is a dep:","null","","","","","",""
"image-keyboard-response","214","250219","0.0-5.0-1.69","LF","1e9hhup9lf","1536","864","0","1","0","5cbc680bfb8dfe0001839ba2","","null","","","","","","","learning/Slide70.JPG","null","","","","","",""
"html-keyboard-response","215","251220","0.0-5.0-2.69","LF","1e9hhup9lf","1536","864","0","1","0","5cbc680bfb8dfe0001839ba2","","null","","","learningBlock1","","","","<div style=""font-size:60px;""> </div>","null","LF","learning/Slide70.JPG","This is a dep:","","",""
"html-keyboard-response","216","252221","0.0-5.0-0.70","LF","1e9hhup9lf","1536","864","0","1","0","5cbc680bfb8dfe0001839ba2","","null","","","learningBlock1","","","","This is a wug:","null","","","","","",""
"image-keyboard-response","217","252563","0.0-5.0-1.70","LF","1e9hhup9lf","1536","864","0","1","0","5cbc680bfb8dfe0001839ba2","","null","","","","","","","learning/Slide71.JPG","null","","","","","",""
"html-keyboard-response","218","253576","0.0-5.0-2.70","LF","1e9hhup9lf","1536","864","0","1","0","5cbc680bfb8dfe0001839ba2","","null","","","learningBlock1","","","","<div style=""font-size:60px;""> </div>","null","LF","learning/Slide71.JPG","This is a wug:","","",""
"html-keyboard-response","219","254580","0.0-5.0-0.71","LF","1e9hhup9lf","1536","864","0","1","0","5cbc680bfb8dfe0001839ba2","","null","","","learningBlock1","","","","This is a bim:","null","","","","","",""
"image-keyboard-response","220","254923","0.0-5.0-1.71","LF","1e9hhup9lf","1536","864","0","1","0","5cbc680bfb8dfe0001839ba2","","null","","","","","","","learning/Slide72.JPG","null","","","","","",""
"html-keyboard-response","221","255940","0.0-5.0-2.71","LF","1e9hhup9lf","1536","864","0","1","0","5cbc680bfb8dfe0001839ba2","","null","","","learningBlock1","","","","<div style=""font-size:60px;""> </div>","null","LF","learning/Slide72.JPG","This is a bim:","","",""
"html-keyboard-response","222","256940","0.0-5.0-0.72","LF","1e9hhup9lf","1536","864","0","1","0","5cbc680bfb8dfe0001839ba2","","null","","","learningBlock1","","","","This is a wug:","null","","","","","",""
"image-keyboard-response","223","257282","0.0-5.0-1.72","LF","1e9hhup9lf","1536","864","0","1","0","5cbc680bfb8dfe0001839ba2","","null","","","","","","","learning/Slide73.JPG","null","","","","","",""
"html-keyboard-response","224","258286","0.0-5.0-2.72","LF","1e9hhup9lf","1536","864","0","1","0","5cbc680bfb8dfe0001839ba2","","null","","","learningBlock1","","","","<div style=""font-size:60px;""> </div>","null","LF","learning/Slide73.JPG","This is a wug:","","",""
"html-keyboard-response","225","259300","0.0-5.0-0.73","LF","1e9hhup9lf","1536","864","0","1","0","5cbc680bfb8dfe0001839ba2","","null","","","learningBlock1","","","","This is a dep:","null","","","","","",""
"image-keyboard-response","226","259652","0.0-5.0-1.73","LF","1e9hhup9lf","1536","864","0","1","0","5cbc680bfb8dfe0001839ba2","","null","","","","","","","learning/Slide74.JPG","null","","","","","",""
"html-keyboard-response","227","260666","0.0-5.0-2.73","LF","1e9hhup9lf","1536","864","0","1","0","5cbc680bfb8dfe0001839ba2","","null","","","learningBlock1","","","","<div style=""font-size:60px;""> </div>","null","LF","learning/Slide74.JPG","This is a dep:","","",""
"html-keyboard-response","228","261667","0.0-5.0-0.74","LF","1e9hhup9lf","1536","864","0","1","0","5cbc680bfb8dfe0001839ba2","","null","","","learningBlock1","","","","This is a tob:","null","","","","","",""
"image-keyboard-response","229","262010","0.0-5.0-1.74","LF","1e9hhup9lf","1536","864","0","1","0","5cbc680bfb8dfe0001839ba2","","null","","","","","","","learning/Slide75.JPG","null","","","","","",""
"html-keyboard-response","230","263026","0.0-5.0-2.74","LF","1e9hhup9lf","1536","864","0","1","0","5cbc680bfb8dfe0001839ba2","","null","","","learningBlock1","","","","<div style=""font-size:60px;""> </div>","null","LF","learning/Slide75.JPG","This is a tob:","","",""
"html-keyboard-response","231","264028","0.0-5.0-0.75","LF","1e9hhup9lf","1536","864","0","1","0","5cbc680bfb8dfe0001839ba2","","null","","","learningBlock1","","","","This is a bim:","null","","","","","",""
"image-keyboard-response","232","264373","0.0-5.0-1.75","LF","1e9hhup9lf","1536","864","0","1","0","5cbc680bfb8dfe0001839ba2","","null","","","","","","","learning/Slide76.JPG","null","","","","","",""
"html-keyboard-response","233","265376","0.0-5.0-2.75","LF","1e9hhup9lf","1536","864","0","1","0","5cbc680bfb8dfe0001839ba2","","null","","","learningBlock1","","","","<div style=""font-size:60px;""> </div>","null","LF","learning/Slide76.JPG","This is a bim:","","",""
"html-keyboard-response","234","266391","0.0-5.0-0.76","LF","1e9hhup9lf","1536","864","0","1","0","5cbc680bfb8dfe0001839ba2","","null","","","learningBlock1","","","","This is a tob:","null","","","","","",""
"image-keyboard-response","235","266734","0.0-5.0-1.76","LF","1e9hhup9lf","1536","864","0","1","0","5cbc680bfb8dfe0001839ba2","","null","","","","","","","learning/Slide77.JPG","null","","","","","",""
"html-keyboard-response","236","267736","0.0-5.0-2.76","LF","1e9hhup9lf","1536","864","0","1","0","5cbc680bfb8dfe0001839ba2","","null","","","learningBlock1","","","","<div style=""font-size:60px;""> </div>","null","LF","learning/Slide77.JPG","This is a tob:","","",""
"html-keyboard-response","237","268752","0.0-5.0-0.77","LF","1e9hhup9lf","1536","864","0","1","0","5cbc680bfb8dfe0001839ba2","","null","","","learningBlock1","","","","This is a wug:","null","","","","","",""
"image-keyboard-response","238","269091","0.0-5.0-1.77","LF","1e9hhup9lf","1536","864","0","1","0","5cbc680bfb8dfe0001839ba2","","null","","","","","","","learning/Slide78.JPG","null","","","","","",""
"html-keyboard-response","239","270097","0.0-5.0-2.77","LF","1e9hhup9lf","1536","864","0","1","0","5cbc680bfb8dfe0001839ba2","","null","","","learningBlock1","","","","<div style=""font-size:60px;""> </div>","null","LF","learning/Slide78.JPG","This is a wug:","","",""
"html-keyboard-response","240","271112","0.0-5.0-0.78","LF","1e9hhup9lf","1536","864","0","1","0","5cbc680bfb8dfe0001839ba2","","null","","","learningBlock1","","","","This is a bim:","null","","","","","",""
"image-keyboard-response","241","271455","0.0-5.0-1.78","LF","1e9hhup9lf","1536","864","0","1","0","5cbc680bfb8dfe0001839ba2","","null","","","","","","","learning/Slide79.JPG","null","","","","","",""
"html-keyboard-response","242","272468","0.0-5.0-2.78","LF","1e9hhup9lf","1536","864","0","1","0","5cbc680bfb8dfe0001839ba2","","null","","","learningBlock1","","","","<div style=""font-size:60px;""> </div>","null","LF","learning/Slide79.JPG","This is a bim:","","",""
"html-keyboard-response","243","273469","0.0-5.0-0.79","LF","1e9hhup9lf","1536","864","0","1","0","5cbc680bfb8dfe0001839ba2","","null","","","learningBlock1","","","","This is a tob:","null","","","","","",""
"image-keyboard-response","244","273810","0.0-5.0-1.79","LF","1e9hhup9lf","1536","864","0","1","0","5cbc680bfb8dfe0001839ba2","","null","","","","","","","learning/Slide80.JPG","null","","","","","",""
"html-keyboard-response","245","274824","0.0-5.0-2.79","LF","1e9hhup9lf","1536","864","0","1","0","5cbc680bfb8dfe0001839ba2","","null","","","learningBlock1","","","","<div style=""font-size:60px;""> </div>","null","LF","learning/Slide80.JPG","This is a tob:","","",""
"instructions","246","336099","0.0-6.0","LF","1e9hhup9lf","1536","864","0","1","0","5cbc680bfb8dfe0001839ba2","","NA","","[{""page_index"":0,""viewing_time"":61274.890000000596}]","instructions","","","","","","","","","","",""
"html-keyboard-response","247","337110","0.0-7.0-0.0","LF","1e9hhup9lf","1536","864","0","1","0","5cbc680bfb8dfe0001839ba2","","null","","","learningBlock2","","","","This is a wug:","null","","","","","",""
"image-keyboard-response","248","337452","0.0-7.0-1.0","LF","1e9hhup9lf","1536","864","0","1","0","5cbc680bfb8dfe0001839ba2","","null","","","","","","","learning/Slide81.JPG","null","","","","","",""
"html-keyboard-response","249","338454","0.0-7.0-2.0","LF","1e9hhup9lf","1536","864","0","1","0","5cbc680bfb8dfe0001839ba2","","null","","","learningBlock2","","","","<div style=""font-size:60px;""> </div>","null","LF","learning/Slide81.JPG","This is a wug:","","",""
"html-keyboard-response","250","339456","0.0-7.0-0.1","LF","1e9hhup9lf","1536","864","0","1","0","5cbc680bfb8dfe0001839ba2","","null","","","learningBlock2","","","","This is a bim:","null","","","","","",""
"image-keyboard-response","251","339801","0.0-7.0-1.1","LF","1e9hhup9lf","1536","864","0","1","0","5cbc680bfb8dfe0001839ba2","","null","","","","","","","learning/Slide82.JPG","null","","","","","",""
"html-keyboard-response","252","340815","0.0-7.0-2.1","LF","1e9hhup9lf","1536","864","0","1","0","5cbc680bfb8dfe0001839ba2","","null","","","learningBlock2","","","","<div style=""font-size:60px;""> </div>","null","LF","learning/Slide82.JPG","This is a bim:","","",""
"html-keyboard-response","253","341830","0.0-7.0-0.2","LF","1e9hhup9lf","1536","864","0","1","0","5cbc680bfb8dfe0001839ba2","","null","","","learningBlock2","","","","This is a wug:","null","","","","","",""
"image-keyboard-response","254","342178","0.0-7.0-1.2","LF","1e9hhup9lf","1536","864","0","1","0","5cbc680bfb8dfe0001839ba2","","null","","","","","","","learning/Slide83.JPG","null","","","","","",""
"html-keyboard-response","255","343191","0.0-7.0-2.2","LF","1e9hhup9lf","1536","864","0","1","0","5cbc680bfb8dfe0001839ba2","","null","","","learningBlock2","","","","<div style=""font-size:60px;""> </div>","null","LF","learning/Slide83.JPG","This is a wug:","","",""
"html-keyboard-response","256","344206","0.0-7.0-0.3","LF","1e9hhup9lf","1536","864","0","1","0","5cbc680bfb8dfe0001839ba2","","null","","","learningBlock2","","","","This is a dep:","null","","","","","",""
"image-keyboard-response","257","344549","0.0-7.0-1.3","LF","1e9hhup9lf","1536","864","0","1","0","5cbc680bfb8dfe0001839ba2","","null","","","","","","","learning/Slide84.JPG","null","","","","","",""
"html-keyboard-response","258","345550","0.0-7.0-2.3","LF","1e9hhup9lf","1536","864","0","1","0","5cbc680bfb8dfe0001839ba2","","null","","","learningBlock2","","","","<div style=""font-size:60px;""> </div>","null","LF","learning/Slide84.JPG","This is a dep:","","",""
"html-keyboard-response","259","346563","0.0-7.0-0.4","LF","1e9hhup9lf","1536","864","0","1","0","5cbc680bfb8dfe0001839ba2","","null","","","learningBlock2","","","","This is a bim:","null","","","","","",""
"image-keyboard-response","260","346908","0.0-7.0-1.4","LF","1e9hhup9lf","1536","864","0","1","0","5cbc680bfb8dfe0001839ba2","","null","","","","","","","learning/Slide85.JPG","null","","","","","",""
"html-keyboard-response","261","347921","0.0-7.0-2.4","LF","1e9hhup9lf","1536","864","0","1","0","5cbc680bfb8dfe0001839ba2","","null","","","learningBlock2","","","","<div style=""font-size:60px;""> </div>","null","LF","learning/Slide85.JPG","This is a bim:","","",""
"html-keyboard-response","262","348935","0.0-7.0-0.5","LF","1e9hhup9lf","1536","864","0","1","0","5cbc680bfb8dfe0001839ba2","","null","","","learningBlock2","","","","This is a tob:","null","","","","","",""
"image-keyboard-response","263","349282","0.0-7.0-1.5","LF","1e9hhup9lf","1536","864","0","1","0","5cbc680bfb8dfe0001839ba2","","null","","","","","","","learning/Slide86.JPG","null","","","","","",""
"html-keyboard-response","264","350284","0.0-7.0-2.5","LF","1e9hhup9lf","1536","864","0","1","0","5cbc680bfb8dfe0001839ba2","","null","","","learningBlock2","","","","<div style=""font-size:60px;""> </div>","null","LF","learning/Slide86.JPG","This is a tob:","","",""
"html-keyboard-response","265","351299","0.0-7.0-0.6","LF","1e9hhup9lf","1536","864","0","1","0","5cbc680bfb8dfe0001839ba2","","null","","","learningBlock2","","","","This is a wug:","null","","","","","",""
"image-keyboard-response","266","351642","0.0-7.0-1.6","LF","1e9hhup9lf","1536","864","0","1","0","5cbc680bfb8dfe0001839ba2","","null","","","","","","","learning/Slide87.JPG","null","","","","","",""
"html-keyboard-response","267","352658","0.0-7.0-2.6","LF","1e9hhup9lf","1536","864","0","1","0","5cbc680bfb8dfe0001839ba2","","null","","","learningBlock2","","","","<div style=""font-size:60px;""> </div>","null","LF","learning/Slide87.JPG","This is a wug:","","",""
"html-keyboard-response","268","353672","0.0-7.0-0.7","LF","1e9hhup9lf","1536","864","0","1","0","5cbc680bfb8dfe0001839ba2","","null","","","learningBlock2","","","","This is a tob:","null","","","","","",""
"image-keyboard-response","269","354013","0.0-7.0-1.7","LF","1e9hhup9lf","1536","864","0","1","0","5cbc680bfb8dfe0001839ba2","","null","","","","","","","learning/Slide88.JPG","null","","","","","",""
"html-keyboard-response","270","355026","0.0-7.0-2.7","LF","1e9hhup9lf","1536","864","0","1","0","5cbc680bfb8dfe0001839ba2","","null","","","learningBlock2","","","","<div style=""font-size:60px;""> </div>","null","LF","learning/Slide88.JPG","This is a tob:","","",""
"html-keyboard-response","271","356030","0.0-7.0-0.8","LF","1e9hhup9lf","1536","864","0","1","0","5cbc680bfb8dfe0001839ba2","","null","","","learningBlock2","","","","This is a bim:","null","","","","","",""
"image-keyboard-response","272","356375","0.0-7.0-1.8","LF","1e9hhup9lf","1536","864","0","1","0","5cbc680bfb8dfe0001839ba2","","null","","","","","","","learning/Slide89.JPG","null","","","","","",""
"html-keyboard-response","273","357391","0.0-7.0-2.8","LF","1e9hhup9lf","1536","864","0","1","0","5cbc680bfb8dfe0001839ba2","","null","","","learningBlock2","","","","<div style=""font-size:60px;""> </div>","null","LF","learning/Slide89.JPG","This is a bim:","","",""
"html-keyboard-response","274","358394","0.0-7.0-0.9","LF","1e9hhup9lf","1536","864","0","1","0","5cbc680bfb8dfe0001839ba2","","null","","","learningBlock2","","","","This is a dep:","null","","","","","",""
"image-keyboard-response","275","358734","0.0-7.0-1.9","LF","1e9hhup9lf","1536","864","0","1","0","5cbc680bfb8dfe0001839ba2","","null","","","","","","","learning/Slide90.JPG","null","","","","","",""
"html-keyboard-response","276","359750","0.0-7.0-2.9","LF","1e9hhup9lf","1536","864","0","1","0","5cbc680bfb8dfe0001839ba2","","null","","","learningBlock2","","","","<div style=""font-size:60px;""> </div>","null","LF","learning/Slide90.JPG","This is a dep:","","",""
"html-keyboard-response","277","360751","0.0-7.0-0.10","LF","1e9hhup9lf","1536","864","0","1","0","5cbc680bfb8dfe0001839ba2","","null","","","learningBlock2","","","","This is a wug:","null","","","","","",""
"image-keyboard-response","278","361097","0.0-7.0-1.10","LF","1e9hhup9lf","1536","864","0","1","0","5cbc680bfb8dfe0001839ba2","","null","","","","","","","learning/Slide91.JPG","null","","","","","",""
"html-keyboard-response","279","362111","0.0-7.0-2.10","LF","1e9hhup9lf","1536","864","0","1","0","5cbc680bfb8dfe0001839ba2","","null","","","learningBlock2","","","","<div style=""font-size:60px;""> </div>","null","LF","learning/Slide91.JPG","This is a wug:","","",""
"html-keyboard-response","280","363127","0.0-7.0-0.11","LF","1e9hhup9lf","1536","864","0","1","0","5cbc680bfb8dfe0001839ba2","","null","","","learningBlock2","","","","This is a tob:","null","","","","","",""
"image-keyboard-response","281","363470","0.0-7.0-1.11","LF","1e9hhup9lf","1536","864","0","1","0","5cbc680bfb8dfe0001839ba2","","null","","","","","","","learning/Slide92.JPG","null","","","","","",""
"html-keyboard-response","282","364483","0.0-7.0-2.11","LF","1e9hhup9lf","1536","864","0","1","0","5cbc680bfb8dfe0001839ba2","","null","","","learningBlock2","","","","<div style=""font-size:60px;""> </div>","null","LF","learning/Slide92.JPG","This is a tob:","","",""
"html-keyboard-response","283","365486","0.0-7.0-0.12","LF","1e9hhup9lf","1536","864","0","1","0","5cbc680bfb8dfe0001839ba2","","null","","","learningBlock2","","","","This is a bim:","null","","","","","",""
"image-keyboard-response","284","365829","0.0-7.0-1.12","LF","1e9hhup9lf","1536","864","0","1","0","5cbc680bfb8dfe0001839ba2","","null","","","","","","","learning/Slide93.JPG","null","","","","","",""
"html-keyboard-response","285","366844","0.0-7.0-2.12","LF","1e9hhup9lf","1536","864","0","1","0","5cbc680bfb8dfe0001839ba2","","null","","","learningBlock2","","","","<div style=""font-size:60px;""> </div>","null","LF","learning/Slide93.JPG","This is a bim:","","",""
"html-keyboard-response","286","367846","0.0-7.0-0.13","LF","1e9hhup9lf","1536","864","0","1","0","5cbc680bfb8dfe0001839ba2","","null","","","learningBlock2","","","","This is a tob:","null","","","","","",""
"image-keyboard-response","287","368189","0.0-7.0-1.13","LF","1e9hhup9lf","1536","864","0","1","0","5cbc680bfb8dfe0001839ba2","","null","","","","","","","learning/Slide94.JPG","null","","","","","",""
"html-keyboard-response","288","369206","0.0-7.0-2.13","LF","1e9hhup9lf","1536","864","0","1","0","5cbc680bfb8dfe0001839ba2","","null","","","learningBlock2","","","","<div style=""font-size:60px;""> </div>","null","LF","learning/Slide94.JPG","This is a tob:","","",""
"html-keyboard-response","289","370212","0.0-7.0-0.14","LF","1e9hhup9lf","1536","864","0","1","0","5cbc680bfb8dfe0001839ba2","","null","","","learningBlock2","","","","This is a wug:","null","","","","","",""
"image-keyboard-response","290","370556","0.0-7.0-1.14","LF","1e9hhup9lf","1536","864","0","1","0","5cbc680bfb8dfe0001839ba2","","null","","","","","","","learning/Slide95.JPG","null","","","","","",""
"html-keyboard-response","291","371561","0.0-7.0-2.14","LF","1e9hhup9lf","1536","864","0","1","0","5cbc680bfb8dfe0001839ba2","","null","","","learningBlock2","","","","<div style=""font-size:60px;""> </div>","null","LF","learning/Slide95.JPG","This is a wug:","","",""
"html-keyboard-response","292","372571","0.0-7.0-0.15","LF","1e9hhup9lf","1536","864","0","1","0","5cbc680bfb8dfe0001839ba2","","null","","","learningBlock2","","","","This is a tob:","null","","","","","",""
"image-keyboard-response","293","372914","0.0-7.0-1.15","LF","1e9hhup9lf","1536","864","0","1","0","5cbc680bfb8dfe0001839ba2","","null","","","","","","","learning/Slide96.JPG","null","","","","","",""
"html-keyboard-response","294","373925","0.0-7.0-2.15","LF","1e9hhup9lf","1536","864","0","1","0","5cbc680bfb8dfe0001839ba2","","null","","","learningBlock2","","","","<div style=""font-size:60px;""> </div>","null","LF","learning/Slide96.JPG","This is a tob:","","",""
"html-keyboard-response","295","374926","0.0-7.0-0.16","LF","1e9hhup9lf","1536","864","0","1","0","5cbc680bfb8dfe0001839ba2","","null","","","learningBlock2","","","","This is a dep:","null","","","","","",""
"image-keyboard-response","296","375271","0.0-7.0-1.16","LF","1e9hhup9lf","1536","864","0","1","0","5cbc680bfb8dfe0001839ba2","","null","","","","","","","learning/Slide97.JPG","null","","","","","",""
"html-keyboard-response","297","376283","0.0-7.0-2.16","LF","1e9hhup9lf","1536","864","0","1","0","5cbc680bfb8dfe0001839ba2","","null","","","learningBlock2","","","","<div style=""font-size:60px;""> </div>","null","LF","learning/Slide97.JPG","This is a dep:","","",""
"html-keyboard-response","298","377297","0.0-7.0-0.17","LF","1e9hhup9lf","1536","864","0","1","0","5cbc680bfb8dfe0001839ba2","","null","","","learningBlock2","","","","This is a bim:","null","","","","","",""
"image-keyboard-response","299","377640","0.0-7.0-1.17","LF","1e9hhup9lf","1536","864","0","1","0","5cbc680bfb8dfe0001839ba2","","null","","","","","","","learning/Slide98.JPG","null","","","","","",""
"html-keyboard-response","300","378641","0.0-7.0-2.17","LF","1e9hhup9lf","1536","864","0","1","0","5cbc680bfb8dfe0001839ba2","","null","","","learningBlock2","","","","<div style=""font-size:60px;""> </div>","null","LF","learning/Slide98.JPG","This is a bim:","","",""
"html-keyboard-response","301","379642","0.0-7.0-0.18","LF","1e9hhup9lf","1536","864","0","1","0","5cbc680bfb8dfe0001839ba2","","null","","","learningBlock2","","","","This is a dep:","null","","","","","",""
"image-keyboard-response","302","379986","0.0-7.0-1.18","LF","1e9hhup9lf","1536","864","0","1","0","5cbc680bfb8dfe0001839ba2","","null","","","","","","","learning/Slide99.JPG","null","","","","","",""
"html-keyboard-response","303","381003","0.0-7.0-2.18","LF","1e9hhup9lf","1536","864","0","1","0","5cbc680bfb8dfe0001839ba2","","null","","","learningBlock2","","","","<div style=""font-size:60px;""> </div>","null","LF","learning/Slide99.JPG","This is a dep:","","",""
"html-keyboard-response","304","382017","0.0-7.0-0.19","LF","1e9hhup9lf","1536","864","0","1","0","5cbc680bfb8dfe0001839ba2","","null","","","learningBlock2","","","","This is a bim:","null","","","","","",""
"image-keyboard-response","305","382361","0.0-7.0-1.19","LF","1e9hhup9lf","1536","864","0","1","0","5cbc680bfb8dfe0001839ba2","","null","","","","","","","learning/Slide100.JPG","null","","","","","",""
"html-keyboard-response","306","383372","0.0-7.0-2.19","LF","1e9hhup9lf","1536","864","0","1","0","5cbc680bfb8dfe0001839ba2","","null","","","learningBlock2","","","","<div style=""font-size:60px;""> </div>","null","LF","learning/Slide100.JPG","This is a bim:","","",""
"html-keyboard-response","307","384377","0.0-7.0-0.20","LF","1e9hhup9lf","1536","864","0","1","0","5cbc680bfb8dfe0001839ba2","","null","","","learningBlock2","","","","This is a tob:","null","","","","","",""
"image-keyboard-response","308","384720","0.0-7.0-1.20","LF","1e9hhup9lf","1536","864","0","1","0","5cbc680bfb8dfe0001839ba2","","null","","","","","","","learning/Slide101.JPG","null","","","","","",""
"html-keyboard-response","309","385732","0.0-7.0-2.20","LF","1e9hhup9lf","1536","864","0","1","0","5cbc680bfb8dfe0001839ba2","","null","","","learningBlock2","","","","<div style=""font-size:60px;""> </div>","null","LF","learning/Slide101.JPG","This is a tob:","","",""
"html-keyboard-response","310","386744","0.0-7.0-0.21","LF","1e9hhup9lf","1536","864","0","1","0","5cbc680bfb8dfe0001839ba2","","null","","","learningBlock2","","","","This is a bim:","null","","","","","",""
"image-keyboard-response","311","387088","0.0-7.0-1.21","LF","1e9hhup9lf","1536","864","0","1","0","5cbc680bfb8dfe0001839ba2","","null","","","","","","","learning/Slide102.JPG","null","","","","","",""
"html-keyboard-response","312","388096","0.0-7.0-2.21","LF","1e9hhup9lf","1536","864","0","1","0","5cbc680bfb8dfe0001839ba2","","null","","","learningBlock2","","","","<div style=""font-size:60px;""> </div>","null","LF","learning/Slide102.JPG","This is a bim:","","",""
"html-keyboard-response","313","389112","0.0-7.0-0.22","LF","1e9hhup9lf","1536","864","0","1","0","5cbc680bfb8dfe0001839ba2","","null","","","learningBlock2","","","","This is a dep:","null","","","","","",""
"image-keyboard-response","314","389454","0.0-7.0-1.22","LF","1e9hhup9lf","1536","864","0","1","0","5cbc680bfb8dfe0001839ba2","","null","","","","","","","learning/Slide103.JPG","null","","","","","",""
"html-keyboard-response","315","390462","0.0-7.0-2.22","LF","1e9hhup9lf","1536","864","0","1","0","5cbc680bfb8dfe0001839ba2","","null","","","learningBlock2","","","","<div style=""font-size:60px;""> </div>","null","LF","learning/Slide103.JPG","This is a dep:","","",""
"html-keyboard-response","316","391475","0.0-7.0-0.23","LF","1e9hhup9lf","1536","864","0","1","0","5cbc680bfb8dfe0001839ba2","","null","","","learningBlock2","","","","This is a tob:","null","","","","","",""
"image-keyboard-response","317","391815","0.0-7.0-1.23","LF","1e9hhup9lf","1536","864","0","1","0","5cbc680bfb8dfe0001839ba2","","null","","","","","","","learning/Slide104.JPG","null","","","","","",""
"html-keyboard-response","318","392825","0.0-7.0-2.23","LF","1e9hhup9lf","1536","864","0","1","0","5cbc680bfb8dfe0001839ba2","","null","","","learningBlock2","","","","<div style=""font-size:60px;""> </div>","null","LF","learning/Slide104.JPG","This is a tob:","","",""
"html-keyboard-response","319","393830","0.0-7.0-0.24","LF","1e9hhup9lf","1536","864","0","1","0","5cbc680bfb8dfe0001839ba2","","null","","","learningBlock2","","","","This is a dep:","null","","","","","",""
"image-keyboard-response","320","394171","0.0-7.0-1.24","LF","1e9hhup9lf","1536","864","0","1","0","5cbc680bfb8dfe0001839ba2","","null","","","","","","","learning/Slide105.JPG","null","","","","","",""
"html-keyboard-response","321","395183","0.0-7.0-2.24","LF","1e9hhup9lf","1536","864","0","1","0","5cbc680bfb8dfe0001839ba2","","null","","","learningBlock2","","","","<div style=""font-size:60px;""> </div>","null","LF","learning/Slide105.JPG","This is a dep:","","",""
"html-keyboard-response","322","396198","0.0-7.0-0.25","LF","1e9hhup9lf","1536","864","0","1","0","5cbc680bfb8dfe0001839ba2","","null","","","learningBlock2","","","","This is a wug:","null","","","","","",""
"image-keyboard-response","323","396543","0.0-7.0-1.25","LF","1e9hhup9lf","1536","864","0","1","0","5cbc680bfb8dfe0001839ba2","","null","","","","","","","learning/Slide106.JPG","null","","","","","",""
"html-keyboard-response","324","397544","0.0-7.0-2.25","LF","1e9hhup9lf","1536","864","0","1","0","5cbc680bfb8dfe0001839ba2","","null","","","learningBlock2","","","","<div style=""font-size:60px;""> </div>","null","LF","learning/Slide106.JPG","This is a wug:","","",""
"html-keyboard-response","325","398548","0.0-7.0-0.26","LF","1e9hhup9lf","1536","864","0","1","0","5cbc680bfb8dfe0001839ba2","","null","","","learningBlock2","","","","This is a bim:","null","","","","","",""
"image-keyboard-response","326","398892","0.0-7.0-1.26","LF","1e9hhup9lf","1536","864","0","1","0","5cbc680bfb8dfe0001839ba2","","null","","","","","","","learning/Slide107.JPG","null","","","","","",""
"html-keyboard-response","327","399903","0.0-7.0-2.26","LF","1e9hhup9lf","1536","864","0","1","0","5cbc680bfb8dfe0001839ba2","","null","","","learningBlock2","","","","<div style=""font-size:60px;""> </div>","null","LF","learning/Slide107.JPG","This is a bim:","","",""
"html-keyboard-response","328","400908","0.0-7.0-0.27","LF","1e9hhup9lf","1536","864","0","1","0","5cbc680bfb8dfe0001839ba2","","null","","","learningBlock2","","","","This is a dep:","null","","","","","",""
"image-keyboard-response","329","401252","0.0-7.0-1.27","LF","1e9hhup9lf","1536","864","0","1","0","5cbc680bfb8dfe0001839ba2","","null","","","","","","","learning/Slide108.JPG","null","","","","","",""
"html-keyboard-response","330","402254","0.0-7.0-2.27","LF","1e9hhup9lf","1536","864","0","1","0","5cbc680bfb8dfe0001839ba2","","null","","","learningBlock2","","","","<div style=""font-size:60px;""> </div>","null","LF","learning/Slide108.JPG","This is a dep:","","",""
"html-keyboard-response","331","403266","0.0-7.0-0.28","LF","1e9hhup9lf","1536","864","0","1","0","5cbc680bfb8dfe0001839ba2","","null","","","learningBlock2","","","","This is a wug:","null","","","","","",""
"image-keyboard-response","332","403609","0.0-7.0-1.28","LF","1e9hhup9lf","1536","864","0","1","0","5cbc680bfb8dfe0001839ba2","","null","","","","","","","learning/Slide109.JPG","null","","","","","",""
"html-keyboard-response","333","404613","0.0-7.0-2.28","LF","1e9hhup9lf","1536","864","0","1","0","5cbc680bfb8dfe0001839ba2","","null","","","learningBlock2","","","","<div style=""font-size:60px;""> </div>","null","LF","learning/Slide109.JPG","This is a wug:","","",""
"html-keyboard-response","334","405628","0.0-7.0-0.29","LF","1e9hhup9lf","1536","864","0","1","0","5cbc680bfb8dfe0001839ba2","","null","","","learningBlock2","","","","This is a bim:","null","","","","","",""
"image-keyboard-response","335","405972","0.0-7.0-1.29","LF","1e9hhup9lf","1536","864","0","1","0","5cbc680bfb8dfe0001839ba2","","null","","","","","","","learning/Slide110.JPG","null","","","","","",""
"html-keyboard-response","336","406987","0.0-7.0-2.29","LF","1e9hhup9lf","1536","864","0","1","0","5cbc680bfb8dfe0001839ba2","","null","","","learningBlock2","","","","<div style=""font-size:60px;""> </div>","null","LF","learning/Slide110.JPG","This is a bim:","","",""
"html-keyboard-response","337","408003","0.0-7.0-0.30","LF","1e9hhup9lf","1536","864","0","1","0","5cbc680bfb8dfe0001839ba2","","null","","","learningBlock2","","","","This is a tob:","null","","","","","",""
"image-keyboard-response","338","408348","0.0-7.0-1.30","LF","1e9hhup9lf","1536","864","0","1","0","5cbc680bfb8dfe0001839ba2","","null","","","","","","","learning/Slide111.JPG","null","","","","","",""
"html-keyboard-response","339","409360","0.0-7.0-2.30","LF","1e9hhup9lf","1536","864","0","1","0","5cbc680bfb8dfe0001839ba2","","null","","","learningBlock2","","","","<div style=""font-size:60px;""> </div>","null","LF","learning/Slide111.JPG","This is a tob:","","",""
"html-keyboard-response","340","410374","0.0-7.0-0.31","LF","1e9hhup9lf","1536","864","0","1","0","5cbc680bfb8dfe0001839ba2","","null","","","learningBlock2","","","","This is a wug:","null","","","","","",""
"image-keyboard-response","341","410718","0.0-7.0-1.31","LF","1e9hhup9lf","1536","864","0","1","0","5cbc680bfb8dfe0001839ba2","","null","","","","","","","learning/Slide112.JPG","null","","","","","",""
"html-keyboard-response","342","411722","0.0-7.0-2.31","LF","1e9hhup9lf","1536","864","0","1","0","5cbc680bfb8dfe0001839ba2","","null","","","learningBlock2","","","","<div style=""font-size:60px;""> </div>","null","LF","learning/Slide112.JPG","This is a wug:","","",""
"html-keyboard-response","343","412729","0.0-7.0-0.32","LF","1e9hhup9lf","1536","864","0","1","0","5cbc680bfb8dfe0001839ba2","","null","","","learningBlock2","","","","This is a tob:","null","","","","","",""
"image-keyboard-response","344","413071","0.0-7.0-1.32","LF","1e9hhup9lf","1536","864","0","1","0","5cbc680bfb8dfe0001839ba2","","null","","","","","","","learning/Slide113.JPG","null","","","","","",""
"html-keyboard-response","345","414075","0.0-7.0-2.32","LF","1e9hhup9lf","1536","864","0","1","0","5cbc680bfb8dfe0001839ba2","","null","","","learningBlock2","","","","<div style=""font-size:60px;""> </div>","null","LF","learning/Slide113.JPG","This is a tob:","","",""
"html-keyboard-response","346","415089","0.0-7.0-0.33","LF","1e9hhup9lf","1536","864","0","1","0","5cbc680bfb8dfe0001839ba2","","null","","","learningBlock2","","","","This is a wug:","null","","","","","",""
"image-keyboard-response","347","415435","0.0-7.0-1.33","LF","1e9hhup9lf","1536","864","0","1","0","5cbc680bfb8dfe0001839ba2","","null","","","","","","","learning/Slide114.JPG","null","","","","","",""
"html-keyboard-response","348","416450","0.0-7.0-2.33","LF","1e9hhup9lf","1536","864","0","1","0","5cbc680bfb8dfe0001839ba2","","null","","","learningBlock2","","","","<div style=""font-size:60px;""> </div>","null","LF","learning/Slide114.JPG","This is a wug:","","",""
"html-keyboard-response","349","417467","0.0-7.0-0.34","LF","1e9hhup9lf","1536","864","0","1","0","5cbc680bfb8dfe0001839ba2","","null","","","learningBlock2","","","","This is a bim:","null","","","","","",""
"image-keyboard-response","350","417812","0.0-7.0-1.34","LF","1e9hhup9lf","1536","864","0","1","0","5cbc680bfb8dfe0001839ba2","","null","","","","","","","learning/Slide115.JPG","null","","","","","",""
"html-keyboard-response","351","418825","0.0-7.0-2.34","LF","1e9hhup9lf","1536","864","0","1","0","5cbc680bfb8dfe0001839ba2","","null","","","learningBlock2","","","","<div style=""font-size:60px;""> </div>","null","LF","learning/Slide115.JPG","This is a bim:","","",""
"html-keyboard-response","352","419829","0.0-7.0-0.35","LF","1e9hhup9lf","1536","864","0","1","0","5cbc680bfb8dfe0001839ba2","","null","","","learningBlock2","","","","This is a dep:","null","","","","","",""
"image-keyboard-response","353","420170","0.0-7.0-1.35","LF","1e9hhup9lf","1536","864","0","1","0","5cbc680bfb8dfe0001839ba2","","null","","","","","","","learning/Slide116.JPG","null","","","","","",""
"html-keyboard-response","354","421184","0.0-7.0-2.35","LF","1e9hhup9lf","1536","864","0","1","0","5cbc680bfb8dfe0001839ba2","","null","","","learningBlock2","","","","<div style=""font-size:60px;""> </div>","null","LF","learning/Slide116.JPG","This is a dep:","","",""
"html-keyboard-response","355","422190","0.0-7.0-0.36","LF","1e9hhup9lf","1536","864","0","1","0","5cbc680bfb8dfe0001839ba2","","null","","","learningBlock2","","","","This is a tob:","null","","","","","",""
"image-keyboard-response","356","422536","0.0-7.0-1.36","LF","1e9hhup9lf","1536","864","0","1","0","5cbc680bfb8dfe0001839ba2","","null","","","","","","","learning/Slide117.JPG","null","","","","","",""
"html-keyboard-response","357","423550","0.0-7.0-2.36","LF","1e9hhup9lf","1536","864","0","1","0","5cbc680bfb8dfe0001839ba2","","null","","","learningBlock2","","","","<div style=""font-size:60px;""> </div>","null","LF","learning/Slide117.JPG","This is a tob:","","",""
"html-keyboard-response","358","424564","0.0-7.0-0.37","LF","1e9hhup9lf","1536","864","0","1","0","5cbc680bfb8dfe0001839ba2","","null","","","learningBlock2","","","","This is a dep:","null","","","","","",""
"image-keyboard-response","359","424907","0.0-7.0-1.37","LF","1e9hhup9lf","1536","864","0","1","0","5cbc680bfb8dfe0001839ba2","","null","","","","","","","learning/Slide118.JPG","null","","","","","",""
"html-keyboard-response","360","425923","0.0-7.0-2.37","LF","1e9hhup9lf","1536","864","0","1","0","5cbc680bfb8dfe0001839ba2","","null","","","learningBlock2","","","","<div style=""font-size:60px;""> </div>","null","LF","learning/Slide118.JPG","This is a dep:","","",""
"html-keyboard-response","361","426926","0.0-7.0-0.38","LF","1e9hhup9lf","1536","864","0","1","0","5cbc680bfb8dfe0001839ba2","","null","","","learningBlock2","","","","This is a wug:","null","","","","","",""
"image-keyboard-response","362","427268","0.0-7.0-1.38","LF","1e9hhup9lf","1536","864","0","1","0","5cbc680bfb8dfe0001839ba2","","null","","","","","","","learning/Slide119.JPG","null","","","","","",""
"html-keyboard-response","363","428281","0.0-7.0-2.38","LF","1e9hhup9lf","1536","864","0","1","0","5cbc680bfb8dfe0001839ba2","","null","","","learningBlock2","","","","<div style=""font-size:60px;""> </div>","null","LF","learning/Slide119.JPG","This is a wug:","","",""
"html-keyboard-response","364","429283","0.0-7.0-0.39","LF","1e9hhup9lf","1536","864","0","1","0","5cbc680bfb8dfe0001839ba2","","null","","","learningBlock2","","","","This is a dep:","null","","","","","",""
"image-keyboard-response","365","429627","0.0-7.0-1.39","LF","1e9hhup9lf","1536","864","0","1","0","5cbc680bfb8dfe0001839ba2","","null","","","","","","","learning/Slide120.JPG","null","","","","","",""
"html-keyboard-response","366","430642","0.0-7.0-2.39","LF","1e9hhup9lf","1536","864","0","1","0","5cbc680bfb8dfe0001839ba2","","null","","","learningBlock2","","","","<div style=""font-size:60px;""> </div>","null","LF","learning/Slide120.JPG","This is a dep:","","",""
"html-keyboard-response","367","431644","0.0-7.0-0.40","LF","1e9hhup9lf","1536","864","0","1","0","5cbc680bfb8dfe0001839ba2","","null","","","learningBlock2","","","","This is a bim:","null","","","","","",""
"image-keyboard-response","368","431987","0.0-7.0-1.40","LF","1e9hhup9lf","1536","864","0","1","0","5cbc680bfb8dfe0001839ba2","","null","","","","","","","learning/Slide121.JPG","null","","","","","",""
"html-keyboard-response","369","433002","0.0-7.0-2.40","LF","1e9hhup9lf","1536","864","0","1","0","5cbc680bfb8dfe0001839ba2","","null","","","learningBlock2","","","","<div style=""font-size:60px;""> </div>","null","LF","learning/Slide121.JPG","This is a bim:","","",""
"html-keyboard-response","370","434017","0.0-7.0-0.41","LF","1e9hhup9lf","1536","864","0","1","0","5cbc680bfb8dfe0001839ba2","","null","","","learningBlock2","","","","This is a wug:","null","","","","","",""
"image-keyboard-response","371","434361","0.0-7.0-1.41","LF","1e9hhup9lf","1536","864","0","1","0","5cbc680bfb8dfe0001839ba2","","null","","","","","","","learning/Slide122.JPG","null","","","","","",""
"html-keyboard-response","372","435376","0.0-7.0-2.41","LF","1e9hhup9lf","1536","864","0","1","0","5cbc680bfb8dfe0001839ba2","","null","","","learningBlock2","","","","<div style=""font-size:60px;""> </div>","null","LF","learning/Slide122.JPG","This is a wug:","","",""
"html-keyboard-response","373","436378","0.0-7.0-0.42","LF","1e9hhup9lf","1536","864","0","1","0","5cbc680bfb8dfe0001839ba2","","null","","","learningBlock2","","","","This is a bim:","null","","","","","",""
"image-keyboard-response","374","436722","0.0-7.0-1.42","LF","1e9hhup9lf","1536","864","0","1","0","5cbc680bfb8dfe0001839ba2","","null","","","","","","","learning/Slide123.JPG","null","","","","","",""
"html-keyboard-response","375","437729","0.0-7.0-2.42","LF","1e9hhup9lf","1536","864","0","1","0","5cbc680bfb8dfe0001839ba2","","null","","","learningBlock2","","","","<div style=""font-size:60px;""> </div>","null","LF","learning/Slide123.JPG","This is a bim:","","",""
"html-keyboard-response","376","438737","0.0-7.0-0.43","LF","1e9hhup9lf","1536","864","0","1","0","5cbc680bfb8dfe0001839ba2","","null","","","learningBlock2","","","","This is a tob:","null","","","","","",""
"image-keyboard-response","377","439084","0.0-7.0-1.43","LF","1e9hhup9lf","1536","864","0","1","0","5cbc680bfb8dfe0001839ba2","","null","","","","","","","learning/Slide124.JPG","null","","","","","",""
"html-keyboard-response","378","440096","0.0-7.0-2.43","LF","1e9hhup9lf","1536","864","0","1","0","5cbc680bfb8dfe0001839ba2","","null","","","learningBlock2","","","","<div style=""font-size:60px;""> </div>","null","LF","learning/Slide124.JPG","This is a tob:","","",""
"html-keyboard-response","379","441109","0.0-7.0-0.44","LF","1e9hhup9lf","1536","864","0","1","0","5cbc680bfb8dfe0001839ba2","","null","","","learningBlock2","","","","This is a bim:","null","","","","","",""
"image-keyboard-response","380","441450","0.0-7.0-1.44","LF","1e9hhup9lf","1536","864","0","1","0","5cbc680bfb8dfe0001839ba2","","null","","","","","","","learning/Slide125.JPG","null","","","","","",""
"html-keyboard-response","381","442453","0.0-7.0-2.44","LF","1e9hhup9lf","1536","864","0","1","0","5cbc680bfb8dfe0001839ba2","","null","","","learningBlock2","","","","<div style=""font-size:60px;""> </div>","null","LF","learning/Slide125.JPG","This is a bim:","","",""
"html-keyboard-response","382","443456","0.0-7.0-0.45","LF","1e9hhup9lf","1536","864","0","1","0","5cbc680bfb8dfe0001839ba2","","null","","","learningBlock2","","","","This is a tob:","null","","","","","",""
"image-keyboard-response","383","443803","0.0-7.0-1.45","LF","1e9hhup9lf","1536","864","0","1","0","5cbc680bfb8dfe0001839ba2","","null","","","","","","","learning/Slide126.JPG","null","","","","","",""
"html-keyboard-response","384","444815","0.0-7.0-2.45","LF","1e9hhup9lf","1536","864","0","1","0","5cbc680bfb8dfe0001839ba2","","null","","","learningBlock2","","","","<div style=""font-size:60px;""> </div>","null","LF","learning/Slide126.JPG","This is a tob:","","",""
"html-keyboard-response","385","445829","0.0-7.0-0.46","LF","1e9hhup9lf","1536","864","0","1","0","5cbc680bfb8dfe0001839ba2","","null","","","learningBlock2","","","","This is a dep:","null","","","","","",""
"image-keyboard-response","386","446174","0.0-7.0-1.46","LF","1e9hhup9lf","1536","864","0","1","0","5cbc680bfb8dfe0001839ba2","","null","","","","","","","learning/Slide127.JPG","null","","","","","",""
"html-keyboard-response","387","447175","0.0-7.0-2.46","LF","1e9hhup9lf","1536","864","0","1","0","5cbc680bfb8dfe0001839ba2","","null","","","learningBlock2","","","","<div style=""font-size:60px;""> </div>","null","LF","learning/Slide127.JPG","This is a dep:","","",""
"html-keyboard-response","388","448190","0.0-7.0-0.47","LF","1e9hhup9lf","1536","864","0","1","0","5cbc680bfb8dfe0001839ba2","","null","","","learningBlock2","","","","This is a wug:","null","","","","","",""
"image-keyboard-response","389","448532","0.0-7.0-1.47","LF","1e9hhup9lf","1536","864","0","1","0","5cbc680bfb8dfe0001839ba2","","null","","","","","","","learning/Slide128.JPG","null","","","","","",""
"html-keyboard-response","390","449548","0.0-7.0-2.47","LF","1e9hhup9lf","1536","864","0","1","0","5cbc680bfb8dfe0001839ba2","","null","","","learningBlock2","","","","<div style=""font-size:60px;""> </div>","null","LF","learning/Slide128.JPG","This is a wug:","","",""
"html-keyboard-response","391","450563","0.0-7.0-0.48","LF","1e9hhup9lf","1536","864","0","1","0","5cbc680bfb8dfe0001839ba2","","null","","","learningBlock2","","","","This is a tob:","null","","","","","",""
"image-keyboard-response","392","450909","0.0-7.0-1.48","LF","1e9hhup9lf","1536","864","0","1","0","5cbc680bfb8dfe0001839ba2","","null","","","","","","","learning/Slide129.JPG","null","","","","","",""
"html-keyboard-response","393","451924","0.0-7.0-2.48","LF","1e9hhup9lf","1536","864","0","1","0","5cbc680bfb8dfe0001839ba2","","null","","","learningBlock2","","","","<div style=""font-size:60px;""> </div>","null","LF","learning/Slide129.JPG","This is a tob:","","",""
"html-keyboard-response","394","452939","0.0-7.0-0.49","LF","1e9hhup9lf","1536","864","0","1","0","5cbc680bfb8dfe0001839ba2","","null","","","learningBlock2","","","","This is a wug:","null","","","","","",""
"image-keyboard-response","395","453286","0.0-7.0-1.49","LF","1e9hhup9lf","1536","864","0","1","0","5cbc680bfb8dfe0001839ba2","","null","","","","","","","learning/Slide130.JPG","null","","","","","",""
"html-keyboard-response","396","454300","0.0-7.0-2.49","LF","1e9hhup9lf","1536","864","0","1","0","5cbc680bfb8dfe0001839ba2","","null","","","learningBlock2","","","","<div style=""font-size:60px;""> </div>","null","LF","learning/Slide130.JPG","This is a wug:","","",""
"html-keyboard-response","397","455315","0.0-7.0-0.50","LF","1e9hhup9lf","1536","864","0","1","0","5cbc680bfb8dfe0001839ba2","","null","","","learningBlock2","","","","This is a bim:","null","","","","","",""
"image-keyboard-response","398","455658","0.0-7.0-1.50","LF","1e9hhup9lf","1536","864","0","1","0","5cbc680bfb8dfe0001839ba2","","null","","","","","","","learning/Slide131.JPG","null","","","","","",""
"html-keyboard-response","399","456665","0.0-7.0-2.50","LF","1e9hhup9lf","1536","864","0","1","0","5cbc680bfb8dfe0001839ba2","","null","","","learningBlock2","","","","<div style=""font-size:60px;""> </div>","null","LF","learning/Slide131.JPG","This is a bim:","","",""
"html-keyboard-response","400","457667","0.0-7.0-0.51","LF","1e9hhup9lf","1536","864","0","1","0","5cbc680bfb8dfe0001839ba2","","null","","","learningBlock2","","","","This is a dep:","null","","","","","",""
"image-keyboard-response","401","458011","0.0-7.0-1.51","LF","1e9hhup9lf","1536","864","0","1","0","5cbc680bfb8dfe0001839ba2","","null","","","","","","","learning/Slide132.JPG","null","","","","","",""
"html-keyboard-response","402","459015","0.0-7.0-2.51","LF","1e9hhup9lf","1536","864","0","1","0","5cbc680bfb8dfe0001839ba2","","null","","","learningBlock2","","","","<div style=""font-size:60px;""> </div>","null","LF","learning/Slide132.JPG","This is a dep:","","",""
"html-keyboard-response","403","460029","0.0-7.0-0.52","LF","1e9hhup9lf","1536","864","0","1","0","5cbc680bfb8dfe0001839ba2","","null","","","learningBlock2","","","","This is a tob:","null","","","","","",""
"image-keyboard-response","404","460376","0.0-7.0-1.52","LF","1e9hhup9lf","1536","864","0","1","0","5cbc680bfb8dfe0001839ba2","","null","","","","","","","learning/Slide133.JPG","null","","","","","",""
"html-keyboard-response","405","461392","0.0-7.0-2.52","LF","1e9hhup9lf","1536","864","0","1","0","5cbc680bfb8dfe0001839ba2","","null","","","learningBlock2","","","","<div style=""font-size:60px;""> </div>","null","LF","learning/Slide133.JPG","This is a tob:","","",""
"html-keyboard-response","406","462394","0.0-7.0-0.53","LF","1e9hhup9lf","1536","864","0","1","0","5cbc680bfb8dfe0001839ba2","","null","","","learningBlock2","","","","This is a dep:","null","","","","","",""
"image-keyboard-response","407","462740","0.0-7.0-1.53","LF","1e9hhup9lf","1536","864","0","1","0","5cbc680bfb8dfe0001839ba2","","null","","","","","","","learning/Slide134.JPG","null","","","","","",""
"html-keyboard-response","408","463753","0.0-7.0-2.53","LF","1e9hhup9lf","1536","864","0","1","0","5cbc680bfb8dfe0001839ba2","","null","","","learningBlock2","","","","<div style=""font-size:60px;""> </div>","null","LF","learning/Slide134.JPG","This is a dep:","","",""
"html-keyboard-response","409","464767","0.0-7.0-0.54","LF","1e9hhup9lf","1536","864","0","1","0","5cbc680bfb8dfe0001839ba2","","null","","","learningBlock2","","","","This is a tob:","null","","","","","",""
"image-keyboard-response","410","465111","0.0-7.0-1.54","LF","1e9hhup9lf","1536","864","0","1","0","5cbc680bfb8dfe0001839ba2","","null","","","","","","","learning/Slide135.JPG","null","","","","","",""
"html-keyboard-response","411","466125","0.0-7.0-2.54","LF","1e9hhup9lf","1536","864","0","1","0","5cbc680bfb8dfe0001839ba2","","null","","","learningBlock2","","","","<div style=""font-size:60px;""> </div>","null","LF","learning/Slide135.JPG","This is a tob:","","",""
"html-keyboard-response","412","467126","0.0-7.0-0.55","LF","1e9hhup9lf","1536","864","0","1","0","5cbc680bfb8dfe0001839ba2","","null","","","learningBlock2","","","","This is a wug:","null","","","","","",""
"image-keyboard-response","413","467469","0.0-7.0-1.55","LF","1e9hhup9lf","1536","864","0","1","0","5cbc680bfb8dfe0001839ba2","","null","","","","","","","learning/Slide136.JPG","null","","","","","",""
"html-keyboard-response","414","468470","0.0-7.0-2.55","LF","1e9hhup9lf","1536","864","0","1","0","5cbc680bfb8dfe0001839ba2","","null","","","learningBlock2","","","","<div style=""font-size:60px;""> </div>","null","LF","learning/Slide136.JPG","This is a wug:","","",""
"html-keyboard-response","415","469484","0.0-7.0-0.56","LF","1e9hhup9lf","1536","864","0","1","0","5cbc680bfb8dfe0001839ba2","","null","","","learningBlock2","","","","This is a tob:","null","","","","","",""
"image-keyboard-response","416","469829","0.0-7.0-1.56","LF","1e9hhup9lf","1536","864","0","1","0","5cbc680bfb8dfe0001839ba2","","null","","","","","","","learning/Slide137.JPG","null","","","","","",""
"html-keyboard-response","417","470845","0.0-7.0-2.56","LF","1e9hhup9lf","1536","864","0","1","0","5cbc680bfb8dfe0001839ba2","","null","","","learningBlock2","","","","<div style=""font-size:60px;""> </div>","null","LF","learning/Slide137.JPG","This is a tob:","","",""
"html-keyboard-response","418","471860","0.0-7.0-0.57","LF","1e9hhup9lf","1536","864","0","1","0","5cbc680bfb8dfe0001839ba2","","null","","","learningBlock2","","","","This is a bim:","null","","","","","",""
"image-keyboard-response","419","472201","0.0-7.0-1.57","LF","1e9hhup9lf","1536","864","0","1","0","5cbc680bfb8dfe0001839ba2","","null","","","","","","","learning/Slide138.JPG","null","","","","","",""
"html-keyboard-response","420","473214","0.0-7.0-2.57","LF","1e9hhup9lf","1536","864","0","1","0","5cbc680bfb8dfe0001839ba2","","null","","","learningBlock2","","","","<div style=""font-size:60px;""> </div>","null","LF","learning/Slide138.JPG","This is a bim:","","",""
"html-keyboard-response","421","474221","0.0-7.0-0.58","LF","1e9hhup9lf","1536","864","0","1","0","5cbc680bfb8dfe0001839ba2","","null","","","learningBlock2","","","","This is a wug:","null","","","","","",""
"image-keyboard-response","422","474566","0.0-7.0-1.58","LF","1e9hhup9lf","1536","864","0","1","0","5cbc680bfb8dfe0001839ba2","","null","","","","","","","learning/Slide139.JPG","null","","","","","",""
"html-keyboard-response","423","475566","0.0-7.0-2.58","LF","1e9hhup9lf","1536","864","0","1","0","5cbc680bfb8dfe0001839ba2","","null","","","learningBlock2","","","","<div style=""font-size:60px;""> </div>","null","LF","learning/Slide139.JPG","This is a wug:","","",""
"html-keyboard-response","424","476580","0.0-7.0-0.59","LF","1e9hhup9lf","1536","864","0","1","0","5cbc680bfb8dfe0001839ba2","","null","","","learningBlock2","","","","This is a dep:","null","","","","","",""
"image-keyboard-response","425","476924","0.0-7.0-1.59","LF","1e9hhup9lf","1536","864","0","1","0","5cbc680bfb8dfe0001839ba2","","null","","","","","","","learning/Slide140.JPG","null","","","","","",""
"html-keyboard-response","426","477938","0.0-7.0-2.59","LF","1e9hhup9lf","1536","864","0","1","0","5cbc680bfb8dfe0001839ba2","","null","","","learningBlock2","","","","<div style=""font-size:60px;""> </div>","null","LF","learning/Slide140.JPG","This is a dep:","","",""
"html-keyboard-response","427","478953","0.0-7.0-0.60","LF","1e9hhup9lf","1536","864","0","1","0","5cbc680bfb8dfe0001839ba2","","null","","","learningBlock2","","","","This is a tob:","null","","","","","",""
"image-keyboard-response","428","479300","0.0-7.0-1.60","LF","1e9hhup9lf","1536","864","0","1","0","5cbc680bfb8dfe0001839ba2","","null","","","","","","","learning/Slide141.JPG","null","","","","","",""
"html-keyboard-response","429","480315","0.0-7.0-2.60","LF","1e9hhup9lf","1536","864","0","1","0","5cbc680bfb8dfe0001839ba2","","null","","","learningBlock2","","","","<div style=""font-size:60px;""> </div>","null","LF","learning/Slide141.JPG","This is a tob:","","",""
"html-keyboard-response","430","481330","0.0-7.0-0.61","LF","1e9hhup9lf","1536","864","0","1","0","5cbc680bfb8dfe0001839ba2","","null","","","learningBlock2","","","","This is a wug:","null","","","","","",""
"image-keyboard-response","431","481675","0.0-7.0-1.61","LF","1e9hhup9lf","1536","864","0","1","0","5cbc680bfb8dfe0001839ba2","","null","","","","","","","learning/Slide142.JPG","null","","","","","",""
"html-keyboard-response","432","482690","0.0-7.0-2.61","LF","1e9hhup9lf","1536","864","0","1","0","5cbc680bfb8dfe0001839ba2","","null","","","learningBlock2","","","","<div style=""font-size:60px;""> </div>","null","LF","learning/Slide142.JPG","This is a wug:","","",""
"html-keyboard-response","433","483706","0.0-7.0-0.62","LF","1e9hhup9lf","1536","864","0","1","0","5cbc680bfb8dfe0001839ba2","","null","","","learningBlock2","","","","This is a bim:","null","","","","","",""
"image-keyboard-response","434","484047","0.0-7.0-1.62","LF","1e9hhup9lf","1536","864","0","1","0","5cbc680bfb8dfe0001839ba2","","null","","","","","","","learning/Slide143.JPG","null","","","","","",""
"html-keyboard-response","435","485059","0.0-7.0-2.62","LF","1e9hhup9lf","1536","864","0","1","0","5cbc680bfb8dfe0001839ba2","","null","","","learningBlock2","","","","<div style=""font-size:60px;""> </div>","null","LF","learning/Slide143.JPG","This is a bim:","","",""
"html-keyboard-response","436","486075","0.0-7.0-0.63","LF","1e9hhup9lf","1536","864","0","1","0","5cbc680bfb8dfe0001839ba2","","null","","","learningBlock2","","","","This is a dep:","null","","","","","",""
"image-keyboard-response","437","486418","0.0-7.0-1.63","LF","1e9hhup9lf","1536","864","0","1","0","5cbc680bfb8dfe0001839ba2","","null","","","","","","","learning/Slide144.JPG","null","","","","","",""
