"trial_type","trial_index","time_elapsed","internal_node_id","condition","subject","screen_width","screen_height","attention","distraction","conscientious","prolificID","success","rt","url","view_history","test_part","final_height_px","final_width_px","scale_factor","stimulus","key_press","learningType","presentedImage","presentedLabel","button_pressed","response","responses"
"pavlovia","0","6","0.0-0.0","LF","85gul0f7qh","1536","864","0","1","0","5e4ab1b4ca765d000edebd15","","","","","","","","","","","","","","","",""
"fullscreen","1","2058","0.0-1.0","LF","85gul0f7qh","1536","864","0","1","0","5e4ab1b4ca765d000edebd15","true","","","","","","","","","","","","","","",""
"external-html","2","44245","0.0-2.0-0.0","LF","85gul0f7qh","1536","864","0","1","0","5e4ab1b4ca765d000edebd15","","42177","text/information_english.html","","","","","","","","","","","","",""
"external-html","3","46446","0.0-2.0-1.0","LF","85gul0f7qh","1536","864","0","1","0","5e4ab1b4ca765d000edebd15","","2191","text/consent_english.html","","","","","","","","","","","","",""
"instructions","4","48909","0.0-3.0","LF","85gul0f7qh","1536","864","0","1","0","5e4ab1b4ca765d000edebd15","","NA","","[{""page_index"":0,""viewing_time"":733},{""page_index"":1,""viewing_time"":1728}]","instructions","","","","","","","","","","",""
"resize","5","73564","0.0-4.0","LF","85gul0f7qh","1536","864","0","1","0","5e4ab1b4ca765d000edebd15","","","","","","","262","1.6634920634920636","","","","","","","",""
"html-keyboard-response","6","74575","0.0-5.0-0.0","LF","85gul0f7qh","1536","864","0","1","0","5e4ab1b4ca765d000edebd15","","null","","","learningBlock1","","","","This is a tob:","null","","","","","",""
"image-keyboard-response","7","74914","0.0-5.0-1.0","LF","85gul0f7qh","1536","864","0","1","0","5e4ab1b4ca765d000edebd15","","null","","","","","","","learning/Slide1.JPG","null","","","","","",""
"html-keyboard-response","8","75919","0.0-5.0-2.0","LF","85gul0f7qh","1536","864","0","1","0","5e4ab1b4ca765d000edebd15","","null","","","learningBlock1","","","","<div style=""font-size:60px;""> </div>","null","LF","learning/Slide1.JPG","This is a tob:","","",""
"html-keyboard-response","9","76931","0.0-5.0-0.1","LF","85gul0f7qh","1536","864","0","1","0","5e4ab1b4ca765d000edebd15","","null","","","learningBlock1","","","","This is a wug:","null","","","","","",""
"image-keyboard-response","10","77273","0.0-5.0-1.1","LF","85gul0f7qh","1536","864","0","1","0","5e4ab1b4ca765d000edebd15","","null","","","","","","","learning/Slide2.JPG","null","","","","","",""
"html-keyboard-response","11","78282","0.0-5.0-2.1","LF","85gul0f7qh","1536","864","0","1","0","5e4ab1b4ca765d000edebd15","","null","","","learningBlock1","","","","<div style=""font-size:60px;""> </div>","null","LF","learning/Slide2.JPG","This is a wug:","","",""
"html-keyboard-response","12","79290","0.0-5.0-0.2","LF","85gul0f7qh","1536","864","0","1","0","5e4ab1b4ca765d000edebd15","","null","","","learningBlock1","","","","This is a bim:","null","","","","","",""
"image-keyboard-response","13","79633","0.0-5.0-1.2","LF","85gul0f7qh","1536","864","0","1","0","5e4ab1b4ca765d000edebd15","","null","","","","","","","learning/Slide3.JPG","null","","","","","",""
"html-keyboard-response","14","80638","0.0-5.0-2.2","LF","85gul0f7qh","1536","864","0","1","0","5e4ab1b4ca765d000edebd15","","null","","","learningBlock1","","","","<div style=""font-size:60px;""> </div>","null","LF","learning/Slide3.JPG","This is a bim:","","",""
"html-keyboard-response","15","81641","0.0-5.0-0.3","LF","85gul0f7qh","1536","864","0","1","0","5e4ab1b4ca765d000edebd15","","null","","","learningBlock1","","","","This is a dep:","null","","","","","",""
"image-keyboard-response","16","81982","0.0-5.0-1.3","LF","85gul0f7qh","1536","864","0","1","0","5e4ab1b4ca765d000edebd15","","null","","","","","","","learning/Slide4.JPG","null","","","","","",""
"html-keyboard-response","17","82995","0.0-5.0-2.3","LF","85gul0f7qh","1536","864","0","1","0","5e4ab1b4ca765d000edebd15","","null","","","learningBlock1","","","","<div style=""font-size:60px;""> </div>","null","LF","learning/Slide4.JPG","This is a dep:","","",""
"html-keyboard-response","18","84001","0.0-5.0-0.4","LF","85gul0f7qh","1536","864","0","1","0","5e4ab1b4ca765d000edebd15","","null","","","learningBlock1","","","","This is a wug:","null","","","","","",""
"image-keyboard-response","19","84344","0.0-5.0-1.4","LF","85gul0f7qh","1536","864","0","1","0","5e4ab1b4ca765d000edebd15","","null","","","","","","","learning/Slide5.JPG","null","","","","","",""
"html-keyboard-response","20","85352","0.0-5.0-2.4","LF","85gul0f7qh","1536","864","0","1","0","5e4ab1b4ca765d000edebd15","","null","","","learningBlock1","","","","<div style=""font-size:60px;""> </div>","null","LF","learning/Slide5.JPG","This is a wug:","","",""
"html-keyboard-response","21","86360","0.0-5.0-0.5","LF","85gul0f7qh","1536","864","0","1","0","5e4ab1b4ca765d000edebd15","","null","","","learningBlock1","","","","This is a dep:","null","","","","","",""
"image-keyboard-response","22","86701","0.0-5.0-1.5","LF","85gul0f7qh","1536","864","0","1","0","5e4ab1b4ca765d000edebd15","","null","","","","","","","learning/Slide6.JPG","null","","","","","",""
"html-keyboard-response","23","87714","0.0-5.0-2.5","LF","85gul0f7qh","1536","864","0","1","0","5e4ab1b4ca765d000edebd15","","null","","","learningBlock1","","","","<div style=""font-size:60px;""> </div>","null","LF","learning/Slide6.JPG","This is a dep:","","",""
"html-keyboard-response","24","88722","0.0-5.0-0.6","LF","85gul0f7qh","1536","864","0","1","0","5e4ab1b4ca765d000edebd15","","null","","","learningBlock1","","","","This is a wug:","null","","","","","",""
"image-keyboard-response","25","89063","0.0-5.0-1.6","LF","85gul0f7qh","1536","864","0","1","0","5e4ab1b4ca765d000edebd15","","null","","","","","","","learning/Slide7.JPG","null","","","","","",""
"html-keyboard-response","26","90064","0.0-5.0-2.6","LF","85gul0f7qh","1536","864","0","1","0","5e4ab1b4ca765d000edebd15","","null","","","learningBlock1","","","","<div style=""font-size:60px;""> </div>","null","LF","learning/Slide7.JPG","This is a wug:","","",""
"html-keyboard-response","27","91076","0.0-5.0-0.7","LF","85gul0f7qh","1536","864","0","1","0","5e4ab1b4ca765d000edebd15","","null","","","learningBlock1","","","","This is a bim:","null","","","","","",""
"image-keyboard-response","28","91419","0.0-5.0-1.7","LF","85gul0f7qh","1536","864","0","1","0","5e4ab1b4ca765d000edebd15","","null","","","","","","","learning/Slide8.JPG","null","","","","","",""
"html-keyboard-response","29","92431","0.0-5.0-2.7","LF","85gul0f7qh","1536","864","0","1","0","5e4ab1b4ca765d000edebd15","","null","","","learningBlock1","","","","<div style=""font-size:60px;""> </div>","null","LF","learning/Slide8.JPG","This is a bim:","","",""
"html-keyboard-response","30","93436","0.0-5.0-0.8","LF","85gul0f7qh","1536","864","0","1","0","5e4ab1b4ca765d000edebd15","","null","","","learningBlock1","","","","This is a wug:","null","","","","","",""
"image-keyboard-response","31","93778","0.0-5.0-1.8","LF","85gul0f7qh","1536","864","0","1","0","5e4ab1b4ca765d000edebd15","","null","","","","","","","learning/Slide9.JPG","null","","","","","",""
"html-keyboard-response","32","94788","0.0-5.0-2.8","LF","85gul0f7qh","1536","864","0","1","0","5e4ab1b4ca765d000edebd15","","null","","","learningBlock1","","","","<div style=""font-size:60px;""> </div>","null","LF","learning/Slide9.JPG","This is a wug:","","",""
"html-keyboard-response","33","95798","0.0-5.0-0.9","LF","85gul0f7qh","1536","864","0","1","0","5e4ab1b4ca765d000edebd15","","null","","","learningBlock1","","","","This is a dep:","null","","","","","",""
"image-keyboard-response","34","96139","0.0-5.0-1.9","LF","85gul0f7qh","1536","864","0","1","0","5e4ab1b4ca765d000edebd15","","null","","","","","","","learning/Slide10.JPG","null","","","","","",""
"html-keyboard-response","35","97141","0.0-5.0-2.9","LF","85gul0f7qh","1536","864","0","1","0","5e4ab1b4ca765d000edebd15","","null","","","learningBlock1","","","","<div style=""font-size:60px;""> </div>","null","LF","learning/Slide10.JPG","This is a dep:","","",""
"html-keyboard-response","36","98152","0.0-5.0-0.10","LF","85gul0f7qh","1536","864","0","1","0","5e4ab1b4ca765d000edebd15","","null","","","learningBlock1","","","","This is a tob:","null","","","","","",""
"image-keyboard-response","37","98491","0.0-5.0-1.10","LF","85gul0f7qh","1536","864","0","1","0","5e4ab1b4ca765d000edebd15","","null","","","","","","","learning/Slide11.JPG","null","","","","","",""
"html-keyboard-response","38","99495","0.0-5.0-2.10","LF","85gul0f7qh","1536","864","0","1","0","5e4ab1b4ca765d000edebd15","","null","","","learningBlock1","","","","<div style=""font-size:60px;""> </div>","null","LF","learning/Slide11.JPG","This is a tob:","","",""
"html-keyboard-response","39","100510","0.0-5.0-0.11","LF","85gul0f7qh","1536","864","0","1","0","5e4ab1b4ca765d000edebd15","","null","","","learningBlock1","","","","This is a dep:","null","","","","","",""
"image-keyboard-response","40","100852","0.0-5.0-1.11","LF","85gul0f7qh","1536","864","0","1","0","5e4ab1b4ca765d000edebd15","","null","","","","","","","learning/Slide12.JPG","null","","","","","",""
"html-keyboard-response","41","101861","0.0-5.0-2.11","LF","85gul0f7qh","1536","864","0","1","0","5e4ab1b4ca765d000edebd15","","null","","","learningBlock1","","","","<div style=""font-size:60px;""> </div>","null","LF","learning/Slide12.JPG","This is a dep:","","",""
"html-keyboard-response","42","102872","0.0-5.0-0.12","LF","85gul0f7qh","1536","864","0","1","0","5e4ab1b4ca765d000edebd15","","null","","","learningBlock1","","","","This is a bim:","null","","","","","",""
"image-keyboard-response","43","103212","0.0-5.0-1.12","LF","85gul0f7qh","1536","864","0","1","0","5e4ab1b4ca765d000edebd15","","null","","","","","","","learning/Slide13.JPG","null","","","","","",""
"html-keyboard-response","44","104218","0.0-5.0-2.12","LF","85gul0f7qh","1536","864","0","1","0","5e4ab1b4ca765d000edebd15","","null","","","learningBlock1","","","","<div style=""font-size:60px;""> </div>","null","LF","learning/Slide13.JPG","This is a bim:","","",""
"html-keyboard-response","45","105221","0.0-5.0-0.13","LF","85gul0f7qh","1536","864","0","1","0","5e4ab1b4ca765d000edebd15","","null","","","learningBlock1","","","","This is a wug:","null","","","","","",""
"image-keyboard-response","46","105564","0.0-5.0-1.13","LF","85gul0f7qh","1536","864","0","1","0","5e4ab1b4ca765d000edebd15","","null","","","","","","","learning/Slide14.JPG","null","","","","","",""
"html-keyboard-response","47","106573","0.0-5.0-2.13","LF","85gul0f7qh","1536","864","0","1","0","5e4ab1b4ca765d000edebd15","","null","","","learningBlock1","","","","<div style=""font-size:60px;""> </div>","null","LF","learning/Slide14.JPG","This is a wug:","","",""
"html-keyboard-response","48","107583","0.0-5.0-0.14","LF","85gul0f7qh","1536","864","0","1","0","5e4ab1b4ca765d000edebd15","","null","","","learningBlock1","","","","This is a tob:","null","","","","","",""
"image-keyboard-response","49","107920","0.0-5.0-1.14","LF","85gul0f7qh","1536","864","0","1","0","5e4ab1b4ca765d000edebd15","","null","","","","","","","learning/Slide15.JPG","null","","","","","",""
"html-keyboard-response","50","108928","0.0-5.0-2.14","LF","85gul0f7qh","1536","864","0","1","0","5e4ab1b4ca765d000edebd15","","null","","","learningBlock1","","","","<div style=""font-size:60px;""> </div>","null","LF","learning/Slide15.JPG","This is a tob:","","",""
"html-keyboard-response","51","109937","0.0-5.0-0.15","LF","85gul0f7qh","1536","864","0","1","0","5e4ab1b4ca765d000edebd15","","null","","","learningBlock1","","","","This is a dep:","null","","","","","",""
"image-keyboard-response","52","110283","0.0-5.0-1.15","LF","85gul0f7qh","1536","864","0","1","0","5e4ab1b4ca765d000edebd15","","null","","","","","","","learning/Slide16.JPG","null","","","","","",""
"html-keyboard-response","53","111288","0.0-5.0-2.15","LF","85gul0f7qh","1536","864","0","1","0","5e4ab1b4ca765d000edebd15","","null","","","learningBlock1","","","","<div style=""font-size:60px;""> </div>","null","LF","learning/Slide16.JPG","This is a dep:","","",""
"html-keyboard-response","54","112298","0.0-5.0-0.16","LF","85gul0f7qh","1536","864","0","1","0","5e4ab1b4ca765d000edebd15","","null","","","learningBlock1","","","","This is a bim:","null","","","","","",""
"image-keyboard-response","55","112638","0.0-5.0-1.16","LF","85gul0f7qh","1536","864","0","1","0","5e4ab1b4ca765d000edebd15","","null","","","","","","","learning/Slide17.JPG","null","","","","","",""
"html-keyboard-response","56","113649","0.0-5.0-2.16","LF","85gul0f7qh","1536","864","0","1","0","5e4ab1b4ca765d000edebd15","","null","","","learningBlock1","","","","<div style=""font-size:60px;""> </div>","null","LF","learning/Slide17.JPG","This is a bim:","","",""
"html-keyboard-response","57","114655","0.0-5.0-0.17","LF","85gul0f7qh","1536","864","0","1","0","5e4ab1b4ca765d000edebd15","","null","","","learningBlock1","","","","This is a tob:","null","","","","","",""
"image-keyboard-response","58","114997","0.0-5.0-1.17","LF","85gul0f7qh","1536","864","0","1","0","5e4ab1b4ca765d000edebd15","","null","","","","","","","learning/Slide18.JPG","null","","","","","",""
"html-keyboard-response","59","116000","0.0-5.0-2.17","LF","85gul0f7qh","1536","864","0","1","0","5e4ab1b4ca765d000edebd15","","null","","","learningBlock1","","","","<div style=""font-size:60px;""> </div>","null","LF","learning/Slide18.JPG","This is a tob:","","",""
"html-keyboard-response","60","117014","0.0-5.0-0.18","LF","85gul0f7qh","1536","864","0","1","0","5e4ab1b4ca765d000edebd15","","null","","","learningBlock1","","","","This is a wug:","null","","","","","",""
"image-keyboard-response","61","117354","0.0-5.0-1.18","LF","85gul0f7qh","1536","864","0","1","0","5e4ab1b4ca765d000edebd15","","null","","","","","","","learning/Slide19.JPG","null","","","","","",""
"html-keyboard-response","62","118361","0.0-5.0-2.18","LF","85gul0f7qh","1536","864","0","1","0","5e4ab1b4ca765d000edebd15","","null","","","learningBlock1","","","","<div style=""font-size:60px;""> </div>","null","LF","learning/Slide19.JPG","This is a wug:","","",""
"html-keyboard-response","63","119366","0.0-5.0-0.19","LF","85gul0f7qh","1536","864","0","1","0","5e4ab1b4ca765d000edebd15","","null","","","learningBlock1","","","","This is a bim:","null","","","","","",""
"image-keyboard-response","64","119707","0.0-5.0-1.19","LF","85gul0f7qh","1536","864","0","1","0","5e4ab1b4ca765d000edebd15","","null","","","","","","","learning/Slide20.JPG","null","","","","","",""
"html-keyboard-response","65","120716","0.0-5.0-2.19","LF","85gul0f7qh","1536","864","0","1","0","5e4ab1b4ca765d000edebd15","","null","","","learningBlock1","","","","<div style=""font-size:60px;""> </div>","null","LF","learning/Slide20.JPG","This is a bim:","","",""
"html-keyboard-response","66","121728","0.0-5.0-0.20","LF","85gul0f7qh","1536","864","0","1","0","5e4ab1b4ca765d000edebd15","","null","","","learningBlock1","","","","This is a dep:","null","","","","","",""
"image-keyboard-response","67","122069","0.0-5.0-1.20","LF","85gul0f7qh","1536","864","0","1","0","5e4ab1b4ca765d000edebd15","","null","","","","","","","learning/Slide21.JPG","null","","","","","",""
"html-keyboard-response","68","123077","0.0-5.0-2.20","LF","85gul0f7qh","1536","864","0","1","0","5e4ab1b4ca765d000edebd15","","null","","","learningBlock1","","","","<div style=""font-size:60px;""> </div>","null","LF","learning/Slide21.JPG","This is a dep:","","",""
"html-keyboard-response","69","124089","0.0-5.0-0.21","LF","85gul0f7qh","1536","864","0","1","0","5e4ab1b4ca765d000edebd15","","null","","","learningBlock1","","","","This is a bim:","null","","","","","",""
"image-keyboard-response","70","124430","0.0-5.0-1.21","LF","85gul0f7qh","1536","864","0","1","0","5e4ab1b4ca765d000edebd15","","null","","","","","","","learning/Slide22.JPG","null","","","","","",""
"html-keyboard-response","71","125440","0.0-5.0-2.21","LF","85gul0f7qh","1536","864","0","1","0","5e4ab1b4ca765d000edebd15","","null","","","learningBlock1","","","","<div style=""font-size:60px;""> </div>","null","LF","learning/Slide22.JPG","This is a bim:","","",""
"html-keyboard-response","72","126450","0.0-5.0-0.22","LF","85gul0f7qh","1536","864","0","1","0","5e4ab1b4ca765d000edebd15","","null","","","learningBlock1","","","","This is a tob:","null","","","","","",""
"image-keyboard-response","73","126791","0.0-5.0-1.22","LF","85gul0f7qh","1536","864","0","1","0","5e4ab1b4ca765d000edebd15","","null","","","","","","","learning/Slide23.JPG","null","","","","","",""
"html-keyboard-response","74","127803","0.0-5.0-2.22","LF","85gul0f7qh","1536","864","0","1","0","5e4ab1b4ca765d000edebd15","","null","","","learningBlock1","","","","<div style=""font-size:60px;""> </div>","null","LF","learning/Slide23.JPG","This is a tob:","","",""
"html-keyboard-response","75","128811","0.0-5.0-0.23","LF","85gul0f7qh","1536","864","0","1","0","5e4ab1b4ca765d000edebd15","","null","","","learningBlock1","","","","This is a wug:","null","","","","","",""
"image-keyboard-response","76","129153","0.0-5.0-1.23","LF","85gul0f7qh","1536","864","0","1","0","5e4ab1b4ca765d000edebd15","","null","","","","","","","learning/Slide24.JPG","null","","","","","",""
"html-keyboard-response","77","130161","0.0-5.0-2.23","LF","85gul0f7qh","1536","864","0","1","0","5e4ab1b4ca765d000edebd15","","null","","","learningBlock1","","","","<div style=""font-size:60px;""> </div>","null","LF","learning/Slide24.JPG","This is a wug:","","",""
"html-keyboard-response","78","131166","0.0-5.0-0.24","LF","85gul0f7qh","1536","864","0","1","0","5e4ab1b4ca765d000edebd15","","null","","","learningBlock1","","","","This is a dep:","null","","","","","",""
"image-keyboard-response","79","131505","0.0-5.0-1.24","LF","85gul0f7qh","1536","864","0","1","0","5e4ab1b4ca765d000edebd15","","null","","","","","","","learning/Slide25.JPG","null","","","","","",""
"html-keyboard-response","80","132514","0.0-5.0-2.24","LF","85gul0f7qh","1536","864","0","1","0","5e4ab1b4ca765d000edebd15","","null","","","learningBlock1","","","","<div style=""font-size:60px;""> </div>","null","LF","learning/Slide25.JPG","This is a dep:","","",""
"html-keyboard-response","81","133525","0.0-5.0-0.25","LF","85gul0f7qh","1536","864","0","1","0","5e4ab1b4ca765d000edebd15","","null","","","learningBlock1","","","","This is a wug:","null","","","","","",""
"image-keyboard-response","82","133866","0.0-5.0-1.25","LF","85gul0f7qh","1536","864","0","1","0","5e4ab1b4ca765d000edebd15","","null","","","","","","","learning/Slide26.JPG","null","","","","","",""
"html-keyboard-response","83","134875","0.0-5.0-2.25","LF","85gul0f7qh","1536","864","0","1","0","5e4ab1b4ca765d000edebd15","","null","","","learningBlock1","","","","<div style=""font-size:60px;""> </div>","null","LF","learning/Slide26.JPG","This is a wug:","","",""
"html-keyboard-response","84","135886","0.0-5.0-0.26","LF","85gul0f7qh","1536","864","0","1","0","5e4ab1b4ca765d000edebd15","","null","","","learningBlock1","","","","This is a bim:","null","","","","","",""
"image-keyboard-response","85","136229","0.0-5.0-1.26","LF","85gul0f7qh","1536","864","0","1","0","5e4ab1b4ca765d000edebd15","","null","","","","","","","learning/Slide27.JPG","null","","","","","",""
"html-keyboard-response","86","137235","0.0-5.0-2.26","LF","85gul0f7qh","1536","864","0","1","0","5e4ab1b4ca765d000edebd15","","null","","","learningBlock1","","","","<div style=""font-size:60px;""> </div>","null","LF","learning/Slide27.JPG","This is a bim:","","",""
"html-keyboard-response","87","138247","0.0-5.0-0.27","LF","85gul0f7qh","1536","864","0","1","0","5e4ab1b4ca765d000edebd15","","null","","","learningBlock1","","","","This is a dep:","null","","","","","",""
"image-keyboard-response","88","138588","0.0-5.0-1.27","LF","85gul0f7qh","1536","864","0","1","0","5e4ab1b4ca765d000edebd15","","null","","","","","","","learning/Slide28.JPG","null","","","","","",""
"html-keyboard-response","89","139597","0.0-5.0-2.27","LF","85gul0f7qh","1536","864","0","1","0","5e4ab1b4ca765d000edebd15","","null","","","learningBlock1","","","","<div style=""font-size:60px;""> </div>","null","LF","learning/Slide28.JPG","This is a dep:","","",""
"html-keyboard-response","90","140611","0.0-5.0-0.28","LF","85gul0f7qh","1536","864","0","1","0","5e4ab1b4ca765d000edebd15","","null","","","learningBlock1","","","","This is a tob:","null","","","","","",""
"image-keyboard-response","91","140952","0.0-5.0-1.28","LF","85gul0f7qh","1536","864","0","1","0","5e4ab1b4ca765d000edebd15","","null","","","","","","","learning/Slide29.JPG","null","","","","","",""
"html-keyboard-response","92","141953","0.0-5.0-2.28","LF","85gul0f7qh","1536","864","0","1","0","5e4ab1b4ca765d000edebd15","","null","","","learningBlock1","","","","<div style=""font-size:60px;""> </div>","null","LF","learning/Slide29.JPG","This is a tob:","","",""
"html-keyboard-response","93","142956","0.0-5.0-0.29","LF","85gul0f7qh","1536","864","0","1","0","5e4ab1b4ca765d000edebd15","","null","","","learningBlock1","","","","This is a dep:","null","","","","","",""
"image-keyboard-response","94","143296","0.0-5.0-1.29","LF","85gul0f7qh","1536","864","0","1","0","5e4ab1b4ca765d000edebd15","","null","","","","","","","learning/Slide30.JPG","null","","","","","",""
"html-keyboard-response","95","144306","0.0-5.0-2.29","LF","85gul0f7qh","1536","864","0","1","0","5e4ab1b4ca765d000edebd15","","null","","","learningBlock1","","","","<div style=""font-size:60px;""> </div>","null","LF","learning/Slide30.JPG","This is a dep:","","",""
"html-keyboard-response","96","145307","0.0-5.0-0.30","LF","85gul0f7qh","1536","864","0","1","0","5e4ab1b4ca765d000edebd15","","null","","","learningBlock1","","","","This is a wug:","null","","","","","",""
"image-keyboard-response","97","145648","0.0-5.0-1.30","LF","85gul0f7qh","1536","864","0","1","0","5e4ab1b4ca765d000edebd15","","null","","","","","","","learning/Slide31.JPG","null","","","","","",""
"html-keyboard-response","98","146651","0.0-5.0-2.30","LF","85gul0f7qh","1536","864","0","1","0","5e4ab1b4ca765d000edebd15","","null","","","learningBlock1","","","","<div style=""font-size:60px;""> </div>","null","LF","learning/Slide31.JPG","This is a wug:","","",""
"html-keyboard-response","99","147658","0.0-5.0-0.31","LF","85gul0f7qh","1536","864","0","1","0","5e4ab1b4ca765d000edebd15","","null","","","learningBlock1","","","","This is a tob:","null","","","","","",""
"image-keyboard-response","100","148001","0.0-5.0-1.31","LF","85gul0f7qh","1536","864","0","1","0","5e4ab1b4ca765d000edebd15","","null","","","","","","","learning/Slide32.JPG","null","","","","","",""
"html-keyboard-response","101","149009","0.0-5.0-2.31","LF","85gul0f7qh","1536","864","0","1","0","5e4ab1b4ca765d000edebd15","","null","","","learningBlock1","","","","<div style=""font-size:60px;""> </div>","null","LF","learning/Slide32.JPG","This is a tob:","","",""
"html-keyboard-response","102","150018","0.0-5.0-0.32","LF","85gul0f7qh","1536","864","0","1","0","5e4ab1b4ca765d000edebd15","","null","","","learningBlock1","","","","This is a bim:","null","","","","","",""
"image-keyboard-response","103","150359","0.0-5.0-1.32","LF","85gul0f7qh","1536","864","0","1","0","5e4ab1b4ca765d000edebd15","","null","","","","","","","learning/Slide33.JPG","null","","","","","",""
"html-keyboard-response","104","151369","0.0-5.0-2.32","LF","85gul0f7qh","1536","864","0","1","0","5e4ab1b4ca765d000edebd15","","null","","","learningBlock1","","","","<div style=""font-size:60px;""> </div>","null","LF","learning/Slide33.JPG","This is a bim:","","",""
"html-keyboard-response","105","152377","0.0-5.0-0.33","LF","85gul0f7qh","1536","864","0","1","0","5e4ab1b4ca765d000edebd15","","null","","","learningBlock1","","","","This is a tob:","null","","","","","",""
"image-keyboard-response","106","152718","0.0-5.0-1.33","LF","85gul0f7qh","1536","864","0","1","0","5e4ab1b4ca765d000edebd15","","null","","","","","","","learning/Slide34.JPG","null","","","","","",""
"html-keyboard-response","107","153721","0.0-5.0-2.33","LF","85gul0f7qh","1536","864","0","1","0","5e4ab1b4ca765d000edebd15","","null","","","learningBlock1","","","","<div style=""font-size:60px;""> </div>","null","LF","learning/Slide34.JPG","This is a tob:","","",""
"html-keyboard-response","108","154730","0.0-5.0-0.34","LF","85gul0f7qh","1536","864","0","1","0","5e4ab1b4ca765d000edebd15","","null","","","learningBlock1","","","","This is a bim:","null","","","","","",""
"image-keyboard-response","109","155071","0.0-5.0-1.34","LF","85gul0f7qh","1536","864","0","1","0","5e4ab1b4ca765d000edebd15","","null","","","","","","","learning/Slide35.JPG","null","","","","","",""
"html-keyboard-response","110","156078","0.0-5.0-2.34","LF","85gul0f7qh","1536","864","0","1","0","5e4ab1b4ca765d000edebd15","","null","","","learningBlock1","","","","<div style=""font-size:60px;""> </div>","null","LF","learning/Slide35.JPG","This is a bim:","","",""
"html-keyboard-response","111","157088","0.0-5.0-0.35","LF","85gul0f7qh","1536","864","0","1","0","5e4ab1b4ca765d000edebd15","","null","","","learningBlock1","","","","This is a dep:","null","","","","","",""
"image-keyboard-response","112","157427","0.0-5.0-1.35","LF","85gul0f7qh","1536","864","0","1","0","5e4ab1b4ca765d000edebd15","","null","","","","","","","learning/Slide36.JPG","null","","","","","",""
"html-keyboard-response","113","158435","0.0-5.0-2.35","LF","85gul0f7qh","1536","864","0","1","0","5e4ab1b4ca765d000edebd15","","null","","","learningBlock1","","","","<div style=""font-size:60px;""> </div>","null","LF","learning/Slide36.JPG","This is a dep:","","",""
"html-keyboard-response","114","159444","0.0-5.0-0.36","LF","85gul0f7qh","1536","864","0","1","0","5e4ab1b4ca765d000edebd15","","null","","","learningBlock1","","","","This is a tob:","null","","","","","",""
"image-keyboard-response","115","159785","0.0-5.0-1.36","LF","85gul0f7qh","1536","864","0","1","0","5e4ab1b4ca765d000edebd15","","null","","","","","","","learning/Slide37.JPG","null","","","","","",""
"html-keyboard-response","116","160799","0.0-5.0-2.36","LF","85gul0f7qh","1536","864","0","1","0","5e4ab1b4ca765d000edebd15","","null","","","learningBlock1","","","","<div style=""font-size:60px;""> </div>","null","LF","learning/Slide37.JPG","This is a tob:","","",""
"html-keyboard-response","117","161808","0.0-5.0-0.37","LF","85gul0f7qh","1536","864","0","1","0","5e4ab1b4ca765d000edebd15","","null","","","learningBlock1","","","","This is a wug:","null","","","","","",""
"image-keyboard-response","118","162150","0.0-5.0-1.37","LF","85gul0f7qh","1536","864","0","1","0","5e4ab1b4ca765d000edebd15","","null","","","","","","","learning/Slide38.JPG","null","","","","","",""
"html-keyboard-response","119","163157","0.0-5.0-2.37","LF","85gul0f7qh","1536","864","0","1","0","5e4ab1b4ca765d000edebd15","","null","","","learningBlock1","","","","<div style=""font-size:60px;""> </div>","null","LF","learning/Slide38.JPG","This is a wug:","","",""
"html-keyboard-response","120","164167","0.0-5.0-0.38","LF","85gul0f7qh","1536","864","0","1","0","5e4ab1b4ca765d000edebd15","","null","","","learningBlock1","","","","This is a bim:","null","","","","","",""
"image-keyboard-response","121","164508","0.0-5.0-1.38","LF","85gul0f7qh","1536","864","0","1","0","5e4ab1b4ca765d000edebd15","","null","","","","","","","learning/Slide39.JPG","null","","","","","",""
"html-keyboard-response","122","165517","0.0-5.0-2.38","LF","85gul0f7qh","1536","864","0","1","0","5e4ab1b4ca765d000edebd15","","null","","","learningBlock1","","","","<div style=""font-size:60px;""> </div>","null","LF","learning/Slide39.JPG","This is a bim:","","",""
"html-keyboard-response","123","166522","0.0-5.0-0.39","LF","85gul0f7qh","1536","864","0","1","0","5e4ab1b4ca765d000edebd15","","null","","","learningBlock1","","","","This is a tob:","null","","","","","",""
"image-keyboard-response","124","166864","0.0-5.0-1.39","LF","85gul0f7qh","1536","864","0","1","0","5e4ab1b4ca765d000edebd15","","null","","","","","","","learning/Slide40.JPG","null","","","","","",""
"html-keyboard-response","125","167871","0.0-5.0-2.39","LF","85gul0f7qh","1536","864","0","1","0","5e4ab1b4ca765d000edebd15","","null","","","learningBlock1","","","","<div style=""font-size:60px;""> </div>","null","LF","learning/Slide40.JPG","This is a tob:","","",""
"html-keyboard-response","126","168880","0.0-5.0-0.40","LF","85gul0f7qh","1536","864","0","1","0","5e4ab1b4ca765d000edebd15","","null","","","learningBlock1","","","","This is a bim:","null","","","","","",""
"image-keyboard-response","127","169219","0.0-5.0-1.40","LF","85gul0f7qh","1536","864","0","1","0","5e4ab1b4ca765d000edebd15","","null","","","","","","","learning/Slide41.JPG","null","","","","","",""
"html-keyboard-response","128","170228","0.0-5.0-2.40","LF","85gul0f7qh","1536","864","0","1","0","5e4ab1b4ca765d000edebd15","","null","","","learningBlock1","","","","<div style=""font-size:60px;""> </div>","null","LF","learning/Slide41.JPG","This is a bim:","","",""
"html-keyboard-response","129","171233","0.0-5.0-0.41","LF","85gul0f7qh","1536","864","0","1","0","5e4ab1b4ca765d000edebd15","","null","","","learningBlock1","","","","This is a dep:","null","","","","","",""
"image-keyboard-response","130","171574","0.0-5.0-1.41","LF","85gul0f7qh","1536","864","0","1","0","5e4ab1b4ca765d000edebd15","","null","","","","","","","learning/Slide42.JPG","null","","","","","",""
"html-keyboard-response","131","172583","0.0-5.0-2.41","LF","85gul0f7qh","1536","864","0","1","0","5e4ab1b4ca765d000edebd15","","null","","","learningBlock1","","","","<div style=""font-size:60px;""> </div>","null","LF","learning/Slide42.JPG","This is a dep:","","",""
"html-keyboard-response","132","173589","0.0-5.0-0.42","LF","85gul0f7qh","1536","864","0","1","0","5e4ab1b4ca765d000edebd15","","null","","","learningBlock1","","","","This is a wug:","null","","","","","",""
"image-keyboard-response","133","173931","0.0-5.0-1.42","LF","85gul0f7qh","1536","864","0","1","0","5e4ab1b4ca765d000edebd15","","null","","","","","","","learning/Slide43.JPG","null","","","","","",""
"html-keyboard-response","134","174945","0.0-5.0-2.42","LF","85gul0f7qh","1536","864","0","1","0","5e4ab1b4ca765d000edebd15","","null","","","learningBlock1","","","","<div style=""font-size:60px;""> </div>","null","LF","learning/Slide43.JPG","This is a wug:","","",""
"html-keyboard-response","135","175951","0.0-5.0-0.43","LF","85gul0f7qh","1536","864","0","1","0","5e4ab1b4ca765d000edebd15","","null","","","learningBlock1","","","","This is a bim:","null","","","","","",""
"image-keyboard-response","136","176295","0.0-5.0-1.43","LF","85gul0f7qh","1536","864","0","1","0","5e4ab1b4ca765d000edebd15","","null","","","","","","","learning/Slide44.JPG","null","","","","","",""
"html-keyboard-response","137","177301","0.0-5.0-2.43","LF","85gul0f7qh","1536","864","0","1","0","5e4ab1b4ca765d000edebd15","","null","","","learningBlock1","","","","<div style=""font-size:60px;""> </div>","null","LF","learning/Slide44.JPG","This is a bim:","","",""
"html-keyboard-response","138","178312","0.0-5.0-0.44","LF","85gul0f7qh","1536","864","0","1","0","5e4ab1b4ca765d000edebd15","","null","","","learningBlock1","","","","This is a wug:","null","","","","","",""
"image-keyboard-response","139","178655","0.0-5.0-1.44","LF","85gul0f7qh","1536","864","0","1","0","5e4ab1b4ca765d000edebd15","","null","","","","","","","learning/Slide45.JPG","null","","","","","",""
"html-keyboard-response","140","179663","0.0-5.0-2.44","LF","85gul0f7qh","1536","864","0","1","0","5e4ab1b4ca765d000edebd15","","null","","","learningBlock1","","","","<div style=""font-size:60px;""> </div>","null","LF","learning/Slide45.JPG","This is a wug:","","",""
"html-keyboard-response","141","180673","0.0-5.0-0.45","LF","85gul0f7qh","1536","864","0","1","0","5e4ab1b4ca765d000edebd15","","null","","","learningBlock1","","","","This is a dep:","null","","","","","",""
"image-keyboard-response","142","181017","0.0-5.0-1.45","LF","85gul0f7qh","1536","864","0","1","0","5e4ab1b4ca765d000edebd15","","null","","","","","","","learning/Slide46.JPG","null","","","","","",""
"html-keyboard-response","143","182022","0.0-5.0-2.45","LF","85gul0f7qh","1536","864","0","1","0","5e4ab1b4ca765d000edebd15","","null","","","learningBlock1","","","","<div style=""font-size:60px;""> </div>","null","LF","learning/Slide46.JPG","This is a dep:","","",""
"html-keyboard-response","144","183029","0.0-5.0-0.46","LF","85gul0f7qh","1536","864","0","1","0","5e4ab1b4ca765d000edebd15","","null","","","learningBlock1","","","","This is a tob:","null","","","","","",""
"image-keyboard-response","145","183367","0.0-5.0-1.46","LF","85gul0f7qh","1536","864","0","1","0","5e4ab1b4ca765d000edebd15","","null","","","","","","","learning/Slide47.JPG","null","","","","","",""
"html-keyboard-response","146","184376","0.0-5.0-2.46","LF","85gul0f7qh","1536","864","0","1","0","5e4ab1b4ca765d000edebd15","","null","","","learningBlock1","","","","<div style=""font-size:60px;""> </div>","null","LF","learning/Slide47.JPG","This is a tob:","","",""
"html-keyboard-response","147","185386","0.0-5.0-0.47","LF","85gul0f7qh","1536","864","0","1","0","5e4ab1b4ca765d000edebd15","","null","","","learningBlock1","","","","This is a bim:","null","","","","","",""
"image-keyboard-response","148","185731","0.0-5.0-1.47","LF","85gul0f7qh","1536","864","0","1","0","5e4ab1b4ca765d000edebd15","","null","","","","","","","learning/Slide48.JPG","null","","","","","",""
"html-keyboard-response","149","186742","0.0-5.0-2.47","LF","85gul0f7qh","1536","864","0","1","0","5e4ab1b4ca765d000edebd15","","null","","","learningBlock1","","","","<div style=""font-size:60px;""> </div>","null","LF","learning/Slide48.JPG","This is a bim:","","",""
"html-keyboard-response","150","187750","0.0-5.0-0.48","LF","85gul0f7qh","1536","864","0","1","0","5e4ab1b4ca765d000edebd15","","null","","","learningBlock1","","","","This is a dep:","null","","","","","",""
"image-keyboard-response","151","188092","0.0-5.0-1.48","LF","85gul0f7qh","1536","864","0","1","0","5e4ab1b4ca765d000edebd15","","null","","","","","","","learning/Slide49.JPG","null","","","","","",""
"html-keyboard-response","152","189101","0.0-5.0-2.48","LF","85gul0f7qh","1536","864","0","1","0","5e4ab1b4ca765d000edebd15","","null","","","learningBlock1","","","","<div style=""font-size:60px;""> </div>","null","LF","learning/Slide49.JPG","This is a dep:","","",""
"html-keyboard-response","153","190111","0.0-5.0-0.49","LF","85gul0f7qh","1536","864","0","1","0","5e4ab1b4ca765d000edebd15","","null","","","learningBlock1","","","","This is a tob:","null","","","","","",""
"image-keyboard-response","154","190451","0.0-5.0-1.49","LF","85gul0f7qh","1536","864","0","1","0","5e4ab1b4ca765d000edebd15","","null","","","","","","","learning/Slide50.JPG","null","","","","","",""
"html-keyboard-response","155","191462","0.0-5.0-2.49","LF","85gul0f7qh","1536","864","0","1","0","5e4ab1b4ca765d000edebd15","","null","","","learningBlock1","","","","<div style=""font-size:60px;""> </div>","null","LF","learning/Slide50.JPG","This is a tob:","","",""
"html-keyboard-response","156","192466","0.0-5.0-0.50","LF","85gul0f7qh","1536","864","0","1","0","5e4ab1b4ca765d000edebd15","","null","","","learningBlock1","","","","This is a bim:","null","","","","","",""
"image-keyboard-response","157","192805","0.0-5.0-1.50","LF","85gul0f7qh","1536","864","0","1","0","5e4ab1b4ca765d000edebd15","","null","","","","","","","learning/Slide51.JPG","null","","","","","",""
"html-keyboard-response","158","193809","0.0-5.0-2.50","LF","85gul0f7qh","1536","864","0","1","0","5e4ab1b4ca765d000edebd15","","null","","","learningBlock1","","","","<div style=""font-size:60px;""> </div>","null","LF","learning/Slide51.JPG","This is a bim:","","",""
"html-keyboard-response","159","194821","0.0-5.0-0.51","LF","85gul0f7qh","1536","864","0","1","0","5e4ab1b4ca765d000edebd15","","null","","","learningBlock1","","","","This is a wug:","null","","","","","",""
"image-keyboard-response","160","195168","0.0-5.0-1.51","LF","85gul0f7qh","1536","864","0","1","0","5e4ab1b4ca765d000edebd15","","null","","","","","","","learning/Slide52.JPG","null","","","","","",""
"html-keyboard-response","161","196177","0.0-5.0-2.51","LF","85gul0f7qh","1536","864","0","1","0","5e4ab1b4ca765d000edebd15","","null","","","learningBlock1","","","","<div style=""font-size:60px;""> </div>","null","LF","learning/Slide52.JPG","This is a wug:","","",""
"html-keyboard-response","162","197189","0.0-5.0-0.52","LF","85gul0f7qh","1536","864","0","1","0","5e4ab1b4ca765d000edebd15","","null","","","learningBlock1","","","","This is a tob:","null","","","","","",""
"image-keyboard-response","163","197530","0.0-5.0-1.52","LF","85gul0f7qh","1536","864","0","1","0","5e4ab1b4ca765d000edebd15","","null","","","","","","","learning/Slide53.JPG","null","","","","","",""
"html-keyboard-response","164","198539","0.0-5.0-2.52","LF","85gul0f7qh","1536","864","0","1","0","5e4ab1b4ca765d000edebd15","","null","","","learningBlock1","","","","<div style=""font-size:60px;""> </div>","null","LF","learning/Slide53.JPG","This is a tob:","","",""
"html-keyboard-response","165","199546","0.0-5.0-0.53","LF","85gul0f7qh","1536","864","0","1","0","5e4ab1b4ca765d000edebd15","","null","","","learningBlock1","","","","This is a dep:","null","","","","","",""
"image-keyboard-response","166","199889","0.0-5.0-1.53","LF","85gul0f7qh","1536","864","0","1","0","5e4ab1b4ca765d000edebd15","","null","","","","","","","learning/Slide54.JPG","null","","","","","",""
"html-keyboard-response","167","200900","0.0-5.0-2.53","LF","85gul0f7qh","1536","864","0","1","0","5e4ab1b4ca765d000edebd15","","null","","","learningBlock1","","","","<div style=""font-size:60px;""> </div>","null","LF","learning/Slide54.JPG","This is a dep:","","",""
"html-keyboard-response","168","201908","0.0-5.0-0.54","LF","85gul0f7qh","1536","864","0","1","0","5e4ab1b4ca765d000edebd15","","null","","","learningBlock1","","","","This is a bim:","null","","","","","",""
"image-keyboard-response","169","202246","0.0-5.0-1.54","LF","85gul0f7qh","1536","864","0","1","0","5e4ab1b4ca765d000edebd15","","null","","","","","","","learning/Slide55.JPG","null","","","","","",""
"html-keyboard-response","170","203249","0.0-5.0-2.54","LF","85gul0f7qh","1536","864","0","1","0","5e4ab1b4ca765d000edebd15","","null","","","learningBlock1","","","","<div style=""font-size:60px;""> </div>","null","LF","learning/Slide55.JPG","This is a bim:","","",""
"html-keyboard-response","171","204258","0.0-5.0-0.55","LF","85gul0f7qh","1536","864","0","1","0","5e4ab1b4ca765d000edebd15","","null","","","learningBlock1","","","","This is a tob:","null","","","","","",""
"image-keyboard-response","172","204597","0.0-5.0-1.55","LF","85gul0f7qh","1536","864","0","1","0","5e4ab1b4ca765d000edebd15","","null","","","","","","","learning/Slide56.JPG","null","","","","","",""
"html-keyboard-response","173","205607","0.0-5.0-2.55","LF","85gul0f7qh","1536","864","0","1","0","5e4ab1b4ca765d000edebd15","","null","","","learningBlock1","","","","<div style=""font-size:60px;""> </div>","null","LF","learning/Slide56.JPG","This is a tob:","","",""
"html-keyboard-response","174","206612","0.0-5.0-0.56","LF","85gul0f7qh","1536","864","0","1","0","5e4ab1b4ca765d000edebd15","","null","","","learningBlock1","","","","This is a dep:","null","","","","","",""
"image-keyboard-response","175","206953","0.0-5.0-1.56","LF","85gul0f7qh","1536","864","0","1","0","5e4ab1b4ca765d000edebd15","","null","","","","","","","learning/Slide57.JPG","null","","","","","",""
"html-keyboard-response","176","207965","0.0-5.0-2.56","LF","85gul0f7qh","1536","864","0","1","0","5e4ab1b4ca765d000edebd15","","null","","","learningBlock1","","","","<div style=""font-size:60px;""> </div>","null","LF","learning/Slide57.JPG","This is a dep:","","",""
"html-keyboard-response","177","208968","0.0-5.0-0.57","LF","85gul0f7qh","1536","864","0","1","0","5e4ab1b4ca765d000edebd15","","null","","","learningBlock1","","","","This is a wug:","null","","","","","",""
"image-keyboard-response","178","209311","0.0-5.0-1.57","LF","85gul0f7qh","1536","864","0","1","0","5e4ab1b4ca765d000edebd15","","null","","","","","","","learning/Slide58.JPG","null","","","","","",""
"html-keyboard-response","179","210320","0.0-5.0-2.57","LF","85gul0f7qh","1536","864","0","1","0","5e4ab1b4ca765d000edebd15","","null","","","learningBlock1","","","","<div style=""font-size:60px;""> </div>","null","LF","learning/Slide58.JPG","This is a wug:","","",""
"html-keyboard-response","180","211327","0.0-5.0-0.58","LF","85gul0f7qh","1536","864","0","1","0","5e4ab1b4ca765d000edebd15","","null","","","learningBlock1","","","","This is a dep:","null","","","","","",""
"image-keyboard-response","181","211670","0.0-5.0-1.58","LF","85gul0f7qh","1536","864","0","1","0","5e4ab1b4ca765d000edebd15","","null","","","","","","","learning/Slide59.JPG","null","","","","","",""
"html-keyboard-response","182","212674","0.0-5.0-2.58","LF","85gul0f7qh","1536","864","0","1","0","5e4ab1b4ca765d000edebd15","","null","","","learningBlock1","","","","<div style=""font-size:60px;""> </div>","null","LF","learning/Slide59.JPG","This is a dep:","","",""
"html-keyboard-response","183","213682","0.0-5.0-0.59","LF","85gul0f7qh","1536","864","0","1","0","5e4ab1b4ca765d000edebd15","","null","","","learningBlock1","","","","This is a wug:","null","","","","","",""
"image-keyboard-response","184","214022","0.0-5.0-1.59","LF","85gul0f7qh","1536","864","0","1","0","5e4ab1b4ca765d000edebd15","","null","","","","","","","learning/Slide60.JPG","null","","","","","",""
"html-keyboard-response","185","215035","0.0-5.0-2.59","LF","85gul0f7qh","1536","864","0","1","0","5e4ab1b4ca765d000edebd15","","null","","","learningBlock1","","","","<div style=""font-size:60px;""> </div>","null","LF","learning/Slide60.JPG","This is a wug:","","",""
"html-keyboard-response","186","216036","0.0-5.0-0.60","LF","85gul0f7qh","1536","864","0","1","0","5e4ab1b4ca765d000edebd15","","null","","","learningBlock1","","","","This is a bim:","null","","","","","",""
"image-keyboard-response","187","216379","0.0-5.0-1.60","LF","85gul0f7qh","1536","864","0","1","0","5e4ab1b4ca765d000edebd15","","null","","","","","","","learning/Slide61.JPG","null","","","","","",""
"html-keyboard-response","188","217387","0.0-5.0-2.60","LF","85gul0f7qh","1536","864","0","1","0","5e4ab1b4ca765d000edebd15","","null","","","learningBlock1","","","","<div style=""font-size:60px;""> </div>","null","LF","learning/Slide61.JPG","This is a bim:","","",""
"html-keyboard-response","189","218391","0.0-5.0-0.61","LF","85gul0f7qh","1536","864","0","1","0","5e4ab1b4ca765d000edebd15","","null","","","learningBlock1","","","","This is a dep:","null","","","","","",""
"image-keyboard-response","190","218733","0.0-5.0-1.61","LF","85gul0f7qh","1536","864","0","1","0","5e4ab1b4ca765d000edebd15","","null","","","","","","","learning/Slide62.JPG","null","","","","","",""
"html-keyboard-response","191","219739","0.0-5.0-2.61","LF","85gul0f7qh","1536","864","0","1","0","5e4ab1b4ca765d000edebd15","","null","","","learningBlock1","","","","<div style=""font-size:60px;""> </div>","null","LF","learning/Slide62.JPG","This is a dep:","","",""
"html-keyboard-response","192","220741","0.0-5.0-0.62","LF","85gul0f7qh","1536","864","0","1","0","5e4ab1b4ca765d000edebd15","","null","","","learningBlock1","","","","This is a bim:","null","","","","","",""
"image-keyboard-response","193","221083","0.0-5.0-1.62","LF","85gul0f7qh","1536","864","0","1","0","5e4ab1b4ca765d000edebd15","","null","","","","","","","learning/Slide63.JPG","null","","","","","",""
"html-keyboard-response","194","222086","0.0-5.0-2.62","LF","85gul0f7qh","1536","864","0","1","0","5e4ab1b4ca765d000edebd15","","null","","","learningBlock1","","","","<div style=""font-size:60px;""> </div>","null","LF","learning/Slide63.JPG","This is a bim:","","",""
"html-keyboard-response","195","223092","0.0-5.0-0.63","LF","85gul0f7qh","1536","864","0","1","0","5e4ab1b4ca765d000edebd15","","null","","","learningBlock1","","","","This is a tob:","null","","","","","",""
"image-keyboard-response","196","223437","0.0-5.0-1.63","LF","85gul0f7qh","1536","864","0","1","0","5e4ab1b4ca765d000edebd15","","null","","","","","","","learning/Slide64.JPG","null","","","","","",""
"html-keyboard-response","197","224442","0.0-5.0-2.63","LF","85gul0f7qh","1536","864","0","1","0","5e4ab1b4ca765d000edebd15","","null","","","learningBlock1","","","","<div style=""font-size:60px;""> </div>","null","LF","learning/Slide64.JPG","This is a tob:","","",""
"html-keyboard-response","198","225443","0.0-5.0-0.64","LF","85gul0f7qh","1536","864","0","1","0","5e4ab1b4ca765d000edebd15","","null","","","learningBlock1","","","","This is a wug:","null","","","","","",""
"image-keyboard-response","199","225781","0.0-5.0-1.64","LF","85gul0f7qh","1536","864","0","1","0","5e4ab1b4ca765d000edebd15","","null","","","","","","","learning/Slide65.JPG","null","","","","","",""
"html-keyboard-response","200","226790","0.0-5.0-2.64","LF","85gul0f7qh","1536","864","0","1","0","5e4ab1b4ca765d000edebd15","","null","","","learningBlock1","","","","<div style=""font-size:60px;""> </div>","null","LF","learning/Slide65.JPG","This is a wug:","","",""
"html-keyboard-response","201","227796","0.0-5.0-0.65","LF","85gul0f7qh","1536","864","0","1","0","5e4ab1b4ca765d000edebd15","","null","","","learningBlock1","","","","This is a dep:","null","","","","","",""
"image-keyboard-response","202","228136","0.0-5.0-1.65","LF","85gul0f7qh","1536","864","0","1","0","5e4ab1b4ca765d000edebd15","","null","","","","","","","learning/Slide66.JPG","null","","","","","",""
"html-keyboard-response","203","229142","0.0-5.0-2.65","LF","85gul0f7qh","1536","864","0","1","0","5e4ab1b4ca765d000edebd15","","null","","","learningBlock1","","","","<div style=""font-size:60px;""> </div>","null","LF","learning/Slide66.JPG","This is a dep:","","",""
"html-keyboard-response","204","230151","0.0-5.0-0.66","LF","85gul0f7qh","1536","864","0","1","0","5e4ab1b4ca765d000edebd15","","null","","","learningBlock1","","","","This is a tob:","null","","","","","",""
"image-keyboard-response","205","230495","0.0-5.0-1.66","LF","85gul0f7qh","1536","864","0","1","0","5e4ab1b4ca765d000edebd15","","null","","","","","","","learning/Slide67.JPG","null","","","","","",""
"html-keyboard-response","206","231501","0.0-5.0-2.66","LF","85gul0f7qh","1536","864","0","1","0","5e4ab1b4ca765d000edebd15","","null","","","learningBlock1","","","","<div style=""font-size:60px;""> </div>","null","LF","learning/Slide67.JPG","This is a tob:","","",""
"html-keyboard-response","207","232511","0.0-5.0-0.67","LF","85gul0f7qh","1536","864","0","1","0","5e4ab1b4ca765d000edebd15","","null","","","learningBlock1","","","","This is a wug:","null","","","","","",""
"image-keyboard-response","208","232853","0.0-5.0-1.67","LF","85gul0f7qh","1536","864","0","1","0","5e4ab1b4ca765d000edebd15","","null","","","","","","","learning/Slide68.JPG","null","","","","","",""
"html-keyboard-response","209","233859","0.0-5.0-2.67","LF","85gul0f7qh","1536","864","0","1","0","5e4ab1b4ca765d000edebd15","","null","","","learningBlock1","","","","<div style=""font-size:60px;""> </div>","null","LF","learning/Slide68.JPG","This is a wug:","","",""
"html-keyboard-response","210","234866","0.0-5.0-0.68","LF","85gul0f7qh","1536","864","0","1","0","5e4ab1b4ca765d000edebd15","","null","","","learningBlock1","","","","This is a tob:","null","","","","","",""
"image-keyboard-response","211","235206","0.0-5.0-1.68","LF","85gul0f7qh","1536","864","0","1","0","5e4ab1b4ca765d000edebd15","","null","","","","","","","learning/Slide69.JPG","null","","","","","",""
"html-keyboard-response","212","236219","0.0-5.0-2.68","LF","85gul0f7qh","1536","864","0","1","0","5e4ab1b4ca765d000edebd15","","null","","","learningBlock1","","","","<div style=""font-size:60px;""> </div>","null","LF","learning/Slide69.JPG","This is a tob:","","",""
"html-keyboard-response","213","237229","0.0-5.0-0.69","LF","85gul0f7qh","1536","864","0","1","0","5e4ab1b4ca765d000edebd15","","null","","","learningBlock1","","","","This is a dep:","null","","","","","",""
"image-keyboard-response","214","237570","0.0-5.0-1.69","LF","85gul0f7qh","1536","864","0","1","0","5e4ab1b4ca765d000edebd15","","null","","","","","","","learning/Slide70.JPG","null","","","","","",""
"html-keyboard-response","215","238580","0.0-5.0-2.69","LF","85gul0f7qh","1536","864","0","1","0","5e4ab1b4ca765d000edebd15","","null","","","learningBlock1","","","","<div style=""font-size:60px;""> </div>","null","LF","learning/Slide70.JPG","This is a dep:","","",""
"html-keyboard-response","216","239587","0.0-5.0-0.70","LF","85gul0f7qh","1536","864","0","1","0","5e4ab1b4ca765d000edebd15","","null","","","learningBlock1","","","","This is a wug:","null","","","","","",""
"image-keyboard-response","217","239933","0.0-5.0-1.70","LF","85gul0f7qh","1536","864","0","1","0","5e4ab1b4ca765d000edebd15","","null","","","","","","","learning/Slide71.JPG","null","","","","","",""
"html-keyboard-response","218","240934","0.0-5.0-2.70","LF","85gul0f7qh","1536","864","0","1","0","5e4ab1b4ca765d000edebd15","","null","","","learningBlock1","","","","<div style=""font-size:60px;""> </div>","null","LF","learning/Slide71.JPG","This is a wug:","","",""
"html-keyboard-response","219","241943","0.0-5.0-0.71","LF","85gul0f7qh","1536","864","0","1","0","5e4ab1b4ca765d000edebd15","","null","","","learningBlock1","","","","This is a bim:","null","","","","","",""
"image-keyboard-response","220","242286","0.0-5.0-1.71","LF","85gul0f7qh","1536","864","0","1","0","5e4ab1b4ca765d000edebd15","","null","","","","","","","learning/Slide72.JPG","null","","","","","",""
"html-keyboard-response","221","243293","0.0-5.0-2.71","LF","85gul0f7qh","1536","864","0","1","0","5e4ab1b4ca765d000edebd15","","null","","","learningBlock1","","","","<div style=""font-size:60px;""> </div>","null","LF","learning/Slide72.JPG","This is a bim:","","",""
"html-keyboard-response","222","244301","0.0-5.0-0.72","LF","85gul0f7qh","1536","864","0","1","0","5e4ab1b4ca765d000edebd15","","null","","","learningBlock1","","","","This is a wug:","null","","","","","",""
"image-keyboard-response","223","244639","0.0-5.0-1.72","LF","85gul0f7qh","1536","864","0","1","0","5e4ab1b4ca765d000edebd15","","null","","","","","","","learning/Slide73.JPG","null","","","","","",""
"html-keyboard-response","224","245646","0.0-5.0-2.72","LF","85gul0f7qh","1536","864","0","1","0","5e4ab1b4ca765d000edebd15","","null","","","learningBlock1","","","","<div style=""font-size:60px;""> </div>","null","LF","learning/Slide73.JPG","This is a wug:","","",""
"html-keyboard-response","225","246656","0.0-5.0-0.73","LF","85gul0f7qh","1536","864","0","1","0","5e4ab1b4ca765d000edebd15","","null","","","learningBlock1","","","","This is a dep:","null","","","","","",""
"image-keyboard-response","226","246996","0.0-5.0-1.73","LF","85gul0f7qh","1536","864","0","1","0","5e4ab1b4ca765d000edebd15","","null","","","","","","","learning/Slide74.JPG","null","","","","","",""
"html-keyboard-response","227","248004","0.0-5.0-2.73","LF","85gul0f7qh","1536","864","0","1","0","5e4ab1b4ca765d000edebd15","","null","","","learningBlock1","","","","<div style=""font-size:60px;""> </div>","null","LF","learning/Slide74.JPG","This is a dep:","","",""
"html-keyboard-response","228","249014","0.0-5.0-0.74","LF","85gul0f7qh","1536","864","0","1","0","5e4ab1b4ca765d000edebd15","","null","","","learningBlock1","","","","This is a tob:","null","","","","","",""
"image-keyboard-response","229","249354","0.0-5.0-1.74","LF","85gul0f7qh","1536","864","0","1","0","5e4ab1b4ca765d000edebd15","","null","","","","","","","learning/Slide75.JPG","null","","","","","",""
"html-keyboard-response","230","250362","0.0-5.0-2.74","LF","85gul0f7qh","1536","864","0","1","0","5e4ab1b4ca765d000edebd15","","null","","","learningBlock1","","","","<div style=""font-size:60px;""> </div>","null","LF","learning/Slide75.JPG","This is a tob:","","",""
"html-keyboard-response","231","251368","0.0-5.0-0.75","LF","85gul0f7qh","1536","864","0","1","0","5e4ab1b4ca765d000edebd15","","null","","","learningBlock1","","","","This is a bim:","null","","","","","",""
"image-keyboard-response","232","251712","0.0-5.0-1.75","LF","85gul0f7qh","1536","864","0","1","0","5e4ab1b4ca765d000edebd15","","null","","","","","","","learning/Slide76.JPG","null","","","","","",""
"html-keyboard-response","233","252722","0.0-5.0-2.75","LF","85gul0f7qh","1536","864","0","1","0","5e4ab1b4ca765d000edebd15","","null","","","learningBlock1","","","","<div style=""font-size:60px;""> </div>","null","LF","learning/Slide76.JPG","This is a bim:","","",""
"html-keyboard-response","234","253724","0.0-5.0-0.76","LF","85gul0f7qh","1536","864","0","1","0","5e4ab1b4ca765d000edebd15","","null","","","learningBlock1","","","","This is a tob:","null","","","","","",""
"image-keyboard-response","235","254064","0.0-5.0-1.76","LF","85gul0f7qh","1536","864","0","1","0","5e4ab1b4ca765d000edebd15","","null","","","","","","","learning/Slide77.JPG","null","","","","","",""
"html-keyboard-response","236","255073","0.0-5.0-2.76","LF","85gul0f7qh","1536","864","0","1","0","5e4ab1b4ca765d000edebd15","","null","","","learningBlock1","","","","<div style=""font-size:60px;""> </div>","null","LF","learning/Slide77.JPG","This is a tob:","","",""
"html-keyboard-response","237","256079","0.0-5.0-0.77","LF","85gul0f7qh","1536","864","0","1","0","5e4ab1b4ca765d000edebd15","","null","","","learningBlock1","","","","This is a wug:","null","","","","","",""
"image-keyboard-response","238","256419","0.0-5.0-1.77","LF","85gul0f7qh","1536","864","0","1","0","5e4ab1b4ca765d000edebd15","","null","","","","","","","learning/Slide78.JPG","null","","","","","",""
"html-keyboard-response","239","257428","0.0-5.0-2.77","LF","85gul0f7qh","1536","864","0","1","0","5e4ab1b4ca765d000edebd15","","null","","","learningBlock1","","","","<div style=""font-size:60px;""> </div>","null","LF","learning/Slide78.JPG","This is a wug:","","",""
"html-keyboard-response","240","258437","0.0-5.0-0.78","LF","85gul0f7qh","1536","864","0","1","0","5e4ab1b4ca765d000edebd15","","null","","","learningBlock1","","","","This is a bim:","null","","","","","",""
"image-keyboard-response","241","258781","0.0-5.0-1.78","LF","85gul0f7qh","1536","864","0","1","0","5e4ab1b4ca765d000edebd15","","null","","","","","","","learning/Slide79.JPG","null","","","","","",""
"html-keyboard-response","242","259789","0.0-5.0-2.78","LF","85gul0f7qh","1536","864","0","1","0","5e4ab1b4ca765d000edebd15","","null","","","learningBlock1","","","","<div style=""font-size:60px;""> </div>","null","LF","learning/Slide79.JPG","This is a bim:","","",""
"html-keyboard-response","243","260799","0.0-5.0-0.79","LF","85gul0f7qh","1536","864","0","1","0","5e4ab1b4ca765d000edebd15","","null","","","learningBlock1","","","","This is a tob:","null","","","","","",""
"image-keyboard-response","244","261143","0.0-5.0-1.79","LF","85gul0f7qh","1536","864","0","1","0","5e4ab1b4ca765d000edebd15","","null","","","","","","","learning/Slide80.JPG","null","","","","","",""
"html-keyboard-response","245","262152","0.0-5.0-2.79","LF","85gul0f7qh","1536","864","0","1","0","5e4ab1b4ca765d000edebd15","","null","","","learningBlock1","","","","<div style=""font-size:60px;""> </div>","null","LF","learning/Slide80.JPG","This is a tob:","","",""
"instructions","246","298001","0.0-6.0","LF","85gul0f7qh","1536","864","0","1","0","5e4ab1b4ca765d000edebd15","","NA","","[{""page_index"":0,""viewing_time"":35849}]","instructions","","","","","","","","","","",""
"html-keyboard-response","247","299014","0.0-7.0-0.0","LF","85gul0f7qh","1536","864","0","1","0","5e4ab1b4ca765d000edebd15","","null","","","learningBlock2","","","","This is a wug:","null","","","","","",""
"image-keyboard-response","248","299355","0.0-7.0-1.0","LF","85gul0f7qh","1536","864","0","1","0","5e4ab1b4ca765d000edebd15","","null","","","","","","","learning/Slide81.JPG","null","","","","","",""
"html-keyboard-response","249","300367","0.0-7.0-2.0","LF","85gul0f7qh","1536","864","0","1","0","5e4ab1b4ca765d000edebd15","","null","","","learningBlock2","","","","<div style=""font-size:60px;""> </div>","null","LF","learning/Slide81.JPG","This is a wug:","","",""
"html-keyboard-response","250","301370","0.0-7.0-0.1","LF","85gul0f7qh","1536","864","0","1","0","5e4ab1b4ca765d000edebd15","","null","","","learningBlock2","","","","This is a bim:","null","","","","","",""
"image-keyboard-response","251","301712","0.0-7.0-1.1","LF","85gul0f7qh","1536","864","0","1","0","5e4ab1b4ca765d000edebd15","","null","","","","","","","learning/Slide82.JPG","null","","","","","",""
"html-keyboard-response","252","302718","0.0-7.0-2.1","LF","85gul0f7qh","1536","864","0","1","0","5e4ab1b4ca765d000edebd15","","null","","","learningBlock2","","","","<div style=""font-size:60px;""> </div>","null","LF","learning/Slide82.JPG","This is a bim:","","",""
"html-keyboard-response","253","303726","0.0-7.0-0.2","LF","85gul0f7qh","1536","864","0","1","0","5e4ab1b4ca765d000edebd15","","null","","","learningBlock2","","","","This is a wug:","null","","","","","",""
"image-keyboard-response","254","304066","0.0-7.0-1.2","LF","85gul0f7qh","1536","864","0","1","0","5e4ab1b4ca765d000edebd15","","null","","","","","","","learning/Slide83.JPG","null","","","","","",""
"html-keyboard-response","255","305078","0.0-7.0-2.2","LF","85gul0f7qh","1536","864","0","1","0","5e4ab1b4ca765d000edebd15","","null","","","learningBlock2","","","","<div style=""font-size:60px;""> </div>","null","LF","learning/Slide83.JPG","This is a wug:","","",""
"html-keyboard-response","256","306087","0.0-7.0-0.3","LF","85gul0f7qh","1536","864","0","1","0","5e4ab1b4ca765d000edebd15","","null","","","learningBlock2","","","","This is a dep:","null","","","","","",""
"image-keyboard-response","257","306426","0.0-7.0-1.3","LF","85gul0f7qh","1536","864","0","1","0","5e4ab1b4ca765d000edebd15","","null","","","","","","","learning/Slide84.JPG","null","","","","","",""
"html-keyboard-response","258","307428","0.0-7.0-2.3","LF","85gul0f7qh","1536","864","0","1","0","5e4ab1b4ca765d000edebd15","","null","","","learningBlock2","","","","<div style=""font-size:60px;""> </div>","null","LF","learning/Slide84.JPG","This is a dep:","","",""
"html-keyboard-response","259","308429","0.0-7.0-0.4","LF","85gul0f7qh","1536","864","0","1","0","5e4ab1b4ca765d000edebd15","","null","","","learningBlock2","","","","This is a bim:","null","","","","","",""
"image-keyboard-response","260","308768","0.0-7.0-1.4","LF","85gul0f7qh","1536","864","0","1","0","5e4ab1b4ca765d000edebd15","","null","","","","","","","learning/Slide85.JPG","null","","","","","",""
"html-keyboard-response","261","309774","0.0-7.0-2.4","LF","85gul0f7qh","1536","864","0","1","0","5e4ab1b4ca765d000edebd15","","null","","","learningBlock2","","","","<div style=""font-size:60px;""> </div>","null","LF","learning/Slide85.JPG","This is a bim:","","",""
"html-keyboard-response","262","310785","0.0-7.0-0.5","LF","85gul0f7qh","1536","864","0","1","0","5e4ab1b4ca765d000edebd15","","null","","","learningBlock2","","","","This is a tob:","null","","","","","",""
"image-keyboard-response","263","311127","0.0-7.0-1.5","LF","85gul0f7qh","1536","864","0","1","0","5e4ab1b4ca765d000edebd15","","null","","","","","","","learning/Slide86.JPG","null","","","","","",""
"html-keyboard-response","264","312135","0.0-7.0-2.5","LF","85gul0f7qh","1536","864","0","1","0","5e4ab1b4ca765d000edebd15","","null","","","learningBlock2","","","","<div style=""font-size:60px;""> </div>","null","LF","learning/Slide86.JPG","This is a tob:","","",""
"html-keyboard-response","265","313141","0.0-7.0-0.6","LF","85gul0f7qh","1536","864","0","1","0","5e4ab1b4ca765d000edebd15","","null","","","learningBlock2","","","","This is a wug:","null","","","","","",""
"image-keyboard-response","266","313483","0.0-7.0-1.6","LF","85gul0f7qh","1536","864","0","1","0","5e4ab1b4ca765d000edebd15","","null","","","","","","","learning/Slide87.JPG","null","","","","","",""
"html-keyboard-response","267","314489","0.0-7.0-2.6","LF","85gul0f7qh","1536","864","0","1","0","5e4ab1b4ca765d000edebd15","","null","","","learningBlock2","","","","<div style=""font-size:60px;""> </div>","null","LF","learning/Slide87.JPG","This is a wug:","","",""
"html-keyboard-response","268","315499","0.0-7.0-0.7","LF","85gul0f7qh","1536","864","0","1","0","5e4ab1b4ca765d000edebd15","","null","","","learningBlock2","","","","This is a tob:","null","","","","","",""
"image-keyboard-response","269","315837","0.0-7.0-1.7","LF","85gul0f7qh","1536","864","0","1","0","5e4ab1b4ca765d000edebd15","","null","","","","","","","learning/Slide88.JPG","null","","","","","",""
"html-keyboard-response","270","316844","0.0-7.0-2.7","LF","85gul0f7qh","1536","864","0","1","0","5e4ab1b4ca765d000edebd15","","null","","","learningBlock2","","","","<div style=""font-size:60px;""> </div>","null","LF","learning/Slide88.JPG","This is a tob:","","",""
"html-keyboard-response","271","317858","0.0-7.0-0.8","LF","85gul0f7qh","1536","864","0","1","0","5e4ab1b4ca765d000edebd15","","null","","","learningBlock2","","","","This is a bim:","null","","","","","",""
"image-keyboard-response","272","318198","0.0-7.0-1.8","LF","85gul0f7qh","1536","864","0","1","0","5e4ab1b4ca765d000edebd15","","null","","","","","","","learning/Slide89.JPG","null","","","","","",""
"html-keyboard-response","273","319206","0.0-7.0-2.8","LF","85gul0f7qh","1536","864","0","1","0","5e4ab1b4ca765d000edebd15","","null","","","learningBlock2","","","","<div style=""font-size:60px;""> </div>","null","LF","learning/Slide89.JPG","This is a bim:","","",""
"html-keyboard-response","274","320214","0.0-7.0-0.9","LF","85gul0f7qh","1536","864","0","1","0","5e4ab1b4ca765d000edebd15","","null","","","learningBlock2","","","","This is a dep:","null","","","","","",""
"image-keyboard-response","275","320553","0.0-7.0-1.9","LF","85gul0f7qh","1536","864","0","1","0","5e4ab1b4ca765d000edebd15","","null","","","","","","","learning/Slide90.JPG","null","","","","","",""
"html-keyboard-response","276","321561","0.0-7.0-2.9","LF","85gul0f7qh","1536","864","0","1","0","5e4ab1b4ca765d000edebd15","","null","","","learningBlock2","","","","<div style=""font-size:60px;""> </div>","null","LF","learning/Slide90.JPG","This is a dep:","","",""
"html-keyboard-response","277","322572","0.0-7.0-0.10","LF","85gul0f7qh","1536","864","0","1","0","5e4ab1b4ca765d000edebd15","","null","","","learningBlock2","","","","This is a wug:","null","","","","","",""
"image-keyboard-response","278","322915","0.0-7.0-1.10","LF","85gul0f7qh","1536","864","0","1","0","5e4ab1b4ca765d000edebd15","","null","","","","","","","learning/Slide91.JPG","null","","","","","",""
"html-keyboard-response","279","323921","0.0-7.0-2.10","LF","85gul0f7qh","1536","864","0","1","0","5e4ab1b4ca765d000edebd15","","null","","","learningBlock2","","","","<div style=""font-size:60px;""> </div>","null","LF","learning/Slide91.JPG","This is a wug:","","",""
"html-keyboard-response","280","324932","0.0-7.0-0.11","LF","85gul0f7qh","1536","864","0","1","0","5e4ab1b4ca765d000edebd15","","null","","","learningBlock2","","","","This is a tob:","null","","","","","",""
"image-keyboard-response","281","325272","0.0-7.0-1.11","LF","85gul0f7qh","1536","864","0","1","0","5e4ab1b4ca765d000edebd15","","null","","","","","","","learning/Slide92.JPG","null","","","","","",""
"html-keyboard-response","282","326278","0.0-7.0-2.11","LF","85gul0f7qh","1536","864","0","1","0","5e4ab1b4ca765d000edebd15","","null","","","learningBlock2","","","","<div style=""font-size:60px;""> </div>","null","LF","learning/Slide92.JPG","This is a tob:","","",""
"html-keyboard-response","283","327289","0.0-7.0-0.12","LF","85gul0f7qh","1536","864","0","1","0","5e4ab1b4ca765d000edebd15","","null","","","learningBlock2","","","","This is a bim:","null","","","","","",""
"image-keyboard-response","284","327632","0.0-7.0-1.12","LF","85gul0f7qh","1536","864","0","1","0","5e4ab1b4ca765d000edebd15","","null","","","","","","","learning/Slide93.JPG","null","","","","","",""
"html-keyboard-response","285","328642","0.0-7.0-2.12","LF","85gul0f7qh","1536","864","0","1","0","5e4ab1b4ca765d000edebd15","","null","","","learningBlock2","","","","<div style=""font-size:60px;""> </div>","null","LF","learning/Slide93.JPG","This is a bim:","","",""
"html-keyboard-response","286","329650","0.0-7.0-0.13","LF","85gul0f7qh","1536","864","0","1","0","5e4ab1b4ca765d000edebd15","","null","","","learningBlock2","","","","This is a tob:","null","","","","","",""
"image-keyboard-response","287","329990","0.0-7.0-1.13","LF","85gul0f7qh","1536","864","0","1","0","5e4ab1b4ca765d000edebd15","","null","","","","","","","learning/Slide94.JPG","null","","","","","",""
"html-keyboard-response","288","331000","0.0-7.0-2.13","LF","85gul0f7qh","1536","864","0","1","0","5e4ab1b4ca765d000edebd15","","null","","","learningBlock2","","","","<div style=""font-size:60px;""> </div>","null","LF","learning/Slide94.JPG","This is a tob:","","",""
"html-keyboard-response","289","332009","0.0-7.0-0.14","LF","85gul0f7qh","1536","864","0","1","0","5e4ab1b4ca765d000edebd15","","null","","","learningBlock2","","","","This is a wug:","null","","","","","",""
"image-keyboard-response","290","332348","0.0-7.0-1.14","LF","85gul0f7qh","1536","864","0","1","0","5e4ab1b4ca765d000edebd15","","null","","","","","","","learning/Slide95.JPG","null","","","","","",""
"html-keyboard-response","291","333358","0.0-7.0-2.14","LF","85gul0f7qh","1536","864","0","1","0","5e4ab1b4ca765d000edebd15","","null","","","learningBlock2","","","","<div style=""font-size:60px;""> </div>","null","LF","learning/Slide95.JPG","This is a wug:","","",""
"html-keyboard-response","292","334362","0.0-7.0-0.15","LF","85gul0f7qh","1536","864","0","1","0","5e4ab1b4ca765d000edebd15","","null","","","learningBlock2","","","","This is a tob:","null","","","","","",""
"image-keyboard-response","293","334703","0.0-7.0-1.15","LF","85gul0f7qh","1536","864","0","1","0","5e4ab1b4ca765d000edebd15","","null","","","","","","","learning/Slide96.JPG","null","","","","","",""
"html-keyboard-response","294","335715","0.0-7.0-2.15","LF","85gul0f7qh","1536","864","0","1","0","5e4ab1b4ca765d000edebd15","","null","","","learningBlock2","","","","<div style=""font-size:60px;""> </div>","null","LF","learning/Slide96.JPG","This is a tob:","","",""
"html-keyboard-response","295","336720","0.0-7.0-0.16","LF","85gul0f7qh","1536","864","0","1","0","5e4ab1b4ca765d000edebd15","","null","","","learningBlock2","","","","This is a dep:","null","","","","","",""
"image-keyboard-response","296","337061","0.0-7.0-1.16","LF","85gul0f7qh","1536","864","0","1","0","5e4ab1b4ca765d000edebd15","","null","","","","","","","learning/Slide97.JPG","null","","","","","",""
"html-keyboard-response","297","338065","0.0-7.0-2.16","LF","85gul0f7qh","1536","864","0","1","0","5e4ab1b4ca765d000edebd15","","null","","","learningBlock2","","","","<div style=""font-size:60px;""> </div>","null","LF","learning/Slide97.JPG","This is a dep:","","",""
"html-keyboard-response","298","339073","0.0-7.0-0.17","LF","85gul0f7qh","1536","864","0","1","0","5e4ab1b4ca765d000edebd15","","null","","","learningBlock2","","","","This is a bim:","null","","","","","",""
"image-keyboard-response","299","339413","0.0-7.0-1.17","LF","85gul0f7qh","1536","864","0","1","0","5e4ab1b4ca765d000edebd15","","null","","","","","","","learning/Slide98.JPG","null","","","","","",""
"html-keyboard-response","300","340424","0.0-7.0-2.17","LF","85gul0f7qh","1536","864","0","1","0","5e4ab1b4ca765d000edebd15","","null","","","learningBlock2","","","","<div style=""font-size:60px;""> </div>","null","LF","learning/Slide98.JPG","This is a bim:","","",""
"html-keyboard-response","301","341427","0.0-7.0-0.18","LF","85gul0f7qh","1536","864","0","1","0","5e4ab1b4ca765d000edebd15","","null","","","learningBlock2","","","","This is a dep:","null","","","","","",""
"image-keyboard-response","302","341767","0.0-7.0-1.18","LF","85gul0f7qh","1536","864","0","1","0","5e4ab1b4ca765d000edebd15","","null","","","","","","","learning/Slide99.JPG","null","","","","","",""
"html-keyboard-response","303","342776","0.0-7.0-2.18","LF","85gul0f7qh","1536","864","0","1","0","5e4ab1b4ca765d000edebd15","","null","","","learningBlock2","","","","<div style=""font-size:60px;""> </div>","null","LF","learning/Slide99.JPG","This is a dep:","","",""
"html-keyboard-response","304","343787","0.0-7.0-0.19","LF","85gul0f7qh","1536","864","0","1","0","5e4ab1b4ca765d000edebd15","","null","","","learningBlock2","","","","This is a bim:","null","","","","","",""
"image-keyboard-response","305","344130","0.0-7.0-1.19","LF","85gul0f7qh","1536","864","0","1","0","5e4ab1b4ca765d000edebd15","","null","","","","","","","learning/Slide100.JPG","null","","","","","",""
"html-keyboard-response","306","345138","0.0-7.0-2.19","LF","85gul0f7qh","1536","864","0","1","0","5e4ab1b4ca765d000edebd15","","null","","","learningBlock2","","","","<div style=""font-size:60px;""> </div>","null","LF","learning/Slide100.JPG","This is a bim:","","",""
"html-keyboard-response","307","346151","0.0-7.0-0.20","LF","85gul0f7qh","1536","864","0","1","0","5e4ab1b4ca765d000edebd15","","null","","","learningBlock2","","","","This is a tob:","null","","","","","",""
"image-keyboard-response","308","346496","0.0-7.0-1.20","LF","85gul0f7qh","1536","864","0","1","0","5e4ab1b4ca765d000edebd15","","null","","","","","","","learning/Slide101.JPG","null","","","","","",""
"html-keyboard-response","309","347509","0.0-7.0-2.20","LF","85gul0f7qh","1536","864","0","1","0","5e4ab1b4ca765d000edebd15","","null","","","learningBlock2","","","","<div style=""font-size:60px;""> </div>","null","LF","learning/Slide101.JPG","This is a tob:","","",""
"html-keyboard-response","310","348517","0.0-7.0-0.21","LF","85gul0f7qh","1536","864","0","1","0","5e4ab1b4ca765d000edebd15","","null","","","learningBlock2","","","","This is a bim:","null","","","","","",""
"image-keyboard-response","311","348859","0.0-7.0-1.21","LF","85gul0f7qh","1536","864","0","1","0","5e4ab1b4ca765d000edebd15","","null","","","","","","","learning/Slide102.JPG","null","","","","","",""
"html-keyboard-response","312","349864","0.0-7.0-2.21","LF","85gul0f7qh","1536","864","0","1","0","5e4ab1b4ca765d000edebd15","","null","","","learningBlock2","","","","<div style=""font-size:60px;""> </div>","null","LF","learning/Slide102.JPG","This is a bim:","","",""
"html-keyboard-response","313","350876","0.0-7.0-0.22","LF","85gul0f7qh","1536","864","0","1","0","5e4ab1b4ca765d000edebd15","","null","","","learningBlock2","","","","This is a dep:","null","","","","","",""
"image-keyboard-response","314","351217","0.0-7.0-1.22","LF","85gul0f7qh","1536","864","0","1","0","5e4ab1b4ca765d000edebd15","","null","","","","","","","learning/Slide103.JPG","null","","","","","",""
"html-keyboard-response","315","352222","0.0-7.0-2.22","LF","85gul0f7qh","1536","864","0","1","0","5e4ab1b4ca765d000edebd15","","null","","","learningBlock2","","","","<div style=""font-size:60px;""> </div>","null","LF","learning/Slide103.JPG","This is a dep:","","",""
"html-keyboard-response","316","353228","0.0-7.0-0.23","LF","85gul0f7qh","1536","864","0","1","0","5e4ab1b4ca765d000edebd15","","null","","","learningBlock2","","","","This is a tob:","null","","","","","",""
"image-keyboard-response","317","353570","0.0-7.0-1.23","LF","85gul0f7qh","1536","864","0","1","0","5e4ab1b4ca765d000edebd15","","null","","","","","","","learning/Slide104.JPG","null","","","","","",""
"html-keyboard-response","318","354574","0.0-7.0-2.23","LF","85gul0f7qh","1536","864","0","1","0","5e4ab1b4ca765d000edebd15","","null","","","learningBlock2","","","","<div style=""font-size:60px;""> </div>","null","LF","learning/Slide104.JPG","This is a tob:","","",""
"html-keyboard-response","319","355580","0.0-7.0-0.24","LF","85gul0f7qh","1536","864","0","1","0","5e4ab1b4ca765d000edebd15","","null","","","learningBlock2","","","","This is a dep:","null","","","","","",""
"image-keyboard-response","320","355921","0.0-7.0-1.24","LF","85gul0f7qh","1536","864","0","1","0","5e4ab1b4ca765d000edebd15","","null","","","","","","","learning/Slide105.JPG","null","","","","","",""
"html-keyboard-response","321","356928","0.0-7.0-2.24","LF","85gul0f7qh","1536","864","0","1","0","5e4ab1b4ca765d000edebd15","","null","","","learningBlock2","","","","<div style=""font-size:60px;""> </div>","null","LF","learning/Slide105.JPG","This is a dep:","","",""
"html-keyboard-response","322","357934","0.0-7.0-0.25","LF","85gul0f7qh","1536","864","0","1","0","5e4ab1b4ca765d000edebd15","","null","","","learningBlock2","","","","This is a wug:","null","","","","","",""
"image-keyboard-response","323","358276","0.0-7.0-1.25","LF","85gul0f7qh","1536","864","0","1","0","5e4ab1b4ca765d000edebd15","","null","","","","","","","learning/Slide106.JPG","null","","","","","",""
"html-keyboard-response","324","359287","0.0-7.0-2.25","LF","85gul0f7qh","1536","864","0","1","0","5e4ab1b4ca765d000edebd15","","null","","","learningBlock2","","","","<div style=""font-size:60px;""> </div>","null","LF","learning/Slide106.JPG","This is a wug:","","",""
"html-keyboard-response","325","360295","0.0-7.0-0.26","LF","85gul0f7qh","1536","864","0","1","0","5e4ab1b4ca765d000edebd15","","null","","","learningBlock2","","","","This is a bim:","null","","","","","",""
"image-keyboard-response","326","360637","0.0-7.0-1.26","LF","85gul0f7qh","1536","864","0","1","0","5e4ab1b4ca765d000edebd15","","null","","","","","","","learning/Slide107.JPG","null","","","","","",""
"html-keyboard-response","327","361644","0.0-7.0-2.26","LF","85gul0f7qh","1536","864","0","1","0","5e4ab1b4ca765d000edebd15","","null","","","learningBlock2","","","","<div style=""font-size:60px;""> </div>","null","LF","learning/Slide107.JPG","This is a bim:","","",""
"html-keyboard-response","328","362653","0.0-7.0-0.27","LF","85gul0f7qh","1536","864","0","1","0","5e4ab1b4ca765d000edebd15","","null","","","learningBlock2","","","","This is a dep:","null","","","","","",""
"image-keyboard-response","329","362997","0.0-7.0-1.27","LF","85gul0f7qh","1536","864","0","1","0","5e4ab1b4ca765d000edebd15","","null","","","","","","","learning/Slide108.JPG","null","","","","","",""
"html-keyboard-response","330","364003","0.0-7.0-2.27","LF","85gul0f7qh","1536","864","0","1","0","5e4ab1b4ca765d000edebd15","","null","","","learningBlock2","","","","<div style=""font-size:60px;""> </div>","null","LF","learning/Slide108.JPG","This is a dep:","","",""
"html-keyboard-response","331","365005","0.0-7.0-0.28","LF","85gul0f7qh","1536","864","0","1","0","5e4ab1b4ca765d000edebd15","","null","","","learningBlock2","","","","This is a wug:","null","","","","","",""
"image-keyboard-response","332","365347","0.0-7.0-1.28","LF","85gul0f7qh","1536","864","0","1","0","5e4ab1b4ca765d000edebd15","","null","","","","","","","learning/Slide109.JPG","null","","","","","",""
"html-keyboard-response","333","366358","0.0-7.0-2.28","LF","85gul0f7qh","1536","864","0","1","0","5e4ab1b4ca765d000edebd15","","null","","","learningBlock2","","","","<div style=""font-size:60px;""> </div>","null","LF","learning/Slide109.JPG","This is a wug:","","",""
"html-keyboard-response","334","367367","0.0-7.0-0.29","LF","85gul0f7qh","1536","864","0","1","0","5e4ab1b4ca765d000edebd15","","null","","","learningBlock2","","","","This is a bim:","null","","","","","",""
"image-keyboard-response","335","367708","0.0-7.0-1.29","LF","85gul0f7qh","1536","864","0","1","0","5e4ab1b4ca765d000edebd15","","null","","","","","","","learning/Slide110.JPG","null","","","","","",""
"html-keyboard-response","336","368717","0.0-7.0-2.29","LF","85gul0f7qh","1536","864","0","1","0","5e4ab1b4ca765d000edebd15","","null","","","learningBlock2","","","","<div style=""font-size:60px;""> </div>","null","LF","learning/Slide110.JPG","This is a bim:","","",""
"html-keyboard-response","337","369721","0.0-7.0-0.30","LF","85gul0f7qh","1536","864","0","1","0","5e4ab1b4ca765d000edebd15","","null","","","learningBlock2","","","","This is a tob:","null","","","","","",""
"image-keyboard-response","338","370063","0.0-7.0-1.30","LF","85gul0f7qh","1536","864","0","1","0","5e4ab1b4ca765d000edebd15","","null","","","","","","","learning/Slide111.JPG","null","","","","","",""
"html-keyboard-response","339","371074","0.0-7.0-2.30","LF","85gul0f7qh","1536","864","0","1","0","5e4ab1b4ca765d000edebd15","","null","","","learningBlock2","","","","<div style=""font-size:60px;""> </div>","null","LF","learning/Slide111.JPG","This is a tob:","","",""
"html-keyboard-response","340","372083","0.0-7.0-0.31","LF","85gul0f7qh","1536","864","0","1","0","5e4ab1b4ca765d000edebd15","","null","","","learningBlock2","","","","This is a wug:","null","","","","","",""
"image-keyboard-response","341","372425","0.0-7.0-1.31","LF","85gul0f7qh","1536","864","0","1","0","5e4ab1b4ca765d000edebd15","","null","","","","","","","learning/Slide112.JPG","null","","","","","",""
"html-keyboard-response","342","373432","0.0-7.0-2.31","LF","85gul0f7qh","1536","864","0","1","0","5e4ab1b4ca765d000edebd15","","null","","","learningBlock2","","","","<div style=""font-size:60px;""> </div>","null","LF","learning/Slide112.JPG","This is a wug:","","",""
"html-keyboard-response","343","374442","0.0-7.0-0.32","LF","85gul0f7qh","1536","864","0","1","0","5e4ab1b4ca765d000edebd15","","null","","","learningBlock2","","","","This is a tob:","null","","","","","",""
"image-keyboard-response","344","374783","0.0-7.0-1.32","LF","85gul0f7qh","1536","864","0","1","0","5e4ab1b4ca765d000edebd15","","null","","","","","","","learning/Slide113.JPG","null","","","","","",""
"html-keyboard-response","345","375793","0.0-7.0-2.32","LF","85gul0f7qh","1536","864","0","1","0","5e4ab1b4ca765d000edebd15","","null","","","learningBlock2","","","","<div style=""font-size:60px;""> </div>","null","LF","learning/Slide113.JPG","This is a tob:","","",""
"html-keyboard-response","346","376806","0.0-7.0-0.33","LF","85gul0f7qh","1536","864","0","1","0","5e4ab1b4ca765d000edebd15","","null","","","learningBlock2","","","","This is a wug:","null","","","","","",""
"image-keyboard-response","347","377146","0.0-7.0-1.33","LF","85gul0f7qh","1536","864","0","1","0","5e4ab1b4ca765d000edebd15","","null","","","","","","","learning/Slide114.JPG","null","","","","","",""
"html-keyboard-response","348","378148","0.0-7.0-2.33","LF","85gul0f7qh","1536","864","0","1","0","5e4ab1b4ca765d000edebd15","","null","","","learningBlock2","","","","<div style=""font-size:60px;""> </div>","null","LF","learning/Slide114.JPG","This is a wug:","","",""
"html-keyboard-response","349","379151","0.0-7.0-0.34","LF","85gul0f7qh","1536","864","0","1","0","5e4ab1b4ca765d000edebd15","","null","","","learningBlock2","","","","This is a bim:","null","","","","","",""
"image-keyboard-response","350","379494","0.0-7.0-1.34","LF","85gul0f7qh","1536","864","0","1","0","5e4ab1b4ca765d000edebd15","","null","","","","","","","learning/Slide115.JPG","null","","","","","",""
"html-keyboard-response","351","380504","0.0-7.0-2.34","LF","85gul0f7qh","1536","864","0","1","0","5e4ab1b4ca765d000edebd15","","null","","","learningBlock2","","","","<div style=""font-size:60px;""> </div>","null","LF","learning/Slide115.JPG","This is a bim:","","",""
"html-keyboard-response","352","381515","0.0-7.0-0.35","LF","85gul0f7qh","1536","864","0","1","0","5e4ab1b4ca765d000edebd15","","null","","","learningBlock2","","","","This is a dep:","null","","","","","",""
"image-keyboard-response","353","381858","0.0-7.0-1.35","LF","85gul0f7qh","1536","864","0","1","0","5e4ab1b4ca765d000edebd15","","null","","","","","","","learning/Slide116.JPG","null","","","","","",""
"html-keyboard-response","354","382871","0.0-7.0-2.35","LF","85gul0f7qh","1536","864","0","1","0","5e4ab1b4ca765d000edebd15","","null","","","learningBlock2","","","","<div style=""font-size:60px;""> </div>","null","LF","learning/Slide116.JPG","This is a dep:","","",""
"html-keyboard-response","355","383882","0.0-7.0-0.36","LF","85gul0f7qh","1536","864","0","1","0","5e4ab1b4ca765d000edebd15","","null","","","learningBlock2","","","","This is a tob:","null","","","","","",""
"image-keyboard-response","356","384221","0.0-7.0-1.36","LF","85gul0f7qh","1536","864","0","1","0","5e4ab1b4ca765d000edebd15","","null","","","","","","","learning/Slide117.JPG","null","","","","","",""
"html-keyboard-response","357","385228","0.0-7.0-2.36","LF","85gul0f7qh","1536","864","0","1","0","5e4ab1b4ca765d000edebd15","","null","","","learningBlock2","","","","<div style=""font-size:60px;""> </div>","null","LF","learning/Slide117.JPG","This is a tob:","","",""
"html-keyboard-response","358","386235","0.0-7.0-0.37","LF","85gul0f7qh","1536","864","0","1","0","5e4ab1b4ca765d000edebd15","","null","","","learningBlock2","","","","This is a dep:","null","","","","","",""
"image-keyboard-response","359","386574","0.0-7.0-1.37","LF","85gul0f7qh","1536","864","0","1","0","5e4ab1b4ca765d000edebd15","","null","","","","","","","learning/Slide118.JPG","null","","","","","",""
"html-keyboard-response","360","387582","0.0-7.0-2.37","LF","85gul0f7qh","1536","864","0","1","0","5e4ab1b4ca765d000edebd15","","null","","","learningBlock2","","","","<div style=""font-size:60px;""> </div>","null","LF","learning/Slide118.JPG","This is a dep:","","",""
"html-keyboard-response","361","388592","0.0-7.0-0.38","LF","85gul0f7qh","1536","864","0","1","0","5e4ab1b4ca765d000edebd15","","null","","","learningBlock2","","","","This is a wug:","null","","","","","",""
"image-keyboard-response","362","388935","0.0-7.0-1.38","LF","85gul0f7qh","1536","864","0","1","0","5e4ab1b4ca765d000edebd15","","null","","","","","","","learning/Slide119.JPG","null","","","","","",""
"html-keyboard-response","363","389941","0.0-7.0-2.38","LF","85gul0f7qh","1536","864","0","1","0","5e4ab1b4ca765d000edebd15","","null","","","learningBlock2","","","","<div style=""font-size:60px;""> </div>","null","LF","learning/Slide119.JPG","This is a wug:","","",""
"html-keyboard-response","364","390951","0.0-7.0-0.39","LF","85gul0f7qh","1536","864","0","1","0","5e4ab1b4ca765d000edebd15","","null","","","learningBlock2","","","","This is a dep:","null","","","","","",""
"image-keyboard-response","365","391293","0.0-7.0-1.39","LF","85gul0f7qh","1536","864","0","1","0","5e4ab1b4ca765d000edebd15","","null","","","","","","","learning/Slide120.JPG","null","","","","","",""
"html-keyboard-response","366","392300","0.0-7.0-2.39","LF","85gul0f7qh","1536","864","0","1","0","5e4ab1b4ca765d000edebd15","","null","","","learningBlock2","","","","<div style=""font-size:60px;""> </div>","null","LF","learning/Slide120.JPG","This is a dep:","","",""
"html-keyboard-response","367","393310","0.0-7.0-0.40","LF","85gul0f7qh","1536","864","0","1","0","5e4ab1b4ca765d000edebd15","","null","","","learningBlock2","","","","This is a bim:","null","","","","","",""
"image-keyboard-response","368","393655","0.0-7.0-1.40","LF","85gul0f7qh","1536","864","0","1","0","5e4ab1b4ca765d000edebd15","","null","","","","","","","learning/Slide121.JPG","null","","","","","",""
"html-keyboard-response","369","394671","0.0-7.0-2.40","LF","85gul0f7qh","1536","864","0","1","0","5e4ab1b4ca765d000edebd15","","null","","","learningBlock2","","","","<div style=""font-size:60px;""> </div>","null","LF","learning/Slide121.JPG","This is a bim:","","",""
"html-keyboard-response","370","395680","0.0-7.0-0.41","LF","85gul0f7qh","1536","864","0","1","0","5e4ab1b4ca765d000edebd15","","null","","","learningBlock2","","","","This is a wug:","null","","","","","",""
"image-keyboard-response","371","396023","0.0-7.0-1.41","LF","85gul0f7qh","1536","864","0","1","0","5e4ab1b4ca765d000edebd15","","null","","","","","","","learning/Slide122.JPG","null","","","","","",""
"html-keyboard-response","372","397032","0.0-7.0-2.41","LF","85gul0f7qh","1536","864","0","1","0","5e4ab1b4ca765d000edebd15","","null","","","learningBlock2","","","","<div style=""font-size:60px;""> </div>","null","LF","learning/Slide122.JPG","This is a wug:","","",""
"html-keyboard-response","373","398038","0.0-7.0-0.42","LF","85gul0f7qh","1536","864","0","1","0","5e4ab1b4ca765d000edebd15","","null","","","learningBlock2","","","","This is a bim:","null","","","","","",""
"image-keyboard-response","374","398378","0.0-7.0-1.42","LF","85gul0f7qh","1536","864","0","1","0","5e4ab1b4ca765d000edebd15","","null","","","","","","","learning/Slide123.JPG","null","","","","","",""
"html-keyboard-response","375","399390","0.0-7.0-2.42","LF","85gul0f7qh","1536","864","0","1","0","5e4ab1b4ca765d000edebd15","","null","","","learningBlock2","","","","<div style=""font-size:60px;""> </div>","null","LF","learning/Slide123.JPG","This is a bim:","","",""
"html-keyboard-response","376","400399","0.0-7.0-0.43","LF","85gul0f7qh","1536","864","0","1","0","5e4ab1b4ca765d000edebd15","","null","","","learningBlock2","","","","This is a tob:","null","","","","","",""
"image-keyboard-response","377","400739","0.0-7.0-1.43","LF","85gul0f7qh","1536","864","0","1","0","5e4ab1b4ca765d000edebd15","","null","","","","","","","learning/Slide124.JPG","null","","","","","",""
"html-keyboard-response","378","401745","0.0-7.0-2.43","LF","85gul0f7qh","1536","864","0","1","0","5e4ab1b4ca765d000edebd15","","null","","","learningBlock2","","","","<div style=""font-size:60px;""> </div>","null","LF","learning/Slide124.JPG","This is a tob:","","",""
"html-keyboard-response","379","402747","0.0-7.0-0.44","LF","85gul0f7qh","1536","864","0","1","0","5e4ab1b4ca765d000edebd15","","null","","","learningBlock2","","","","This is a bim:","null","","","","","",""
"image-keyboard-response","380","403087","0.0-7.0-1.44","LF","85gul0f7qh","1536","864","0","1","0","5e4ab1b4ca765d000edebd15","","null","","","","","","","learning/Slide125.JPG","null","","","","","",""
"html-keyboard-response","381","404092","0.0-7.0-2.44","LF","85gul0f7qh","1536","864","0","1","0","5e4ab1b4ca765d000edebd15","","null","","","learningBlock2","","","","<div style=""font-size:60px;""> </div>","null","LF","learning/Slide125.JPG","This is a bim:","","",""
"html-keyboard-response","382","405104","0.0-7.0-0.45","LF","85gul0f7qh","1536","864","0","1","0","5e4ab1b4ca765d000edebd15","","null","","","learningBlock2","","","","This is a tob:","null","","","","","",""
"image-keyboard-response","383","405443","0.0-7.0-1.45","LF","85gul0f7qh","1536","864","0","1","0","5e4ab1b4ca765d000edebd15","","null","","","","","","","learning/Slide126.JPG","null","","","","","",""
"html-keyboard-response","384","406449","0.0-7.0-2.45","LF","85gul0f7qh","1536","864","0","1","0","5e4ab1b4ca765d000edebd15","","null","","","learningBlock2","","","","<div style=""font-size:60px;""> </div>","null","LF","learning/Slide126.JPG","This is a tob:","","",""
"html-keyboard-response","385","407458","0.0-7.0-0.46","LF","85gul0f7qh","1536","864","0","1","0","5e4ab1b4ca765d000edebd15","","null","","","learningBlock2","","","","This is a dep:","null","","","","","",""
"image-keyboard-response","386","407799","0.0-7.0-1.46","LF","85gul0f7qh","1536","864","0","1","0","5e4ab1b4ca765d000edebd15","","null","","","","","","","learning/Slide127.JPG","null","","","","","",""
"html-keyboard-response","387","408799","0.0-7.0-2.46","LF","85gul0f7qh","1536","864","0","1","0","5e4ab1b4ca765d000edebd15","","null","","","learningBlock2","","","","<div style=""font-size:60px;""> </div>","null","LF","learning/Slide127.JPG","This is a dep:","","",""
"html-keyboard-response","388","409806","0.0-7.0-0.47","LF","85gul0f7qh","1536","864","0","1","0","5e4ab1b4ca765d000edebd15","","null","","","learningBlock2","","","","This is a wug:","null","","","","","",""
"image-keyboard-response","389","410147","0.0-7.0-1.47","LF","85gul0f7qh","1536","864","0","1","0","5e4ab1b4ca765d000edebd15","","null","","","","","","","learning/Slide128.JPG","null","","","","","",""
"html-keyboard-response","390","411152","0.0-7.0-2.47","LF","85gul0f7qh","1536","864","0","1","0","5e4ab1b4ca765d000edebd15","","null","","","learningBlock2","","","","<div style=""font-size:60px;""> </div>","null","LF","learning/Slide128.JPG","This is a wug:","","",""
"html-keyboard-response","391","412158","0.0-7.0-0.48","LF","85gul0f7qh","1536","864","0","1","0","5e4ab1b4ca765d000edebd15","","null","","","learningBlock2","","","","This is a tob:","null","","","","","",""
"image-keyboard-response","392","412498","0.0-7.0-1.48","LF","85gul0f7qh","1536","864","0","1","0","5e4ab1b4ca765d000edebd15","","null","","","","","","","learning/Slide129.JPG","null","","","","","",""
"html-keyboard-response","393","413501","0.0-7.0-2.48","LF","85gul0f7qh","1536","864","0","1","0","5e4ab1b4ca765d000edebd15","","null","","","learningBlock2","","","","<div style=""font-size:60px;""> </div>","null","LF","learning/Slide129.JPG","This is a tob:","","",""
"html-keyboard-response","394","414509","0.0-7.0-0.49","LF","85gul0f7qh","1536","864","0","1","0","5e4ab1b4ca765d000edebd15","","null","","","learningBlock2","","","","This is a wug:","null","","","","","",""
"image-keyboard-response","395","414850","0.0-7.0-1.49","LF","85gul0f7qh","1536","864","0","1","0","5e4ab1b4ca765d000edebd15","","null","","","","","","","learning/Slide130.JPG","null","","","","","",""
"html-keyboard-response","396","415856","0.0-7.0-2.49","LF","85gul0f7qh","1536","864","0","1","0","5e4ab1b4ca765d000edebd15","","null","","","learningBlock2","","","","<div style=""font-size:60px;""> </div>","null","LF","learning/Slide130.JPG","This is a wug:","","",""
"html-keyboard-response","397","416860","0.0-7.0-0.50","LF","85gul0f7qh","1536","864","0","1","0","5e4ab1b4ca765d000edebd15","","null","","","learningBlock2","","","","This is a bim:","null","","","","","",""
"image-keyboard-response","398","417202","0.0-7.0-1.50","LF","85gul0f7qh","1536","864","0","1","0","5e4ab1b4ca765d000edebd15","","null","","","","","","","learning/Slide131.JPG","null","","","","","",""
"html-keyboard-response","399","418206","0.0-7.0-2.50","LF","85gul0f7qh","1536","864","0","1","0","5e4ab1b4ca765d000edebd15","","null","","","learningBlock2","","","","<div style=""font-size:60px;""> </div>","null","LF","learning/Slide131.JPG","This is a bim:","","",""
"html-keyboard-response","400","419216","0.0-7.0-0.51","LF","85gul0f7qh","1536","864","0","1","0","5e4ab1b4ca765d000edebd15","","null","","","learningBlock2","","","","This is a dep:","null","","","","","",""
"image-keyboard-response","401","419555","0.0-7.0-1.51","LF","85gul0f7qh","1536","864","0","1","0","5e4ab1b4ca765d000edebd15","","null","","","","","","","learning/Slide132.JPG","null","","","","","",""
"html-keyboard-response","402","420563","0.0-7.0-2.51","LF","85gul0f7qh","1536","864","0","1","0","5e4ab1b4ca765d000edebd15","","null","","","learningBlock2","","","","<div style=""font-size:60px;""> </div>","null","LF","learning/Slide132.JPG","This is a dep:","","",""
"html-keyboard-response","403","421571","0.0-7.0-0.52","LF","85gul0f7qh","1536","864","0","1","0","5e4ab1b4ca765d000edebd15","","null","","","learningBlock2","","","","This is a tob:","null","","","","","",""
"image-keyboard-response","404","421911","0.0-7.0-1.52","LF","85gul0f7qh","1536","864","0","1","0","5e4ab1b4ca765d000edebd15","","null","","","","","","","learning/Slide133.JPG","null","","","","","",""
"html-keyboard-response","405","422920","0.0-7.0-2.52","LF","85gul0f7qh","1536","864","0","1","0","5e4ab1b4ca765d000edebd15","","null","","","learningBlock2","","","","<div style=""font-size:60px;""> </div>","null","LF","learning/Slide133.JPG","This is a tob:","","",""
"html-keyboard-response","406","423929","0.0-7.0-0.53","LF","85gul0f7qh","1536","864","0","1","0","5e4ab1b4ca765d000edebd15","","null","","","learningBlock2","","","","This is a dep:","null","","","","","",""
"image-keyboard-response","407","424271","0.0-7.0-1.53","LF","85gul0f7qh","1536","864","0","1","0","5e4ab1b4ca765d000edebd15","","null","","","","","","","learning/Slide134.JPG","null","","","","","",""
"html-keyboard-response","408","425281","0.0-7.0-2.53","LF","85gul0f7qh","1536","864","0","1","0","5e4ab1b4ca765d000edebd15","","null","","","learningBlock2","","","","<div style=""font-size:60px;""> </div>","null","LF","learning/Slide134.JPG","This is a dep:","","",""
"html-keyboard-response","409","426294","0.0-7.0-0.54","LF","85gul0f7qh","1536","864","0","1","0","5e4ab1b4ca765d000edebd15","","null","","","learningBlock2","","","","This is a tob:","null","","","","","",""
"image-keyboard-response","410","426634","0.0-7.0-1.54","LF","85gul0f7qh","1536","864","0","1","0","5e4ab1b4ca765d000edebd15","","null","","","","","","","learning/Slide135.JPG","null","","","","","",""
"html-keyboard-response","411","427643","0.0-7.0-2.54","LF","85gul0f7qh","1536","864","0","1","0","5e4ab1b4ca765d000edebd15","","null","","","learningBlock2","","","","<div style=""font-size:60px;""> </div>","null","LF","learning/Slide135.JPG","This is a tob:","","",""
"html-keyboard-response","412","428651","0.0-7.0-0.55","LF","85gul0f7qh","1536","864","0","1","0","5e4ab1b4ca765d000edebd15","","null","","","learningBlock2","","","","This is a wug:","null","","","","","",""
"image-keyboard-response","413","428991","0.0-7.0-1.55","LF","85gul0f7qh","1536","864","0","1","0","5e4ab1b4ca765d000edebd15","","null","","","","","","","learning/Slide136.JPG","null","","","","","",""
"html-keyboard-response","414","429997","0.0-7.0-2.55","LF","85gul0f7qh","1536","864","0","1","0","5e4ab1b4ca765d000edebd15","","null","","","learningBlock2","","","","<div style=""font-size:60px;""> </div>","null","LF","learning/Slide136.JPG","This is a wug:","","",""
"html-keyboard-response","415","431004","0.0-7.0-0.56","LF","85gul0f7qh","1536","864","0","1","0","5e4ab1b4ca765d000edebd15","","null","","","learningBlock2","","","","This is a tob:","null","","","","","",""
"image-keyboard-response","416","431346","0.0-7.0-1.56","LF","85gul0f7qh","1536","864","0","1","0","5e4ab1b4ca765d000edebd15","","null","","","","","","","learning/Slide137.JPG","null","","","","","",""
"html-keyboard-response","417","432356","0.0-7.0-2.56","LF","85gul0f7qh","1536","864","0","1","0","5e4ab1b4ca765d000edebd15","","null","","","learningBlock2","","","","<div style=""font-size:60px;""> </div>","null","LF","learning/Slide137.JPG","This is a tob:","","",""
"html-keyboard-response","418","433368","0.0-7.0-0.57","LF","85gul0f7qh","1536","864","0","1","0","5e4ab1b4ca765d000edebd15","","null","","","learningBlock2","","","","This is a bim:","null","","","","","",""
"image-keyboard-response","419","433707","0.0-7.0-1.57","LF","85gul0f7qh","1536","864","0","1","0","5e4ab1b4ca765d000edebd15","","null","","","","","","","learning/Slide138.JPG","null","","","","","",""
"html-keyboard-response","420","434715","0.0-7.0-2.57","LF","85gul0f7qh","1536","864","0","1","0","5e4ab1b4ca765d000edebd15","","null","","","learningBlock2","","","","<div style=""font-size:60px;""> </div>","null","LF","learning/Slide138.JPG","This is a bim:","","",""
"html-keyboard-response","421","435721","0.0-7.0-0.58","LF","85gul0f7qh","1536","864","0","1","0","5e4ab1b4ca765d000edebd15","","null","","","learningBlock2","","","","This is a wug:","null","","","","","",""
"image-keyboard-response","422","436061","0.0-7.0-1.58","LF","85gul0f7qh","1536","864","0","1","0","5e4ab1b4ca765d000edebd15","","null","","","","","","","learning/Slide139.JPG","null","","","","","",""
"html-keyboard-response","423","437068","0.0-7.0-2.58","LF","85gul0f7qh","1536","864","0","1","0","5e4ab1b4ca765d000edebd15","","null","","","learningBlock2","","","","<div style=""font-size:60px;""> </div>","null","LF","learning/Slide139.JPG","This is a wug:","","",""
"html-keyboard-response","424","438074","0.0-7.0-0.59","LF","85gul0f7qh","1536","864","0","1","0","5e4ab1b4ca765d000edebd15","","null","","","learningBlock2","","","","This is a dep:","null","","","","","",""
"image-keyboard-response","425","438416","0.0-7.0-1.59","LF","85gul0f7qh","1536","864","0","1","0","5e4ab1b4ca765d000edebd15","","null","","","","","","","learning/Slide140.JPG","null","","","","","",""
"html-keyboard-response","426","439425","0.0-7.0-2.59","LF","85gul0f7qh","1536","864","0","1","0","5e4ab1b4ca765d000edebd15","","null","","","learningBlock2","","","","<div style=""font-size:60px;""> </div>","null","LF","learning/Slide140.JPG","This is a dep:","","",""
"html-keyboard-response","427","440437","0.0-7.0-0.60","LF","85gul0f7qh","1536","864","0","1","0","5e4ab1b4ca765d000edebd15","","null","","","learningBlock2","","","","This is a tob:","null","","","","","",""
"image-keyboard-response","428","440780","0.0-7.0-1.60","LF","85gul0f7qh","1536","864","0","1","0","5e4ab1b4ca765d000edebd15","","null","","","","","","","learning/Slide141.JPG","null","","","","","",""
"html-keyboard-response","429","441783","0.0-7.0-2.60","LF","85gul0f7qh","1536","864","0","1","0","5e4ab1b4ca765d000edebd15","","null","","","learningBlock2","","","","<div style=""font-size:60px;""> </div>","null","LF","learning/Slide141.JPG","This is a tob:","","",""
"html-keyboard-response","430","442792","0.0-7.0-0.61","LF","85gul0f7qh","1536","864","0","1","0","5e4ab1b4ca765d000edebd15","","null","","","learningBlock2","","","","This is a wug:","null","","","","","",""
"image-keyboard-response","431","443133","0.0-7.0-1.61","LF","85gul0f7qh","1536","864","0","1","0","5e4ab1b4ca765d000edebd15","","null","","","","","","","learning/Slide142.JPG","null","","","","","",""
"html-keyboard-response","432","444140","0.0-7.0-2.61","LF","85gul0f7qh","1536","864","0","1","0","5e4ab1b4ca765d000edebd15","","null","","","learningBlock2","","","","<div style=""font-size:60px;""> </div>","null","LF","learning/Slide142.JPG","This is a wug:","","",""
"html-keyboard-response","433","445147","0.0-7.0-0.62","LF","85gul0f7qh","1536","864","0","1","0","5e4ab1b4ca765d000edebd15","","null","","","learningBlock2","","","","This is a bim:","null","","","","","",""
"image-keyboard-response","434","445489","0.0-7.0-1.62","LF","85gul0f7qh","1536","864","0","1","0","5e4ab1b4ca765d000edebd15","","null","","","","","","","learning/Slide143.JPG","null","","","","","",""
"html-keyboard-response","435","446496","0.0-7.0-2.62","LF","85gul0f7qh","1536","864","0","1","0","5e4ab1b4ca765d000edebd15","","null","","","learningBlock2","","","","<div style=""font-size:60px;""> </div>","null","LF","learning/Slide143.JPG","This is a bim:","","",""
"html-keyboard-response","436","447507","0.0-7.0-0.63","LF","85gul0f7qh","1536","864","0","1","0","5e4ab1b4ca765d000edebd15","","null","","","learningBlock2","","","","This is a dep:","null","","","","","",""
"image-keyboard-response","437","447849","0.0-7.0-1.63","LF","85gul0f7qh","1536","864","0","1","0","5e4ab1b4ca765d000edebd15","","null","","","","","","","learning/Slide144.JPG","null","","","","","",""
"html-keyboard-response","438","448857","0.0-7.0-2.63","LF","85gul0f7qh","1536","864","0","1","0","5e4ab1b4ca765d000edebd15","","null","","","learningBlock2","","","","<div style=""font-size:60px;""> </div>","null","LF","learning/Slide144.JPG","This is a dep:","","",""
