"trial_type","trial_index","time_elapsed","internal_node_id","condition","subject","screen_width","screen_height","attention","distraction","conscientious","prolificID","success","rt","url","view_history","test_part","final_height_px","final_width_px","scale_factor","stimulus","key_press","learningType","presentedImage","presentedLabel","button_pressed","response","responses"
"pavlovia","0","16","0.0-0.0","LF","qfloq0vkd1","1920","1080","0","1","0","5acb896da3ba7a0001b4e99f","","","","","","","","","","","","","","","",""
"fullscreen","1","15032","0.0-1.0","LF","qfloq0vkd1","1920","1080","0","1","0","5acb896da3ba7a0001b4e99f","true","","","","","","","","","","","","","","",""
"external-html","2","33462","0.0-2.0-0.0","LF","qfloq0vkd1","1920","1080","0","1","0","5acb896da3ba7a0001b4e99f","","18377.135000017006","text/information_english.html","","","","","","","","","","","","",""
"external-html","3","39806","0.0-2.0-1.0","LF","qfloq0vkd1","1920","1080","0","1","0","5acb896da3ba7a0001b4e99f","","6289.824999985285","text/consent_english.html","","","","","","","","","","","","",""
"instructions","4","63238","0.0-3.0","LF","qfloq0vkd1","1920","1080","0","1","0","5acb896da3ba7a0001b4e99f","","NA","","[{""page_index"":0,""viewing_time"":2014.8199999821372},{""page_index"":1,""viewing_time"":21415.485000004992}]","instructions","","","","","","","","","","",""
"resize","5","119694","0.0-4.0","LF","qfloq0vkd1","1920","1080","0","1","0","5acb896da3ba7a0001b4e99f","","","","","","","280","1.7777777777777777","","","","","","","",""
"html-keyboard-response","6","120697","0.0-5.0-0.0","LF","qfloq0vkd1","1920","1080","0","1","0","5acb896da3ba7a0001b4e99f","","null","","","learningBlock1","","","","This is a tob:","null","","","","","",""
"image-keyboard-response","7","121025","0.0-5.0-1.0","LF","qfloq0vkd1","1920","1080","0","1","0","5acb896da3ba7a0001b4e99f","","null","","","","","","","learning/Slide1.JPG","null","","","","","",""
"html-keyboard-response","8","122028","0.0-5.0-2.0","LF","qfloq0vkd1","1920","1080","0","1","0","5acb896da3ba7a0001b4e99f","","null","","","learningBlock1","","","","<div style=""font-size:60px;""> </div>","null","LF","learning/Slide1.JPG","This is a tob:","","",""
"html-keyboard-response","9","123029","0.0-5.0-0.1","LF","qfloq0vkd1","1920","1080","0","1","0","5acb896da3ba7a0001b4e99f","","null","","","learningBlock1","","","","This is a wug:","null","","","","","",""
"image-keyboard-response","10","123357","0.0-5.0-1.1","LF","qfloq0vkd1","1920","1080","0","1","0","5acb896da3ba7a0001b4e99f","","null","","","","","","","learning/Slide2.JPG","null","","","","","",""
"html-keyboard-response","11","124359","0.0-5.0-2.1","LF","qfloq0vkd1","1920","1080","0","1","0","5acb896da3ba7a0001b4e99f","","null","","","learningBlock1","","","","<div style=""font-size:60px;""> </div>","null","LF","learning/Slide2.JPG","This is a wug:","","",""
"html-keyboard-response","12","125362","0.0-5.0-0.2","LF","qfloq0vkd1","1920","1080","0","1","0","5acb896da3ba7a0001b4e99f","","null","","","learningBlock1","","","","This is a bim:","null","","","","","",""
"image-keyboard-response","13","125689","0.0-5.0-1.2","LF","qfloq0vkd1","1920","1080","0","1","0","5acb896da3ba7a0001b4e99f","","null","","","","","","","learning/Slide3.JPG","null","","","","","",""
"html-keyboard-response","14","126691","0.0-5.0-2.2","LF","qfloq0vkd1","1920","1080","0","1","0","5acb896da3ba7a0001b4e99f","","null","","","learningBlock1","","","","<div style=""font-size:60px;""> </div>","null","LF","learning/Slide3.JPG","This is a bim:","","",""
"html-keyboard-response","15","127692","0.0-5.0-0.3","LF","qfloq0vkd1","1920","1080","0","1","0","5acb896da3ba7a0001b4e99f","","null","","","learningBlock1","","","","This is a dep:","null","","","","","",""
"image-keyboard-response","16","128019","0.0-5.0-1.3","LF","qfloq0vkd1","1920","1080","0","1","0","5acb896da3ba7a0001b4e99f","","null","","","","","","","learning/Slide4.JPG","null","","","","","",""
"html-keyboard-response","17","129020","0.0-5.0-2.3","LF","qfloq0vkd1","1920","1080","0","1","0","5acb896da3ba7a0001b4e99f","","null","","","learningBlock1","","","","<div style=""font-size:60px;""> </div>","null","LF","learning/Slide4.JPG","This is a dep:","","",""
"html-keyboard-response","18","130022","0.0-5.0-0.4","LF","qfloq0vkd1","1920","1080","0","1","0","5acb896da3ba7a0001b4e99f","","null","","","learningBlock1","","","","This is a wug:","null","","","","","",""
"image-keyboard-response","19","130350","0.0-5.0-1.4","LF","qfloq0vkd1","1920","1080","0","1","0","5acb896da3ba7a0001b4e99f","","null","","","","","","","learning/Slide5.JPG","null","","","","","",""
"html-keyboard-response","20","131352","0.0-5.0-2.4","LF","qfloq0vkd1","1920","1080","0","1","0","5acb896da3ba7a0001b4e99f","","null","","","learningBlock1","","","","<div style=""font-size:60px;""> </div>","null","LF","learning/Slide5.JPG","This is a wug:","","",""
"html-keyboard-response","21","132354","0.0-5.0-0.5","LF","qfloq0vkd1","1920","1080","0","1","0","5acb896da3ba7a0001b4e99f","","null","","","learningBlock1","","","","This is a dep:","null","","","","","",""
"image-keyboard-response","22","132682","0.0-5.0-1.5","LF","qfloq0vkd1","1920","1080","0","1","0","5acb896da3ba7a0001b4e99f","","null","","","","","","","learning/Slide6.JPG","null","","","","","",""
"html-keyboard-response","23","133683","0.0-5.0-2.5","LF","qfloq0vkd1","1920","1080","0","1","0","5acb896da3ba7a0001b4e99f","","null","","","learningBlock1","","","","<div style=""font-size:60px;""> </div>","null","LF","learning/Slide6.JPG","This is a dep:","","",""
"html-keyboard-response","24","134685","0.0-5.0-0.6","LF","qfloq0vkd1","1920","1080","0","1","0","5acb896da3ba7a0001b4e99f","","null","","","learningBlock1","","","","This is a wug:","null","","","","","",""
"image-keyboard-response","25","135013","0.0-5.0-1.6","LF","qfloq0vkd1","1920","1080","0","1","0","5acb896da3ba7a0001b4e99f","","null","","","","","","","learning/Slide7.JPG","null","","","","","",""
"html-keyboard-response","26","136014","0.0-5.0-2.6","LF","qfloq0vkd1","1920","1080","0","1","0","5acb896da3ba7a0001b4e99f","","null","","","learningBlock1","","","","<div style=""font-size:60px;""> </div>","null","LF","learning/Slide7.JPG","This is a wug:","","",""
"html-keyboard-response","27","137015","0.0-5.0-0.7","LF","qfloq0vkd1","1920","1080","0","1","0","5acb896da3ba7a0001b4e99f","","null","","","learningBlock1","","","","This is a bim:","null","","","","","",""
"image-keyboard-response","28","137344","0.0-5.0-1.7","LF","qfloq0vkd1","1920","1080","0","1","0","5acb896da3ba7a0001b4e99f","","null","","","","","","","learning/Slide8.JPG","null","","","","","",""
"html-keyboard-response","29","138347","0.0-5.0-2.7","LF","qfloq0vkd1","1920","1080","0","1","0","5acb896da3ba7a0001b4e99f","","null","","","learningBlock1","","","","<div style=""font-size:60px;""> </div>","null","LF","learning/Slide8.JPG","This is a bim:","","",""
"html-keyboard-response","30","139348","0.0-5.0-0.8","LF","qfloq0vkd1","1920","1080","0","1","0","5acb896da3ba7a0001b4e99f","","null","","","learningBlock1","","","","This is a wug:","null","","","","","",""
"image-keyboard-response","31","139675","0.0-5.0-1.8","LF","qfloq0vkd1","1920","1080","0","1","0","5acb896da3ba7a0001b4e99f","","null","","","","","","","learning/Slide9.JPG","null","","","","","",""
"html-keyboard-response","32","140677","0.0-5.0-2.8","LF","qfloq0vkd1","1920","1080","0","1","0","5acb896da3ba7a0001b4e99f","","null","","","learningBlock1","","","","<div style=""font-size:60px;""> </div>","null","LF","learning/Slide9.JPG","This is a wug:","","",""
"html-keyboard-response","33","141679","0.0-5.0-0.9","LF","qfloq0vkd1","1920","1080","0","1","0","5acb896da3ba7a0001b4e99f","","null","","","learningBlock1","","","","This is a dep:","null","","","","","",""
"image-keyboard-response","34","142006","0.0-5.0-1.9","LF","qfloq0vkd1","1920","1080","0","1","0","5acb896da3ba7a0001b4e99f","","null","","","","","","","learning/Slide10.JPG","null","","","","","",""
"html-keyboard-response","35","143008","0.0-5.0-2.9","LF","qfloq0vkd1","1920","1080","0","1","0","5acb896da3ba7a0001b4e99f","","null","","","learningBlock1","","","","<div style=""font-size:60px;""> </div>","null","LF","learning/Slide10.JPG","This is a dep:","","",""
"html-keyboard-response","36","144009","0.0-5.0-0.10","LF","qfloq0vkd1","1920","1080","0","1","0","5acb896da3ba7a0001b4e99f","","null","","","learningBlock1","","","","This is a tob:","null","","","","","",""
"image-keyboard-response","37","144337","0.0-5.0-1.10","LF","qfloq0vkd1","1920","1080","0","1","0","5acb896da3ba7a0001b4e99f","","null","","","","","","","learning/Slide11.JPG","null","","","","","",""
"html-keyboard-response","38","145339","0.0-5.0-2.10","LF","qfloq0vkd1","1920","1080","0","1","0","5acb896da3ba7a0001b4e99f","","null","","","learningBlock1","","","","<div style=""font-size:60px;""> </div>","null","LF","learning/Slide11.JPG","This is a tob:","","",""
"html-keyboard-response","39","146342","0.0-5.0-0.11","LF","qfloq0vkd1","1920","1080","0","1","0","5acb896da3ba7a0001b4e99f","","null","","","learningBlock1","","","","This is a dep:","null","","","","","",""
"image-keyboard-response","40","146670","0.0-5.0-1.11","LF","qfloq0vkd1","1920","1080","0","1","0","5acb896da3ba7a0001b4e99f","","null","","","","","","","learning/Slide12.JPG","null","","","","","",""
"html-keyboard-response","41","147672","0.0-5.0-2.11","LF","qfloq0vkd1","1920","1080","0","1","0","5acb896da3ba7a0001b4e99f","","null","","","learningBlock1","","","","<div style=""font-size:60px;""> </div>","null","LF","learning/Slide12.JPG","This is a dep:","","",""
"html-keyboard-response","42","148673","0.0-5.0-0.12","LF","qfloq0vkd1","1920","1080","0","1","0","5acb896da3ba7a0001b4e99f","","null","","","learningBlock1","","","","This is a bim:","null","","","","","",""
"image-keyboard-response","43","149001","0.0-5.0-1.12","LF","qfloq0vkd1","1920","1080","0","1","0","5acb896da3ba7a0001b4e99f","","null","","","","","","","learning/Slide13.JPG","null","","","","","",""
"html-keyboard-response","44","150003","0.0-5.0-2.12","LF","qfloq0vkd1","1920","1080","0","1","0","5acb896da3ba7a0001b4e99f","","null","","","learningBlock1","","","","<div style=""font-size:60px;""> </div>","null","LF","learning/Slide13.JPG","This is a bim:","","",""
"html-keyboard-response","45","151005","0.0-5.0-0.13","LF","qfloq0vkd1","1920","1080","0","1","0","5acb896da3ba7a0001b4e99f","","null","","","learningBlock1","","","","This is a wug:","null","","","","","",""
"image-keyboard-response","46","151333","0.0-5.0-1.13","LF","qfloq0vkd1","1920","1080","0","1","0","5acb896da3ba7a0001b4e99f","","null","","","","","","","learning/Slide14.JPG","null","","","","","",""
"html-keyboard-response","47","152335","0.0-5.0-2.13","LF","qfloq0vkd1","1920","1080","0","1","0","5acb896da3ba7a0001b4e99f","","null","","","learningBlock1","","","","<div style=""font-size:60px;""> </div>","null","LF","learning/Slide14.JPG","This is a wug:","","",""
"html-keyboard-response","48","153336","0.0-5.0-0.14","LF","qfloq0vkd1","1920","1080","0","1","0","5acb896da3ba7a0001b4e99f","","null","","","learningBlock1","","","","This is a tob:","null","","","","","",""
"image-keyboard-response","49","153664","0.0-5.0-1.14","LF","qfloq0vkd1","1920","1080","0","1","0","5acb896da3ba7a0001b4e99f","","null","","","","","","","learning/Slide15.JPG","null","","","","","",""
"html-keyboard-response","50","154666","0.0-5.0-2.14","LF","qfloq0vkd1","1920","1080","0","1","0","5acb896da3ba7a0001b4e99f","","null","","","learningBlock1","","","","<div style=""font-size:60px;""> </div>","null","LF","learning/Slide15.JPG","This is a tob:","","",""
"html-keyboard-response","51","155667","0.0-5.0-0.15","LF","qfloq0vkd1","1920","1080","0","1","0","5acb896da3ba7a0001b4e99f","","null","","","learningBlock1","","","","This is a dep:","null","","","","","",""
"image-keyboard-response","52","155995","0.0-5.0-1.15","LF","qfloq0vkd1","1920","1080","0","1","0","5acb896da3ba7a0001b4e99f","","null","","","","","","","learning/Slide16.JPG","null","","","","","",""
"html-keyboard-response","53","156996","0.0-5.0-2.15","LF","qfloq0vkd1","1920","1080","0","1","0","5acb896da3ba7a0001b4e99f","","null","","","learningBlock1","","","","<div style=""font-size:60px;""> </div>","null","LF","learning/Slide16.JPG","This is a dep:","","",""
"html-keyboard-response","54","157998","0.0-5.0-0.16","LF","qfloq0vkd1","1920","1080","0","1","0","5acb896da3ba7a0001b4e99f","","null","","","learningBlock1","","","","This is a bim:","null","","","","","",""
"image-keyboard-response","55","158326","0.0-5.0-1.16","LF","qfloq0vkd1","1920","1080","0","1","0","5acb896da3ba7a0001b4e99f","","null","","","","","","","learning/Slide17.JPG","null","","","","","",""
"html-keyboard-response","56","159329","0.0-5.0-2.16","LF","qfloq0vkd1","1920","1080","0","1","0","5acb896da3ba7a0001b4e99f","","null","","","learningBlock1","","","","<div style=""font-size:60px;""> </div>","null","LF","learning/Slide17.JPG","This is a bim:","","",""
"html-keyboard-response","57","160330","0.0-5.0-0.17","LF","qfloq0vkd1","1920","1080","0","1","0","5acb896da3ba7a0001b4e99f","","null","","","learningBlock1","","","","This is a tob:","null","","","","","",""
"image-keyboard-response","58","160657","0.0-5.0-1.17","LF","qfloq0vkd1","1920","1080","0","1","0","5acb896da3ba7a0001b4e99f","","null","","","","","","","learning/Slide18.JPG","null","","","","","",""
"html-keyboard-response","59","161658","0.0-5.0-2.17","LF","qfloq0vkd1","1920","1080","0","1","0","5acb896da3ba7a0001b4e99f","","null","","","learningBlock1","","","","<div style=""font-size:60px;""> </div>","null","LF","learning/Slide18.JPG","This is a tob:","","",""
"html-keyboard-response","60","162660","0.0-5.0-0.18","LF","qfloq0vkd1","1920","1080","0","1","0","5acb896da3ba7a0001b4e99f","","null","","","learningBlock1","","","","This is a wug:","null","","","","","",""
"image-keyboard-response","61","162988","0.0-5.0-1.18","LF","qfloq0vkd1","1920","1080","0","1","0","5acb896da3ba7a0001b4e99f","","null","","","","","","","learning/Slide19.JPG","null","","","","","",""
"html-keyboard-response","62","163990","0.0-5.0-2.18","LF","qfloq0vkd1","1920","1080","0","1","0","5acb896da3ba7a0001b4e99f","","null","","","learningBlock1","","","","<div style=""font-size:60px;""> </div>","null","LF","learning/Slide19.JPG","This is a wug:","","",""
"html-keyboard-response","63","164991","0.0-5.0-0.19","LF","qfloq0vkd1","1920","1080","0","1","0","5acb896da3ba7a0001b4e99f","","null","","","learningBlock1","","","","This is a bim:","null","","","","","",""
"image-keyboard-response","64","165319","0.0-5.0-1.19","LF","qfloq0vkd1","1920","1080","0","1","0","5acb896da3ba7a0001b4e99f","","null","","","","","","","learning/Slide20.JPG","null","","","","","",""
"html-keyboard-response","65","166321","0.0-5.0-2.19","LF","qfloq0vkd1","1920","1080","0","1","0","5acb896da3ba7a0001b4e99f","","null","","","learningBlock1","","","","<div style=""font-size:60px;""> </div>","null","LF","learning/Slide20.JPG","This is a bim:","","",""
"html-keyboard-response","66","167324","0.0-5.0-0.20","LF","qfloq0vkd1","1920","1080","0","1","0","5acb896da3ba7a0001b4e99f","","null","","","learningBlock1","","","","This is a dep:","null","","","","","",""
"image-keyboard-response","67","167652","0.0-5.0-1.20","LF","qfloq0vkd1","1920","1080","0","1","0","5acb896da3ba7a0001b4e99f","","null","","","","","","","learning/Slide21.JPG","null","","","","","",""
"html-keyboard-response","68","168653","0.0-5.0-2.20","LF","qfloq0vkd1","1920","1080","0","1","0","5acb896da3ba7a0001b4e99f","","null","","","learningBlock1","","","","<div style=""font-size:60px;""> </div>","null","LF","learning/Slide21.JPG","This is a dep:","","",""
"html-keyboard-response","69","169656","0.0-5.0-0.21","LF","qfloq0vkd1","1920","1080","0","1","0","5acb896da3ba7a0001b4e99f","","null","","","learningBlock1","","","","This is a bim:","null","","","","","",""
"image-keyboard-response","70","169985","0.0-5.0-1.21","LF","qfloq0vkd1","1920","1080","0","1","0","5acb896da3ba7a0001b4e99f","","null","","","","","","","learning/Slide22.JPG","null","","","","","",""
"html-keyboard-response","71","170986","0.0-5.0-2.21","LF","qfloq0vkd1","1920","1080","0","1","0","5acb896da3ba7a0001b4e99f","","null","","","learningBlock1","","","","<div style=""font-size:60px;""> </div>","null","LF","learning/Slide22.JPG","This is a bim:","","",""
"html-keyboard-response","72","171988","0.0-5.0-0.22","LF","qfloq0vkd1","1920","1080","0","1","0","5acb896da3ba7a0001b4e99f","","null","","","learningBlock1","","","","This is a tob:","null","","","","","",""
"image-keyboard-response","73","172316","0.0-5.0-1.22","LF","qfloq0vkd1","1920","1080","0","1","0","5acb896da3ba7a0001b4e99f","","null","","","","","","","learning/Slide23.JPG","null","","","","","",""
"html-keyboard-response","74","173318","0.0-5.0-2.22","LF","qfloq0vkd1","1920","1080","0","1","0","5acb896da3ba7a0001b4e99f","","null","","","learningBlock1","","","","<div style=""font-size:60px;""> </div>","null","LF","learning/Slide23.JPG","This is a tob:","","",""
"html-keyboard-response","75","174319","0.0-5.0-0.23","LF","qfloq0vkd1","1920","1080","0","1","0","5acb896da3ba7a0001b4e99f","","null","","","learningBlock1","","","","This is a wug:","null","","","","","",""
"image-keyboard-response","76","174648","0.0-5.0-1.23","LF","qfloq0vkd1","1920","1080","0","1","0","5acb896da3ba7a0001b4e99f","","null","","","","","","","learning/Slide24.JPG","null","","","","","",""
"html-keyboard-response","77","175649","0.0-5.0-2.23","LF","qfloq0vkd1","1920","1080","0","1","0","5acb896da3ba7a0001b4e99f","","null","","","learningBlock1","","","","<div style=""font-size:60px;""> </div>","null","LF","learning/Slide24.JPG","This is a wug:","","",""
"html-keyboard-response","78","176651","0.0-5.0-0.24","LF","qfloq0vkd1","1920","1080","0","1","0","5acb896da3ba7a0001b4e99f","","null","","","learningBlock1","","","","This is a dep:","null","","","","","",""
"image-keyboard-response","79","176978","0.0-5.0-1.24","LF","qfloq0vkd1","1920","1080","0","1","0","5acb896da3ba7a0001b4e99f","","null","","","","","","","learning/Slide25.JPG","null","","","","","",""
"html-keyboard-response","80","177979","0.0-5.0-2.24","LF","qfloq0vkd1","1920","1080","0","1","0","5acb896da3ba7a0001b4e99f","","null","","","learningBlock1","","","","<div style=""font-size:60px;""> </div>","null","LF","learning/Slide25.JPG","This is a dep:","","",""
"html-keyboard-response","81","178980","0.0-5.0-0.25","LF","qfloq0vkd1","1920","1080","0","1","0","5acb896da3ba7a0001b4e99f","","null","","","learningBlock1","","","","This is a wug:","null","","","","","",""
"image-keyboard-response","82","179309","0.0-5.0-1.25","LF","qfloq0vkd1","1920","1080","0","1","0","5acb896da3ba7a0001b4e99f","","null","","","","","","","learning/Slide26.JPG","null","","","","","",""
"html-keyboard-response","83","180311","0.0-5.0-2.25","LF","qfloq0vkd1","1920","1080","0","1","0","5acb896da3ba7a0001b4e99f","","null","","","learningBlock1","","","","<div style=""font-size:60px;""> </div>","null","LF","learning/Slide26.JPG","This is a wug:","","",""
"html-keyboard-response","84","181312","0.0-5.0-0.26","LF","qfloq0vkd1","1920","1080","0","1","0","5acb896da3ba7a0001b4e99f","","null","","","learningBlock1","","","","This is a bim:","null","","","","","",""
"image-keyboard-response","85","181639","0.0-5.0-1.26","LF","qfloq0vkd1","1920","1080","0","1","0","5acb896da3ba7a0001b4e99f","","null","","","","","","","learning/Slide27.JPG","null","","","","","",""
"html-keyboard-response","86","182640","0.0-5.0-2.26","LF","qfloq0vkd1","1920","1080","0","1","0","5acb896da3ba7a0001b4e99f","","null","","","learningBlock1","","","","<div style=""font-size:60px;""> </div>","null","LF","learning/Slide27.JPG","This is a bim:","","",""
"html-keyboard-response","87","183642","0.0-5.0-0.27","LF","qfloq0vkd1","1920","1080","0","1","0","5acb896da3ba7a0001b4e99f","","null","","","learningBlock1","","","","This is a dep:","null","","","","","",""
"image-keyboard-response","88","183970","0.0-5.0-1.27","LF","qfloq0vkd1","1920","1080","0","1","0","5acb896da3ba7a0001b4e99f","","null","","","","","","","learning/Slide28.JPG","null","","","","","",""
"html-keyboard-response","89","184972","0.0-5.0-2.27","LF","qfloq0vkd1","1920","1080","0","1","0","5acb896da3ba7a0001b4e99f","","null","","","learningBlock1","","","","<div style=""font-size:60px;""> </div>","null","LF","learning/Slide28.JPG","This is a dep:","","",""
"html-keyboard-response","90","185973","0.0-5.0-0.28","LF","qfloq0vkd1","1920","1080","0","1","0","5acb896da3ba7a0001b4e99f","","null","","","learningBlock1","","","","This is a tob:","null","","","","","",""
"image-keyboard-response","91","186301","0.0-5.0-1.28","LF","qfloq0vkd1","1920","1080","0","1","0","5acb896da3ba7a0001b4e99f","","null","","","","","","","learning/Slide29.JPG","null","","","","","",""
"html-keyboard-response","92","187303","0.0-5.0-2.28","LF","qfloq0vkd1","1920","1080","0","1","0","5acb896da3ba7a0001b4e99f","","null","","","learningBlock1","","","","<div style=""font-size:60px;""> </div>","null","LF","learning/Slide29.JPG","This is a tob:","","",""
"html-keyboard-response","93","188306","0.0-5.0-0.29","LF","qfloq0vkd1","1920","1080","0","1","0","5acb896da3ba7a0001b4e99f","","null","","","learningBlock1","","","","This is a dep:","null","","","","","",""
"image-keyboard-response","94","188633","0.0-5.0-1.29","LF","qfloq0vkd1","1920","1080","0","1","0","5acb896da3ba7a0001b4e99f","","null","","","","","","","learning/Slide30.JPG","null","","","","","",""
"html-keyboard-response","95","189635","0.0-5.0-2.29","LF","qfloq0vkd1","1920","1080","0","1","0","5acb896da3ba7a0001b4e99f","","null","","","learningBlock1","","","","<div style=""font-size:60px;""> </div>","null","LF","learning/Slide30.JPG","This is a dep:","","",""
"html-keyboard-response","96","190636","0.0-5.0-0.30","LF","qfloq0vkd1","1920","1080","0","1","0","5acb896da3ba7a0001b4e99f","","null","","","learningBlock1","","","","This is a wug:","null","","","","","",""
"image-keyboard-response","97","190963","0.0-5.0-1.30","LF","qfloq0vkd1","1920","1080","0","1","0","5acb896da3ba7a0001b4e99f","","null","","","","","","","learning/Slide31.JPG","null","","","","","",""
"html-keyboard-response","98","191965","0.0-5.0-2.30","LF","qfloq0vkd1","1920","1080","0","1","0","5acb896da3ba7a0001b4e99f","","null","","","learningBlock1","","","","<div style=""font-size:60px;""> </div>","null","LF","learning/Slide31.JPG","This is a wug:","","",""
"html-keyboard-response","99","192966","0.0-5.0-0.31","LF","qfloq0vkd1","1920","1080","0","1","0","5acb896da3ba7a0001b4e99f","","null","","","learningBlock1","","","","This is a tob:","null","","","","","",""
"image-keyboard-response","100","193294","0.0-5.0-1.31","LF","qfloq0vkd1","1920","1080","0","1","0","5acb896da3ba7a0001b4e99f","","null","","","","","","","learning/Slide32.JPG","null","","","","","",""
"html-keyboard-response","101","194296","0.0-5.0-2.31","LF","qfloq0vkd1","1920","1080","0","1","0","5acb896da3ba7a0001b4e99f","","null","","","learningBlock1","","","","<div style=""font-size:60px;""> </div>","null","LF","learning/Slide32.JPG","This is a tob:","","",""
"html-keyboard-response","102","195299","0.0-5.0-0.32","LF","qfloq0vkd1","1920","1080","0","1","0","5acb896da3ba7a0001b4e99f","","null","","","learningBlock1","","","","This is a bim:","null","","","","","",""
"image-keyboard-response","103","195627","0.0-5.0-1.32","LF","qfloq0vkd1","1920","1080","0","1","0","5acb896da3ba7a0001b4e99f","","null","","","","","","","learning/Slide33.JPG","null","","","","","",""
"html-keyboard-response","104","196629","0.0-5.0-2.32","LF","qfloq0vkd1","1920","1080","0","1","0","5acb896da3ba7a0001b4e99f","","null","","","learningBlock1","","","","<div style=""font-size:60px;""> </div>","null","LF","learning/Slide33.JPG","This is a bim:","","",""
"html-keyboard-response","105","197630","0.0-5.0-0.33","LF","qfloq0vkd1","1920","1080","0","1","0","5acb896da3ba7a0001b4e99f","","null","","","learningBlock1","","","","This is a tob:","null","","","","","",""
"image-keyboard-response","106","197958","0.0-5.0-1.33","LF","qfloq0vkd1","1920","1080","0","1","0","5acb896da3ba7a0001b4e99f","","null","","","","","","","learning/Slide34.JPG","null","","","","","",""
"html-keyboard-response","107","198959","0.0-5.0-2.33","LF","qfloq0vkd1","1920","1080","0","1","0","5acb896da3ba7a0001b4e99f","","null","","","learningBlock1","","","","<div style=""font-size:60px;""> </div>","null","LF","learning/Slide34.JPG","This is a tob:","","",""
"html-keyboard-response","108","199961","0.0-5.0-0.34","LF","qfloq0vkd1","1920","1080","0","1","0","5acb896da3ba7a0001b4e99f","","null","","","learningBlock1","","","","This is a bim:","null","","","","","",""
"image-keyboard-response","109","200288","0.0-5.0-1.34","LF","qfloq0vkd1","1920","1080","0","1","0","5acb896da3ba7a0001b4e99f","","null","","","","","","","learning/Slide35.JPG","null","","","","","",""
"html-keyboard-response","110","201290","0.0-5.0-2.34","LF","qfloq0vkd1","1920","1080","0","1","0","5acb896da3ba7a0001b4e99f","","null","","","learningBlock1","","","","<div style=""font-size:60px;""> </div>","null","LF","learning/Slide35.JPG","This is a bim:","","",""
"html-keyboard-response","111","202291","0.0-5.0-0.35","LF","qfloq0vkd1","1920","1080","0","1","0","5acb896da3ba7a0001b4e99f","","null","","","learningBlock1","","","","This is a dep:","null","","","","","",""
"image-keyboard-response","112","202618","0.0-5.0-1.35","LF","qfloq0vkd1","1920","1080","0","1","0","5acb896da3ba7a0001b4e99f","","null","","","","","","","learning/Slide36.JPG","null","","","","","",""
"html-keyboard-response","113","203620","0.0-5.0-2.35","LF","qfloq0vkd1","1920","1080","0","1","0","5acb896da3ba7a0001b4e99f","","null","","","learningBlock1","","","","<div style=""font-size:60px;""> </div>","null","LF","learning/Slide36.JPG","This is a dep:","","",""
"html-keyboard-response","114","204622","0.0-5.0-0.36","LF","qfloq0vkd1","1920","1080","0","1","0","5acb896da3ba7a0001b4e99f","","null","","","learningBlock1","","","","This is a tob:","null","","","","","",""
"image-keyboard-response","115","204949","0.0-5.0-1.36","LF","qfloq0vkd1","1920","1080","0","1","0","5acb896da3ba7a0001b4e99f","","null","","","","","","","learning/Slide37.JPG","null","","","","","",""
"html-keyboard-response","116","205951","0.0-5.0-2.36","LF","qfloq0vkd1","1920","1080","0","1","0","5acb896da3ba7a0001b4e99f","","null","","","learningBlock1","","","","<div style=""font-size:60px;""> </div>","null","LF","learning/Slide37.JPG","This is a tob:","","",""
"html-keyboard-response","117","206952","0.0-5.0-0.37","LF","qfloq0vkd1","1920","1080","0","1","0","5acb896da3ba7a0001b4e99f","","null","","","learningBlock1","","","","This is a wug:","null","","","","","",""
"image-keyboard-response","118","207279","0.0-5.0-1.37","LF","qfloq0vkd1","1920","1080","0","1","0","5acb896da3ba7a0001b4e99f","","null","","","","","","","learning/Slide38.JPG","null","","","","","",""
"html-keyboard-response","119","208281","0.0-5.0-2.37","LF","qfloq0vkd1","1920","1080","0","1","0","5acb896da3ba7a0001b4e99f","","null","","","learningBlock1","","","","<div style=""font-size:60px;""> </div>","null","LF","learning/Slide38.JPG","This is a wug:","","",""
"html-keyboard-response","120","209283","0.0-5.0-0.38","LF","qfloq0vkd1","1920","1080","0","1","0","5acb896da3ba7a0001b4e99f","","null","","","learningBlock1","","","","This is a bim:","null","","","","","",""
"image-keyboard-response","121","209612","0.0-5.0-1.38","LF","qfloq0vkd1","1920","1080","0","1","0","5acb896da3ba7a0001b4e99f","","null","","","","","","","learning/Slide39.JPG","null","","","","","",""
"html-keyboard-response","122","210614","0.0-5.0-2.38","LF","qfloq0vkd1","1920","1080","0","1","0","5acb896da3ba7a0001b4e99f","","null","","","learningBlock1","","","","<div style=""font-size:60px;""> </div>","null","LF","learning/Slide39.JPG","This is a bim:","","",""
"html-keyboard-response","123","211615","0.0-5.0-0.39","LF","qfloq0vkd1","1920","1080","0","1","0","5acb896da3ba7a0001b4e99f","","null","","","learningBlock1","","","","This is a tob:","null","","","","","",""
"image-keyboard-response","124","211943","0.0-5.0-1.39","LF","qfloq0vkd1","1920","1080","0","1","0","5acb896da3ba7a0001b4e99f","","null","","","","","","","learning/Slide40.JPG","null","","","","","",""
"html-keyboard-response","125","212945","0.0-5.0-2.39","LF","qfloq0vkd1","1920","1080","0","1","0","5acb896da3ba7a0001b4e99f","","null","","","learningBlock1","","","","<div style=""font-size:60px;""> </div>","null","LF","learning/Slide40.JPG","This is a tob:","","",""
"html-keyboard-response","126","213948","0.0-5.0-0.40","LF","qfloq0vkd1","1920","1080","0","1","0","5acb896da3ba7a0001b4e99f","","null","","","learningBlock1","","","","This is a bim:","null","","","","","",""
"image-keyboard-response","127","214277","0.0-5.0-1.40","LF","qfloq0vkd1","1920","1080","0","1","0","5acb896da3ba7a0001b4e99f","","null","","","","","","","learning/Slide41.JPG","null","","","","","",""
"html-keyboard-response","128","215278","0.0-5.0-2.40","LF","qfloq0vkd1","1920","1080","0","1","0","5acb896da3ba7a0001b4e99f","","null","","","learningBlock1","","","","<div style=""font-size:60px;""> </div>","null","LF","learning/Slide41.JPG","This is a bim:","","",""
"html-keyboard-response","129","216280","0.0-5.0-0.41","LF","qfloq0vkd1","1920","1080","0","1","0","5acb896da3ba7a0001b4e99f","","null","","","learningBlock1","","","","This is a dep:","null","","","","","",""
"image-keyboard-response","130","216608","0.0-5.0-1.41","LF","qfloq0vkd1","1920","1080","0","1","0","5acb896da3ba7a0001b4e99f","","null","","","","","","","learning/Slide42.JPG","null","","","","","",""
"html-keyboard-response","131","217611","0.0-5.0-2.41","LF","qfloq0vkd1","1920","1080","0","1","0","5acb896da3ba7a0001b4e99f","","null","","","learningBlock1","","","","<div style=""font-size:60px;""> </div>","null","LF","learning/Slide42.JPG","This is a dep:","","",""
"html-keyboard-response","132","218612","0.0-5.0-0.42","LF","qfloq0vkd1","1920","1080","0","1","0","5acb896da3ba7a0001b4e99f","","null","","","learningBlock1","","","","This is a wug:","null","","","","","",""
"image-keyboard-response","133","218940","0.0-5.0-1.42","LF","qfloq0vkd1","1920","1080","0","1","0","5acb896da3ba7a0001b4e99f","","null","","","","","","","learning/Slide43.JPG","null","","","","","",""
"html-keyboard-response","134","219941","0.0-5.0-2.42","LF","qfloq0vkd1","1920","1080","0","1","0","5acb896da3ba7a0001b4e99f","","null","","","learningBlock1","","","","<div style=""font-size:60px;""> </div>","null","LF","learning/Slide43.JPG","This is a wug:","","",""
"html-keyboard-response","135","220943","0.0-5.0-0.43","LF","qfloq0vkd1","1920","1080","0","1","0","5acb896da3ba7a0001b4e99f","","null","","","learningBlock1","","","","This is a bim:","null","","","","","",""
"image-keyboard-response","136","221270","0.0-5.0-1.43","LF","qfloq0vkd1","1920","1080","0","1","0","5acb896da3ba7a0001b4e99f","","null","","","","","","","learning/Slide44.JPG","null","","","","","",""
"html-keyboard-response","137","222272","0.0-5.0-2.43","LF","qfloq0vkd1","1920","1080","0","1","0","5acb896da3ba7a0001b4e99f","","null","","","learningBlock1","","","","<div style=""font-size:60px;""> </div>","null","LF","learning/Slide44.JPG","This is a bim:","","",""
"html-keyboard-response","138","223273","0.0-5.0-0.44","LF","qfloq0vkd1","1920","1080","0","1","0","5acb896da3ba7a0001b4e99f","","null","","","learningBlock1","","","","This is a wug:","null","","","","","",""
"image-keyboard-response","139","223601","0.0-5.0-1.44","LF","qfloq0vkd1","1920","1080","0","1","0","5acb896da3ba7a0001b4e99f","","null","","","","","","","learning/Slide45.JPG","null","","","","","",""
"html-keyboard-response","140","224602","0.0-5.0-2.44","LF","qfloq0vkd1","1920","1080","0","1","0","5acb896da3ba7a0001b4e99f","","null","","","learningBlock1","","","","<div style=""font-size:60px;""> </div>","null","LF","learning/Slide45.JPG","This is a wug:","","",""
"html-keyboard-response","141","225604","0.0-5.0-0.45","LF","qfloq0vkd1","1920","1080","0","1","0","5acb896da3ba7a0001b4e99f","","null","","","learningBlock1","","","","This is a dep:","null","","","","","",""
"image-keyboard-response","142","225933","0.0-5.0-1.45","LF","qfloq0vkd1","1920","1080","0","1","0","5acb896da3ba7a0001b4e99f","","null","","","","","","","learning/Slide46.JPG","null","","","","","",""
"html-keyboard-response","143","226934","0.0-5.0-2.45","LF","qfloq0vkd1","1920","1080","0","1","0","5acb896da3ba7a0001b4e99f","","null","","","learningBlock1","","","","<div style=""font-size:60px;""> </div>","null","LF","learning/Slide46.JPG","This is a dep:","","",""
"html-keyboard-response","144","227935","0.0-5.0-0.46","LF","qfloq0vkd1","1920","1080","0","1","0","5acb896da3ba7a0001b4e99f","","null","","","learningBlock1","","","","This is a tob:","null","","","","","",""
"image-keyboard-response","145","228262","0.0-5.0-1.46","LF","qfloq0vkd1","1920","1080","0","1","0","5acb896da3ba7a0001b4e99f","","null","","","","","","","learning/Slide47.JPG","null","","","","","",""
"html-keyboard-response","146","229264","0.0-5.0-2.46","LF","qfloq0vkd1","1920","1080","0","1","0","5acb896da3ba7a0001b4e99f","","null","","","learningBlock1","","","","<div style=""font-size:60px;""> </div>","null","LF","learning/Slide47.JPG","This is a tob:","","",""
"html-keyboard-response","147","230265","0.0-5.0-0.47","LF","qfloq0vkd1","1920","1080","0","1","0","5acb896da3ba7a0001b4e99f","","null","","","learningBlock1","","","","This is a bim:","null","","","","","",""
"image-keyboard-response","148","230594","0.0-5.0-1.47","LF","qfloq0vkd1","1920","1080","0","1","0","5acb896da3ba7a0001b4e99f","","null","","","","","","","learning/Slide48.JPG","null","","","","","",""
"html-keyboard-response","149","231596","0.0-5.0-2.47","LF","qfloq0vkd1","1920","1080","0","1","0","5acb896da3ba7a0001b4e99f","","null","","","learningBlock1","","","","<div style=""font-size:60px;""> </div>","null","LF","learning/Slide48.JPG","This is a bim:","","",""
"html-keyboard-response","150","232598","0.0-5.0-0.48","LF","qfloq0vkd1","1920","1080","0","1","0","5acb896da3ba7a0001b4e99f","","null","","","learningBlock1","","","","This is a dep:","null","","","","","",""
"image-keyboard-response","151","232924","0.0-5.0-1.48","LF","qfloq0vkd1","1920","1080","0","1","0","5acb896da3ba7a0001b4e99f","","null","","","","","","","learning/Slide49.JPG","null","","","","","",""
"html-keyboard-response","152","233926","0.0-5.0-2.48","LF","qfloq0vkd1","1920","1080","0","1","0","5acb896da3ba7a0001b4e99f","","null","","","learningBlock1","","","","<div style=""font-size:60px;""> </div>","null","LF","learning/Slide49.JPG","This is a dep:","","",""
"html-keyboard-response","153","234927","0.0-5.0-0.49","LF","qfloq0vkd1","1920","1080","0","1","0","5acb896da3ba7a0001b4e99f","","null","","","learningBlock1","","","","This is a tob:","null","","","","","",""
"image-keyboard-response","154","235255","0.0-5.0-1.49","LF","qfloq0vkd1","1920","1080","0","1","0","5acb896da3ba7a0001b4e99f","","null","","","","","","","learning/Slide50.JPG","null","","","","","",""
"html-keyboard-response","155","236257","0.0-5.0-2.49","LF","qfloq0vkd1","1920","1080","0","1","0","5acb896da3ba7a0001b4e99f","","null","","","learningBlock1","","","","<div style=""font-size:60px;""> </div>","null","LF","learning/Slide50.JPG","This is a tob:","","",""
"html-keyboard-response","156","237259","0.0-5.0-0.50","LF","qfloq0vkd1","1920","1080","0","1","0","5acb896da3ba7a0001b4e99f","","null","","","learningBlock1","","","","This is a bim:","null","","","","","",""
"image-keyboard-response","157","237587","0.0-5.0-1.50","LF","qfloq0vkd1","1920","1080","0","1","0","5acb896da3ba7a0001b4e99f","","null","","","","","","","learning/Slide51.JPG","null","","","","","",""
"html-keyboard-response","158","238590","0.0-5.0-2.50","LF","qfloq0vkd1","1920","1080","0","1","0","5acb896da3ba7a0001b4e99f","","null","","","learningBlock1","","","","<div style=""font-size:60px;""> </div>","null","LF","learning/Slide51.JPG","This is a bim:","","",""
"html-keyboard-response","159","239592","0.0-5.0-0.51","LF","qfloq0vkd1","1920","1080","0","1","0","5acb896da3ba7a0001b4e99f","","null","","","learningBlock1","","","","This is a wug:","null","","","","","",""
"image-keyboard-response","160","239921","0.0-5.0-1.51","LF","qfloq0vkd1","1920","1080","0","1","0","5acb896da3ba7a0001b4e99f","","null","","","","","","","learning/Slide52.JPG","null","","","","","",""
"html-keyboard-response","161","240922","0.0-5.0-2.51","LF","qfloq0vkd1","1920","1080","0","1","0","5acb896da3ba7a0001b4e99f","","null","","","learningBlock1","","","","<div style=""font-size:60px;""> </div>","null","LF","learning/Slide52.JPG","This is a wug:","","",""
"html-keyboard-response","162","241924","0.0-5.0-0.52","LF","qfloq0vkd1","1920","1080","0","1","0","5acb896da3ba7a0001b4e99f","","null","","","learningBlock1","","","","This is a tob:","null","","","","","",""
"image-keyboard-response","163","242251","0.0-5.0-1.52","LF","qfloq0vkd1","1920","1080","0","1","0","5acb896da3ba7a0001b4e99f","","null","","","","","","","learning/Slide53.JPG","null","","","","","",""
"html-keyboard-response","164","243252","0.0-5.0-2.52","LF","qfloq0vkd1","1920","1080","0","1","0","5acb896da3ba7a0001b4e99f","","null","","","learningBlock1","","","","<div style=""font-size:60px;""> </div>","null","LF","learning/Slide53.JPG","This is a tob:","","",""
"html-keyboard-response","165","244254","0.0-5.0-0.53","LF","qfloq0vkd1","1920","1080","0","1","0","5acb896da3ba7a0001b4e99f","","null","","","learningBlock1","","","","This is a dep:","null","","","","","",""
"image-keyboard-response","166","244582","0.0-5.0-1.53","LF","qfloq0vkd1","1920","1080","0","1","0","5acb896da3ba7a0001b4e99f","","null","","","","","","","learning/Slide54.JPG","null","","","","","",""
"html-keyboard-response","167","245585","0.0-5.0-2.53","LF","qfloq0vkd1","1920","1080","0","1","0","5acb896da3ba7a0001b4e99f","","null","","","learningBlock1","","","","<div style=""font-size:60px;""> </div>","null","LF","learning/Slide54.JPG","This is a dep:","","",""
"html-keyboard-response","168","246587","0.0-5.0-0.54","LF","qfloq0vkd1","1920","1080","0","1","0","5acb896da3ba7a0001b4e99f","","null","","","learningBlock1","","","","This is a bim:","null","","","","","",""
"image-keyboard-response","169","246916","0.0-5.0-1.54","LF","qfloq0vkd1","1920","1080","0","1","0","5acb896da3ba7a0001b4e99f","","null","","","","","","","learning/Slide55.JPG","null","","","","","",""
"html-keyboard-response","170","247918","0.0-5.0-2.54","LF","qfloq0vkd1","1920","1080","0","1","0","5acb896da3ba7a0001b4e99f","","null","","","learningBlock1","","","","<div style=""font-size:60px;""> </div>","null","LF","learning/Slide55.JPG","This is a bim:","","",""
"html-keyboard-response","171","248920","0.0-5.0-0.55","LF","qfloq0vkd1","1920","1080","0","1","0","5acb896da3ba7a0001b4e99f","","null","","","learningBlock1","","","","This is a tob:","null","","","","","",""
"image-keyboard-response","172","249246","0.0-5.0-1.55","LF","qfloq0vkd1","1920","1080","0","1","0","5acb896da3ba7a0001b4e99f","","null","","","","","","","learning/Slide56.JPG","null","","","","","",""
"html-keyboard-response","173","250248","0.0-5.0-2.55","LF","qfloq0vkd1","1920","1080","0","1","0","5acb896da3ba7a0001b4e99f","","null","","","learningBlock1","","","","<div style=""font-size:60px;""> </div>","null","LF","learning/Slide56.JPG","This is a tob:","","",""
"html-keyboard-response","174","251249","0.0-5.0-0.56","LF","qfloq0vkd1","1920","1080","0","1","0","5acb896da3ba7a0001b4e99f","","null","","","learningBlock1","","","","This is a dep:","null","","","","","",""
"image-keyboard-response","175","251578","0.0-5.0-1.56","LF","qfloq0vkd1","1920","1080","0","1","0","5acb896da3ba7a0001b4e99f","","null","","","","","","","learning/Slide57.JPG","null","","","","","",""
"html-keyboard-response","176","252579","0.0-5.0-2.56","LF","qfloq0vkd1","1920","1080","0","1","0","5acb896da3ba7a0001b4e99f","","null","","","learningBlock1","","","","<div style=""font-size:60px;""> </div>","null","LF","learning/Slide57.JPG","This is a dep:","","",""
"html-keyboard-response","177","253581","0.0-5.0-0.57","LF","qfloq0vkd1","1920","1080","0","1","0","5acb896da3ba7a0001b4e99f","","null","","","learningBlock1","","","","This is a wug:","null","","","","","",""
"image-keyboard-response","178","253908","0.0-5.0-1.57","LF","qfloq0vkd1","1920","1080","0","1","0","5acb896da3ba7a0001b4e99f","","null","","","","","","","learning/Slide58.JPG","null","","","","","",""
"html-keyboard-response","179","254910","0.0-5.0-2.57","LF","qfloq0vkd1","1920","1080","0","1","0","5acb896da3ba7a0001b4e99f","","null","","","learningBlock1","","","","<div style=""font-size:60px;""> </div>","null","LF","learning/Slide58.JPG","This is a wug:","","",""
"html-keyboard-response","180","255911","0.0-5.0-0.58","LF","qfloq0vkd1","1920","1080","0","1","0","5acb896da3ba7a0001b4e99f","","null","","","learningBlock1","","","","This is a dep:","null","","","","","",""
"image-keyboard-response","181","256239","0.0-5.0-1.58","LF","qfloq0vkd1","1920","1080","0","1","0","5acb896da3ba7a0001b4e99f","","null","","","","","","","learning/Slide59.JPG","null","","","","","",""
"html-keyboard-response","182","257240","0.0-5.0-2.58","LF","qfloq0vkd1","1920","1080","0","1","0","5acb896da3ba7a0001b4e99f","","null","","","learningBlock1","","","","<div style=""font-size:60px;""> </div>","null","LF","learning/Slide59.JPG","This is a dep:","","",""
"html-keyboard-response","183","258242","0.0-5.0-0.59","LF","qfloq0vkd1","1920","1080","0","1","0","5acb896da3ba7a0001b4e99f","","null","","","learningBlock1","","","","This is a wug:","null","","","","","",""
"image-keyboard-response","184","258571","0.0-5.0-1.59","LF","qfloq0vkd1","1920","1080","0","1","0","5acb896da3ba7a0001b4e99f","","null","","","","","","","learning/Slide60.JPG","null","","","","","",""
"html-keyboard-response","185","259573","0.0-5.0-2.59","LF","qfloq0vkd1","1920","1080","0","1","0","5acb896da3ba7a0001b4e99f","","null","","","learningBlock1","","","","<div style=""font-size:60px;""> </div>","null","LF","learning/Slide60.JPG","This is a wug:","","",""
"html-keyboard-response","186","260575","0.0-5.0-0.60","LF","qfloq0vkd1","1920","1080","0","1","0","5acb896da3ba7a0001b4e99f","","null","","","learningBlock1","","","","This is a bim:","null","","","","","",""
"image-keyboard-response","187","260902","0.0-5.0-1.60","LF","qfloq0vkd1","1920","1080","0","1","0","5acb896da3ba7a0001b4e99f","","null","","","","","","","learning/Slide61.JPG","null","","","","","",""
"html-keyboard-response","188","261904","0.0-5.0-2.60","LF","qfloq0vkd1","1920","1080","0","1","0","5acb896da3ba7a0001b4e99f","","null","","","learningBlock1","","","","<div style=""font-size:60px;""> </div>","null","LF","learning/Slide61.JPG","This is a bim:","","",""
"html-keyboard-response","189","262906","0.0-5.0-0.61","LF","qfloq0vkd1","1920","1080","0","1","0","5acb896da3ba7a0001b4e99f","","null","","","learningBlock1","","","","This is a dep:","null","","","","","",""
"image-keyboard-response","190","263234","0.0-5.0-1.61","LF","qfloq0vkd1","1920","1080","0","1","0","5acb896da3ba7a0001b4e99f","","null","","","","","","","learning/Slide62.JPG","null","","","","","",""
"html-keyboard-response","191","264235","0.0-5.0-2.61","LF","qfloq0vkd1","1920","1080","0","1","0","5acb896da3ba7a0001b4e99f","","null","","","learningBlock1","","","","<div style=""font-size:60px;""> </div>","null","LF","learning/Slide62.JPG","This is a dep:","","",""
"html-keyboard-response","192","265237","0.0-5.0-0.62","LF","qfloq0vkd1","1920","1080","0","1","0","5acb896da3ba7a0001b4e99f","","null","","","learningBlock1","","","","This is a bim:","null","","","","","",""
"image-keyboard-response","193","265564","0.0-5.0-1.62","LF","qfloq0vkd1","1920","1080","0","1","0","5acb896da3ba7a0001b4e99f","","null","","","","","","","learning/Slide63.JPG","null","","","","","",""
"html-keyboard-response","194","266567","0.0-5.0-2.62","LF","qfloq0vkd1","1920","1080","0","1","0","5acb896da3ba7a0001b4e99f","","null","","","learningBlock1","","","","<div style=""font-size:60px;""> </div>","null","LF","learning/Slide63.JPG","This is a bim:","","",""
"html-keyboard-response","195","267568","0.0-5.0-0.63","LF","qfloq0vkd1","1920","1080","0","1","0","5acb896da3ba7a0001b4e99f","","null","","","learningBlock1","","","","This is a tob:","null","","","","","",""
"image-keyboard-response","196","267897","0.0-5.0-1.63","LF","qfloq0vkd1","1920","1080","0","1","0","5acb896da3ba7a0001b4e99f","","null","","","","","","","learning/Slide64.JPG","null","","","","","",""
"html-keyboard-response","197","268898","0.0-5.0-2.63","LF","qfloq0vkd1","1920","1080","0","1","0","5acb896da3ba7a0001b4e99f","","null","","","learningBlock1","","","","<div style=""font-size:60px;""> </div>","null","LF","learning/Slide64.JPG","This is a tob:","","",""
"html-keyboard-response","198","269900","0.0-5.0-0.64","LF","qfloq0vkd1","1920","1080","0","1","0","5acb896da3ba7a0001b4e99f","","null","","","learningBlock1","","","","This is a wug:","null","","","","","",""
"image-keyboard-response","199","270226","0.0-5.0-1.64","LF","qfloq0vkd1","1920","1080","0","1","0","5acb896da3ba7a0001b4e99f","","null","","","","","","","learning/Slide65.JPG","null","","","","","",""
"html-keyboard-response","200","271228","0.0-5.0-2.64","LF","qfloq0vkd1","1920","1080","0","1","0","5acb896da3ba7a0001b4e99f","","null","","","learningBlock1","","","","<div style=""font-size:60px;""> </div>","null","LF","learning/Slide65.JPG","This is a wug:","","",""
"html-keyboard-response","201","272229","0.0-5.0-0.65","LF","qfloq0vkd1","1920","1080","0","1","0","5acb896da3ba7a0001b4e99f","","null","","","learningBlock1","","","","This is a dep:","null","","","","","",""
"image-keyboard-response","202","272558","0.0-5.0-1.65","LF","qfloq0vkd1","1920","1080","0","1","0","5acb896da3ba7a0001b4e99f","","null","","","","","","","learning/Slide66.JPG","null","","","","","",""
"html-keyboard-response","203","273560","0.0-5.0-2.65","LF","qfloq0vkd1","1920","1080","0","1","0","5acb896da3ba7a0001b4e99f","","null","","","learningBlock1","","","","<div style=""font-size:60px;""> </div>","null","LF","learning/Slide66.JPG","This is a dep:","","",""
"html-keyboard-response","204","274563","0.0-5.0-0.66","LF","qfloq0vkd1","1920","1080","0","1","0","5acb896da3ba7a0001b4e99f","","null","","","learningBlock1","","","","This is a tob:","null","","","","","",""
"image-keyboard-response","205","274889","0.0-5.0-1.66","LF","qfloq0vkd1","1920","1080","0","1","0","5acb896da3ba7a0001b4e99f","","null","","","","","","","learning/Slide67.JPG","null","","","","","",""
"html-keyboard-response","206","275891","0.0-5.0-2.66","LF","qfloq0vkd1","1920","1080","0","1","0","5acb896da3ba7a0001b4e99f","","null","","","learningBlock1","","","","<div style=""font-size:60px;""> </div>","null","LF","learning/Slide67.JPG","This is a tob:","","",""
"html-keyboard-response","207","276892","0.0-5.0-0.67","LF","qfloq0vkd1","1920","1080","0","1","0","5acb896da3ba7a0001b4e99f","","null","","","learningBlock1","","","","This is a wug:","null","","","","","",""
"image-keyboard-response","208","277221","0.0-5.0-1.67","LF","qfloq0vkd1","1920","1080","0","1","0","5acb896da3ba7a0001b4e99f","","null","","","","","","","learning/Slide68.JPG","null","","","","","",""
"html-keyboard-response","209","278222","0.0-5.0-2.67","LF","qfloq0vkd1","1920","1080","0","1","0","5acb896da3ba7a0001b4e99f","","null","","","learningBlock1","","","","<div style=""font-size:60px;""> </div>","null","LF","learning/Slide68.JPG","This is a wug:","","",""
"html-keyboard-response","210","279226","0.0-5.0-0.68","LF","qfloq0vkd1","1920","1080","0","1","0","5acb896da3ba7a0001b4e99f","","null","","","learningBlock1","","","","This is a tob:","null","","","","","",""
"image-keyboard-response","211","279554","0.0-5.0-1.68","LF","qfloq0vkd1","1920","1080","0","1","0","5acb896da3ba7a0001b4e99f","","null","","","","","","","learning/Slide69.JPG","null","","","","","",""
"html-keyboard-response","212","280556","0.0-5.0-2.68","LF","qfloq0vkd1","1920","1080","0","1","0","5acb896da3ba7a0001b4e99f","","null","","","learningBlock1","","","","<div style=""font-size:60px;""> </div>","null","LF","learning/Slide69.JPG","This is a tob:","","",""
"html-keyboard-response","213","281557","0.0-5.0-0.69","LF","qfloq0vkd1","1920","1080","0","1","0","5acb896da3ba7a0001b4e99f","","null","","","learningBlock1","","","","This is a dep:","null","","","","","",""
"image-keyboard-response","214","281885","0.0-5.0-1.69","LF","qfloq0vkd1","1920","1080","0","1","0","5acb896da3ba7a0001b4e99f","","null","","","","","","","learning/Slide70.JPG","null","","","","","",""
"html-keyboard-response","215","282887","0.0-5.0-2.69","LF","qfloq0vkd1","1920","1080","0","1","0","5acb896da3ba7a0001b4e99f","","null","","","learningBlock1","","","","<div style=""font-size:60px;""> </div>","null","LF","learning/Slide70.JPG","This is a dep:","","",""
"html-keyboard-response","216","283888","0.0-5.0-0.70","LF","qfloq0vkd1","1920","1080","0","1","0","5acb896da3ba7a0001b4e99f","","null","","","learningBlock1","","","","This is a wug:","null","","","","","",""
"image-keyboard-response","217","284216","0.0-5.0-1.70","LF","qfloq0vkd1","1920","1080","0","1","0","5acb896da3ba7a0001b4e99f","","null","","","","","","","learning/Slide71.JPG","null","","","","","",""
"html-keyboard-response","218","285217","0.0-5.0-2.70","LF","qfloq0vkd1","1920","1080","0","1","0","5acb896da3ba7a0001b4e99f","","null","","","learningBlock1","","","","<div style=""font-size:60px;""> </div>","null","LF","learning/Slide71.JPG","This is a wug:","","",""
"html-keyboard-response","219","286219","0.0-5.0-0.71","LF","qfloq0vkd1","1920","1080","0","1","0","5acb896da3ba7a0001b4e99f","","null","","","learningBlock1","","","","This is a bim:","null","","","","","",""
"image-keyboard-response","220","286546","0.0-5.0-1.71","LF","qfloq0vkd1","1920","1080","0","1","0","5acb896da3ba7a0001b4e99f","","null","","","","","","","learning/Slide72.JPG","null","","","","","",""
"html-keyboard-response","221","287549","0.0-5.0-2.71","LF","qfloq0vkd1","1920","1080","0","1","0","5acb896da3ba7a0001b4e99f","","null","","","learningBlock1","","","","<div style=""font-size:60px;""> </div>","null","LF","learning/Slide72.JPG","This is a bim:","","",""
"html-keyboard-response","222","288551","0.0-5.0-0.72","LF","qfloq0vkd1","1920","1080","0","1","0","5acb896da3ba7a0001b4e99f","","null","","","learningBlock1","","","","This is a wug:","null","","","","","",""
"image-keyboard-response","223","288880","0.0-5.0-1.72","LF","qfloq0vkd1","1920","1080","0","1","0","5acb896da3ba7a0001b4e99f","","null","","","","","","","learning/Slide73.JPG","null","","","","","",""
"html-keyboard-response","224","289881","0.0-5.0-2.72","LF","qfloq0vkd1","1920","1080","0","1","0","5acb896da3ba7a0001b4e99f","","null","","","learningBlock1","","","","<div style=""font-size:60px;""> </div>","null","LF","learning/Slide73.JPG","This is a wug:","","",""
"html-keyboard-response","225","290883","0.0-5.0-0.73","LF","qfloq0vkd1","1920","1080","0","1","0","5acb896da3ba7a0001b4e99f","","null","","","learningBlock1","","","","This is a dep:","null","","","","","",""
"image-keyboard-response","226","291209","0.0-5.0-1.73","LF","qfloq0vkd1","1920","1080","0","1","0","5acb896da3ba7a0001b4e99f","","null","","","","","","","learning/Slide74.JPG","null","","","","","",""
"html-keyboard-response","227","292211","0.0-5.0-2.73","LF","qfloq0vkd1","1920","1080","0","1","0","5acb896da3ba7a0001b4e99f","","null","","","learningBlock1","","","","<div style=""font-size:60px;""> </div>","null","LF","learning/Slide74.JPG","This is a dep:","","",""
"html-keyboard-response","228","293212","0.0-5.0-0.74","LF","qfloq0vkd1","1920","1080","0","1","0","5acb896da3ba7a0001b4e99f","","null","","","learningBlock1","","","","This is a tob:","null","","","","","",""
"image-keyboard-response","229","293541","0.0-5.0-1.74","LF","qfloq0vkd1","1920","1080","0","1","0","5acb896da3ba7a0001b4e99f","","null","","","","","","","learning/Slide75.JPG","null","","","","","",""
"html-keyboard-response","230","294543","0.0-5.0-2.74","LF","qfloq0vkd1","1920","1080","0","1","0","5acb896da3ba7a0001b4e99f","","null","","","learningBlock1","","","","<div style=""font-size:60px;""> </div>","null","LF","learning/Slide75.JPG","This is a tob:","","",""
"html-keyboard-response","231","295545","0.0-5.0-0.75","LF","qfloq0vkd1","1920","1080","0","1","0","5acb896da3ba7a0001b4e99f","","null","","","learningBlock1","","","","This is a bim:","null","","","","","",""
"image-keyboard-response","232","295873","0.0-5.0-1.75","LF","qfloq0vkd1","1920","1080","0","1","0","5acb896da3ba7a0001b4e99f","","null","","","","","","","learning/Slide76.JPG","null","","","","","",""
"html-keyboard-response","233","296874","0.0-5.0-2.75","LF","qfloq0vkd1","1920","1080","0","1","0","5acb896da3ba7a0001b4e99f","","null","","","learningBlock1","","","","<div style=""font-size:60px;""> </div>","null","LF","learning/Slide76.JPG","This is a bim:","","",""
"html-keyboard-response","234","297876","0.0-5.0-0.76","LF","qfloq0vkd1","1920","1080","0","1","0","5acb896da3ba7a0001b4e99f","","null","","","learningBlock1","","","","This is a tob:","null","","","","","",""
"image-keyboard-response","235","298204","0.0-5.0-1.76","LF","qfloq0vkd1","1920","1080","0","1","0","5acb896da3ba7a0001b4e99f","","null","","","","","","","learning/Slide77.JPG","null","","","","","",""
"html-keyboard-response","236","299206","0.0-5.0-2.76","LF","qfloq0vkd1","1920","1080","0","1","0","5acb896da3ba7a0001b4e99f","","null","","","learningBlock1","","","","<div style=""font-size:60px;""> </div>","null","LF","learning/Slide77.JPG","This is a tob:","","",""
"html-keyboard-response","237","300207","0.0-5.0-0.77","LF","qfloq0vkd1","1920","1080","0","1","0","5acb896da3ba7a0001b4e99f","","null","","","learningBlock1","","","","This is a wug:","null","","","","","",""
"image-keyboard-response","238","300534","0.0-5.0-1.77","LF","qfloq0vkd1","1920","1080","0","1","0","5acb896da3ba7a0001b4e99f","","null","","","","","","","learning/Slide78.JPG","null","","","","","",""
"html-keyboard-response","239","301535","0.0-5.0-2.77","LF","qfloq0vkd1","1920","1080","0","1","0","5acb896da3ba7a0001b4e99f","","null","","","learningBlock1","","","","<div style=""font-size:60px;""> </div>","null","LF","learning/Slide78.JPG","This is a wug:","","",""
"html-keyboard-response","240","302537","0.0-5.0-0.78","LF","qfloq0vkd1","1920","1080","0","1","0","5acb896da3ba7a0001b4e99f","","null","","","learningBlock1","","","","This is a bim:","null","","","","","",""
"image-keyboard-response","241","302864","0.0-5.0-1.78","LF","qfloq0vkd1","1920","1080","0","1","0","5acb896da3ba7a0001b4e99f","","null","","","","","","","learning/Slide79.JPG","null","","","","","",""
"html-keyboard-response","242","303867","0.0-5.0-2.78","LF","qfloq0vkd1","1920","1080","0","1","0","5acb896da3ba7a0001b4e99f","","null","","","learningBlock1","","","","<div style=""font-size:60px;""> </div>","null","LF","learning/Slide79.JPG","This is a bim:","","",""
"html-keyboard-response","243","304868","0.0-5.0-0.79","LF","qfloq0vkd1","1920","1080","0","1","0","5acb896da3ba7a0001b4e99f","","null","","","learningBlock1","","","","This is a tob:","null","","","","","",""
"image-keyboard-response","244","305196","0.0-5.0-1.79","LF","qfloq0vkd1","1920","1080","0","1","0","5acb896da3ba7a0001b4e99f","","null","","","","","","","learning/Slide80.JPG","null","","","","","",""
"html-keyboard-response","245","306197","0.0-5.0-2.79","LF","qfloq0vkd1","1920","1080","0","1","0","5acb896da3ba7a0001b4e99f","","null","","","learningBlock1","","","","<div style=""font-size:60px;""> </div>","null","LF","learning/Slide80.JPG","This is a tob:","","",""
"instructions","246","308172","0.0-6.0","LF","qfloq0vkd1","1920","1080","0","1","0","5acb896da3ba7a0001b4e99f","","NA","","[{""page_index"":0,""viewing_time"":1974.1500000236556}]","instructions","","","","","","","","","","",""
"html-keyboard-response","247","309174","0.0-7.0-0.0","LF","qfloq0vkd1","1920","1080","0","1","0","5acb896da3ba7a0001b4e99f","","null","","","learningBlock2","","","","This is a wug:","null","","","","","",""
"image-keyboard-response","248","309502","0.0-7.0-1.0","LF","qfloq0vkd1","1920","1080","0","1","0","5acb896da3ba7a0001b4e99f","","null","","","","","","","learning/Slide81.JPG","null","","","","","",""
"html-keyboard-response","249","310504","0.0-7.0-2.0","LF","qfloq0vkd1","1920","1080","0","1","0","5acb896da3ba7a0001b4e99f","","null","","","learningBlock2","","","","<div style=""font-size:60px;""> </div>","null","LF","learning/Slide81.JPG","This is a wug:","","",""
"html-keyboard-response","250","311505","0.0-7.0-0.1","LF","qfloq0vkd1","1920","1080","0","1","0","5acb896da3ba7a0001b4e99f","","null","","","learningBlock2","","","","This is a bim:","null","","","","","",""
"image-keyboard-response","251","311833","0.0-7.0-1.1","LF","qfloq0vkd1","1920","1080","0","1","0","5acb896da3ba7a0001b4e99f","","null","","","","","","","learning/Slide82.JPG","null","","","","","",""
"html-keyboard-response","252","312834","0.0-7.0-2.1","LF","qfloq0vkd1","1920","1080","0","1","0","5acb896da3ba7a0001b4e99f","","null","","","learningBlock2","","","","<div style=""font-size:60px;""> </div>","null","LF","learning/Slide82.JPG","This is a bim:","","",""
"html-keyboard-response","253","313837","0.0-7.0-0.2","LF","qfloq0vkd1","1920","1080","0","1","0","5acb896da3ba7a0001b4e99f","","null","","","learningBlock2","","","","This is a wug:","null","","","","","",""
"image-keyboard-response","254","314165","0.0-7.0-1.2","LF","qfloq0vkd1","1920","1080","0","1","0","5acb896da3ba7a0001b4e99f","","null","","","","","","","learning/Slide83.JPG","null","","","","","",""
"html-keyboard-response","255","315167","0.0-7.0-2.2","LF","qfloq0vkd1","1920","1080","0","1","0","5acb896da3ba7a0001b4e99f","","null","","","learningBlock2","","","","<div style=""font-size:60px;""> </div>","null","LF","learning/Slide83.JPG","This is a wug:","","",""
"html-keyboard-response","256","316168","0.0-7.0-0.3","LF","qfloq0vkd1","1920","1080","0","1","0","5acb896da3ba7a0001b4e99f","","null","","","learningBlock2","","","","This is a dep:","null","","","","","",""
"image-keyboard-response","257","316496","0.0-7.0-1.3","LF","qfloq0vkd1","1920","1080","0","1","0","5acb896da3ba7a0001b4e99f","","null","","","","","","","learning/Slide84.JPG","null","","","","","",""
"html-keyboard-response","258","317497","0.0-7.0-2.3","LF","qfloq0vkd1","1920","1080","0","1","0","5acb896da3ba7a0001b4e99f","","null","","","learningBlock2","","","","<div style=""font-size:60px;""> </div>","null","LF","learning/Slide84.JPG","This is a dep:","","",""
"html-keyboard-response","259","318499","0.0-7.0-0.4","LF","qfloq0vkd1","1920","1080","0","1","0","5acb896da3ba7a0001b4e99f","","null","","","learningBlock2","","","","This is a bim:","null","","","","","",""
"image-keyboard-response","260","318826","0.0-7.0-1.4","LF","qfloq0vkd1","1920","1080","0","1","0","5acb896da3ba7a0001b4e99f","","null","","","","","","","learning/Slide85.JPG","null","","","","","",""
"html-keyboard-response","261","319829","0.0-7.0-2.4","LF","qfloq0vkd1","1920","1080","0","1","0","5acb896da3ba7a0001b4e99f","","null","","","learningBlock2","","","","<div style=""font-size:60px;""> </div>","null","LF","learning/Slide85.JPG","This is a bim:","","",""
"html-keyboard-response","262","320831","0.0-7.0-0.5","LF","qfloq0vkd1","1920","1080","0","1","0","5acb896da3ba7a0001b4e99f","","null","","","learningBlock2","","","","This is a tob:","null","","","","","",""
"image-keyboard-response","263","321158","0.0-7.0-1.5","LF","qfloq0vkd1","1920","1080","0","1","0","5acb896da3ba7a0001b4e99f","","null","","","","","","","learning/Slide86.JPG","null","","","","","",""
"html-keyboard-response","264","322160","0.0-7.0-2.5","LF","qfloq0vkd1","1920","1080","0","1","0","5acb896da3ba7a0001b4e99f","","null","","","learningBlock2","","","","<div style=""font-size:60px;""> </div>","null","LF","learning/Slide86.JPG","This is a tob:","","",""
"html-keyboard-response","265","323162","0.0-7.0-0.6","LF","qfloq0vkd1","1920","1080","0","1","0","5acb896da3ba7a0001b4e99f","","null","","","learningBlock2","","","","This is a wug:","null","","","","","",""
"image-keyboard-response","266","323491","0.0-7.0-1.6","LF","qfloq0vkd1","1920","1080","0","1","0","5acb896da3ba7a0001b4e99f","","null","","","","","","","learning/Slide87.JPG","null","","","","","",""
"html-keyboard-response","267","324493","0.0-7.0-2.6","LF","qfloq0vkd1","1920","1080","0","1","0","5acb896da3ba7a0001b4e99f","","null","","","learningBlock2","","","","<div style=""font-size:60px;""> </div>","null","LF","learning/Slide87.JPG","This is a wug:","","",""
"html-keyboard-response","268","325495","0.0-7.0-0.7","LF","qfloq0vkd1","1920","1080","0","1","0","5acb896da3ba7a0001b4e99f","","null","","","learningBlock2","","","","This is a tob:","null","","","","","",""
"image-keyboard-response","269","325822","0.0-7.0-1.7","LF","qfloq0vkd1","1920","1080","0","1","0","5acb896da3ba7a0001b4e99f","","null","","","","","","","learning/Slide88.JPG","null","","","","","",""
"html-keyboard-response","270","326825","0.0-7.0-2.7","LF","qfloq0vkd1","1920","1080","0","1","0","5acb896da3ba7a0001b4e99f","","null","","","learningBlock2","","","","<div style=""font-size:60px;""> </div>","null","LF","learning/Slide88.JPG","This is a tob:","","",""
"html-keyboard-response","271","327827","0.0-7.0-0.8","LF","qfloq0vkd1","1920","1080","0","1","0","5acb896da3ba7a0001b4e99f","","null","","","learningBlock2","","","","This is a bim:","null","","","","","",""
"image-keyboard-response","272","328156","0.0-7.0-1.8","LF","qfloq0vkd1","1920","1080","0","1","0","5acb896da3ba7a0001b4e99f","","null","","","","","","","learning/Slide89.JPG","null","","","","","",""
"html-keyboard-response","273","329157","0.0-7.0-2.8","LF","qfloq0vkd1","1920","1080","0","1","0","5acb896da3ba7a0001b4e99f","","null","","","learningBlock2","","","","<div style=""font-size:60px;""> </div>","null","LF","learning/Slide89.JPG","This is a bim:","","",""
"html-keyboard-response","274","330159","0.0-7.0-0.9","LF","qfloq0vkd1","1920","1080","0","1","0","5acb896da3ba7a0001b4e99f","","null","","","learningBlock2","","","","This is a dep:","null","","","","","",""
"image-keyboard-response","275","330485","0.0-7.0-1.9","LF","qfloq0vkd1","1920","1080","0","1","0","5acb896da3ba7a0001b4e99f","","null","","","","","","","learning/Slide90.JPG","null","","","","","",""
"html-keyboard-response","276","331487","0.0-7.0-2.9","LF","qfloq0vkd1","1920","1080","0","1","0","5acb896da3ba7a0001b4e99f","","null","","","learningBlock2","","","","<div style=""font-size:60px;""> </div>","null","LF","learning/Slide90.JPG","This is a dep:","","",""
"html-keyboard-response","277","332488","0.0-7.0-0.10","LF","qfloq0vkd1","1920","1080","0","1","0","5acb896da3ba7a0001b4e99f","","null","","","learningBlock2","","","","This is a wug:","null","","","","","",""
"image-keyboard-response","278","332817","0.0-7.0-1.10","LF","qfloq0vkd1","1920","1080","0","1","0","5acb896da3ba7a0001b4e99f","","null","","","","","","","learning/Slide91.JPG","null","","","","","",""
"html-keyboard-response","279","333819","0.0-7.0-2.10","LF","qfloq0vkd1","1920","1080","0","1","0","5acb896da3ba7a0001b4e99f","","null","","","learningBlock2","","","","<div style=""font-size:60px;""> </div>","null","LF","learning/Slide91.JPG","This is a wug:","","",""
"html-keyboard-response","280","334822","0.0-7.0-0.11","LF","qfloq0vkd1","1920","1080","0","1","0","5acb896da3ba7a0001b4e99f","","null","","","learningBlock2","","","","This is a tob:","null","","","","","",""
"image-keyboard-response","281","335150","0.0-7.0-1.11","LF","qfloq0vkd1","1920","1080","0","1","0","5acb896da3ba7a0001b4e99f","","null","","","","","","","learning/Slide92.JPG","null","","","","","",""
"html-keyboard-response","282","336152","0.0-7.0-2.11","LF","qfloq0vkd1","1920","1080","0","1","0","5acb896da3ba7a0001b4e99f","","null","","","learningBlock2","","","","<div style=""font-size:60px;""> </div>","null","LF","learning/Slide92.JPG","This is a tob:","","",""
"html-keyboard-response","283","337153","0.0-7.0-0.12","LF","qfloq0vkd1","1920","1080","0","1","0","5acb896da3ba7a0001b4e99f","","null","","","learningBlock2","","","","This is a bim:","null","","","","","",""
"image-keyboard-response","284","337481","0.0-7.0-1.12","LF","qfloq0vkd1","1920","1080","0","1","0","5acb896da3ba7a0001b4e99f","","null","","","","","","","learning/Slide93.JPG","null","","","","","",""
"html-keyboard-response","285","338483","0.0-7.0-2.12","LF","qfloq0vkd1","1920","1080","0","1","0","5acb896da3ba7a0001b4e99f","","null","","","learningBlock2","","","","<div style=""font-size:60px;""> </div>","null","LF","learning/Slide93.JPG","This is a bim:","","",""
"html-keyboard-response","286","339485","0.0-7.0-0.13","LF","qfloq0vkd1","1920","1080","0","1","0","5acb896da3ba7a0001b4e99f","","null","","","learningBlock2","","","","This is a tob:","null","","","","","",""
"image-keyboard-response","287","339813","0.0-7.0-1.13","LF","qfloq0vkd1","1920","1080","0","1","0","5acb896da3ba7a0001b4e99f","","null","","","","","","","learning/Slide94.JPG","null","","","","","",""
"html-keyboard-response","288","340815","0.0-7.0-2.13","LF","qfloq0vkd1","1920","1080","0","1","0","5acb896da3ba7a0001b4e99f","","null","","","learningBlock2","","","","<div style=""font-size:60px;""> </div>","null","LF","learning/Slide94.JPG","This is a tob:","","",""
"html-keyboard-response","289","341817","0.0-7.0-0.14","LF","qfloq0vkd1","1920","1080","0","1","0","5acb896da3ba7a0001b4e99f","","null","","","learningBlock2","","","","This is a wug:","null","","","","","",""
"image-keyboard-response","290","342144","0.0-7.0-1.14","LF","qfloq0vkd1","1920","1080","0","1","0","5acb896da3ba7a0001b4e99f","","null","","","","","","","learning/Slide95.JPG","null","","","","","",""
"html-keyboard-response","291","343147","0.0-7.0-2.14","LF","qfloq0vkd1","1920","1080","0","1","0","5acb896da3ba7a0001b4e99f","","null","","","learningBlock2","","","","<div style=""font-size:60px;""> </div>","null","LF","learning/Slide95.JPG","This is a wug:","","",""
"html-keyboard-response","292","344148","0.0-7.0-0.15","LF","qfloq0vkd1","1920","1080","0","1","0","5acb896da3ba7a0001b4e99f","","null","","","learningBlock2","","","","This is a tob:","null","","","","","",""
"image-keyboard-response","293","344476","0.0-7.0-1.15","LF","qfloq0vkd1","1920","1080","0","1","0","5acb896da3ba7a0001b4e99f","","null","","","","","","","learning/Slide96.JPG","null","","","","","",""
"html-keyboard-response","294","345477","0.0-7.0-2.15","LF","qfloq0vkd1","1920","1080","0","1","0","5acb896da3ba7a0001b4e99f","","null","","","learningBlock2","","","","<div style=""font-size:60px;""> </div>","null","LF","learning/Slide96.JPG","This is a tob:","","",""
"html-keyboard-response","295","346478","0.0-7.0-0.16","LF","qfloq0vkd1","1920","1080","0","1","0","5acb896da3ba7a0001b4e99f","","null","","","learningBlock2","","","","This is a dep:","null","","","","","",""
"image-keyboard-response","296","346806","0.0-7.0-1.16","LF","qfloq0vkd1","1920","1080","0","1","0","5acb896da3ba7a0001b4e99f","","null","","","","","","","learning/Slide97.JPG","null","","","","","",""
"html-keyboard-response","297","347809","0.0-7.0-2.16","LF","qfloq0vkd1","1920","1080","0","1","0","5acb896da3ba7a0001b4e99f","","null","","","learningBlock2","","","","<div style=""font-size:60px;""> </div>","null","LF","learning/Slide97.JPG","This is a dep:","","",""
"html-keyboard-response","298","348811","0.0-7.0-0.17","LF","qfloq0vkd1","1920","1080","0","1","0","5acb896da3ba7a0001b4e99f","","null","","","learningBlock2","","","","This is a bim:","null","","","","","",""
"image-keyboard-response","299","349139","0.0-7.0-1.17","LF","qfloq0vkd1","1920","1080","0","1","0","5acb896da3ba7a0001b4e99f","","null","","","","","","","learning/Slide98.JPG","null","","","","","",""
"html-keyboard-response","300","350140","0.0-7.0-2.17","LF","qfloq0vkd1","1920","1080","0","1","0","5acb896da3ba7a0001b4e99f","","null","","","learningBlock2","","","","<div style=""font-size:60px;""> </div>","null","LF","learning/Slide98.JPG","This is a bim:","","",""
"html-keyboard-response","301","351142","0.0-7.0-0.18","LF","qfloq0vkd1","1920","1080","0","1","0","5acb896da3ba7a0001b4e99f","","null","","","learningBlock2","","","","This is a dep:","null","","","","","",""
"image-keyboard-response","302","351469","0.0-7.0-1.18","LF","qfloq0vkd1","1920","1080","0","1","0","5acb896da3ba7a0001b4e99f","","null","","","","","","","learning/Slide99.JPG","null","","","","","",""
"html-keyboard-response","303","352471","0.0-7.0-2.18","LF","qfloq0vkd1","1920","1080","0","1","0","5acb896da3ba7a0001b4e99f","","null","","","learningBlock2","","","","<div style=""font-size:60px;""> </div>","null","LF","learning/Slide99.JPG","This is a dep:","","",""
"html-keyboard-response","304","353472","0.0-7.0-0.19","LF","qfloq0vkd1","1920","1080","0","1","0","5acb896da3ba7a0001b4e99f","","null","","","learningBlock2","","","","This is a bim:","null","","","","","",""
"image-keyboard-response","305","353800","0.0-7.0-1.19","LF","qfloq0vkd1","1920","1080","0","1","0","5acb896da3ba7a0001b4e99f","","null","","","","","","","learning/Slide100.JPG","null","","","","","",""
"html-keyboard-response","306","354802","0.0-7.0-2.19","LF","qfloq0vkd1","1920","1080","0","1","0","5acb896da3ba7a0001b4e99f","","null","","","learningBlock2","","","","<div style=""font-size:60px;""> </div>","null","LF","learning/Slide100.JPG","This is a bim:","","",""
"html-keyboard-response","307","355805","0.0-7.0-0.20","LF","qfloq0vkd1","1920","1080","0","1","0","5acb896da3ba7a0001b4e99f","","null","","","learningBlock2","","","","This is a tob:","null","","","","","",""
"image-keyboard-response","308","356133","0.0-7.0-1.20","LF","qfloq0vkd1","1920","1080","0","1","0","5acb896da3ba7a0001b4e99f","","null","","","","","","","learning/Slide101.JPG","null","","","","","",""
"html-keyboard-response","309","357134","0.0-7.0-2.20","LF","qfloq0vkd1","1920","1080","0","1","0","5acb896da3ba7a0001b4e99f","","null","","","learningBlock2","","","","<div style=""font-size:60px;""> </div>","null","LF","learning/Slide101.JPG","This is a tob:","","",""
"html-keyboard-response","310","358136","0.0-7.0-0.21","LF","qfloq0vkd1","1920","1080","0","1","0","5acb896da3ba7a0001b4e99f","","null","","","learningBlock2","","","","This is a bim:","null","","","","","",""
"image-keyboard-response","311","358462","0.0-7.0-1.21","LF","qfloq0vkd1","1920","1080","0","1","0","5acb896da3ba7a0001b4e99f","","null","","","","","","","learning/Slide102.JPG","null","","","","","",""
"html-keyboard-response","312","359463","0.0-7.0-2.21","LF","qfloq0vkd1","1920","1080","0","1","0","5acb896da3ba7a0001b4e99f","","null","","","learningBlock2","","","","<div style=""font-size:60px;""> </div>","null","LF","learning/Slide102.JPG","This is a bim:","","",""
"html-keyboard-response","313","360465","0.0-7.0-0.22","LF","qfloq0vkd1","1920","1080","0","1","0","5acb896da3ba7a0001b4e99f","","null","","","learningBlock2","","","","This is a dep:","null","","","","","",""
"image-keyboard-response","314","360793","0.0-7.0-1.22","LF","qfloq0vkd1","1920","1080","0","1","0","5acb896da3ba7a0001b4e99f","","null","","","","","","","learning/Slide103.JPG","null","","","","","",""
"html-keyboard-response","315","361794","0.0-7.0-2.22","LF","qfloq0vkd1","1920","1080","0","1","0","5acb896da3ba7a0001b4e99f","","null","","","learningBlock2","","","","<div style=""font-size:60px;""> </div>","null","LF","learning/Slide103.JPG","This is a dep:","","",""
"html-keyboard-response","316","362795","0.0-7.0-0.23","LF","qfloq0vkd1","1920","1080","0","1","0","5acb896da3ba7a0001b4e99f","","null","","","learningBlock2","","","","This is a tob:","null","","","","","",""
"image-keyboard-response","317","363123","0.0-7.0-1.23","LF","qfloq0vkd1","1920","1080","0","1","0","5acb896da3ba7a0001b4e99f","","null","","","","","","","learning/Slide104.JPG","null","","","","","",""
"html-keyboard-response","318","364126","0.0-7.0-2.23","LF","qfloq0vkd1","1920","1080","0","1","0","5acb896da3ba7a0001b4e99f","","null","","","learningBlock2","","","","<div style=""font-size:60px;""> </div>","null","LF","learning/Slide104.JPG","This is a tob:","","",""
"html-keyboard-response","319","365127","0.0-7.0-0.24","LF","qfloq0vkd1","1920","1080","0","1","0","5acb896da3ba7a0001b4e99f","","null","","","learningBlock2","","","","This is a dep:","null","","","","","",""
"image-keyboard-response","320","365456","0.0-7.0-1.24","LF","qfloq0vkd1","1920","1080","0","1","0","5acb896da3ba7a0001b4e99f","","null","","","","","","","learning/Slide105.JPG","null","","","","","",""
"html-keyboard-response","321","366457","0.0-7.0-2.24","LF","qfloq0vkd1","1920","1080","0","1","0","5acb896da3ba7a0001b4e99f","","null","","","learningBlock2","","","","<div style=""font-size:60px;""> </div>","null","LF","learning/Slide105.JPG","This is a dep:","","",""
"html-keyboard-response","322","367459","0.0-7.0-0.25","LF","qfloq0vkd1","1920","1080","0","1","0","5acb896da3ba7a0001b4e99f","","null","","","learningBlock2","","","","This is a wug:","null","","","","","",""
"image-keyboard-response","323","367785","0.0-7.0-1.25","LF","qfloq0vkd1","1920","1080","0","1","0","5acb896da3ba7a0001b4e99f","","null","","","","","","","learning/Slide106.JPG","null","","","","","",""
"html-keyboard-response","324","368787","0.0-7.0-2.25","LF","qfloq0vkd1","1920","1080","0","1","0","5acb896da3ba7a0001b4e99f","","null","","","learningBlock2","","","","<div style=""font-size:60px;""> </div>","null","LF","learning/Slide106.JPG","This is a wug:","","",""
"html-keyboard-response","325","369788","0.0-7.0-0.26","LF","qfloq0vkd1","1920","1080","0","1","0","5acb896da3ba7a0001b4e99f","","null","","","learningBlock2","","","","This is a bim:","null","","","","","",""
"image-keyboard-response","326","370117","0.0-7.0-1.26","LF","qfloq0vkd1","1920","1080","0","1","0","5acb896da3ba7a0001b4e99f","","null","","","","","","","learning/Slide107.JPG","null","","","","","",""
"html-keyboard-response","327","371118","0.0-7.0-2.26","LF","qfloq0vkd1","1920","1080","0","1","0","5acb896da3ba7a0001b4e99f","","null","","","learningBlock2","","","","<div style=""font-size:60px;""> </div>","null","LF","learning/Slide107.JPG","This is a bim:","","",""
"html-keyboard-response","328","372121","0.0-7.0-0.27","LF","qfloq0vkd1","1920","1080","0","1","0","5acb896da3ba7a0001b4e99f","","null","","","learningBlock2","","","","This is a dep:","null","","","","","",""
"image-keyboard-response","329","372448","0.0-7.0-1.27","LF","qfloq0vkd1","1920","1080","0","1","0","5acb896da3ba7a0001b4e99f","","null","","","","","","","learning/Slide108.JPG","null","","","","","",""
"html-keyboard-response","330","373449","0.0-7.0-2.27","LF","qfloq0vkd1","1920","1080","0","1","0","5acb896da3ba7a0001b4e99f","","null","","","learningBlock2","","","","<div style=""font-size:60px;""> </div>","null","LF","learning/Slide108.JPG","This is a dep:","","",""
"html-keyboard-response","331","374450","0.0-7.0-0.28","LF","qfloq0vkd1","1920","1080","0","1","0","5acb896da3ba7a0001b4e99f","","null","","","learningBlock2","","","","This is a wug:","null","","","","","",""
"image-keyboard-response","332","374778","0.0-7.0-1.28","LF","qfloq0vkd1","1920","1080","0","1","0","5acb896da3ba7a0001b4e99f","","null","","","","","","","learning/Slide109.JPG","null","","","","","",""
"html-keyboard-response","333","375780","0.0-7.0-2.28","LF","qfloq0vkd1","1920","1080","0","1","0","5acb896da3ba7a0001b4e99f","","null","","","learningBlock2","","","","<div style=""font-size:60px;""> </div>","null","LF","learning/Slide109.JPG","This is a wug:","","",""
"html-keyboard-response","334","376781","0.0-7.0-0.29","LF","qfloq0vkd1","1920","1080","0","1","0","5acb896da3ba7a0001b4e99f","","null","","","learningBlock2","","","","This is a bim:","null","","","","","",""
"image-keyboard-response","335","377109","0.0-7.0-1.29","LF","qfloq0vkd1","1920","1080","0","1","0","5acb896da3ba7a0001b4e99f","","null","","","","","","","learning/Slide110.JPG","null","","","","","",""
"html-keyboard-response","336","378111","0.0-7.0-2.29","LF","qfloq0vkd1","1920","1080","0","1","0","5acb896da3ba7a0001b4e99f","","null","","","learningBlock2","","","","<div style=""font-size:60px;""> </div>","null","LF","learning/Slide110.JPG","This is a bim:","","",""
"html-keyboard-response","337","379113","0.0-7.0-0.30","LF","qfloq0vkd1","1920","1080","0","1","0","5acb896da3ba7a0001b4e99f","","null","","","learningBlock2","","","","This is a tob:","null","","","","","",""
"image-keyboard-response","338","379439","0.0-7.0-1.30","LF","qfloq0vkd1","1920","1080","0","1","0","5acb896da3ba7a0001b4e99f","","null","","","","","","","learning/Slide111.JPG","null","","","","","",""
"html-keyboard-response","339","380441","0.0-7.0-2.30","LF","qfloq0vkd1","1920","1080","0","1","0","5acb896da3ba7a0001b4e99f","","null","","","learningBlock2","","","","<div style=""font-size:60px;""> </div>","null","LF","learning/Slide111.JPG","This is a tob:","","",""
"html-keyboard-response","340","381442","0.0-7.0-0.31","LF","qfloq0vkd1","1920","1080","0","1","0","5acb896da3ba7a0001b4e99f","","null","","","learningBlock2","","","","This is a wug:","null","","","","","",""
"image-keyboard-response","341","381770","0.0-7.0-1.31","LF","qfloq0vkd1","1920","1080","0","1","0","5acb896da3ba7a0001b4e99f","","null","","","","","","","learning/Slide112.JPG","null","","","","","",""
"html-keyboard-response","342","382771","0.0-7.0-2.31","LF","qfloq0vkd1","1920","1080","0","1","0","5acb896da3ba7a0001b4e99f","","null","","","learningBlock2","","","","<div style=""font-size:60px;""> </div>","null","LF","learning/Slide112.JPG","This is a wug:","","",""
"html-keyboard-response","343","383773","0.0-7.0-0.32","LF","qfloq0vkd1","1920","1080","0","1","0","5acb896da3ba7a0001b4e99f","","null","","","learningBlock2","","","","This is a tob:","null","","","","","",""
"image-keyboard-response","344","384101","0.0-7.0-1.32","LF","qfloq0vkd1","1920","1080","0","1","0","5acb896da3ba7a0001b4e99f","","null","","","","","","","learning/Slide113.JPG","null","","","","","",""
"html-keyboard-response","345","385104","0.0-7.0-2.32","LF","qfloq0vkd1","1920","1080","0","1","0","5acb896da3ba7a0001b4e99f","","null","","","learningBlock2","","","","<div style=""font-size:60px;""> </div>","null","LF","learning/Slide113.JPG","This is a tob:","","",""
"html-keyboard-response","346","386106","0.0-7.0-0.33","LF","qfloq0vkd1","1920","1080","0","1","0","5acb896da3ba7a0001b4e99f","","null","","","learningBlock2","","","","This is a wug:","null","","","","","",""
"image-keyboard-response","347","386435","0.0-7.0-1.33","LF","qfloq0vkd1","1920","1080","0","1","0","5acb896da3ba7a0001b4e99f","","null","","","","","","","learning/Slide114.JPG","null","","","","","",""
"html-keyboard-response","348","387437","0.0-7.0-2.33","LF","qfloq0vkd1","1920","1080","0","1","0","5acb896da3ba7a0001b4e99f","","null","","","learningBlock2","","","","<div style=""font-size:60px;""> </div>","null","LF","learning/Slide114.JPG","This is a wug:","","",""
"html-keyboard-response","349","388439","0.0-7.0-0.34","LF","qfloq0vkd1","1920","1080","0","1","0","5acb896da3ba7a0001b4e99f","","null","","","learningBlock2","","","","This is a bim:","null","","","","","",""
"image-keyboard-response","350","388766","0.0-7.0-1.34","LF","qfloq0vkd1","1920","1080","0","1","0","5acb896da3ba7a0001b4e99f","","null","","","","","","","learning/Slide115.JPG","null","","","","","",""
"html-keyboard-response","351","389767","0.0-7.0-2.34","LF","qfloq0vkd1","1920","1080","0","1","0","5acb896da3ba7a0001b4e99f","","null","","","learningBlock2","","","","<div style=""font-size:60px;""> </div>","null","LF","learning/Slide115.JPG","This is a bim:","","",""
"html-keyboard-response","352","390768","0.0-7.0-0.35","LF","qfloq0vkd1","1920","1080","0","1","0","5acb896da3ba7a0001b4e99f","","null","","","learningBlock2","","","","This is a dep:","null","","","","","",""
"image-keyboard-response","353","391097","0.0-7.0-1.35","LF","qfloq0vkd1","1920","1080","0","1","0","5acb896da3ba7a0001b4e99f","","null","","","","","","","learning/Slide116.JPG","null","","","","","",""
"html-keyboard-response","354","392099","0.0-7.0-2.35","LF","qfloq0vkd1","1920","1080","0","1","0","5acb896da3ba7a0001b4e99f","","null","","","learningBlock2","","","","<div style=""font-size:60px;""> </div>","null","LF","learning/Slide116.JPG","This is a dep:","","",""
"html-keyboard-response","355","393101","0.0-7.0-0.36","LF","qfloq0vkd1","1920","1080","0","1","0","5acb896da3ba7a0001b4e99f","","null","","","learningBlock2","","","","This is a tob:","null","","","","","",""
"image-keyboard-response","356","393428","0.0-7.0-1.36","LF","qfloq0vkd1","1920","1080","0","1","0","5acb896da3ba7a0001b4e99f","","null","","","","","","","learning/Slide117.JPG","null","","","","","",""
"html-keyboard-response","357","394429","0.0-7.0-2.36","LF","qfloq0vkd1","1920","1080","0","1","0","5acb896da3ba7a0001b4e99f","","null","","","learningBlock2","","","","<div style=""font-size:60px;""> </div>","null","LF","learning/Slide117.JPG","This is a tob:","","",""
"html-keyboard-response","358","395431","0.0-7.0-0.37","LF","qfloq0vkd1","1920","1080","0","1","0","5acb896da3ba7a0001b4e99f","","null","","","learningBlock2","","","","This is a dep:","null","","","","","",""
"image-keyboard-response","359","395758","0.0-7.0-1.37","LF","qfloq0vkd1","1920","1080","0","1","0","5acb896da3ba7a0001b4e99f","","null","","","","","","","learning/Slide118.JPG","null","","","","","",""
"html-keyboard-response","360","396760","0.0-7.0-2.37","LF","qfloq0vkd1","1920","1080","0","1","0","5acb896da3ba7a0001b4e99f","","null","","","learningBlock2","","","","<div style=""font-size:60px;""> </div>","null","LF","learning/Slide118.JPG","This is a dep:","","",""
"html-keyboard-response","361","397761","0.0-7.0-0.38","LF","qfloq0vkd1","1920","1080","0","1","0","5acb896da3ba7a0001b4e99f","","null","","","learningBlock2","","","","This is a wug:","null","","","","","",""
"image-keyboard-response","362","398090","0.0-7.0-1.38","LF","qfloq0vkd1","1920","1080","0","1","0","5acb896da3ba7a0001b4e99f","","null","","","","","","","learning/Slide119.JPG","null","","","","","",""
"html-keyboard-response","363","399091","0.0-7.0-2.38","LF","qfloq0vkd1","1920","1080","0","1","0","5acb896da3ba7a0001b4e99f","","null","","","learningBlock2","","","","<div style=""font-size:60px;""> </div>","null","LF","learning/Slide119.JPG","This is a wug:","","",""
"html-keyboard-response","364","400093","0.0-7.0-0.39","LF","qfloq0vkd1","1920","1080","0","1","0","5acb896da3ba7a0001b4e99f","","null","","","learningBlock2","","","","This is a dep:","null","","","","","",""
"image-keyboard-response","365","400420","0.0-7.0-1.39","LF","qfloq0vkd1","1920","1080","0","1","0","5acb896da3ba7a0001b4e99f","","null","","","","","","","learning/Slide120.JPG","null","","","","","",""
"html-keyboard-response","366","401422","0.0-7.0-2.39","LF","qfloq0vkd1","1920","1080","0","1","0","5acb896da3ba7a0001b4e99f","","null","","","learningBlock2","","","","<div style=""font-size:60px;""> </div>","null","LF","learning/Slide120.JPG","This is a dep:","","",""
"html-keyboard-response","367","402423","0.0-7.0-0.40","LF","qfloq0vkd1","1920","1080","0","1","0","5acb896da3ba7a0001b4e99f","","null","","","learningBlock2","","","","This is a bim:","null","","","","","",""
"image-keyboard-response","368","402750","0.0-7.0-1.40","LF","qfloq0vkd1","1920","1080","0","1","0","5acb896da3ba7a0001b4e99f","","null","","","","","","","learning/Slide121.JPG","null","","","","","",""
"html-keyboard-response","369","403751","0.0-7.0-2.40","LF","qfloq0vkd1","1920","1080","0","1","0","5acb896da3ba7a0001b4e99f","","null","","","learningBlock2","","","","<div style=""font-size:60px;""> </div>","null","LF","learning/Slide121.JPG","This is a bim:","","",""
"html-keyboard-response","370","404753","0.0-7.0-0.41","LF","qfloq0vkd1","1920","1080","0","1","0","5acb896da3ba7a0001b4e99f","","null","","","learningBlock2","","","","This is a wug:","null","","","","","",""
"image-keyboard-response","371","405080","0.0-7.0-1.41","LF","qfloq0vkd1","1920","1080","0","1","0","5acb896da3ba7a0001b4e99f","","null","","","","","","","learning/Slide122.JPG","null","","","","","",""
"html-keyboard-response","372","406083","0.0-7.0-2.41","LF","qfloq0vkd1","1920","1080","0","1","0","5acb896da3ba7a0001b4e99f","","null","","","learningBlock2","","","","<div style=""font-size:60px;""> </div>","null","LF","learning/Slide122.JPG","This is a wug:","","",""
"html-keyboard-response","373","407085","0.0-7.0-0.42","LF","qfloq0vkd1","1920","1080","0","1","0","5acb896da3ba7a0001b4e99f","","null","","","learningBlock2","","","","This is a bim:","null","","","","","",""
"image-keyboard-response","374","407413","0.0-7.0-1.42","LF","qfloq0vkd1","1920","1080","0","1","0","5acb896da3ba7a0001b4e99f","","null","","","","","","","learning/Slide123.JPG","null","","","","","",""
"html-keyboard-response","375","408414","0.0-7.0-2.42","LF","qfloq0vkd1","1920","1080","0","1","0","5acb896da3ba7a0001b4e99f","","null","","","learningBlock2","","","","<div style=""font-size:60px;""> </div>","null","LF","learning/Slide123.JPG","This is a bim:","","",""
"html-keyboard-response","376","409416","0.0-7.0-0.43","LF","qfloq0vkd1","1920","1080","0","1","0","5acb896da3ba7a0001b4e99f","","null","","","learningBlock2","","","","This is a tob:","null","","","","","",""
"image-keyboard-response","377","409743","0.0-7.0-1.43","LF","qfloq0vkd1","1920","1080","0","1","0","5acb896da3ba7a0001b4e99f","","null","","","","","","","learning/Slide124.JPG","null","","","","","",""
"html-keyboard-response","378","410744","0.0-7.0-2.43","LF","qfloq0vkd1","1920","1080","0","1","0","5acb896da3ba7a0001b4e99f","","null","","","learningBlock2","","","","<div style=""font-size:60px;""> </div>","null","LF","learning/Slide124.JPG","This is a tob:","","",""
"html-keyboard-response","379","411746","0.0-7.0-0.44","LF","qfloq0vkd1","1920","1080","0","1","0","5acb896da3ba7a0001b4e99f","","null","","","learningBlock2","","","","This is a bim:","null","","","","","",""
"image-keyboard-response","380","412074","0.0-7.0-1.44","LF","qfloq0vkd1","1920","1080","0","1","0","5acb896da3ba7a0001b4e99f","","null","","","","","","","learning/Slide125.JPG","null","","","","","",""
"html-keyboard-response","381","413076","0.0-7.0-2.44","LF","qfloq0vkd1","1920","1080","0","1","0","5acb896da3ba7a0001b4e99f","","null","","","learningBlock2","","","","<div style=""font-size:60px;""> </div>","null","LF","learning/Slide125.JPG","This is a bim:","","",""
"html-keyboard-response","382","414077","0.0-7.0-0.45","LF","qfloq0vkd1","1920","1080","0","1","0","5acb896da3ba7a0001b4e99f","","null","","","learningBlock2","","","","This is a tob:","null","","","","","",""
"image-keyboard-response","383","414404","0.0-7.0-1.45","LF","qfloq0vkd1","1920","1080","0","1","0","5acb896da3ba7a0001b4e99f","","null","","","","","","","learning/Slide126.JPG","null","","","","","",""
"html-keyboard-response","384","415405","0.0-7.0-2.45","LF","qfloq0vkd1","1920","1080","0","1","0","5acb896da3ba7a0001b4e99f","","null","","","learningBlock2","","","","<div style=""font-size:60px;""> </div>","null","LF","learning/Slide126.JPG","This is a tob:","","",""
"html-keyboard-response","385","416407","0.0-7.0-0.46","LF","qfloq0vkd1","1920","1080","0","1","0","5acb896da3ba7a0001b4e99f","","null","","","learningBlock2","","","","This is a dep:","null","","","","","",""
"image-keyboard-response","386","416734","0.0-7.0-1.46","LF","qfloq0vkd1","1920","1080","0","1","0","5acb896da3ba7a0001b4e99f","","null","","","","","","","learning/Slide127.JPG","null","","","","","",""
"html-keyboard-response","387","417736","0.0-7.0-2.46","LF","qfloq0vkd1","1920","1080","0","1","0","5acb896da3ba7a0001b4e99f","","null","","","learningBlock2","","","","<div style=""font-size:60px;""> </div>","null","LF","learning/Slide127.JPG","This is a dep:","","",""
"html-keyboard-response","388","418737","0.0-7.0-0.47","LF","qfloq0vkd1","1920","1080","0","1","0","5acb896da3ba7a0001b4e99f","","null","","","learningBlock2","","","","This is a wug:","null","","","","","",""
"image-keyboard-response","389","419065","0.0-7.0-1.47","LF","qfloq0vkd1","1920","1080","0","1","0","5acb896da3ba7a0001b4e99f","","null","","","","","","","learning/Slide128.JPG","null","","","","","",""
"html-keyboard-response","390","420067","0.0-7.0-2.47","LF","qfloq0vkd1","1920","1080","0","1","0","5acb896da3ba7a0001b4e99f","","null","","","learningBlock2","","","","<div style=""font-size:60px;""> </div>","null","LF","learning/Slide128.JPG","This is a wug:","","",""
"html-keyboard-response","391","421070","0.0-7.0-0.48","LF","qfloq0vkd1","1920","1080","0","1","0","5acb896da3ba7a0001b4e99f","","null","","","learningBlock2","","","","This is a tob:","null","","","","","",""
"image-keyboard-response","392","421398","0.0-7.0-1.48","LF","qfloq0vkd1","1920","1080","0","1","0","5acb896da3ba7a0001b4e99f","","null","","","","","","","learning/Slide129.JPG","null","","","","","",""
"html-keyboard-response","393","422400","0.0-7.0-2.48","LF","qfloq0vkd1","1920","1080","0","1","0","5acb896da3ba7a0001b4e99f","","null","","","learningBlock2","","","","<div style=""font-size:60px;""> </div>","null","LF","learning/Slide129.JPG","This is a tob:","","",""
"html-keyboard-response","394","423401","0.0-7.0-0.49","LF","qfloq0vkd1","1920","1080","0","1","0","5acb896da3ba7a0001b4e99f","","null","","","learningBlock2","","","","This is a wug:","null","","","","","",""
"image-keyboard-response","395","423728","0.0-7.0-1.49","LF","qfloq0vkd1","1920","1080","0","1","0","5acb896da3ba7a0001b4e99f","","null","","","","","","","learning/Slide130.JPG","null","","","","","",""
"html-keyboard-response","396","424730","0.0-7.0-2.49","LF","qfloq0vkd1","1920","1080","0","1","0","5acb896da3ba7a0001b4e99f","","null","","","learningBlock2","","","","<div style=""font-size:60px;""> </div>","null","LF","learning/Slide130.JPG","This is a wug:","","",""
"html-keyboard-response","397","425732","0.0-7.0-0.50","LF","qfloq0vkd1","1920","1080","0","1","0","5acb896da3ba7a0001b4e99f","","null","","","learningBlock2","","","","This is a bim:","null","","","","","",""
"image-keyboard-response","398","426061","0.0-7.0-1.50","LF","qfloq0vkd1","1920","1080","0","1","0","5acb896da3ba7a0001b4e99f","","null","","","","","","","learning/Slide131.JPG","null","","","","","",""
"html-keyboard-response","399","427063","0.0-7.0-2.50","LF","qfloq0vkd1","1920","1080","0","1","0","5acb896da3ba7a0001b4e99f","","null","","","learningBlock2","","","","<div style=""font-size:60px;""> </div>","null","LF","learning/Slide131.JPG","This is a bim:","","",""
"html-keyboard-response","400","428065","0.0-7.0-0.51","LF","qfloq0vkd1","1920","1080","0","1","0","5acb896da3ba7a0001b4e99f","","null","","","learningBlock2","","","","This is a dep:","null","","","","","",""
"image-keyboard-response","401","428393","0.0-7.0-1.51","LF","qfloq0vkd1","1920","1080","0","1","0","5acb896da3ba7a0001b4e99f","","null","","","","","","","learning/Slide132.JPG","null","","","","","",""
"html-keyboard-response","402","429395","0.0-7.0-2.51","LF","qfloq0vkd1","1920","1080","0","1","0","5acb896da3ba7a0001b4e99f","","null","","","learningBlock2","","","","<div style=""font-size:60px;""> </div>","null","LF","learning/Slide132.JPG","This is a dep:","","",""
"html-keyboard-response","403","430396","0.0-7.0-0.52","LF","qfloq0vkd1","1920","1080","0","1","0","5acb896da3ba7a0001b4e99f","","null","","","learningBlock2","","","","This is a tob:","null","","","","","",""
"image-keyboard-response","404","430725","0.0-7.0-1.52","LF","qfloq0vkd1","1920","1080","0","1","0","5acb896da3ba7a0001b4e99f","","null","","","","","","","learning/Slide133.JPG","null","","","","","",""
"html-keyboard-response","405","431726","0.0-7.0-2.52","LF","qfloq0vkd1","1920","1080","0","1","0","5acb896da3ba7a0001b4e99f","","null","","","learningBlock2","","","","<div style=""font-size:60px;""> </div>","null","LF","learning/Slide133.JPG","This is a tob:","","",""
"html-keyboard-response","406","432728","0.0-7.0-0.53","LF","qfloq0vkd1","1920","1080","0","1","0","5acb896da3ba7a0001b4e99f","","null","","","learningBlock2","","","","This is a dep:","null","","","","","",""
"image-keyboard-response","407","433056","0.0-7.0-1.53","LF","qfloq0vkd1","1920","1080","0","1","0","5acb896da3ba7a0001b4e99f","","null","","","","","","","learning/Slide134.JPG","null","","","","","",""
"html-keyboard-response","408","434058","0.0-7.0-2.53","LF","qfloq0vkd1","1920","1080","0","1","0","5acb896da3ba7a0001b4e99f","","null","","","learningBlock2","","","","<div style=""font-size:60px;""> </div>","null","LF","learning/Slide134.JPG","This is a dep:","","",""
"html-keyboard-response","409","435060","0.0-7.0-0.54","LF","qfloq0vkd1","1920","1080","0","1","0","5acb896da3ba7a0001b4e99f","","null","","","learningBlock2","","","","This is a tob:","null","","","","","",""
"image-keyboard-response","410","435387","0.0-7.0-1.54","LF","qfloq0vkd1","1920","1080","0","1","0","5acb896da3ba7a0001b4e99f","","null","","","","","","","learning/Slide135.JPG","null","","","","","",""
"html-keyboard-response","411","436388","0.0-7.0-2.54","LF","qfloq0vkd1","1920","1080","0","1","0","5acb896da3ba7a0001b4e99f","","null","","","learningBlock2","","","","<div style=""font-size:60px;""> </div>","null","LF","learning/Slide135.JPG","This is a tob:","","",""
"html-keyboard-response","412","437390","0.0-7.0-0.55","LF","qfloq0vkd1","1920","1080","0","1","0","5acb896da3ba7a0001b4e99f","","null","","","learningBlock2","","","","This is a wug:","null","","","","","",""
"image-keyboard-response","413","437718","0.0-7.0-1.55","LF","qfloq0vkd1","1920","1080","0","1","0","5acb896da3ba7a0001b4e99f","","null","","","","","","","learning/Slide136.JPG","null","","","","","",""
"html-keyboard-response","414","438720","0.0-7.0-2.55","LF","qfloq0vkd1","1920","1080","0","1","0","5acb896da3ba7a0001b4e99f","","null","","","learningBlock2","","","","<div style=""font-size:60px;""> </div>","null","LF","learning/Slide136.JPG","This is a wug:","","",""
"html-keyboard-response","415","439721","0.0-7.0-0.56","LF","qfloq0vkd1","1920","1080","0","1","0","5acb896da3ba7a0001b4e99f","","null","","","learningBlock2","","","","This is a tob:","null","","","","","",""
"image-keyboard-response","416","440049","0.0-7.0-1.56","LF","qfloq0vkd1","1920","1080","0","1","0","5acb896da3ba7a0001b4e99f","","null","","","","","","","learning/Slide137.JPG","null","","","","","",""
"html-keyboard-response","417","441051","0.0-7.0-2.56","LF","qfloq0vkd1","1920","1080","0","1","0","5acb896da3ba7a0001b4e99f","","null","","","learningBlock2","","","","<div style=""font-size:60px;""> </div>","null","LF","learning/Slide137.JPG","This is a tob:","","",""
"html-keyboard-response","418","442054","0.0-7.0-0.57","LF","qfloq0vkd1","1920","1080","0","1","0","5acb896da3ba7a0001b4e99f","","null","","","learningBlock2","","","","This is a bim:","null","","","","","",""
"image-keyboard-response","419","442383","0.0-7.0-1.57","LF","qfloq0vkd1","1920","1080","0","1","0","5acb896da3ba7a0001b4e99f","","null","","","","","","","learning/Slide138.JPG","null","","","","","",""
"html-keyboard-response","420","443384","0.0-7.0-2.57","LF","qfloq0vkd1","1920","1080","0","1","0","5acb896da3ba7a0001b4e99f","","null","","","learningBlock2","","","","<div style=""font-size:60px;""> </div>","null","LF","learning/Slide138.JPG","This is a bim:","","",""
"html-keyboard-response","421","444385","0.0-7.0-0.58","LF","qfloq0vkd1","1920","1080","0","1","0","5acb896da3ba7a0001b4e99f","","null","","","learningBlock2","","","","This is a wug:","null","","","","","",""
"image-keyboard-response","422","444712","0.0-7.0-1.58","LF","qfloq0vkd1","1920","1080","0","1","0","5acb896da3ba7a0001b4e99f","","null","","","","","","","learning/Slide139.JPG","null","","","","","",""
"html-keyboard-response","423","445714","0.0-7.0-2.58","LF","qfloq0vkd1","1920","1080","0","1","0","5acb896da3ba7a0001b4e99f","","null","","","learningBlock2","","","","<div style=""font-size:60px;""> </div>","null","LF","learning/Slide139.JPG","This is a wug:","","",""
"html-keyboard-response","424","446715","0.0-7.0-0.59","LF","qfloq0vkd1","1920","1080","0","1","0","5acb896da3ba7a0001b4e99f","","null","","","learningBlock2","","","","This is a dep:","null","","","","","",""
"image-keyboard-response","425","447043","0.0-7.0-1.59","LF","qfloq0vkd1","1920","1080","0","1","0","5acb896da3ba7a0001b4e99f","","null","","","","","","","learning/Slide140.JPG","null","","","","","",""
"html-keyboard-response","426","448044","0.0-7.0-2.59","LF","qfloq0vkd1","1920","1080","0","1","0","5acb896da3ba7a0001b4e99f","","null","","","learningBlock2","","","","<div style=""font-size:60px;""> </div>","null","LF","learning/Slide140.JPG","This is a dep:","","",""
"html-keyboard-response","427","449046","0.0-7.0-0.60","LF","qfloq0vkd1","1920","1080","0","1","0","5acb896da3ba7a0001b4e99f","","null","","","learningBlock2","","","","This is a tob:","null","","","","","",""
"image-keyboard-response","428","449373","0.0-7.0-1.60","LF","qfloq0vkd1","1920","1080","0","1","0","5acb896da3ba7a0001b4e99f","","null","","","","","","","learning/Slide141.JPG","null","","","","","",""
"html-keyboard-response","429","450376","0.0-7.0-2.60","LF","qfloq0vkd1","1920","1080","0","1","0","5acb896da3ba7a0001b4e99f","","null","","","learningBlock2","","","","<div style=""font-size:60px;""> </div>","null","LF","learning/Slide141.JPG","This is a tob:","","",""
"html-keyboard-response","430","451378","0.0-7.0-0.61","LF","qfloq0vkd1","1920","1080","0","1","0","5acb896da3ba7a0001b4e99f","","null","","","learningBlock2","","","","This is a wug:","null","","","","","",""
"image-keyboard-response","431","451706","0.0-7.0-1.61","LF","qfloq0vkd1","1920","1080","0","1","0","5acb896da3ba7a0001b4e99f","","null","","","","","","","learning/Slide142.JPG","null","","","","","",""
"html-keyboard-response","432","452708","0.0-7.0-2.61","LF","qfloq0vkd1","1920","1080","0","1","0","5acb896da3ba7a0001b4e99f","","null","","","learningBlock2","","","","<div style=""font-size:60px;""> </div>","null","LF","learning/Slide142.JPG","This is a wug:","","",""
"html-keyboard-response","433","453710","0.0-7.0-0.62","LF","qfloq0vkd1","1920","1080","0","1","0","5acb896da3ba7a0001b4e99f","","null","","","learningBlock2","","","","This is a bim:","null","","","","","",""
"image-keyboard-response","434","454037","0.0-7.0-1.62","LF","qfloq0vkd1","1920","1080","0","1","0","5acb896da3ba7a0001b4e99f","","null","","","","","","","learning/Slide143.JPG","null","","","","","",""
"html-keyboard-response","435","455039","0.0-7.0-2.62","LF","qfloq0vkd1","1920","1080","0","1","0","5acb896da3ba7a0001b4e99f","","null","","","learningBlock2","","","","<div style=""font-size:60px;""> </div>","null","LF","learning/Slide143.JPG","This is a bim:","","",""
