"trial_type","trial_index","time_elapsed","internal_node_id","condition","subject","screen_width","screen_height","attention","distraction","conscientious","prolificID","success","rt","url","view_history","test_part","final_height_px","final_width_px","scale_factor","stimulus","key_press","learningType","presentedImage","presentedLabel","button_pressed","response","responses"
"pavlovia","0","17","0.0-0.0","LF","rl7z98kzoa","1536","864","0","1","0","5faa8121f8f5533a5c7f7a20","","","","","","","","","","","","","","","",""
"fullscreen","1","83333","0.0-1.0","LF","rl7z98kzoa","1536","864","0","1","0","5faa8121f8f5533a5c7f7a20","true","","","","","","","","","","","","","","",""
"external-html","2","252892","0.0-2.0-0.0","LF","rl7z98kzoa","1536","864","0","1","0","5faa8121f8f5533a5c7f7a20","","169505.64499999746","text/information_english.html","","","","","","","","","","","","",""
"external-html","3","399700","0.0-2.0-1.0","LF","rl7z98kzoa","1536","864","0","1","0","5faa8121f8f5533a5c7f7a20","","146624.67499999912","text/consent_english.html","","","","","","","","","","","","",""
"instructions","4","440490","0.0-3.0","LF","rl7z98kzoa","1536","864","0","1","0","5faa8121f8f5533a5c7f7a20","","NA","","[{""page_index"":0,""viewing_time"":11838.95499999926},{""page_index"":1,""viewing_time"":28947.98500000249}]","instructions","","","","","","","","","","",""
"resize","5","515405","0.0-4.0","LF","rl7z98kzoa","1536","864","0","1","0","5faa8121f8f5533a5c7f7a20","","","","","","","389","2.46984126984127","","","","","","","",""
"html-keyboard-response","6","516409","0.0-5.0-0.0","LF","rl7z98kzoa","1536","864","0","1","0","5faa8121f8f5533a5c7f7a20","","null","","","learningBlock1","","","","This is a tob:","null","","","","","",""
"image-keyboard-response","7","516737","0.0-5.0-1.0","LF","rl7z98kzoa","1536","864","0","1","0","5faa8121f8f5533a5c7f7a20","","null","","","","","","","learning/Slide1.JPG","null","","","","","",""
"html-keyboard-response","8","517739","0.0-5.0-2.0","LF","rl7z98kzoa","1536","864","0","1","0","5faa8121f8f5533a5c7f7a20","","null","","","learningBlock1","","","","<div style=""font-size:60px;""> </div>","null","LF","learning/Slide1.JPG","This is a tob:","","",""
"html-keyboard-response","9","518741","0.0-5.0-0.1","LF","rl7z98kzoa","1536","864","0","1","0","5faa8121f8f5533a5c7f7a20","","null","","","learningBlock1","","","","This is a wug:","null","","","","","",""
"image-keyboard-response","10","519068","0.0-5.0-1.1","LF","rl7z98kzoa","1536","864","0","1","0","5faa8121f8f5533a5c7f7a20","","null","","","","","","","learning/Slide2.JPG","null","","","","","",""
"html-keyboard-response","11","520070","0.0-5.0-2.1","LF","rl7z98kzoa","1536","864","0","1","0","5faa8121f8f5533a5c7f7a20","","null","","","learningBlock1","","","","<div style=""font-size:60px;""> </div>","null","LF","learning/Slide2.JPG","This is a wug:","","",""
"html-keyboard-response","12","521072","0.0-5.0-0.2","LF","rl7z98kzoa","1536","864","0","1","0","5faa8121f8f5533a5c7f7a20","","null","","","learningBlock1","","","","This is a bim:","null","","","","","",""
"image-keyboard-response","13","521400","0.0-5.0-1.2","LF","rl7z98kzoa","1536","864","0","1","0","5faa8121f8f5533a5c7f7a20","","null","","","","","","","learning/Slide3.JPG","null","","","","","",""
"html-keyboard-response","14","522401","0.0-5.0-2.2","LF","rl7z98kzoa","1536","864","0","1","0","5faa8121f8f5533a5c7f7a20","","null","","","learningBlock1","","","","<div style=""font-size:60px;""> </div>","null","LF","learning/Slide3.JPG","This is a bim:","","",""
"html-keyboard-response","15","523402","0.0-5.0-0.3","LF","rl7z98kzoa","1536","864","0","1","0","5faa8121f8f5533a5c7f7a20","","null","","","learningBlock1","","","","This is a dep:","null","","","","","",""
"image-keyboard-response","16","523730","0.0-5.0-1.3","LF","rl7z98kzoa","1536","864","0","1","0","5faa8121f8f5533a5c7f7a20","","null","","","","","","","learning/Slide4.JPG","null","","","","","",""
"html-keyboard-response","17","524732","0.0-5.0-2.3","LF","rl7z98kzoa","1536","864","0","1","0","5faa8121f8f5533a5c7f7a20","","null","","","learningBlock1","","","","<div style=""font-size:60px;""> </div>","null","LF","learning/Slide4.JPG","This is a dep:","","",""
"html-keyboard-response","18","525733","0.0-5.0-0.4","LF","rl7z98kzoa","1536","864","0","1","0","5faa8121f8f5533a5c7f7a20","","null","","","learningBlock1","","","","This is a wug:","null","","","","","",""
"image-keyboard-response","19","526060","0.0-5.0-1.4","LF","rl7z98kzoa","1536","864","0","1","0","5faa8121f8f5533a5c7f7a20","","null","","","","","","","learning/Slide5.JPG","null","","","","","",""
"html-keyboard-response","20","527062","0.0-5.0-2.4","LF","rl7z98kzoa","1536","864","0","1","0","5faa8121f8f5533a5c7f7a20","","null","","","learningBlock1","","","","<div style=""font-size:60px;""> </div>","null","LF","learning/Slide5.JPG","This is a wug:","","",""
"html-keyboard-response","21","528063","0.0-5.0-0.5","LF","rl7z98kzoa","1536","864","0","1","0","5faa8121f8f5533a5c7f7a20","","null","","","learningBlock1","","","","This is a dep:","null","","","","","",""
"image-keyboard-response","22","528391","0.0-5.0-1.5","LF","rl7z98kzoa","1536","864","0","1","0","5faa8121f8f5533a5c7f7a20","","null","","","","","","","learning/Slide6.JPG","null","","","","","",""
"html-keyboard-response","23","529393","0.0-5.0-2.5","LF","rl7z98kzoa","1536","864","0","1","0","5faa8121f8f5533a5c7f7a20","","null","","","learningBlock1","","","","<div style=""font-size:60px;""> </div>","null","LF","learning/Slide6.JPG","This is a dep:","","",""
"html-keyboard-response","24","530395","0.0-5.0-0.6","LF","rl7z98kzoa","1536","864","0","1","0","5faa8121f8f5533a5c7f7a20","","null","","","learningBlock1","","","","This is a wug:","null","","","","","",""
"image-keyboard-response","25","530722","0.0-5.0-1.6","LF","rl7z98kzoa","1536","864","0","1","0","5faa8121f8f5533a5c7f7a20","","null","","","","","","","learning/Slide7.JPG","null","","","","","",""
"html-keyboard-response","26","531724","0.0-5.0-2.6","LF","rl7z98kzoa","1536","864","0","1","0","5faa8121f8f5533a5c7f7a20","","null","","","learningBlock1","","","","<div style=""font-size:60px;""> </div>","null","LF","learning/Slide7.JPG","This is a wug:","","",""
"html-keyboard-response","27","532726","0.0-5.0-0.7","LF","rl7z98kzoa","1536","864","0","1","0","5faa8121f8f5533a5c7f7a20","","null","","","learningBlock1","","","","This is a bim:","null","","","","","",""
"image-keyboard-response","28","533054","0.0-5.0-1.7","LF","rl7z98kzoa","1536","864","0","1","0","5faa8121f8f5533a5c7f7a20","","null","","","","","","","learning/Slide8.JPG","null","","","","","",""
"html-keyboard-response","29","534057","0.0-5.0-2.7","LF","rl7z98kzoa","1536","864","0","1","0","5faa8121f8f5533a5c7f7a20","","null","","","learningBlock1","","","","<div style=""font-size:60px;""> </div>","null","LF","learning/Slide8.JPG","This is a bim:","","",""
"html-keyboard-response","30","535058","0.0-5.0-0.8","LF","rl7z98kzoa","1536","864","0","1","0","5faa8121f8f5533a5c7f7a20","","null","","","learningBlock1","","","","This is a wug:","null","","","","","",""
"image-keyboard-response","31","535385","0.0-5.0-1.8","LF","rl7z98kzoa","1536","864","0","1","0","5faa8121f8f5533a5c7f7a20","","null","","","","","","","learning/Slide9.JPG","null","","","","","",""
"html-keyboard-response","32","536387","0.0-5.0-2.8","LF","rl7z98kzoa","1536","864","0","1","0","5faa8121f8f5533a5c7f7a20","","null","","","learningBlock1","","","","<div style=""font-size:60px;""> </div>","null","LF","learning/Slide9.JPG","This is a wug:","","",""
"html-keyboard-response","33","537389","0.0-5.0-0.9","LF","rl7z98kzoa","1536","864","0","1","0","5faa8121f8f5533a5c7f7a20","","null","","","learningBlock1","","","","This is a dep:","null","","","","","",""
"image-keyboard-response","34","537717","0.0-5.0-1.9","LF","rl7z98kzoa","1536","864","0","1","0","5faa8121f8f5533a5c7f7a20","","null","","","","","","","learning/Slide10.JPG","null","","","","","",""
"html-keyboard-response","35","538719","0.0-5.0-2.9","LF","rl7z98kzoa","1536","864","0","1","0","5faa8121f8f5533a5c7f7a20","","null","","","learningBlock1","","","","<div style=""font-size:60px;""> </div>","null","LF","learning/Slide10.JPG","This is a dep:","","",""
"html-keyboard-response","36","539721","0.0-5.0-0.10","LF","rl7z98kzoa","1536","864","0","1","0","5faa8121f8f5533a5c7f7a20","","null","","","learningBlock1","","","","This is a tob:","null","","","","","",""
"image-keyboard-response","37","540049","0.0-5.0-1.10","LF","rl7z98kzoa","1536","864","0","1","0","5faa8121f8f5533a5c7f7a20","","null","","","","","","","learning/Slide11.JPG","null","","","","","",""
"html-keyboard-response","38","541051","0.0-5.0-2.10","LF","rl7z98kzoa","1536","864","0","1","0","5faa8121f8f5533a5c7f7a20","","null","","","learningBlock1","","","","<div style=""font-size:60px;""> </div>","null","LF","learning/Slide11.JPG","This is a tob:","","",""
"html-keyboard-response","39","542052","0.0-5.0-0.11","LF","rl7z98kzoa","1536","864","0","1","0","5faa8121f8f5533a5c7f7a20","","null","","","learningBlock1","","","","This is a dep:","null","","","","","",""
"image-keyboard-response","40","542380","0.0-5.0-1.11","LF","rl7z98kzoa","1536","864","0","1","0","5faa8121f8f5533a5c7f7a20","","null","","","","","","","learning/Slide12.JPG","null","","","","","",""
"html-keyboard-response","41","543382","0.0-5.0-2.11","LF","rl7z98kzoa","1536","864","0","1","0","5faa8121f8f5533a5c7f7a20","","null","","","learningBlock1","","","","<div style=""font-size:60px;""> </div>","null","LF","learning/Slide12.JPG","This is a dep:","","",""
"html-keyboard-response","42","544383","0.0-5.0-0.12","LF","rl7z98kzoa","1536","864","0","1","0","5faa8121f8f5533a5c7f7a20","","null","","","learningBlock1","","","","This is a bim:","null","","","","","",""
"image-keyboard-response","43","544711","0.0-5.0-1.12","LF","rl7z98kzoa","1536","864","0","1","0","5faa8121f8f5533a5c7f7a20","","null","","","","","","","learning/Slide13.JPG","null","","","","","",""
"html-keyboard-response","44","545712","0.0-5.0-2.12","LF","rl7z98kzoa","1536","864","0","1","0","5faa8121f8f5533a5c7f7a20","","null","","","learningBlock1","","","","<div style=""font-size:60px;""> </div>","null","LF","learning/Slide13.JPG","This is a bim:","","",""
"html-keyboard-response","45","546715","0.0-5.0-0.13","LF","rl7z98kzoa","1536","864","0","1","0","5faa8121f8f5533a5c7f7a20","","null","","","learningBlock1","","","","This is a wug:","null","","","","","",""
"image-keyboard-response","46","547043","0.0-5.0-1.13","LF","rl7z98kzoa","1536","864","0","1","0","5faa8121f8f5533a5c7f7a20","","null","","","","","","","learning/Slide14.JPG","null","","","","","",""
"html-keyboard-response","47","548045","0.0-5.0-2.13","LF","rl7z98kzoa","1536","864","0","1","0","5faa8121f8f5533a5c7f7a20","","null","","","learningBlock1","","","","<div style=""font-size:60px;""> </div>","null","LF","learning/Slide14.JPG","This is a wug:","","",""
"html-keyboard-response","48","549047","0.0-5.0-0.14","LF","rl7z98kzoa","1536","864","0","1","0","5faa8121f8f5533a5c7f7a20","","null","","","learningBlock1","","","","This is a tob:","null","","","","","",""
"image-keyboard-response","49","549374","0.0-5.0-1.14","LF","rl7z98kzoa","1536","864","0","1","0","5faa8121f8f5533a5c7f7a20","","null","","","","","","","learning/Slide15.JPG","null","","","","","",""
"html-keyboard-response","50","550375","0.0-5.0-2.14","LF","rl7z98kzoa","1536","864","0","1","0","5faa8121f8f5533a5c7f7a20","","null","","","learningBlock1","","","","<div style=""font-size:60px;""> </div>","null","LF","learning/Slide15.JPG","This is a tob:","","",""
"html-keyboard-response","51","551377","0.0-5.0-0.15","LF","rl7z98kzoa","1536","864","0","1","0","5faa8121f8f5533a5c7f7a20","","null","","","learningBlock1","","","","This is a dep:","null","","","","","",""
"image-keyboard-response","52","551704","0.0-5.0-1.15","LF","rl7z98kzoa","1536","864","0","1","0","5faa8121f8f5533a5c7f7a20","","null","","","","","","","learning/Slide16.JPG","null","","","","","",""
"html-keyboard-response","53","552706","0.0-5.0-2.15","LF","rl7z98kzoa","1536","864","0","1","0","5faa8121f8f5533a5c7f7a20","","null","","","learningBlock1","","","","<div style=""font-size:60px;""> </div>","null","LF","learning/Slide16.JPG","This is a dep:","","",""
"html-keyboard-response","54","553708","0.0-5.0-0.16","LF","rl7z98kzoa","1536","864","0","1","0","5faa8121f8f5533a5c7f7a20","","null","","","learningBlock1","","","","This is a bim:","null","","","","","",""
"image-keyboard-response","55","554035","0.0-5.0-1.16","LF","rl7z98kzoa","1536","864","0","1","0","5faa8121f8f5533a5c7f7a20","","null","","","","","","","learning/Slide17.JPG","null","","","","","",""
"html-keyboard-response","56","555037","0.0-5.0-2.16","LF","rl7z98kzoa","1536","864","0","1","0","5faa8121f8f5533a5c7f7a20","","null","","","learningBlock1","","","","<div style=""font-size:60px;""> </div>","null","LF","learning/Slide17.JPG","This is a bim:","","",""
"html-keyboard-response","57","556039","0.0-5.0-0.17","LF","rl7z98kzoa","1536","864","0","1","0","5faa8121f8f5533a5c7f7a20","","null","","","learningBlock1","","","","This is a tob:","null","","","","","",""
"image-keyboard-response","58","556367","0.0-5.0-1.17","LF","rl7z98kzoa","1536","864","0","1","0","5faa8121f8f5533a5c7f7a20","","null","","","","","","","learning/Slide18.JPG","null","","","","","",""
"html-keyboard-response","59","557369","0.0-5.0-2.17","LF","rl7z98kzoa","1536","864","0","1","0","5faa8121f8f5533a5c7f7a20","","null","","","learningBlock1","","","","<div style=""font-size:60px;""> </div>","null","LF","learning/Slide18.JPG","This is a tob:","","",""
"html-keyboard-response","60","558370","0.0-5.0-0.18","LF","rl7z98kzoa","1536","864","0","1","0","5faa8121f8f5533a5c7f7a20","","null","","","learningBlock1","","","","This is a wug:","null","","","","","",""
"image-keyboard-response","61","558697","0.0-5.0-1.18","LF","rl7z98kzoa","1536","864","0","1","0","5faa8121f8f5533a5c7f7a20","","null","","","","","","","learning/Slide19.JPG","null","","","","","",""
"html-keyboard-response","62","559699","0.0-5.0-2.18","LF","rl7z98kzoa","1536","864","0","1","0","5faa8121f8f5533a5c7f7a20","","null","","","learningBlock1","","","","<div style=""font-size:60px;""> </div>","null","LF","learning/Slide19.JPG","This is a wug:","","",""
"html-keyboard-response","63","560700","0.0-5.0-0.19","LF","rl7z98kzoa","1536","864","0","1","0","5faa8121f8f5533a5c7f7a20","","null","","","learningBlock1","","","","This is a bim:","null","","","","","",""
"image-keyboard-response","64","561027","0.0-5.0-1.19","LF","rl7z98kzoa","1536","864","0","1","0","5faa8121f8f5533a5c7f7a20","","null","","","","","","","learning/Slide20.JPG","null","","","","","",""
"html-keyboard-response","65","562029","0.0-5.0-2.19","LF","rl7z98kzoa","1536","864","0","1","0","5faa8121f8f5533a5c7f7a20","","null","","","learningBlock1","","","","<div style=""font-size:60px;""> </div>","null","LF","learning/Slide20.JPG","This is a bim:","","",""
"html-keyboard-response","66","563031","0.0-5.0-0.20","LF","rl7z98kzoa","1536","864","0","1","0","5faa8121f8f5533a5c7f7a20","","null","","","learningBlock1","","","","This is a dep:","null","","","","","",""
"image-keyboard-response","67","563359","0.0-5.0-1.20","LF","rl7z98kzoa","1536","864","0","1","0","5faa8121f8f5533a5c7f7a20","","null","","","","","","","learning/Slide21.JPG","null","","","","","",""
"html-keyboard-response","68","564361","0.0-5.0-2.20","LF","rl7z98kzoa","1536","864","0","1","0","5faa8121f8f5533a5c7f7a20","","null","","","learningBlock1","","","","<div style=""font-size:60px;""> </div>","null","LF","learning/Slide21.JPG","This is a dep:","","",""
"html-keyboard-response","69","565364","0.0-5.0-0.21","LF","rl7z98kzoa","1536","864","0","1","0","5faa8121f8f5533a5c7f7a20","","null","","","learningBlock1","","","","This is a bim:","null","","","","","",""
"image-keyboard-response","70","565692","0.0-5.0-1.21","LF","rl7z98kzoa","1536","864","0","1","0","5faa8121f8f5533a5c7f7a20","","null","","","","","","","learning/Slide22.JPG","null","","","","","",""
"html-keyboard-response","71","566693","0.0-5.0-2.21","LF","rl7z98kzoa","1536","864","0","1","0","5faa8121f8f5533a5c7f7a20","","null","","","learningBlock1","","","","<div style=""font-size:60px;""> </div>","null","LF","learning/Slide22.JPG","This is a bim:","","",""
"html-keyboard-response","72","567695","0.0-5.0-0.22","LF","rl7z98kzoa","1536","864","0","1","0","5faa8121f8f5533a5c7f7a20","","null","","","learningBlock1","","","","This is a tob:","null","","","","","",""
"image-keyboard-response","73","568022","0.0-5.0-1.22","LF","rl7z98kzoa","1536","864","0","1","0","5faa8121f8f5533a5c7f7a20","","null","","","","","","","learning/Slide23.JPG","null","","","","","",""
"html-keyboard-response","74","569024","0.0-5.0-2.22","LF","rl7z98kzoa","1536","864","0","1","0","5faa8121f8f5533a5c7f7a20","","null","","","learningBlock1","","","","<div style=""font-size:60px;""> </div>","null","LF","learning/Slide23.JPG","This is a tob:","","",""
"html-keyboard-response","75","570025","0.0-5.0-0.23","LF","rl7z98kzoa","1536","864","0","1","0","5faa8121f8f5533a5c7f7a20","","null","","","learningBlock1","","","","This is a wug:","null","","","","","",""
"image-keyboard-response","76","570353","0.0-5.0-1.23","LF","rl7z98kzoa","1536","864","0","1","0","5faa8121f8f5533a5c7f7a20","","null","","","","","","","learning/Slide24.JPG","null","","","","","",""
"html-keyboard-response","77","571355","0.0-5.0-2.23","LF","rl7z98kzoa","1536","864","0","1","0","5faa8121f8f5533a5c7f7a20","","null","","","learningBlock1","","","","<div style=""font-size:60px;""> </div>","null","LF","learning/Slide24.JPG","This is a wug:","","",""
"html-keyboard-response","78","572356","0.0-5.0-0.24","LF","rl7z98kzoa","1536","864","0","1","0","5faa8121f8f5533a5c7f7a20","","null","","","learningBlock1","","","","This is a dep:","null","","","","","",""
"image-keyboard-response","79","572684","0.0-5.0-1.24","LF","rl7z98kzoa","1536","864","0","1","0","5faa8121f8f5533a5c7f7a20","","null","","","","","","","learning/Slide25.JPG","null","","","","","",""
"html-keyboard-response","80","573686","0.0-5.0-2.24","LF","rl7z98kzoa","1536","864","0","1","0","5faa8121f8f5533a5c7f7a20","","null","","","learningBlock1","","","","<div style=""font-size:60px;""> </div>","null","LF","learning/Slide25.JPG","This is a dep:","","",""
"html-keyboard-response","81","574687","0.0-5.0-0.25","LF","rl7z98kzoa","1536","864","0","1","0","5faa8121f8f5533a5c7f7a20","","null","","","learningBlock1","","","","This is a wug:","null","","","","","",""
"image-keyboard-response","82","575014","0.0-5.0-1.25","LF","rl7z98kzoa","1536","864","0","1","0","5faa8121f8f5533a5c7f7a20","","null","","","","","","","learning/Slide26.JPG","null","","","","","",""
"html-keyboard-response","83","576016","0.0-5.0-2.25","LF","rl7z98kzoa","1536","864","0","1","0","5faa8121f8f5533a5c7f7a20","","null","","","learningBlock1","","","","<div style=""font-size:60px;""> </div>","null","LF","learning/Slide26.JPG","This is a wug:","","",""
"html-keyboard-response","84","577017","0.0-5.0-0.26","LF","rl7z98kzoa","1536","864","0","1","0","5faa8121f8f5533a5c7f7a20","","null","","","learningBlock1","","","","This is a bim:","null","","","","","",""
"image-keyboard-response","85","577344","0.0-5.0-1.26","LF","rl7z98kzoa","1536","864","0","1","0","5faa8121f8f5533a5c7f7a20","","null","","","","","","","learning/Slide27.JPG","null","","","","","",""
"html-keyboard-response","86","578347","0.0-5.0-2.26","LF","rl7z98kzoa","1536","864","0","1","0","5faa8121f8f5533a5c7f7a20","","null","","","learningBlock1","","","","<div style=""font-size:60px;""> </div>","null","LF","learning/Slide27.JPG","This is a bim:","","",""
"html-keyboard-response","87","579348","0.0-5.0-0.27","LF","rl7z98kzoa","1536","864","0","1","0","5faa8121f8f5533a5c7f7a20","","null","","","learningBlock1","","","","This is a dep:","null","","","","","",""
"image-keyboard-response","88","579676","0.0-5.0-1.27","LF","rl7z98kzoa","1536","864","0","1","0","5faa8121f8f5533a5c7f7a20","","null","","","","","","","learning/Slide28.JPG","null","","","","","",""
"html-keyboard-response","89","580678","0.0-5.0-2.27","LF","rl7z98kzoa","1536","864","0","1","0","5faa8121f8f5533a5c7f7a20","","null","","","learningBlock1","","","","<div style=""font-size:60px;""> </div>","null","LF","learning/Slide28.JPG","This is a dep:","","",""
"html-keyboard-response","90","581679","0.0-5.0-0.28","LF","rl7z98kzoa","1536","864","0","1","0","5faa8121f8f5533a5c7f7a20","","null","","","learningBlock1","","","","This is a tob:","null","","","","","",""
"image-keyboard-response","91","582006","0.0-5.0-1.28","LF","rl7z98kzoa","1536","864","0","1","0","5faa8121f8f5533a5c7f7a20","","null","","","","","","","learning/Slide29.JPG","null","","","","","",""
"html-keyboard-response","92","583008","0.0-5.0-2.28","LF","rl7z98kzoa","1536","864","0","1","0","5faa8121f8f5533a5c7f7a20","","null","","","learningBlock1","","","","<div style=""font-size:60px;""> </div>","null","LF","learning/Slide29.JPG","This is a tob:","","",""
"html-keyboard-response","93","584008","0.0-5.0-0.29","LF","rl7z98kzoa","1536","864","0","1","0","5faa8121f8f5533a5c7f7a20","","null","","","learningBlock1","","","","This is a dep:","null","","","","","",""
"image-keyboard-response","94","584336","0.0-5.0-1.29","LF","rl7z98kzoa","1536","864","0","1","0","5faa8121f8f5533a5c7f7a20","","null","","","","","","","learning/Slide30.JPG","null","","","","","",""
"html-keyboard-response","95","585339","0.0-5.0-2.29","LF","rl7z98kzoa","1536","864","0","1","0","5faa8121f8f5533a5c7f7a20","","null","","","learningBlock1","","","","<div style=""font-size:60px;""> </div>","null","LF","learning/Slide30.JPG","This is a dep:","","",""
"html-keyboard-response","96","586340","0.0-5.0-0.30","LF","rl7z98kzoa","1536","864","0","1","0","5faa8121f8f5533a5c7f7a20","","null","","","learningBlock1","","","","This is a wug:","null","","","","","",""
"image-keyboard-response","97","586667","0.0-5.0-1.30","LF","rl7z98kzoa","1536","864","0","1","0","5faa8121f8f5533a5c7f7a20","","null","","","","","","","learning/Slide31.JPG","null","","","","","",""
"html-keyboard-response","98","587669","0.0-5.0-2.30","LF","rl7z98kzoa","1536","864","0","1","0","5faa8121f8f5533a5c7f7a20","","null","","","learningBlock1","","","","<div style=""font-size:60px;""> </div>","null","LF","learning/Slide31.JPG","This is a wug:","","",""
"html-keyboard-response","99","588671","0.0-5.0-0.31","LF","rl7z98kzoa","1536","864","0","1","0","5faa8121f8f5533a5c7f7a20","","null","","","learningBlock1","","","","This is a tob:","null","","","","","",""
"image-keyboard-response","100","588998","0.0-5.0-1.31","LF","rl7z98kzoa","1536","864","0","1","0","5faa8121f8f5533a5c7f7a20","","null","","","","","","","learning/Slide32.JPG","null","","","","","",""
"html-keyboard-response","101","589999","0.0-5.0-2.31","LF","rl7z98kzoa","1536","864","0","1","0","5faa8121f8f5533a5c7f7a20","","null","","","learningBlock1","","","","<div style=""font-size:60px;""> </div>","null","LF","learning/Slide32.JPG","This is a tob:","","",""
"html-keyboard-response","102","591001","0.0-5.0-0.32","LF","rl7z98kzoa","1536","864","0","1","0","5faa8121f8f5533a5c7f7a20","","null","","","learningBlock1","","","","This is a bim:","null","","","","","",""
"image-keyboard-response","103","591327","0.0-5.0-1.32","LF","rl7z98kzoa","1536","864","0","1","0","5faa8121f8f5533a5c7f7a20","","null","","","","","","","learning/Slide33.JPG","null","","","","","",""
"html-keyboard-response","104","592329","0.0-5.0-2.32","LF","rl7z98kzoa","1536","864","0","1","0","5faa8121f8f5533a5c7f7a20","","null","","","learningBlock1","","","","<div style=""font-size:60px;""> </div>","null","LF","learning/Slide33.JPG","This is a bim:","","",""
"html-keyboard-response","105","593330","0.0-5.0-0.33","LF","rl7z98kzoa","1536","864","0","1","0","5faa8121f8f5533a5c7f7a20","","null","","","learningBlock1","","","","This is a tob:","null","","","","","",""
"image-keyboard-response","106","593657","0.0-5.0-1.33","LF","rl7z98kzoa","1536","864","0","1","0","5faa8121f8f5533a5c7f7a20","","null","","","","","","","learning/Slide34.JPG","null","","","","","",""
"html-keyboard-response","107","594659","0.0-5.0-2.33","LF","rl7z98kzoa","1536","864","0","1","0","5faa8121f8f5533a5c7f7a20","","null","","","learningBlock1","","","","<div style=""font-size:60px;""> </div>","null","LF","learning/Slide34.JPG","This is a tob:","","",""
"html-keyboard-response","108","595660","0.0-5.0-0.34","LF","rl7z98kzoa","1536","864","0","1","0","5faa8121f8f5533a5c7f7a20","","null","","","learningBlock1","","","","This is a bim:","null","","","","","",""
"image-keyboard-response","109","595987","0.0-5.0-1.34","LF","rl7z98kzoa","1536","864","0","1","0","5faa8121f8f5533a5c7f7a20","","null","","","","","","","learning/Slide35.JPG","null","","","","","",""
"html-keyboard-response","110","596989","0.0-5.0-2.34","LF","rl7z98kzoa","1536","864","0","1","0","5faa8121f8f5533a5c7f7a20","","null","","","learningBlock1","","","","<div style=""font-size:60px;""> </div>","null","LF","learning/Slide35.JPG","This is a bim:","","",""
"html-keyboard-response","111","597991","0.0-5.0-0.35","LF","rl7z98kzoa","1536","864","0","1","0","5faa8121f8f5533a5c7f7a20","","null","","","learningBlock1","","","","This is a dep:","null","","","","","",""
"image-keyboard-response","112","598318","0.0-5.0-1.35","LF","rl7z98kzoa","1536","864","0","1","0","5faa8121f8f5533a5c7f7a20","","null","","","","","","","learning/Slide36.JPG","null","","","","","",""
"html-keyboard-response","113","599319","0.0-5.0-2.35","LF","rl7z98kzoa","1536","864","0","1","0","5faa8121f8f5533a5c7f7a20","","null","","","learningBlock1","","","","<div style=""font-size:60px;""> </div>","null","LF","learning/Slide36.JPG","This is a dep:","","",""
"html-keyboard-response","114","600320","0.0-5.0-0.36","LF","rl7z98kzoa","1536","864","0","1","0","5faa8121f8f5533a5c7f7a20","","null","","","learningBlock1","","","","This is a tob:","null","","","","","",""
"image-keyboard-response","115","600648","0.0-5.0-1.36","LF","rl7z98kzoa","1536","864","0","1","0","5faa8121f8f5533a5c7f7a20","","null","","","","","","","learning/Slide37.JPG","null","","","","","",""
"html-keyboard-response","116","601650","0.0-5.0-2.36","LF","rl7z98kzoa","1536","864","0","1","0","5faa8121f8f5533a5c7f7a20","","null","","","learningBlock1","","","","<div style=""font-size:60px;""> </div>","null","LF","learning/Slide37.JPG","This is a tob:","","",""
"html-keyboard-response","117","602651","0.0-5.0-0.37","LF","rl7z98kzoa","1536","864","0","1","0","5faa8121f8f5533a5c7f7a20","","null","","","learningBlock1","","","","This is a wug:","null","","","","","",""
"image-keyboard-response","118","602979","0.0-5.0-1.37","LF","rl7z98kzoa","1536","864","0","1","0","5faa8121f8f5533a5c7f7a20","","null","","","","","","","learning/Slide38.JPG","null","","","","","",""
"html-keyboard-response","119","603981","0.0-5.0-2.37","LF","rl7z98kzoa","1536","864","0","1","0","5faa8121f8f5533a5c7f7a20","","null","","","learningBlock1","","","","<div style=""font-size:60px;""> </div>","null","LF","learning/Slide38.JPG","This is a wug:","","",""
"html-keyboard-response","120","604983","0.0-5.0-0.38","LF","rl7z98kzoa","1536","864","0","1","0","5faa8121f8f5533a5c7f7a20","","null","","","learningBlock1","","","","This is a bim:","null","","","","","",""
"image-keyboard-response","121","605310","0.0-5.0-1.38","LF","rl7z98kzoa","1536","864","0","1","0","5faa8121f8f5533a5c7f7a20","","null","","","","","","","learning/Slide39.JPG","null","","","","","",""
"html-keyboard-response","122","606312","0.0-5.0-2.38","LF","rl7z98kzoa","1536","864","0","1","0","5faa8121f8f5533a5c7f7a20","","null","","","learningBlock1","","","","<div style=""font-size:60px;""> </div>","null","LF","learning/Slide39.JPG","This is a bim:","","",""
"html-keyboard-response","123","607313","0.0-5.0-0.39","LF","rl7z98kzoa","1536","864","0","1","0","5faa8121f8f5533a5c7f7a20","","null","","","learningBlock1","","","","This is a tob:","null","","","","","",""
"image-keyboard-response","124","607640","0.0-5.0-1.39","LF","rl7z98kzoa","1536","864","0","1","0","5faa8121f8f5533a5c7f7a20","","null","","","","","","","learning/Slide40.JPG","null","","","","","",""
"html-keyboard-response","125","608641","0.0-5.0-2.39","LF","rl7z98kzoa","1536","864","0","1","0","5faa8121f8f5533a5c7f7a20","","null","","","learningBlock1","","","","<div style=""font-size:60px;""> </div>","null","LF","learning/Slide40.JPG","This is a tob:","","",""
"html-keyboard-response","126","609643","0.0-5.0-0.40","LF","rl7z98kzoa","1536","864","0","1","0","5faa8121f8f5533a5c7f7a20","","null","","","learningBlock1","","","","This is a bim:","null","","","","","",""
"image-keyboard-response","127","609970","0.0-5.0-1.40","LF","rl7z98kzoa","1536","864","0","1","0","5faa8121f8f5533a5c7f7a20","","null","","","","","","","learning/Slide41.JPG","null","","","","","",""
"html-keyboard-response","128","610972","0.0-5.0-2.40","LF","rl7z98kzoa","1536","864","0","1","0","5faa8121f8f5533a5c7f7a20","","null","","","learningBlock1","","","","<div style=""font-size:60px;""> </div>","null","LF","learning/Slide41.JPG","This is a bim:","","",""
"html-keyboard-response","129","611974","0.0-5.0-0.41","LF","rl7z98kzoa","1536","864","0","1","0","5faa8121f8f5533a5c7f7a20","","null","","","learningBlock1","","","","This is a dep:","null","","","","","",""
"image-keyboard-response","130","612301","0.0-5.0-1.41","LF","rl7z98kzoa","1536","864","0","1","0","5faa8121f8f5533a5c7f7a20","","null","","","","","","","learning/Slide42.JPG","null","","","","","",""
"html-keyboard-response","131","613302","0.0-5.0-2.41","LF","rl7z98kzoa","1536","864","0","1","0","5faa8121f8f5533a5c7f7a20","","null","","","learningBlock1","","","","<div style=""font-size:60px;""> </div>","null","LF","learning/Slide42.JPG","This is a dep:","","",""
"html-keyboard-response","132","614304","0.0-5.0-0.42","LF","rl7z98kzoa","1536","864","0","1","0","5faa8121f8f5533a5c7f7a20","","null","","","learningBlock1","","","","This is a wug:","null","","","","","",""
"image-keyboard-response","133","614630","0.0-5.0-1.42","LF","rl7z98kzoa","1536","864","0","1","0","5faa8121f8f5533a5c7f7a20","","null","","","","","","","learning/Slide43.JPG","null","","","","","",""
"html-keyboard-response","134","615632","0.0-5.0-2.42","LF","rl7z98kzoa","1536","864","0","1","0","5faa8121f8f5533a5c7f7a20","","null","","","learningBlock1","","","","<div style=""font-size:60px;""> </div>","null","LF","learning/Slide43.JPG","This is a wug:","","",""
"html-keyboard-response","135","616633","0.0-5.0-0.43","LF","rl7z98kzoa","1536","864","0","1","0","5faa8121f8f5533a5c7f7a20","","null","","","learningBlock1","","","","This is a bim:","null","","","","","",""
"image-keyboard-response","136","616960","0.0-5.0-1.43","LF","rl7z98kzoa","1536","864","0","1","0","5faa8121f8f5533a5c7f7a20","","null","","","","","","","learning/Slide44.JPG","null","","","","","",""
"html-keyboard-response","137","617962","0.0-5.0-2.43","LF","rl7z98kzoa","1536","864","0","1","0","5faa8121f8f5533a5c7f7a20","","null","","","learningBlock1","","","","<div style=""font-size:60px;""> </div>","null","LF","learning/Slide44.JPG","This is a bim:","","",""
"html-keyboard-response","138","618963","0.0-5.0-0.44","LF","rl7z98kzoa","1536","864","0","1","0","5faa8121f8f5533a5c7f7a20","","null","","","learningBlock1","","","","This is a wug:","null","","","","","",""
"image-keyboard-response","139","619290","0.0-5.0-1.44","LF","rl7z98kzoa","1536","864","0","1","0","5faa8121f8f5533a5c7f7a20","","null","","","","","","","learning/Slide45.JPG","null","","","","","",""
"html-keyboard-response","140","620292","0.0-5.0-2.44","LF","rl7z98kzoa","1536","864","0","1","0","5faa8121f8f5533a5c7f7a20","","null","","","learningBlock1","","","","<div style=""font-size:60px;""> </div>","null","LF","learning/Slide45.JPG","This is a wug:","","",""
"html-keyboard-response","141","621293","0.0-5.0-0.45","LF","rl7z98kzoa","1536","864","0","1","0","5faa8121f8f5533a5c7f7a20","","null","","","learningBlock1","","","","This is a dep:","null","","","","","",""
"image-keyboard-response","142","621621","0.0-5.0-1.45","LF","rl7z98kzoa","1536","864","0","1","0","5faa8121f8f5533a5c7f7a20","","null","","","","","","","learning/Slide46.JPG","null","","","","","",""
"html-keyboard-response","143","622623","0.0-5.0-2.45","LF","rl7z98kzoa","1536","864","0","1","0","5faa8121f8f5533a5c7f7a20","","null","","","learningBlock1","","","","<div style=""font-size:60px;""> </div>","null","LF","learning/Slide46.JPG","This is a dep:","","",""
"html-keyboard-response","144","623624","0.0-5.0-0.46","LF","rl7z98kzoa","1536","864","0","1","0","5faa8121f8f5533a5c7f7a20","","null","","","learningBlock1","","","","This is a tob:","null","","","","","",""
"image-keyboard-response","145","623951","0.0-5.0-1.46","LF","rl7z98kzoa","1536","864","0","1","0","5faa8121f8f5533a5c7f7a20","","null","","","","","","","learning/Slide47.JPG","null","","","","","",""
"html-keyboard-response","146","624953","0.0-5.0-2.46","LF","rl7z98kzoa","1536","864","0","1","0","5faa8121f8f5533a5c7f7a20","","null","","","learningBlock1","","","","<div style=""font-size:60px;""> </div>","null","LF","learning/Slide47.JPG","This is a tob:","","",""
"html-keyboard-response","147","625954","0.0-5.0-0.47","LF","rl7z98kzoa","1536","864","0","1","0","5faa8121f8f5533a5c7f7a20","","null","","","learningBlock1","","","","This is a bim:","null","","","","","",""
"image-keyboard-response","148","626281","0.0-5.0-1.47","LF","rl7z98kzoa","1536","864","0","1","0","5faa8121f8f5533a5c7f7a20","","null","","","","","","","learning/Slide48.JPG","null","","","","","",""
"html-keyboard-response","149","627283","0.0-5.0-2.47","LF","rl7z98kzoa","1536","864","0","1","0","5faa8121f8f5533a5c7f7a20","","null","","","learningBlock1","","","","<div style=""font-size:60px;""> </div>","null","LF","learning/Slide48.JPG","This is a bim:","","",""
"html-keyboard-response","150","628285","0.0-5.0-0.48","LF","rl7z98kzoa","1536","864","0","1","0","5faa8121f8f5533a5c7f7a20","","null","","","learningBlock1","","","","This is a dep:","null","","","","","",""
"image-keyboard-response","151","628613","0.0-5.0-1.48","LF","rl7z98kzoa","1536","864","0","1","0","5faa8121f8f5533a5c7f7a20","","null","","","","","","","learning/Slide49.JPG","null","","","","","",""
"html-keyboard-response","152","629615","0.0-5.0-2.48","LF","rl7z98kzoa","1536","864","0","1","0","5faa8121f8f5533a5c7f7a20","","null","","","learningBlock1","","","","<div style=""font-size:60px;""> </div>","null","LF","learning/Slide49.JPG","This is a dep:","","",""
"html-keyboard-response","153","630616","0.0-5.0-0.49","LF","rl7z98kzoa","1536","864","0","1","0","5faa8121f8f5533a5c7f7a20","","null","","","learningBlock1","","","","This is a tob:","null","","","","","",""
"image-keyboard-response","154","630944","0.0-5.0-1.49","LF","rl7z98kzoa","1536","864","0","1","0","5faa8121f8f5533a5c7f7a20","","null","","","","","","","learning/Slide50.JPG","null","","","","","",""
"html-keyboard-response","155","631946","0.0-5.0-2.49","LF","rl7z98kzoa","1536","864","0","1","0","5faa8121f8f5533a5c7f7a20","","null","","","learningBlock1","","","","<div style=""font-size:60px;""> </div>","null","LF","learning/Slide50.JPG","This is a tob:","","",""
"html-keyboard-response","156","632948","0.0-5.0-0.50","LF","rl7z98kzoa","1536","864","0","1","0","5faa8121f8f5533a5c7f7a20","","null","","","learningBlock1","","","","This is a bim:","null","","","","","",""
"image-keyboard-response","157","633275","0.0-5.0-1.50","LF","rl7z98kzoa","1536","864","0","1","0","5faa8121f8f5533a5c7f7a20","","null","","","","","","","learning/Slide51.JPG","null","","","","","",""
"html-keyboard-response","158","634277","0.0-5.0-2.50","LF","rl7z98kzoa","1536","864","0","1","0","5faa8121f8f5533a5c7f7a20","","null","","","learningBlock1","","","","<div style=""font-size:60px;""> </div>","null","LF","learning/Slide51.JPG","This is a bim:","","",""
"html-keyboard-response","159","635279","0.0-5.0-0.51","LF","rl7z98kzoa","1536","864","0","1","0","5faa8121f8f5533a5c7f7a20","","null","","","learningBlock1","","","","This is a wug:","null","","","","","",""
"image-keyboard-response","160","635607","0.0-5.0-1.51","LF","rl7z98kzoa","1536","864","0","1","0","5faa8121f8f5533a5c7f7a20","","null","","","","","","","learning/Slide52.JPG","null","","","","","",""
"html-keyboard-response","161","636609","0.0-5.0-2.51","LF","rl7z98kzoa","1536","864","0","1","0","5faa8121f8f5533a5c7f7a20","","null","","","learningBlock1","","","","<div style=""font-size:60px;""> </div>","null","LF","learning/Slide52.JPG","This is a wug:","","",""
"html-keyboard-response","162","637610","0.0-5.0-0.52","LF","rl7z98kzoa","1536","864","0","1","0","5faa8121f8f5533a5c7f7a20","","null","","","learningBlock1","","","","This is a tob:","null","","","","","",""
"image-keyboard-response","163","637937","0.0-5.0-1.52","LF","rl7z98kzoa","1536","864","0","1","0","5faa8121f8f5533a5c7f7a20","","null","","","","","","","learning/Slide53.JPG","null","","","","","",""
"html-keyboard-response","164","638939","0.0-5.0-2.52","LF","rl7z98kzoa","1536","864","0","1","0","5faa8121f8f5533a5c7f7a20","","null","","","learningBlock1","","","","<div style=""font-size:60px;""> </div>","null","LF","learning/Slide53.JPG","This is a tob:","","",""
"html-keyboard-response","165","639940","0.0-5.0-0.53","LF","rl7z98kzoa","1536","864","0","1","0","5faa8121f8f5533a5c7f7a20","","null","","","learningBlock1","","","","This is a dep:","null","","","","","",""
"image-keyboard-response","166","640268","0.0-5.0-1.53","LF","rl7z98kzoa","1536","864","0","1","0","5faa8121f8f5533a5c7f7a20","","null","","","","","","","learning/Slide54.JPG","null","","","","","",""
"html-keyboard-response","167","641270","0.0-5.0-2.53","LF","rl7z98kzoa","1536","864","0","1","0","5faa8121f8f5533a5c7f7a20","","null","","","learningBlock1","","","","<div style=""font-size:60px;""> </div>","null","LF","learning/Slide54.JPG","This is a dep:","","",""
"html-keyboard-response","168","642271","0.0-5.0-0.54","LF","rl7z98kzoa","1536","864","0","1","0","5faa8121f8f5533a5c7f7a20","","null","","","learningBlock1","","","","This is a bim:","null","","","","","",""
"image-keyboard-response","169","642599","0.0-5.0-1.54","LF","rl7z98kzoa","1536","864","0","1","0","5faa8121f8f5533a5c7f7a20","","null","","","","","","","learning/Slide55.JPG","null","","","","","",""
"html-keyboard-response","170","643600","0.0-5.0-2.54","LF","rl7z98kzoa","1536","864","0","1","0","5faa8121f8f5533a5c7f7a20","","null","","","learningBlock1","","","","<div style=""font-size:60px;""> </div>","null","LF","learning/Slide55.JPG","This is a bim:","","",""
"html-keyboard-response","171","644602","0.0-5.0-0.55","LF","rl7z98kzoa","1536","864","0","1","0","5faa8121f8f5533a5c7f7a20","","null","","","learningBlock1","","","","This is a tob:","null","","","","","",""
"image-keyboard-response","172","644929","0.0-5.0-1.55","LF","rl7z98kzoa","1536","864","0","1","0","5faa8121f8f5533a5c7f7a20","","null","","","","","","","learning/Slide56.JPG","null","","","","","",""
"html-keyboard-response","173","645931","0.0-5.0-2.55","LF","rl7z98kzoa","1536","864","0","1","0","5faa8121f8f5533a5c7f7a20","","null","","","learningBlock1","","","","<div style=""font-size:60px;""> </div>","null","LF","learning/Slide56.JPG","This is a tob:","","",""
"html-keyboard-response","174","646932","0.0-5.0-0.56","LF","rl7z98kzoa","1536","864","0","1","0","5faa8121f8f5533a5c7f7a20","","null","","","learningBlock1","","","","This is a dep:","null","","","","","",""
"image-keyboard-response","175","647259","0.0-5.0-1.56","LF","rl7z98kzoa","1536","864","0","1","0","5faa8121f8f5533a5c7f7a20","","null","","","","","","","learning/Slide57.JPG","null","","","","","",""
"html-keyboard-response","176","648260","0.0-5.0-2.56","LF","rl7z98kzoa","1536","864","0","1","0","5faa8121f8f5533a5c7f7a20","","null","","","learningBlock1","","","","<div style=""font-size:60px;""> </div>","null","LF","learning/Slide57.JPG","This is a dep:","","",""
"html-keyboard-response","177","649262","0.0-5.0-0.57","LF","rl7z98kzoa","1536","864","0","1","0","5faa8121f8f5533a5c7f7a20","","null","","","learningBlock1","","","","This is a wug:","null","","","","","",""
"image-keyboard-response","178","649589","0.0-5.0-1.57","LF","rl7z98kzoa","1536","864","0","1","0","5faa8121f8f5533a5c7f7a20","","null","","","","","","","learning/Slide58.JPG","null","","","","","",""
"html-keyboard-response","179","650591","0.0-5.0-2.57","LF","rl7z98kzoa","1536","864","0","1","0","5faa8121f8f5533a5c7f7a20","","null","","","learningBlock1","","","","<div style=""font-size:60px;""> </div>","null","LF","learning/Slide58.JPG","This is a wug:","","",""
"html-keyboard-response","180","651592","0.0-5.0-0.58","LF","rl7z98kzoa","1536","864","0","1","0","5faa8121f8f5533a5c7f7a20","","null","","","learningBlock1","","","","This is a dep:","null","","","","","",""
"image-keyboard-response","181","651921","0.0-5.0-1.58","LF","rl7z98kzoa","1536","864","0","1","0","5faa8121f8f5533a5c7f7a20","","null","","","","","","","learning/Slide59.JPG","null","","","","","",""
"html-keyboard-response","182","652922","0.0-5.0-2.58","LF","rl7z98kzoa","1536","864","0","1","0","5faa8121f8f5533a5c7f7a20","","null","","","learningBlock1","","","","<div style=""font-size:60px;""> </div>","null","LF","learning/Slide59.JPG","This is a dep:","","",""
"html-keyboard-response","183","653923","0.0-5.0-0.59","LF","rl7z98kzoa","1536","864","0","1","0","5faa8121f8f5533a5c7f7a20","","null","","","learningBlock1","","","","This is a wug:","null","","","","","",""
"image-keyboard-response","184","654251","0.0-5.0-1.59","LF","rl7z98kzoa","1536","864","0","1","0","5faa8121f8f5533a5c7f7a20","","null","","","","","","","learning/Slide60.JPG","null","","","","","",""
"html-keyboard-response","185","655252","0.0-5.0-2.59","LF","rl7z98kzoa","1536","864","0","1","0","5faa8121f8f5533a5c7f7a20","","null","","","learningBlock1","","","","<div style=""font-size:60px;""> </div>","null","LF","learning/Slide60.JPG","This is a wug:","","",""
"html-keyboard-response","186","656253","0.0-5.0-0.60","LF","rl7z98kzoa","1536","864","0","1","0","5faa8121f8f5533a5c7f7a20","","null","","","learningBlock1","","","","This is a bim:","null","","","","","",""
"image-keyboard-response","187","656581","0.0-5.0-1.60","LF","rl7z98kzoa","1536","864","0","1","0","5faa8121f8f5533a5c7f7a20","","null","","","","","","","learning/Slide61.JPG","null","","","","","",""
"html-keyboard-response","188","657582","0.0-5.0-2.60","LF","rl7z98kzoa","1536","864","0","1","0","5faa8121f8f5533a5c7f7a20","","null","","","learningBlock1","","","","<div style=""font-size:60px;""> </div>","null","LF","learning/Slide61.JPG","This is a bim:","","",""
"html-keyboard-response","189","658583","0.0-5.0-0.61","LF","rl7z98kzoa","1536","864","0","1","0","5faa8121f8f5533a5c7f7a20","","null","","","learningBlock1","","","","This is a dep:","null","","","","","",""
"image-keyboard-response","190","658911","0.0-5.0-1.61","LF","rl7z98kzoa","1536","864","0","1","0","5faa8121f8f5533a5c7f7a20","","null","","","","","","","learning/Slide62.JPG","null","","","","","",""
"html-keyboard-response","191","659912","0.0-5.0-2.61","LF","rl7z98kzoa","1536","864","0","1","0","5faa8121f8f5533a5c7f7a20","","null","","","learningBlock1","","","","<div style=""font-size:60px;""> </div>","null","LF","learning/Slide62.JPG","This is a dep:","","",""
"html-keyboard-response","192","660914","0.0-5.0-0.62","LF","rl7z98kzoa","1536","864","0","1","0","5faa8121f8f5533a5c7f7a20","","null","","","learningBlock1","","","","This is a bim:","null","","","","","",""
"image-keyboard-response","193","661242","0.0-5.0-1.62","LF","rl7z98kzoa","1536","864","0","1","0","5faa8121f8f5533a5c7f7a20","","null","","","","","","","learning/Slide63.JPG","null","","","","","",""
"html-keyboard-response","194","662244","0.0-5.0-2.62","LF","rl7z98kzoa","1536","864","0","1","0","5faa8121f8f5533a5c7f7a20","","null","","","learningBlock1","","","","<div style=""font-size:60px;""> </div>","null","LF","learning/Slide63.JPG","This is a bim:","","",""
"html-keyboard-response","195","663245","0.0-5.0-0.63","LF","rl7z98kzoa","1536","864","0","1","0","5faa8121f8f5533a5c7f7a20","","null","","","learningBlock1","","","","This is a tob:","null","","","","","",""
"image-keyboard-response","196","663572","0.0-5.0-1.63","LF","rl7z98kzoa","1536","864","0","1","0","5faa8121f8f5533a5c7f7a20","","null","","","","","","","learning/Slide64.JPG","null","","","","","",""
"html-keyboard-response","197","664574","0.0-5.0-2.63","LF","rl7z98kzoa","1536","864","0","1","0","5faa8121f8f5533a5c7f7a20","","null","","","learningBlock1","","","","<div style=""font-size:60px;""> </div>","null","LF","learning/Slide64.JPG","This is a tob:","","",""
"html-keyboard-response","198","665576","0.0-5.0-0.64","LF","rl7z98kzoa","1536","864","0","1","0","5faa8121f8f5533a5c7f7a20","","null","","","learningBlock1","","","","This is a wug:","null","","","","","",""
"image-keyboard-response","199","665904","0.0-5.0-1.64","LF","rl7z98kzoa","1536","864","0","1","0","5faa8121f8f5533a5c7f7a20","","null","","","","","","","learning/Slide65.JPG","null","","","","","",""
"html-keyboard-response","200","666906","0.0-5.0-2.64","LF","rl7z98kzoa","1536","864","0","1","0","5faa8121f8f5533a5c7f7a20","","null","","","learningBlock1","","","","<div style=""font-size:60px;""> </div>","null","LF","learning/Slide65.JPG","This is a wug:","","",""
"html-keyboard-response","201","667907","0.0-5.0-0.65","LF","rl7z98kzoa","1536","864","0","1","0","5faa8121f8f5533a5c7f7a20","","null","","","learningBlock1","","","","This is a dep:","null","","","","","",""
"image-keyboard-response","202","668234","0.0-5.0-1.65","LF","rl7z98kzoa","1536","864","0","1","0","5faa8121f8f5533a5c7f7a20","","null","","","","","","","learning/Slide66.JPG","null","","","","","",""
"html-keyboard-response","203","669237","0.0-5.0-2.65","LF","rl7z98kzoa","1536","864","0","1","0","5faa8121f8f5533a5c7f7a20","","null","","","learningBlock1","","","","<div style=""font-size:60px;""> </div>","null","LF","learning/Slide66.JPG","This is a dep:","","",""
"html-keyboard-response","204","670239","0.0-5.0-0.66","LF","rl7z98kzoa","1536","864","0","1","0","5faa8121f8f5533a5c7f7a20","","null","","","learningBlock1","","","","This is a tob:","null","","","","","",""
"image-keyboard-response","205","670566","0.0-5.0-1.66","LF","rl7z98kzoa","1536","864","0","1","0","5faa8121f8f5533a5c7f7a20","","null","","","","","","","learning/Slide67.JPG","null","","","","","",""
"html-keyboard-response","206","671567","0.0-5.0-2.66","LF","rl7z98kzoa","1536","864","0","1","0","5faa8121f8f5533a5c7f7a20","","null","","","learningBlock1","","","","<div style=""font-size:60px;""> </div>","null","LF","learning/Slide67.JPG","This is a tob:","","",""
"html-keyboard-response","207","672569","0.0-5.0-0.67","LF","rl7z98kzoa","1536","864","0","1","0","5faa8121f8f5533a5c7f7a20","","null","","","learningBlock1","","","","This is a wug:","null","","","","","",""
"image-keyboard-response","208","672897","0.0-5.0-1.67","LF","rl7z98kzoa","1536","864","0","1","0","5faa8121f8f5533a5c7f7a20","","null","","","","","","","learning/Slide68.JPG","null","","","","","",""
"html-keyboard-response","209","673899","0.0-5.0-2.67","LF","rl7z98kzoa","1536","864","0","1","0","5faa8121f8f5533a5c7f7a20","","null","","","learningBlock1","","","","<div style=""font-size:60px;""> </div>","null","LF","learning/Slide68.JPG","This is a wug:","","",""
"html-keyboard-response","210","674899","0.0-5.0-0.68","LF","rl7z98kzoa","1536","864","0","1","0","5faa8121f8f5533a5c7f7a20","","null","","","learningBlock1","","","","This is a tob:","null","","","","","",""
"image-keyboard-response","211","675226","0.0-5.0-1.68","LF","rl7z98kzoa","1536","864","0","1","0","5faa8121f8f5533a5c7f7a20","","null","","","","","","","learning/Slide69.JPG","null","","","","","",""
"html-keyboard-response","212","676228","0.0-5.0-2.68","LF","rl7z98kzoa","1536","864","0","1","0","5faa8121f8f5533a5c7f7a20","","null","","","learningBlock1","","","","<div style=""font-size:60px;""> </div>","null","LF","learning/Slide69.JPG","This is a tob:","","",""
"html-keyboard-response","213","677230","0.0-5.0-0.69","LF","rl7z98kzoa","1536","864","0","1","0","5faa8121f8f5533a5c7f7a20","","null","","","learningBlock1","","","","This is a dep:","null","","","","","",""
"image-keyboard-response","214","677557","0.0-5.0-1.69","LF","rl7z98kzoa","1536","864","0","1","0","5faa8121f8f5533a5c7f7a20","","null","","","","","","","learning/Slide70.JPG","null","","","","","",""
"html-keyboard-response","215","678559","0.0-5.0-2.69","LF","rl7z98kzoa","1536","864","0","1","0","5faa8121f8f5533a5c7f7a20","","null","","","learningBlock1","","","","<div style=""font-size:60px;""> </div>","null","LF","learning/Slide70.JPG","This is a dep:","","",""
"html-keyboard-response","216","679560","0.0-5.0-0.70","LF","rl7z98kzoa","1536","864","0","1","0","5faa8121f8f5533a5c7f7a20","","null","","","learningBlock1","","","","This is a wug:","null","","","","","",""
"image-keyboard-response","217","679888","0.0-5.0-1.70","LF","rl7z98kzoa","1536","864","0","1","0","5faa8121f8f5533a5c7f7a20","","null","","","","","","","learning/Slide71.JPG","null","","","","","",""
"html-keyboard-response","218","680889","0.0-5.0-2.70","LF","rl7z98kzoa","1536","864","0","1","0","5faa8121f8f5533a5c7f7a20","","null","","","learningBlock1","","","","<div style=""font-size:60px;""> </div>","null","LF","learning/Slide71.JPG","This is a wug:","","",""
"html-keyboard-response","219","681891","0.0-5.0-0.71","LF","rl7z98kzoa","1536","864","0","1","0","5faa8121f8f5533a5c7f7a20","","null","","","learningBlock1","","","","This is a bim:","null","","","","","",""
"image-keyboard-response","220","682219","0.0-5.0-1.71","LF","rl7z98kzoa","1536","864","0","1","0","5faa8121f8f5533a5c7f7a20","","null","","","","","","","learning/Slide72.JPG","null","","","","","",""
"html-keyboard-response","221","683220","0.0-5.0-2.71","LF","rl7z98kzoa","1536","864","0","1","0","5faa8121f8f5533a5c7f7a20","","null","","","learningBlock1","","","","<div style=""font-size:60px;""> </div>","null","LF","learning/Slide72.JPG","This is a bim:","","",""
"html-keyboard-response","222","684222","0.0-5.0-0.72","LF","rl7z98kzoa","1536","864","0","1","0","5faa8121f8f5533a5c7f7a20","","null","","","learningBlock1","","","","This is a wug:","null","","","","","",""
"image-keyboard-response","223","684549","0.0-5.0-1.72","LF","rl7z98kzoa","1536","864","0","1","0","5faa8121f8f5533a5c7f7a20","","null","","","","","","","learning/Slide73.JPG","null","","","","","",""
"html-keyboard-response","224","685551","0.0-5.0-2.72","LF","rl7z98kzoa","1536","864","0","1","0","5faa8121f8f5533a5c7f7a20","","null","","","learningBlock1","","","","<div style=""font-size:60px;""> </div>","null","LF","learning/Slide73.JPG","This is a wug:","","",""
"html-keyboard-response","225","686552","0.0-5.0-0.73","LF","rl7z98kzoa","1536","864","0","1","0","5faa8121f8f5533a5c7f7a20","","null","","","learningBlock1","","","","This is a dep:","null","","","","","",""
"image-keyboard-response","226","686880","0.0-5.0-1.73","LF","rl7z98kzoa","1536","864","0","1","0","5faa8121f8f5533a5c7f7a20","","null","","","","","","","learning/Slide74.JPG","null","","","","","",""
"html-keyboard-response","227","687882","0.0-5.0-2.73","LF","rl7z98kzoa","1536","864","0","1","0","5faa8121f8f5533a5c7f7a20","","null","","","learningBlock1","","","","<div style=""font-size:60px;""> </div>","null","LF","learning/Slide74.JPG","This is a dep:","","",""
"html-keyboard-response","228","688883","0.0-5.0-0.74","LF","rl7z98kzoa","1536","864","0","1","0","5faa8121f8f5533a5c7f7a20","","null","","","learningBlock1","","","","This is a tob:","null","","","","","",""
"image-keyboard-response","229","689210","0.0-5.0-1.74","LF","rl7z98kzoa","1536","864","0","1","0","5faa8121f8f5533a5c7f7a20","","null","","","","","","","learning/Slide75.JPG","null","","","","","",""
"html-keyboard-response","230","690211","0.0-5.0-2.74","LF","rl7z98kzoa","1536","864","0","1","0","5faa8121f8f5533a5c7f7a20","","null","","","learningBlock1","","","","<div style=""font-size:60px;""> </div>","null","LF","learning/Slide75.JPG","This is a tob:","","",""
"html-keyboard-response","231","691212","0.0-5.0-0.75","LF","rl7z98kzoa","1536","864","0","1","0","5faa8121f8f5533a5c7f7a20","","null","","","learningBlock1","","","","This is a bim:","null","","","","","",""
"image-keyboard-response","232","691540","0.0-5.0-1.75","LF","rl7z98kzoa","1536","864","0","1","0","5faa8121f8f5533a5c7f7a20","","null","","","","","","","learning/Slide76.JPG","null","","","","","",""
"html-keyboard-response","233","692541","0.0-5.0-2.75","LF","rl7z98kzoa","1536","864","0","1","0","5faa8121f8f5533a5c7f7a20","","null","","","learningBlock1","","","","<div style=""font-size:60px;""> </div>","null","LF","learning/Slide76.JPG","This is a bim:","","",""
"html-keyboard-response","234","693543","0.0-5.0-0.76","LF","rl7z98kzoa","1536","864","0","1","0","5faa8121f8f5533a5c7f7a20","","null","","","learningBlock1","","","","This is a tob:","null","","","","","",""
"image-keyboard-response","235","693870","0.0-5.0-1.76","LF","rl7z98kzoa","1536","864","0","1","0","5faa8121f8f5533a5c7f7a20","","null","","","","","","","learning/Slide77.JPG","null","","","","","",""
"html-keyboard-response","236","694871","0.0-5.0-2.76","LF","rl7z98kzoa","1536","864","0","1","0","5faa8121f8f5533a5c7f7a20","","null","","","learningBlock1","","","","<div style=""font-size:60px;""> </div>","null","LF","learning/Slide77.JPG","This is a tob:","","",""
"html-keyboard-response","237","695872","0.0-5.0-0.77","LF","rl7z98kzoa","1536","864","0","1","0","5faa8121f8f5533a5c7f7a20","","null","","","learningBlock1","","","","This is a wug:","null","","","","","",""
"image-keyboard-response","238","696200","0.0-5.0-1.77","LF","rl7z98kzoa","1536","864","0","1","0","5faa8121f8f5533a5c7f7a20","","null","","","","","","","learning/Slide78.JPG","null","","","","","",""
"html-keyboard-response","239","697201","0.0-5.0-2.77","LF","rl7z98kzoa","1536","864","0","1","0","5faa8121f8f5533a5c7f7a20","","null","","","learningBlock1","","","","<div style=""font-size:60px;""> </div>","null","LF","learning/Slide78.JPG","This is a wug:","","",""
"html-keyboard-response","240","698202","0.0-5.0-0.78","LF","rl7z98kzoa","1536","864","0","1","0","5faa8121f8f5533a5c7f7a20","","null","","","learningBlock1","","","","This is a bim:","null","","","","","",""
"image-keyboard-response","241","698530","0.0-5.0-1.78","LF","rl7z98kzoa","1536","864","0","1","0","5faa8121f8f5533a5c7f7a20","","null","","","","","","","learning/Slide79.JPG","null","","","","","",""
"html-keyboard-response","242","699532","0.0-5.0-2.78","LF","rl7z98kzoa","1536","864","0","1","0","5faa8121f8f5533a5c7f7a20","","null","","","learningBlock1","","","","<div style=""font-size:60px;""> </div>","null","LF","learning/Slide79.JPG","This is a bim:","","",""
"html-keyboard-response","243","700533","0.0-5.0-0.79","LF","rl7z98kzoa","1536","864","0","1","0","5faa8121f8f5533a5c7f7a20","","null","","","learningBlock1","","","","This is a tob:","null","","","","","",""
"image-keyboard-response","244","700861","0.0-5.0-1.79","LF","rl7z98kzoa","1536","864","0","1","0","5faa8121f8f5533a5c7f7a20","","null","","","","","","","learning/Slide80.JPG","null","","","","","",""
"html-keyboard-response","245","701863","0.0-5.0-2.79","LF","rl7z98kzoa","1536","864","0","1","0","5faa8121f8f5533a5c7f7a20","","null","","","learningBlock1","","","","<div style=""font-size:60px;""> </div>","null","LF","learning/Slide80.JPG","This is a tob:","","",""
"instructions","246","709499","0.0-6.0","LF","rl7z98kzoa","1536","864","0","1","0","5faa8121f8f5533a5c7f7a20","","NA","","[{""page_index"":0,""viewing_time"":7635.160000001662}]","instructions","","","","","","","","","","",""
"html-keyboard-response","247","710501","0.0-7.0-0.0","LF","rl7z98kzoa","1536","864","0","1","0","5faa8121f8f5533a5c7f7a20","","null","","","learningBlock2","","","","This is a wug:","null","","","","","",""
"image-keyboard-response","248","710828","0.0-7.0-1.0","LF","rl7z98kzoa","1536","864","0","1","0","5faa8121f8f5533a5c7f7a20","","null","","","","","","","learning/Slide81.JPG","null","","","","","",""
"html-keyboard-response","249","711829","0.0-7.0-2.0","LF","rl7z98kzoa","1536","864","0","1","0","5faa8121f8f5533a5c7f7a20","","null","","","learningBlock2","","","","<div style=""font-size:60px;""> </div>","null","LF","learning/Slide81.JPG","This is a wug:","","",""
"html-keyboard-response","250","712831","0.0-7.0-0.1","LF","rl7z98kzoa","1536","864","0","1","0","5faa8121f8f5533a5c7f7a20","","null","","","learningBlock2","","","","This is a bim:","null","","","","","",""
"image-keyboard-response","251","713158","0.0-7.0-1.1","LF","rl7z98kzoa","1536","864","0","1","0","5faa8121f8f5533a5c7f7a20","","null","","","","","","","learning/Slide82.JPG","null","","","","","",""
"html-keyboard-response","252","714159","0.0-7.0-2.1","LF","rl7z98kzoa","1536","864","0","1","0","5faa8121f8f5533a5c7f7a20","","null","","","learningBlock2","","","","<div style=""font-size:60px;""> </div>","null","LF","learning/Slide82.JPG","This is a bim:","","",""
"html-keyboard-response","253","715161","0.0-7.0-0.2","LF","rl7z98kzoa","1536","864","0","1","0","5faa8121f8f5533a5c7f7a20","","null","","","learningBlock2","","","","This is a wug:","null","","","","","",""
"image-keyboard-response","254","715490","0.0-7.0-1.2","LF","rl7z98kzoa","1536","864","0","1","0","5faa8121f8f5533a5c7f7a20","","null","","","","","","","learning/Slide83.JPG","null","","","","","",""
"html-keyboard-response","255","716491","0.0-7.0-2.2","LF","rl7z98kzoa","1536","864","0","1","0","5faa8121f8f5533a5c7f7a20","","null","","","learningBlock2","","","","<div style=""font-size:60px;""> </div>","null","LF","learning/Slide83.JPG","This is a wug:","","",""
"html-keyboard-response","256","717493","0.0-7.0-0.3","LF","rl7z98kzoa","1536","864","0","1","0","5faa8121f8f5533a5c7f7a20","","null","","","learningBlock2","","","","This is a dep:","null","","","","","",""
"image-keyboard-response","257","717821","0.0-7.0-1.3","LF","rl7z98kzoa","1536","864","0","1","0","5faa8121f8f5533a5c7f7a20","","null","","","","","","","learning/Slide84.JPG","null","","","","","",""
"html-keyboard-response","258","718823","0.0-7.0-2.3","LF","rl7z98kzoa","1536","864","0","1","0","5faa8121f8f5533a5c7f7a20","","null","","","learningBlock2","","","","<div style=""font-size:60px;""> </div>","null","LF","learning/Slide84.JPG","This is a dep:","","",""
"html-keyboard-response","259","719824","0.0-7.0-0.4","LF","rl7z98kzoa","1536","864","0","1","0","5faa8121f8f5533a5c7f7a20","","null","","","learningBlock2","","","","This is a bim:","null","","","","","",""
"image-keyboard-response","260","720151","0.0-7.0-1.4","LF","rl7z98kzoa","1536","864","0","1","0","5faa8121f8f5533a5c7f7a20","","null","","","","","","","learning/Slide85.JPG","null","","","","","",""
"html-keyboard-response","261","721152","0.0-7.0-2.4","LF","rl7z98kzoa","1536","864","0","1","0","5faa8121f8f5533a5c7f7a20","","null","","","learningBlock2","","","","<div style=""font-size:60px;""> </div>","null","LF","learning/Slide85.JPG","This is a bim:","","",""
"html-keyboard-response","262","722154","0.0-7.0-0.5","LF","rl7z98kzoa","1536","864","0","1","0","5faa8121f8f5533a5c7f7a20","","null","","","learningBlock2","","","","This is a tob:","null","","","","","",""
"image-keyboard-response","263","722481","0.0-7.0-1.5","LF","rl7z98kzoa","1536","864","0","1","0","5faa8121f8f5533a5c7f7a20","","null","","","","","","","learning/Slide86.JPG","null","","","","","",""
"html-keyboard-response","264","723482","0.0-7.0-2.5","LF","rl7z98kzoa","1536","864","0","1","0","5faa8121f8f5533a5c7f7a20","","null","","","learningBlock2","","","","<div style=""font-size:60px;""> </div>","null","LF","learning/Slide86.JPG","This is a tob:","","",""
"html-keyboard-response","265","724484","0.0-7.0-0.6","LF","rl7z98kzoa","1536","864","0","1","0","5faa8121f8f5533a5c7f7a20","","null","","","learningBlock2","","","","This is a wug:","null","","","","","",""
"image-keyboard-response","266","724812","0.0-7.0-1.6","LF","rl7z98kzoa","1536","864","0","1","0","5faa8121f8f5533a5c7f7a20","","null","","","","","","","learning/Slide87.JPG","null","","","","","",""
"html-keyboard-response","267","725814","0.0-7.0-2.6","LF","rl7z98kzoa","1536","864","0","1","0","5faa8121f8f5533a5c7f7a20","","null","","","learningBlock2","","","","<div style=""font-size:60px;""> </div>","null","LF","learning/Slide87.JPG","This is a wug:","","",""
"html-keyboard-response","268","726817","0.0-7.0-0.7","LF","rl7z98kzoa","1536","864","0","1","0","5faa8121f8f5533a5c7f7a20","","null","","","learningBlock2","","","","This is a tob:","null","","","","","",""
"image-keyboard-response","269","727145","0.0-7.0-1.7","LF","rl7z98kzoa","1536","864","0","1","0","5faa8121f8f5533a5c7f7a20","","null","","","","","","","learning/Slide88.JPG","null","","","","","",""
"html-keyboard-response","270","728146","0.0-7.0-2.7","LF","rl7z98kzoa","1536","864","0","1","0","5faa8121f8f5533a5c7f7a20","","null","","","learningBlock2","","","","<div style=""font-size:60px;""> </div>","null","LF","learning/Slide88.JPG","This is a tob:","","",""
"html-keyboard-response","271","729149","0.0-7.0-0.8","LF","rl7z98kzoa","1536","864","0","1","0","5faa8121f8f5533a5c7f7a20","","null","","","learningBlock2","","","","This is a bim:","null","","","","","",""
"image-keyboard-response","272","729477","0.0-7.0-1.8","LF","rl7z98kzoa","1536","864","0","1","0","5faa8121f8f5533a5c7f7a20","","null","","","","","","","learning/Slide89.JPG","null","","","","","",""
"html-keyboard-response","273","730478","0.0-7.0-2.8","LF","rl7z98kzoa","1536","864","0","1","0","5faa8121f8f5533a5c7f7a20","","null","","","learningBlock2","","","","<div style=""font-size:60px;""> </div>","null","LF","learning/Slide89.JPG","This is a bim:","","",""
"html-keyboard-response","274","731480","0.0-7.0-0.9","LF","rl7z98kzoa","1536","864","0","1","0","5faa8121f8f5533a5c7f7a20","","null","","","learningBlock2","","","","This is a dep:","null","","","","","",""
"image-keyboard-response","275","731807","0.0-7.0-1.9","LF","rl7z98kzoa","1536","864","0","1","0","5faa8121f8f5533a5c7f7a20","","null","","","","","","","learning/Slide90.JPG","null","","","","","",""
"html-keyboard-response","276","732809","0.0-7.0-2.9","LF","rl7z98kzoa","1536","864","0","1","0","5faa8121f8f5533a5c7f7a20","","null","","","learningBlock2","","","","<div style=""font-size:60px;""> </div>","null","LF","learning/Slide90.JPG","This is a dep:","","",""
"html-keyboard-response","277","733810","0.0-7.0-0.10","LF","rl7z98kzoa","1536","864","0","1","0","5faa8121f8f5533a5c7f7a20","","null","","","learningBlock2","","","","This is a wug:","null","","","","","",""
"image-keyboard-response","278","734137","0.0-7.0-1.10","LF","rl7z98kzoa","1536","864","0","1","0","5faa8121f8f5533a5c7f7a20","","null","","","","","","","learning/Slide91.JPG","null","","","","","",""
"html-keyboard-response","279","735140","0.0-7.0-2.10","LF","rl7z98kzoa","1536","864","0","1","0","5faa8121f8f5533a5c7f7a20","","null","","","learningBlock2","","","","<div style=""font-size:60px;""> </div>","null","LF","learning/Slide91.JPG","This is a wug:","","",""
"html-keyboard-response","280","736141","0.0-7.0-0.11","LF","rl7z98kzoa","1536","864","0","1","0","5faa8121f8f5533a5c7f7a20","","null","","","learningBlock2","","","","This is a tob:","null","","","","","",""
"image-keyboard-response","281","736469","0.0-7.0-1.11","LF","rl7z98kzoa","1536","864","0","1","0","5faa8121f8f5533a5c7f7a20","","null","","","","","","","learning/Slide92.JPG","null","","","","","",""
"html-keyboard-response","282","737470","0.0-7.0-2.11","LF","rl7z98kzoa","1536","864","0","1","0","5faa8121f8f5533a5c7f7a20","","null","","","learningBlock2","","","","<div style=""font-size:60px;""> </div>","null","LF","learning/Slide92.JPG","This is a tob:","","",""
"html-keyboard-response","283","738472","0.0-7.0-0.12","LF","rl7z98kzoa","1536","864","0","1","0","5faa8121f8f5533a5c7f7a20","","null","","","learningBlock2","","","","This is a bim:","null","","","","","",""
"image-keyboard-response","284","738799","0.0-7.0-1.12","LF","rl7z98kzoa","1536","864","0","1","0","5faa8121f8f5533a5c7f7a20","","null","","","","","","","learning/Slide93.JPG","null","","","","","",""
"html-keyboard-response","285","739801","0.0-7.0-2.12","LF","rl7z98kzoa","1536","864","0","1","0","5faa8121f8f5533a5c7f7a20","","null","","","learningBlock2","","","","<div style=""font-size:60px;""> </div>","null","LF","learning/Slide93.JPG","This is a bim:","","",""
"html-keyboard-response","286","740803","0.0-7.0-0.13","LF","rl7z98kzoa","1536","864","0","1","0","5faa8121f8f5533a5c7f7a20","","null","","","learningBlock2","","","","This is a tob:","null","","","","","",""
"image-keyboard-response","287","741130","0.0-7.0-1.13","LF","rl7z98kzoa","1536","864","0","1","0","5faa8121f8f5533a5c7f7a20","","null","","","","","","","learning/Slide94.JPG","null","","","","","",""
"html-keyboard-response","288","742132","0.0-7.0-2.13","LF","rl7z98kzoa","1536","864","0","1","0","5faa8121f8f5533a5c7f7a20","","null","","","learningBlock2","","","","<div style=""font-size:60px;""> </div>","null","LF","learning/Slide94.JPG","This is a tob:","","",""
"html-keyboard-response","289","743133","0.0-7.0-0.14","LF","rl7z98kzoa","1536","864","0","1","0","5faa8121f8f5533a5c7f7a20","","null","","","learningBlock2","","","","This is a wug:","null","","","","","",""
"image-keyboard-response","290","743461","0.0-7.0-1.14","LF","rl7z98kzoa","1536","864","0","1","0","5faa8121f8f5533a5c7f7a20","","null","","","","","","","learning/Slide95.JPG","null","","","","","",""
"html-keyboard-response","291","744462","0.0-7.0-2.14","LF","rl7z98kzoa","1536","864","0","1","0","5faa8121f8f5533a5c7f7a20","","null","","","learningBlock2","","","","<div style=""font-size:60px;""> </div>","null","LF","learning/Slide95.JPG","This is a wug:","","",""
"html-keyboard-response","292","745464","0.0-7.0-0.15","LF","rl7z98kzoa","1536","864","0","1","0","5faa8121f8f5533a5c7f7a20","","null","","","learningBlock2","","","","This is a tob:","null","","","","","",""
"image-keyboard-response","293","745791","0.0-7.0-1.15","LF","rl7z98kzoa","1536","864","0","1","0","5faa8121f8f5533a5c7f7a20","","null","","","","","","","learning/Slide96.JPG","null","","","","","",""
"html-keyboard-response","294","746793","0.0-7.0-2.15","LF","rl7z98kzoa","1536","864","0","1","0","5faa8121f8f5533a5c7f7a20","","null","","","learningBlock2","","","","<div style=""font-size:60px;""> </div>","null","LF","learning/Slide96.JPG","This is a tob:","","",""
"html-keyboard-response","295","747795","0.0-7.0-0.16","LF","rl7z98kzoa","1536","864","0","1","0","5faa8121f8f5533a5c7f7a20","","null","","","learningBlock2","","","","This is a dep:","null","","","","","",""
"image-keyboard-response","296","748122","0.0-7.0-1.16","LF","rl7z98kzoa","1536","864","0","1","0","5faa8121f8f5533a5c7f7a20","","null","","","","","","","learning/Slide97.JPG","null","","","","","",""
"html-keyboard-response","297","749124","0.0-7.0-2.16","LF","rl7z98kzoa","1536","864","0","1","0","5faa8121f8f5533a5c7f7a20","","null","","","learningBlock2","","","","<div style=""font-size:60px;""> </div>","null","LF","learning/Slide97.JPG","This is a dep:","","",""
"html-keyboard-response","298","750126","0.0-7.0-0.17","LF","rl7z98kzoa","1536","864","0","1","0","5faa8121f8f5533a5c7f7a20","","null","","","learningBlock2","","","","This is a bim:","null","","","","","",""
"image-keyboard-response","299","750453","0.0-7.0-1.17","LF","rl7z98kzoa","1536","864","0","1","0","5faa8121f8f5533a5c7f7a20","","null","","","","","","","learning/Slide98.JPG","null","","","","","",""
"html-keyboard-response","300","751455","0.0-7.0-2.17","LF","rl7z98kzoa","1536","864","0","1","0","5faa8121f8f5533a5c7f7a20","","null","","","learningBlock2","","","","<div style=""font-size:60px;""> </div>","null","LF","learning/Slide98.JPG","This is a bim:","","",""
"html-keyboard-response","301","752456","0.0-7.0-0.18","LF","rl7z98kzoa","1536","864","0","1","0","5faa8121f8f5533a5c7f7a20","","null","","","learningBlock2","","","","This is a dep:","null","","","","","",""
"image-keyboard-response","302","752783","0.0-7.0-1.18","LF","rl7z98kzoa","1536","864","0","1","0","5faa8121f8f5533a5c7f7a20","","null","","","","","","","learning/Slide99.JPG","null","","","","","",""
"html-keyboard-response","303","753784","0.0-7.0-2.18","LF","rl7z98kzoa","1536","864","0","1","0","5faa8121f8f5533a5c7f7a20","","null","","","learningBlock2","","","","<div style=""font-size:60px;""> </div>","null","LF","learning/Slide99.JPG","This is a dep:","","",""
"html-keyboard-response","304","754786","0.0-7.0-0.19","LF","rl7z98kzoa","1536","864","0","1","0","5faa8121f8f5533a5c7f7a20","","null","","","learningBlock2","","","","This is a bim:","null","","","","","",""
"image-keyboard-response","305","755113","0.0-7.0-1.19","LF","rl7z98kzoa","1536","864","0","1","0","5faa8121f8f5533a5c7f7a20","","null","","","","","","","learning/Slide100.JPG","null","","","","","",""
"html-keyboard-response","306","756114","0.0-7.0-2.19","LF","rl7z98kzoa","1536","864","0","1","0","5faa8121f8f5533a5c7f7a20","","null","","","learningBlock2","","","","<div style=""font-size:60px;""> </div>","null","LF","learning/Slide100.JPG","This is a bim:","","",""
"html-keyboard-response","307","757117","0.0-7.0-0.20","LF","rl7z98kzoa","1536","864","0","1","0","5faa8121f8f5533a5c7f7a20","","null","","","learningBlock2","","","","This is a tob:","null","","","","","",""
"image-keyboard-response","308","757445","0.0-7.0-1.20","LF","rl7z98kzoa","1536","864","0","1","0","5faa8121f8f5533a5c7f7a20","","null","","","","","","","learning/Slide101.JPG","null","","","","","",""
"html-keyboard-response","309","758446","0.0-7.0-2.20","LF","rl7z98kzoa","1536","864","0","1","0","5faa8121f8f5533a5c7f7a20","","null","","","learningBlock2","","","","<div style=""font-size:60px;""> </div>","null","LF","learning/Slide101.JPG","This is a tob:","","",""
"html-keyboard-response","310","759448","0.0-7.0-0.21","LF","rl7z98kzoa","1536","864","0","1","0","5faa8121f8f5533a5c7f7a20","","null","","","learningBlock2","","","","This is a bim:","null","","","","","",""
"image-keyboard-response","311","759775","0.0-7.0-1.21","LF","rl7z98kzoa","1536","864","0","1","0","5faa8121f8f5533a5c7f7a20","","null","","","","","","","learning/Slide102.JPG","null","","","","","",""
"html-keyboard-response","312","760777","0.0-7.0-2.21","LF","rl7z98kzoa","1536","864","0","1","0","5faa8121f8f5533a5c7f7a20","","null","","","learningBlock2","","","","<div style=""font-size:60px;""> </div>","null","LF","learning/Slide102.JPG","This is a bim:","","",""
"html-keyboard-response","313","761778","0.0-7.0-0.22","LF","rl7z98kzoa","1536","864","0","1","0","5faa8121f8f5533a5c7f7a20","","null","","","learningBlock2","","","","This is a dep:","null","","","","","",""
"image-keyboard-response","314","762104","0.0-7.0-1.22","LF","rl7z98kzoa","1536","864","0","1","0","5faa8121f8f5533a5c7f7a20","","null","","","","","","","learning/Slide103.JPG","null","","","","","",""
"html-keyboard-response","315","763106","0.0-7.0-2.22","LF","rl7z98kzoa","1536","864","0","1","0","5faa8121f8f5533a5c7f7a20","","null","","","learningBlock2","","","","<div style=""font-size:60px;""> </div>","null","LF","learning/Slide103.JPG","This is a dep:","","",""
"html-keyboard-response","316","764107","0.0-7.0-0.23","LF","rl7z98kzoa","1536","864","0","1","0","5faa8121f8f5533a5c7f7a20","","null","","","learningBlock2","","","","This is a tob:","null","","","","","",""
"image-keyboard-response","317","764434","0.0-7.0-1.23","LF","rl7z98kzoa","1536","864","0","1","0","5faa8121f8f5533a5c7f7a20","","null","","","","","","","learning/Slide104.JPG","null","","","","","",""
"html-keyboard-response","318","765436","0.0-7.0-2.23","LF","rl7z98kzoa","1536","864","0","1","0","5faa8121f8f5533a5c7f7a20","","null","","","learningBlock2","","","","<div style=""font-size:60px;""> </div>","null","LF","learning/Slide104.JPG","This is a tob:","","",""
"html-keyboard-response","319","766438","0.0-7.0-0.24","LF","rl7z98kzoa","1536","864","0","1","0","5faa8121f8f5533a5c7f7a20","","null","","","learningBlock2","","","","This is a dep:","null","","","","","",""
"image-keyboard-response","320","766766","0.0-7.0-1.24","LF","rl7z98kzoa","1536","864","0","1","0","5faa8121f8f5533a5c7f7a20","","null","","","","","","","learning/Slide105.JPG","null","","","","","",""
"html-keyboard-response","321","767767","0.0-7.0-2.24","LF","rl7z98kzoa","1536","864","0","1","0","5faa8121f8f5533a5c7f7a20","","null","","","learningBlock2","","","","<div style=""font-size:60px;""> </div>","null","LF","learning/Slide105.JPG","This is a dep:","","",""
"html-keyboard-response","322","768768","0.0-7.0-0.25","LF","rl7z98kzoa","1536","864","0","1","0","5faa8121f8f5533a5c7f7a20","","null","","","learningBlock2","","","","This is a wug:","null","","","","","",""
"image-keyboard-response","323","769095","0.0-7.0-1.25","LF","rl7z98kzoa","1536","864","0","1","0","5faa8121f8f5533a5c7f7a20","","null","","","","","","","learning/Slide106.JPG","null","","","","","",""
"html-keyboard-response","324","770097","0.0-7.0-2.25","LF","rl7z98kzoa","1536","864","0","1","0","5faa8121f8f5533a5c7f7a20","","null","","","learningBlock2","","","","<div style=""font-size:60px;""> </div>","null","LF","learning/Slide106.JPG","This is a wug:","","",""
"html-keyboard-response","325","771098","0.0-7.0-0.26","LF","rl7z98kzoa","1536","864","0","1","0","5faa8121f8f5533a5c7f7a20","","null","","","learningBlock2","","","","This is a bim:","null","","","","","",""
"image-keyboard-response","326","771427","0.0-7.0-1.26","LF","rl7z98kzoa","1536","864","0","1","0","5faa8121f8f5533a5c7f7a20","","null","","","","","","","learning/Slide107.JPG","null","","","","","",""
"html-keyboard-response","327","772428","0.0-7.0-2.26","LF","rl7z98kzoa","1536","864","0","1","0","5faa8121f8f5533a5c7f7a20","","null","","","learningBlock2","","","","<div style=""font-size:60px;""> </div>","null","LF","learning/Slide107.JPG","This is a bim:","","",""
"html-keyboard-response","328","773430","0.0-7.0-0.27","LF","rl7z98kzoa","1536","864","0","1","0","5faa8121f8f5533a5c7f7a20","","null","","","learningBlock2","","","","This is a dep:","null","","","","","",""
"image-keyboard-response","329","773758","0.0-7.0-1.27","LF","rl7z98kzoa","1536","864","0","1","0","5faa8121f8f5533a5c7f7a20","","null","","","","","","","learning/Slide108.JPG","null","","","","","",""
"html-keyboard-response","330","774760","0.0-7.0-2.27","LF","rl7z98kzoa","1536","864","0","1","0","5faa8121f8f5533a5c7f7a20","","null","","","learningBlock2","","","","<div style=""font-size:60px;""> </div>","null","LF","learning/Slide108.JPG","This is a dep:","","",""
"html-keyboard-response","331","775762","0.0-7.0-0.28","LF","rl7z98kzoa","1536","864","0","1","0","5faa8121f8f5533a5c7f7a20","","null","","","learningBlock2","","","","This is a wug:","null","","","","","",""
"image-keyboard-response","332","776090","0.0-7.0-1.28","LF","rl7z98kzoa","1536","864","0","1","0","5faa8121f8f5533a5c7f7a20","","null","","","","","","","learning/Slide109.JPG","null","","","","","",""
"html-keyboard-response","333","777092","0.0-7.0-2.28","LF","rl7z98kzoa","1536","864","0","1","0","5faa8121f8f5533a5c7f7a20","","null","","","learningBlock2","","","","<div style=""font-size:60px;""> </div>","null","LF","learning/Slide109.JPG","This is a wug:","","",""
"html-keyboard-response","334","778093","0.0-7.0-0.29","LF","rl7z98kzoa","1536","864","0","1","0","5faa8121f8f5533a5c7f7a20","","null","","","learningBlock2","","","","This is a bim:","null","","","","","",""
"image-keyboard-response","335","778420","0.0-7.0-1.29","LF","rl7z98kzoa","1536","864","0","1","0","5faa8121f8f5533a5c7f7a20","","null","","","","","","","learning/Slide110.JPG","null","","","","","",""
"html-keyboard-response","336","779422","0.0-7.0-2.29","LF","rl7z98kzoa","1536","864","0","1","0","5faa8121f8f5533a5c7f7a20","","null","","","learningBlock2","","","","<div style=""font-size:60px;""> </div>","null","LF","learning/Slide110.JPG","This is a bim:","","",""
"html-keyboard-response","337","780423","0.0-7.0-0.30","LF","rl7z98kzoa","1536","864","0","1","0","5faa8121f8f5533a5c7f7a20","","null","","","learningBlock2","","","","This is a tob:","null","","","","","",""
"image-keyboard-response","338","780750","0.0-7.0-1.30","LF","rl7z98kzoa","1536","864","0","1","0","5faa8121f8f5533a5c7f7a20","","null","","","","","","","learning/Slide111.JPG","null","","","","","",""
"html-keyboard-response","339","781751","0.0-7.0-2.30","LF","rl7z98kzoa","1536","864","0","1","0","5faa8121f8f5533a5c7f7a20","","null","","","learningBlock2","","","","<div style=""font-size:60px;""> </div>","null","LF","learning/Slide111.JPG","This is a tob:","","",""
"html-keyboard-response","340","782753","0.0-7.0-0.31","LF","rl7z98kzoa","1536","864","0","1","0","5faa8121f8f5533a5c7f7a20","","null","","","learningBlock2","","","","This is a wug:","null","","","","","",""
"image-keyboard-response","341","783081","0.0-7.0-1.31","LF","rl7z98kzoa","1536","864","0","1","0","5faa8121f8f5533a5c7f7a20","","null","","","","","","","learning/Slide112.JPG","null","","","","","",""
"html-keyboard-response","342","784082","0.0-7.0-2.31","LF","rl7z98kzoa","1536","864","0","1","0","5faa8121f8f5533a5c7f7a20","","null","","","learningBlock2","","","","<div style=""font-size:60px;""> </div>","null","LF","learning/Slide112.JPG","This is a wug:","","",""
"html-keyboard-response","343","785084","0.0-7.0-0.32","LF","rl7z98kzoa","1536","864","0","1","0","5faa8121f8f5533a5c7f7a20","","null","","","learningBlock2","","","","This is a tob:","null","","","","","",""
"image-keyboard-response","344","785411","0.0-7.0-1.32","LF","rl7z98kzoa","1536","864","0","1","0","5faa8121f8f5533a5c7f7a20","","null","","","","","","","learning/Slide113.JPG","null","","","","","",""
"html-keyboard-response","345","786412","0.0-7.0-2.32","LF","rl7z98kzoa","1536","864","0","1","0","5faa8121f8f5533a5c7f7a20","","null","","","learningBlock2","","","","<div style=""font-size:60px;""> </div>","null","LF","learning/Slide113.JPG","This is a tob:","","",""
"html-keyboard-response","346","787413","0.0-7.0-0.33","LF","rl7z98kzoa","1536","864","0","1","0","5faa8121f8f5533a5c7f7a20","","null","","","learningBlock2","","","","This is a wug:","null","","","","","",""
"image-keyboard-response","347","787740","0.0-7.0-1.33","LF","rl7z98kzoa","1536","864","0","1","0","5faa8121f8f5533a5c7f7a20","","null","","","","","","","learning/Slide114.JPG","null","","","","","",""
"html-keyboard-response","348","788743","0.0-7.0-2.33","LF","rl7z98kzoa","1536","864","0","1","0","5faa8121f8f5533a5c7f7a20","","null","","","learningBlock2","","","","<div style=""font-size:60px;""> </div>","null","LF","learning/Slide114.JPG","This is a wug:","","",""
"html-keyboard-response","349","789745","0.0-7.0-0.34","LF","rl7z98kzoa","1536","864","0","1","0","5faa8121f8f5533a5c7f7a20","","null","","","learningBlock2","","","","This is a bim:","null","","","","","",""
"image-keyboard-response","350","790072","0.0-7.0-1.34","LF","rl7z98kzoa","1536","864","0","1","0","5faa8121f8f5533a5c7f7a20","","null","","","","","","","learning/Slide115.JPG","null","","","","","",""
"html-keyboard-response","351","791074","0.0-7.0-2.34","LF","rl7z98kzoa","1536","864","0","1","0","5faa8121f8f5533a5c7f7a20","","null","","","learningBlock2","","","","<div style=""font-size:60px;""> </div>","null","LF","learning/Slide115.JPG","This is a bim:","","",""
"html-keyboard-response","352","792075","0.0-7.0-0.35","LF","rl7z98kzoa","1536","864","0","1","0","5faa8121f8f5533a5c7f7a20","","null","","","learningBlock2","","","","This is a dep:","null","","","","","",""
"image-keyboard-response","353","792402","0.0-7.0-1.35","LF","rl7z98kzoa","1536","864","0","1","0","5faa8121f8f5533a5c7f7a20","","null","","","","","","","learning/Slide116.JPG","null","","","","","",""
"html-keyboard-response","354","793404","0.0-7.0-2.35","LF","rl7z98kzoa","1536","864","0","1","0","5faa8121f8f5533a5c7f7a20","","null","","","learningBlock2","","","","<div style=""font-size:60px;""> </div>","null","LF","learning/Slide116.JPG","This is a dep:","","",""
"html-keyboard-response","355","794406","0.0-7.0-0.36","LF","rl7z98kzoa","1536","864","0","1","0","5faa8121f8f5533a5c7f7a20","","null","","","learningBlock2","","","","This is a tob:","null","","","","","",""
"image-keyboard-response","356","794733","0.0-7.0-1.36","LF","rl7z98kzoa","1536","864","0","1","0","5faa8121f8f5533a5c7f7a20","","null","","","","","","","learning/Slide117.JPG","null","","","","","",""
"html-keyboard-response","357","795734","0.0-7.0-2.36","LF","rl7z98kzoa","1536","864","0","1","0","5faa8121f8f5533a5c7f7a20","","null","","","learningBlock2","","","","<div style=""font-size:60px;""> </div>","null","LF","learning/Slide117.JPG","This is a tob:","","",""
"html-keyboard-response","358","796736","0.0-7.0-0.37","LF","rl7z98kzoa","1536","864","0","1","0","5faa8121f8f5533a5c7f7a20","","null","","","learningBlock2","","","","This is a dep:","null","","","","","",""
"image-keyboard-response","359","797064","0.0-7.0-1.37","LF","rl7z98kzoa","1536","864","0","1","0","5faa8121f8f5533a5c7f7a20","","null","","","","","","","learning/Slide118.JPG","null","","","","","",""
"html-keyboard-response","360","798066","0.0-7.0-2.37","LF","rl7z98kzoa","1536","864","0","1","0","5faa8121f8f5533a5c7f7a20","","null","","","learningBlock2","","","","<div style=""font-size:60px;""> </div>","null","LF","learning/Slide118.JPG","This is a dep:","","",""
"html-keyboard-response","361","799068","0.0-7.0-0.38","LF","rl7z98kzoa","1536","864","0","1","0","5faa8121f8f5533a5c7f7a20","","null","","","learningBlock2","","","","This is a wug:","null","","","","","",""
"image-keyboard-response","362","799396","0.0-7.0-1.38","LF","rl7z98kzoa","1536","864","0","1","0","5faa8121f8f5533a5c7f7a20","","null","","","","","","","learning/Slide119.JPG","null","","","","","",""
"html-keyboard-response","363","800398","0.0-7.0-2.38","LF","rl7z98kzoa","1536","864","0","1","0","5faa8121f8f5533a5c7f7a20","","null","","","learningBlock2","","","","<div style=""font-size:60px;""> </div>","null","LF","learning/Slide119.JPG","This is a wug:","","",""
"html-keyboard-response","364","801399","0.0-7.0-0.39","LF","rl7z98kzoa","1536","864","0","1","0","5faa8121f8f5533a5c7f7a20","","null","","","learningBlock2","","","","This is a dep:","null","","","","","",""
"image-keyboard-response","365","801727","0.0-7.0-1.39","LF","rl7z98kzoa","1536","864","0","1","0","5faa8121f8f5533a5c7f7a20","","null","","","","","","","learning/Slide120.JPG","null","","","","","",""
"html-keyboard-response","366","802729","0.0-7.0-2.39","LF","rl7z98kzoa","1536","864","0","1","0","5faa8121f8f5533a5c7f7a20","","null","","","learningBlock2","","","","<div style=""font-size:60px;""> </div>","null","LF","learning/Slide120.JPG","This is a dep:","","",""
"html-keyboard-response","367","803730","0.0-7.0-0.40","LF","rl7z98kzoa","1536","864","0","1","0","5faa8121f8f5533a5c7f7a20","","null","","","learningBlock2","","","","This is a bim:","null","","","","","",""
"image-keyboard-response","368","804056","0.0-7.0-1.40","LF","rl7z98kzoa","1536","864","0","1","0","5faa8121f8f5533a5c7f7a20","","null","","","","","","","learning/Slide121.JPG","null","","","","","",""
"html-keyboard-response","369","805058","0.0-7.0-2.40","LF","rl7z98kzoa","1536","864","0","1","0","5faa8121f8f5533a5c7f7a20","","null","","","learningBlock2","","","","<div style=""font-size:60px;""> </div>","null","LF","learning/Slide121.JPG","This is a bim:","","",""
"html-keyboard-response","370","806059","0.0-7.0-0.41","LF","rl7z98kzoa","1536","864","0","1","0","5faa8121f8f5533a5c7f7a20","","null","","","learningBlock2","","","","This is a wug:","null","","","","","",""
"image-keyboard-response","371","806387","0.0-7.0-1.41","LF","rl7z98kzoa","1536","864","0","1","0","5faa8121f8f5533a5c7f7a20","","null","","","","","","","learning/Slide122.JPG","null","","","","","",""
"html-keyboard-response","372","807388","0.0-7.0-2.41","LF","rl7z98kzoa","1536","864","0","1","0","5faa8121f8f5533a5c7f7a20","","null","","","learningBlock2","","","","<div style=""font-size:60px;""> </div>","null","LF","learning/Slide122.JPG","This is a wug:","","",""
"html-keyboard-response","373","808390","0.0-7.0-0.42","LF","rl7z98kzoa","1536","864","0","1","0","5faa8121f8f5533a5c7f7a20","","null","","","learningBlock2","","","","This is a bim:","null","","","","","",""
"image-keyboard-response","374","808717","0.0-7.0-1.42","LF","rl7z98kzoa","1536","864","0","1","0","5faa8121f8f5533a5c7f7a20","","null","","","","","","","learning/Slide123.JPG","null","","","","","",""
"html-keyboard-response","375","809719","0.0-7.0-2.42","LF","rl7z98kzoa","1536","864","0","1","0","5faa8121f8f5533a5c7f7a20","","null","","","learningBlock2","","","","<div style=""font-size:60px;""> </div>","null","LF","learning/Slide123.JPG","This is a bim:","","",""
"html-keyboard-response","376","810720","0.0-7.0-0.43","LF","rl7z98kzoa","1536","864","0","1","0","5faa8121f8f5533a5c7f7a20","","null","","","learningBlock2","","","","This is a tob:","null","","","","","",""
"image-keyboard-response","377","811048","0.0-7.0-1.43","LF","rl7z98kzoa","1536","864","0","1","0","5faa8121f8f5533a5c7f7a20","","null","","","","","","","learning/Slide124.JPG","null","","","","","",""
"html-keyboard-response","378","812050","0.0-7.0-2.43","LF","rl7z98kzoa","1536","864","0","1","0","5faa8121f8f5533a5c7f7a20","","null","","","learningBlock2","","","","<div style=""font-size:60px;""> </div>","null","LF","learning/Slide124.JPG","This is a tob:","","",""
"html-keyboard-response","379","813051","0.0-7.0-0.44","LF","rl7z98kzoa","1536","864","0","1","0","5faa8121f8f5533a5c7f7a20","","null","","","learningBlock2","","","","This is a bim:","null","","","","","",""
"image-keyboard-response","380","813380","0.0-7.0-1.44","LF","rl7z98kzoa","1536","864","0","1","0","5faa8121f8f5533a5c7f7a20","","null","","","","","","","learning/Slide125.JPG","null","","","","","",""
"html-keyboard-response","381","814381","0.0-7.0-2.44","LF","rl7z98kzoa","1536","864","0","1","0","5faa8121f8f5533a5c7f7a20","","null","","","learningBlock2","","","","<div style=""font-size:60px;""> </div>","null","LF","learning/Slide125.JPG","This is a bim:","","",""
"html-keyboard-response","382","815383","0.0-7.0-0.45","LF","rl7z98kzoa","1536","864","0","1","0","5faa8121f8f5533a5c7f7a20","","null","","","learningBlock2","","","","This is a tob:","null","","","","","",""
"image-keyboard-response","383","815711","0.0-7.0-1.45","LF","rl7z98kzoa","1536","864","0","1","0","5faa8121f8f5533a5c7f7a20","","null","","","","","","","learning/Slide126.JPG","null","","","","","",""
"html-keyboard-response","384","816712","0.0-7.0-2.45","LF","rl7z98kzoa","1536","864","0","1","0","5faa8121f8f5533a5c7f7a20","","null","","","learningBlock2","","","","<div style=""font-size:60px;""> </div>","null","LF","learning/Slide126.JPG","This is a tob:","","",""
"html-keyboard-response","385","817714","0.0-7.0-0.46","LF","rl7z98kzoa","1536","864","0","1","0","5faa8121f8f5533a5c7f7a20","","null","","","learningBlock2","","","","This is a dep:","null","","","","","",""
"image-keyboard-response","386","818043","0.0-7.0-1.46","LF","rl7z98kzoa","1536","864","0","1","0","5faa8121f8f5533a5c7f7a20","","null","","","","","","","learning/Slide127.JPG","null","","","","","",""
"html-keyboard-response","387","819045","0.0-7.0-2.46","LF","rl7z98kzoa","1536","864","0","1","0","5faa8121f8f5533a5c7f7a20","","null","","","learningBlock2","","","","<div style=""font-size:60px;""> </div>","null","LF","learning/Slide127.JPG","This is a dep:","","",""
"html-keyboard-response","388","820047","0.0-7.0-0.47","LF","rl7z98kzoa","1536","864","0","1","0","5faa8121f8f5533a5c7f7a20","","null","","","learningBlock2","","","","This is a wug:","null","","","","","",""
"image-keyboard-response","389","820373","0.0-7.0-1.47","LF","rl7z98kzoa","1536","864","0","1","0","5faa8121f8f5533a5c7f7a20","","null","","","","","","","learning/Slide128.JPG","null","","","","","",""
"html-keyboard-response","390","821375","0.0-7.0-2.47","LF","rl7z98kzoa","1536","864","0","1","0","5faa8121f8f5533a5c7f7a20","","null","","","learningBlock2","","","","<div style=""font-size:60px;""> </div>","null","LF","learning/Slide128.JPG","This is a wug:","","",""
"html-keyboard-response","391","822377","0.0-7.0-0.48","LF","rl7z98kzoa","1536","864","0","1","0","5faa8121f8f5533a5c7f7a20","","null","","","learningBlock2","","","","This is a tob:","null","","","","","",""
"image-keyboard-response","392","822704","0.0-7.0-1.48","LF","rl7z98kzoa","1536","864","0","1","0","5faa8121f8f5533a5c7f7a20","","null","","","","","","","learning/Slide129.JPG","null","","","","","",""
"html-keyboard-response","393","823706","0.0-7.0-2.48","LF","rl7z98kzoa","1536","864","0","1","0","5faa8121f8f5533a5c7f7a20","","null","","","learningBlock2","","","","<div style=""font-size:60px;""> </div>","null","LF","learning/Slide129.JPG","This is a tob:","","",""
"html-keyboard-response","394","824707","0.0-7.0-0.49","LF","rl7z98kzoa","1536","864","0","1","0","5faa8121f8f5533a5c7f7a20","","null","","","learningBlock2","","","","This is a wug:","null","","","","","",""
"image-keyboard-response","395","825035","0.0-7.0-1.49","LF","rl7z98kzoa","1536","864","0","1","0","5faa8121f8f5533a5c7f7a20","","null","","","","","","","learning/Slide130.JPG","null","","","","","",""
"html-keyboard-response","396","826037","0.0-7.0-2.49","LF","rl7z98kzoa","1536","864","0","1","0","5faa8121f8f5533a5c7f7a20","","null","","","learningBlock2","","","","<div style=""font-size:60px;""> </div>","null","LF","learning/Slide130.JPG","This is a wug:","","",""
"html-keyboard-response","397","827038","0.0-7.0-0.50","LF","rl7z98kzoa","1536","864","0","1","0","5faa8121f8f5533a5c7f7a20","","null","","","learningBlock2","","","","This is a bim:","null","","","","","",""
"image-keyboard-response","398","827366","0.0-7.0-1.50","LF","rl7z98kzoa","1536","864","0","1","0","5faa8121f8f5533a5c7f7a20","","null","","","","","","","learning/Slide131.JPG","null","","","","","",""
"html-keyboard-response","399","828368","0.0-7.0-2.50","LF","rl7z98kzoa","1536","864","0","1","0","5faa8121f8f5533a5c7f7a20","","null","","","learningBlock2","","","","<div style=""font-size:60px;""> </div>","null","LF","learning/Slide131.JPG","This is a bim:","","",""
"html-keyboard-response","400","829370","0.0-7.0-0.51","LF","rl7z98kzoa","1536","864","0","1","0","5faa8121f8f5533a5c7f7a20","","null","","","learningBlock2","","","","This is a dep:","null","","","","","",""
"image-keyboard-response","401","829697","0.0-7.0-1.51","LF","rl7z98kzoa","1536","864","0","1","0","5faa8121f8f5533a5c7f7a20","","null","","","","","","","learning/Slide132.JPG","null","","","","","",""
"html-keyboard-response","402","830699","0.0-7.0-2.51","LF","rl7z98kzoa","1536","864","0","1","0","5faa8121f8f5533a5c7f7a20","","null","","","learningBlock2","","","","<div style=""font-size:60px;""> </div>","null","LF","learning/Slide132.JPG","This is a dep:","","",""
"html-keyboard-response","403","831700","0.0-7.0-0.52","LF","rl7z98kzoa","1536","864","0","1","0","5faa8121f8f5533a5c7f7a20","","null","","","learningBlock2","","","","This is a tob:","null","","","","","",""
"image-keyboard-response","404","832030","0.0-7.0-1.52","LF","rl7z98kzoa","1536","864","0","1","0","5faa8121f8f5533a5c7f7a20","","null","","","","","","","learning/Slide133.JPG","null","","","","","",""
"html-keyboard-response","405","833031","0.0-7.0-2.52","LF","rl7z98kzoa","1536","864","0","1","0","5faa8121f8f5533a5c7f7a20","","null","","","learningBlock2","","","","<div style=""font-size:60px;""> </div>","null","LF","learning/Slide133.JPG","This is a tob:","","",""
"html-keyboard-response","406","834033","0.0-7.0-0.53","LF","rl7z98kzoa","1536","864","0","1","0","5faa8121f8f5533a5c7f7a20","","null","","","learningBlock2","","","","This is a dep:","null","","","","","",""
"image-keyboard-response","407","834362","0.0-7.0-1.53","LF","rl7z98kzoa","1536","864","0","1","0","5faa8121f8f5533a5c7f7a20","","null","","","","","","","learning/Slide134.JPG","null","","","","","",""
"html-keyboard-response","408","835363","0.0-7.0-2.53","LF","rl7z98kzoa","1536","864","0","1","0","5faa8121f8f5533a5c7f7a20","","null","","","learningBlock2","","","","<div style=""font-size:60px;""> </div>","null","LF","learning/Slide134.JPG","This is a dep:","","",""
"html-keyboard-response","409","836364","0.0-7.0-0.54","LF","rl7z98kzoa","1536","864","0","1","0","5faa8121f8f5533a5c7f7a20","","null","","","learningBlock2","","","","This is a tob:","null","","","","","",""
"image-keyboard-response","410","836692","0.0-7.0-1.54","LF","rl7z98kzoa","1536","864","0","1","0","5faa8121f8f5533a5c7f7a20","","null","","","","","","","learning/Slide135.JPG","null","","","","","",""
"html-keyboard-response","411","837694","0.0-7.0-2.54","LF","rl7z98kzoa","1536","864","0","1","0","5faa8121f8f5533a5c7f7a20","","null","","","learningBlock2","","","","<div style=""font-size:60px;""> </div>","null","LF","learning/Slide135.JPG","This is a tob:","","",""
"html-keyboard-response","412","838695","0.0-7.0-0.55","LF","rl7z98kzoa","1536","864","0","1","0","5faa8121f8f5533a5c7f7a20","","null","","","learningBlock2","","","","This is a wug:","null","","","","","",""
"image-keyboard-response","413","839022","0.0-7.0-1.55","LF","rl7z98kzoa","1536","864","0","1","0","5faa8121f8f5533a5c7f7a20","","null","","","","","","","learning/Slide136.JPG","null","","","","","",""
"html-keyboard-response","414","840024","0.0-7.0-2.55","LF","rl7z98kzoa","1536","864","0","1","0","5faa8121f8f5533a5c7f7a20","","null","","","learningBlock2","","","","<div style=""font-size:60px;""> </div>","null","LF","learning/Slide136.JPG","This is a wug:","","",""
"html-keyboard-response","415","841026","0.0-7.0-0.56","LF","rl7z98kzoa","1536","864","0","1","0","5faa8121f8f5533a5c7f7a20","","null","","","learningBlock2","","","","This is a tob:","null","","","","","",""
"image-keyboard-response","416","841353","0.0-7.0-1.56","LF","rl7z98kzoa","1536","864","0","1","0","5faa8121f8f5533a5c7f7a20","","null","","","","","","","learning/Slide137.JPG","null","","","","","",""
"html-keyboard-response","417","842354","0.0-7.0-2.56","LF","rl7z98kzoa","1536","864","0","1","0","5faa8121f8f5533a5c7f7a20","","null","","","learningBlock2","","","","<div style=""font-size:60px;""> </div>","null","LF","learning/Slide137.JPG","This is a tob:","","",""
"html-keyboard-response","418","843356","0.0-7.0-0.57","LF","rl7z98kzoa","1536","864","0","1","0","5faa8121f8f5533a5c7f7a20","","null","","","learningBlock2","","","","This is a bim:","null","","","","","",""
"image-keyboard-response","419","843685","0.0-7.0-1.57","LF","rl7z98kzoa","1536","864","0","1","0","5faa8121f8f5533a5c7f7a20","","null","","","","","","","learning/Slide138.JPG","null","","","","","",""
"html-keyboard-response","420","844687","0.0-7.0-2.57","LF","rl7z98kzoa","1536","864","0","1","0","5faa8121f8f5533a5c7f7a20","","null","","","learningBlock2","","","","<div style=""font-size:60px;""> </div>","null","LF","learning/Slide138.JPG","This is a bim:","","",""
"html-keyboard-response","421","845689","0.0-7.0-0.58","LF","rl7z98kzoa","1536","864","0","1","0","5faa8121f8f5533a5c7f7a20","","null","","","learningBlock2","","","","This is a wug:","null","","","","","",""
"image-keyboard-response","422","846017","0.0-7.0-1.58","LF","rl7z98kzoa","1536","864","0","1","0","5faa8121f8f5533a5c7f7a20","","null","","","","","","","learning/Slide139.JPG","null","","","","","",""
"html-keyboard-response","423","847018","0.0-7.0-2.58","LF","rl7z98kzoa","1536","864","0","1","0","5faa8121f8f5533a5c7f7a20","","null","","","learningBlock2","","","","<div style=""font-size:60px;""> </div>","null","LF","learning/Slide139.JPG","This is a wug:","","",""
"html-keyboard-response","424","848019","0.0-7.0-0.59","LF","rl7z98kzoa","1536","864","0","1","0","5faa8121f8f5533a5c7f7a20","","null","","","learningBlock2","","","","This is a dep:","null","","","","","",""
"image-keyboard-response","425","848346","0.0-7.0-1.59","LF","rl7z98kzoa","1536","864","0","1","0","5faa8121f8f5533a5c7f7a20","","null","","","","","","","learning/Slide140.JPG","null","","","","","",""
"html-keyboard-response","426","849348","0.0-7.0-2.59","LF","rl7z98kzoa","1536","864","0","1","0","5faa8121f8f5533a5c7f7a20","","null","","","learningBlock2","","","","<div style=""font-size:60px;""> </div>","null","LF","learning/Slide140.JPG","This is a dep:","","",""
"html-keyboard-response","427","850349","0.0-7.0-0.60","LF","rl7z98kzoa","1536","864","0","1","0","5faa8121f8f5533a5c7f7a20","","null","","","learningBlock2","","","","This is a tob:","null","","","","","",""
"image-keyboard-response","428","850677","0.0-7.0-1.60","LF","rl7z98kzoa","1536","864","0","1","0","5faa8121f8f5533a5c7f7a20","","null","","","","","","","learning/Slide141.JPG","null","","","","","",""
"html-keyboard-response","429","851679","0.0-7.0-2.60","LF","rl7z98kzoa","1536","864","0","1","0","5faa8121f8f5533a5c7f7a20","","null","","","learningBlock2","","","","<div style=""font-size:60px;""> </div>","null","LF","learning/Slide141.JPG","This is a tob:","","",""
"html-keyboard-response","430","852680","0.0-7.0-0.61","LF","rl7z98kzoa","1536","864","0","1","0","5faa8121f8f5533a5c7f7a20","","null","","","learningBlock2","","","","This is a wug:","null","","","","","",""
"image-keyboard-response","431","853008","0.0-7.0-1.61","LF","rl7z98kzoa","1536","864","0","1","0","5faa8121f8f5533a5c7f7a20","","null","","","","","","","learning/Slide142.JPG","null","","","","","",""
"html-keyboard-response","432","854010","0.0-7.0-2.61","LF","rl7z98kzoa","1536","864","0","1","0","5faa8121f8f5533a5c7f7a20","","null","","","learningBlock2","","","","<div style=""font-size:60px;""> </div>","null","LF","learning/Slide142.JPG","This is a wug:","","",""
"html-keyboard-response","433","855012","0.0-7.0-0.62","LF","rl7z98kzoa","1536","864","0","1","0","5faa8121f8f5533a5c7f7a20","","null","","","learningBlock2","","","","This is a bim:","null","","","","","",""
"image-keyboard-response","434","855340","0.0-7.0-1.62","LF","rl7z98kzoa","1536","864","0","1","0","5faa8121f8f5533a5c7f7a20","","null","","","","","","","learning/Slide143.JPG","null","","","","","",""
"html-keyboard-response","435","856343","0.0-7.0-2.62","LF","rl7z98kzoa","1536","864","0","1","0","5faa8121f8f5533a5c7f7a20","","null","","","learningBlock2","","","","<div style=""font-size:60px;""> </div>","null","LF","learning/Slide143.JPG","This is a bim:","","",""
"html-keyboard-response","436","857344","0.0-7.0-0.63","LF","rl7z98kzoa","1536","864","0","1","0","5faa8121f8f5533a5c7f7a20","","null","","","learningBlock2","","","","This is a dep:","null","","","","","",""
"image-keyboard-response","437","857671","0.0-7.0-1.63","LF","rl7z98kzoa","1536","864","0","1","0","5faa8121f8f5533a5c7f7a20","","null","","","","","","","learning/Slide144.JPG","null","","","","","",""
