"trial_type","trial_index","time_elapsed","internal_node_id","condition","subject","screen_width","screen_height","attention","distraction","conscientious","prolificID","success","rt","url","view_history","test_part","final_height_px","final_width_px","scale_factor","stimulus","key_press","learningType","presentedImage","presentedLabel","button_pressed","response","responses"
"pavlovia","0","16","0.0-0.0","LF","v9kdh4rpsp","1280","720","0","1","0","5ed14691e983f5067842fd20","","","","","","","","","","","","","","","",""
"fullscreen","1","4068","0.0-1.0","LF","v9kdh4rpsp","1280","720","0","1","0","5ed14691e983f5067842fd20","true","","","","","","","","","","","","","","",""
"external-html","2","27988","0.0-2.0-0.0","LF","v9kdh4rpsp","1280","720","0","1","0","5ed14691e983f5067842fd20","","23804.23000000883","text/information_english.html","","","","","","","","","","","","",""
"external-html","3","38092","0.0-2.0-1.0","LF","v9kdh4rpsp","1280","720","0","1","0","5ed14691e983f5067842fd20","","9945.744999975432","text/consent_english.html","","","","","","","","","","","","",""
"instructions","4","49603","0.0-3.0","LF","v9kdh4rpsp","1280","720","0","1","0","5ed14691e983f5067842fd20","","NA","","[{""page_index"":0,""viewing_time"":2128.2350000110455},{""page_index"":1,""viewing_time"":9380.494999990333}]","instructions","","","","","","","","","","",""
"resize","5","202781","0.0-4.0","LF","v9kdh4rpsp","1280","720","0","1","0","5ed14691e983f5067842fd20","","","","","","","354","2.2476190476190476","","","","","","","",""
"html-keyboard-response","6","203787","0.0-5.0-0.0","LF","v9kdh4rpsp","1280","720","0","1","0","5ed14691e983f5067842fd20","","null","","","learningBlock1","","","","This is a tob:","null","","","","","",""
"image-keyboard-response","7","204137","0.0-5.0-1.0","LF","v9kdh4rpsp","1280","720","0","1","0","5ed14691e983f5067842fd20","","null","","","","","","","learning/Slide1.JPG","null","","","","","",""
"html-keyboard-response","8","205156","0.0-5.0-2.0","LF","v9kdh4rpsp","1280","720","0","1","0","5ed14691e983f5067842fd20","","null","","","learningBlock1","","","","<div style=""font-size:60px;""> </div>","null","LF","learning/Slide1.JPG","This is a tob:","","",""
"html-keyboard-response","9","206161","0.0-5.0-0.1","LF","v9kdh4rpsp","1280","720","0","1","0","5ed14691e983f5067842fd20","","null","","","learningBlock1","","","","This is a wug:","null","","","","","",""
"image-keyboard-response","10","206531","0.0-5.0-1.1","LF","v9kdh4rpsp","1280","720","0","1","0","5ed14691e983f5067842fd20","","null","","","","","","","learning/Slide2.JPG","null","","","","","",""
"html-keyboard-response","11","207533","0.0-5.0-2.1","LF","v9kdh4rpsp","1280","720","0","1","0","5ed14691e983f5067842fd20","","null","","","learningBlock1","","","","<div style=""font-size:60px;""> </div>","null","LF","learning/Slide2.JPG","This is a wug:","","",""
"html-keyboard-response","12","208550","0.0-5.0-0.2","LF","v9kdh4rpsp","1280","720","0","1","0","5ed14691e983f5067842fd20","","null","","","learningBlock1","","","","This is a bim:","null","","","","","",""
"image-keyboard-response","13","208904","0.0-5.0-1.2","LF","v9kdh4rpsp","1280","720","0","1","0","5ed14691e983f5067842fd20","","null","","","","","","","learning/Slide3.JPG","null","","","","","",""
"html-keyboard-response","14","209916","0.0-5.0-2.2","LF","v9kdh4rpsp","1280","720","0","1","0","5ed14691e983f5067842fd20","","null","","","learningBlock1","","","","<div style=""font-size:60px;""> </div>","null","LF","learning/Slide3.JPG","This is a bim:","","",""
"html-keyboard-response","15","210938","0.0-5.0-0.3","LF","v9kdh4rpsp","1280","720","0","1","0","5ed14691e983f5067842fd20","","null","","","learningBlock1","","","","This is a dep:","null","","","","","",""
"image-keyboard-response","16","211286","0.0-5.0-1.3","LF","v9kdh4rpsp","1280","720","0","1","0","5ed14691e983f5067842fd20","","null","","","","","","","learning/Slide4.JPG","null","","","","","",""
"html-keyboard-response","17","212289","0.0-5.0-2.3","LF","v9kdh4rpsp","1280","720","0","1","0","5ed14691e983f5067842fd20","","null","","","learningBlock1","","","","<div style=""font-size:60px;""> </div>","null","LF","learning/Slide4.JPG","This is a dep:","","",""
"html-keyboard-response","18","213292","0.0-5.0-0.4","LF","v9kdh4rpsp","1280","720","0","1","0","5ed14691e983f5067842fd20","","null","","","learningBlock1","","","","This is a wug:","null","","","","","",""
"image-keyboard-response","19","213630","0.0-5.0-1.4","LF","v9kdh4rpsp","1280","720","0","1","0","5ed14691e983f5067842fd20","","null","","","","","","","learning/Slide5.JPG","null","","","","","",""
"html-keyboard-response","20","214651","0.0-5.0-2.4","LF","v9kdh4rpsp","1280","720","0","1","0","5ed14691e983f5067842fd20","","null","","","learningBlock1","","","","<div style=""font-size:60px;""> </div>","null","LF","learning/Slide5.JPG","This is a wug:","","",""
"html-keyboard-response","21","215654","0.0-5.0-0.5","LF","v9kdh4rpsp","1280","720","0","1","0","5ed14691e983f5067842fd20","","null","","","learningBlock1","","","","This is a dep:","null","","","","","",""
"image-keyboard-response","22","216008","0.0-5.0-1.5","LF","v9kdh4rpsp","1280","720","0","1","0","5ed14691e983f5067842fd20","","null","","","","","","","learning/Slide6.JPG","null","","","","","",""
"html-keyboard-response","23","217010","0.0-5.0-2.5","LF","v9kdh4rpsp","1280","720","0","1","0","5ed14691e983f5067842fd20","","null","","","learningBlock1","","","","<div style=""font-size:60px;""> </div>","null","LF","learning/Slide6.JPG","This is a dep:","","",""
"html-keyboard-response","24","218026","0.0-5.0-0.6","LF","v9kdh4rpsp","1280","720","0","1","0","5ed14691e983f5067842fd20","","null","","","learningBlock1","","","","This is a wug:","null","","","","","",""
"image-keyboard-response","25","218364","0.0-5.0-1.6","LF","v9kdh4rpsp","1280","720","0","1","0","5ed14691e983f5067842fd20","","null","","","","","","","learning/Slide7.JPG","null","","","","","",""
"html-keyboard-response","26","219365","0.0-5.0-2.6","LF","v9kdh4rpsp","1280","720","0","1","0","5ed14691e983f5067842fd20","","null","","","learningBlock1","","","","<div style=""font-size:60px;""> </div>","null","LF","learning/Slide7.JPG","This is a wug:","","",""
"html-keyboard-response","27","220375","0.0-5.0-0.7","LF","v9kdh4rpsp","1280","720","0","1","0","5ed14691e983f5067842fd20","","null","","","learningBlock1","","","","This is a bim:","null","","","","","",""
"image-keyboard-response","28","220718","0.0-5.0-1.7","LF","v9kdh4rpsp","1280","720","0","1","0","5ed14691e983f5067842fd20","","null","","","","","","","learning/Slide8.JPG","null","","","","","",""
"html-keyboard-response","29","221735","0.0-5.0-2.7","LF","v9kdh4rpsp","1280","720","0","1","0","5ed14691e983f5067842fd20","","null","","","learningBlock1","","","","<div style=""font-size:60px;""> </div>","null","LF","learning/Slide8.JPG","This is a bim:","","",""
"html-keyboard-response","30","222740","0.0-5.0-0.8","LF","v9kdh4rpsp","1280","720","0","1","0","5ed14691e983f5067842fd20","","null","","","learningBlock1","","","","This is a wug:","null","","","","","",""
"image-keyboard-response","31","223078","0.0-5.0-1.8","LF","v9kdh4rpsp","1280","720","0","1","0","5ed14691e983f5067842fd20","","null","","","","","","","learning/Slide9.JPG","null","","","","","",""
"html-keyboard-response","32","224081","0.0-5.0-2.8","LF","v9kdh4rpsp","1280","720","0","1","0","5ed14691e983f5067842fd20","","null","","","learningBlock1","","","","<div style=""font-size:60px;""> </div>","null","LF","learning/Slide9.JPG","This is a wug:","","",""
"html-keyboard-response","33","225098","0.0-5.0-0.9","LF","v9kdh4rpsp","1280","720","0","1","0","5ed14691e983f5067842fd20","","null","","","learningBlock1","","","","This is a dep:","null","","","","","",""
"image-keyboard-response","34","225446","0.0-5.0-1.9","LF","v9kdh4rpsp","1280","720","0","1","0","5ed14691e983f5067842fd20","","null","","","","","","","learning/Slide10.JPG","null","","","","","",""
"html-keyboard-response","35","226448","0.0-5.0-2.9","LF","v9kdh4rpsp","1280","720","0","1","0","5ed14691e983f5067842fd20","","null","","","learningBlock1","","","","<div style=""font-size:60px;""> </div>","null","LF","learning/Slide10.JPG","This is a dep:","","",""
"html-keyboard-response","36","227465","0.0-5.0-0.10","LF","v9kdh4rpsp","1280","720","0","1","0","5ed14691e983f5067842fd20","","null","","","learningBlock1","","","","This is a tob:","null","","","","","",""
"image-keyboard-response","37","227801","0.0-5.0-1.10","LF","v9kdh4rpsp","1280","720","0","1","0","5ed14691e983f5067842fd20","","null","","","","","","","learning/Slide11.JPG","null","","","","","",""
"html-keyboard-response","38","228804","0.0-5.0-2.10","LF","v9kdh4rpsp","1280","720","0","1","0","5ed14691e983f5067842fd20","","null","","","learningBlock1","","","","<div style=""font-size:60px;""> </div>","null","LF","learning/Slide11.JPG","This is a tob:","","",""
"html-keyboard-response","39","229822","0.0-5.0-0.11","LF","v9kdh4rpsp","1280","720","0","1","0","5ed14691e983f5067842fd20","","null","","","learningBlock1","","","","This is a dep:","null","","","","","",""
"image-keyboard-response","40","230169","0.0-5.0-1.11","LF","v9kdh4rpsp","1280","720","0","1","0","5ed14691e983f5067842fd20","","null","","","","","","","learning/Slide12.JPG","null","","","","","",""
"html-keyboard-response","41","231172","0.0-5.0-2.11","LF","v9kdh4rpsp","1280","720","0","1","0","5ed14691e983f5067842fd20","","null","","","learningBlock1","","","","<div style=""font-size:60px;""> </div>","null","LF","learning/Slide12.JPG","This is a dep:","","",""
"html-keyboard-response","42","232194","0.0-5.0-0.12","LF","v9kdh4rpsp","1280","720","0","1","0","5ed14691e983f5067842fd20","","null","","","learningBlock1","","","","This is a bim:","null","","","","","",""
"image-keyboard-response","43","232543","0.0-5.0-1.12","LF","v9kdh4rpsp","1280","720","0","1","0","5ed14691e983f5067842fd20","","null","","","","","","","learning/Slide13.JPG","null","","","","","",""
"html-keyboard-response","44","233551","0.0-5.0-2.12","LF","v9kdh4rpsp","1280","720","0","1","0","5ed14691e983f5067842fd20","","null","","","learningBlock1","","","","<div style=""font-size:60px;""> </div>","null","LF","learning/Slide13.JPG","This is a bim:","","",""
"html-keyboard-response","45","234559","0.0-5.0-0.13","LF","v9kdh4rpsp","1280","720","0","1","0","5ed14691e983f5067842fd20","","null","","","learningBlock1","","","","This is a wug:","null","","","","","",""
"image-keyboard-response","46","234896","0.0-5.0-1.13","LF","v9kdh4rpsp","1280","720","0","1","0","5ed14691e983f5067842fd20","","null","","","","","","","learning/Slide14.JPG","null","","","","","",""
"html-keyboard-response","47","235898","0.0-5.0-2.13","LF","v9kdh4rpsp","1280","720","0","1","0","5ed14691e983f5067842fd20","","null","","","learningBlock1","","","","<div style=""font-size:60px;""> </div>","null","LF","learning/Slide14.JPG","This is a wug:","","",""
"html-keyboard-response","48","236920","0.0-5.0-0.14","LF","v9kdh4rpsp","1280","720","0","1","0","5ed14691e983f5067842fd20","","null","","","learningBlock1","","","","This is a tob:","null","","","","","",""
"image-keyboard-response","49","237275","0.0-5.0-1.14","LF","v9kdh4rpsp","1280","720","0","1","0","5ed14691e983f5067842fd20","","null","","","","","","","learning/Slide15.JPG","null","","","","","",""
"html-keyboard-response","50","238282","0.0-5.0-2.14","LF","v9kdh4rpsp","1280","720","0","1","0","5ed14691e983f5067842fd20","","null","","","learningBlock1","","","","<div style=""font-size:60px;""> </div>","null","LF","learning/Slide15.JPG","This is a tob:","","",""
"html-keyboard-response","51","239285","0.0-5.0-0.15","LF","v9kdh4rpsp","1280","720","0","1","0","5ed14691e983f5067842fd20","","null","","","learningBlock1","","","","This is a dep:","null","","","","","",""
"image-keyboard-response","52","239616","0.0-5.0-1.15","LF","v9kdh4rpsp","1280","720","0","1","0","5ed14691e983f5067842fd20","","null","","","","","","","learning/Slide16.JPG","null","","","","","",""
"html-keyboard-response","53","240619","0.0-5.0-2.15","LF","v9kdh4rpsp","1280","720","0","1","0","5ed14691e983f5067842fd20","","null","","","learningBlock1","","","","<div style=""font-size:60px;""> </div>","null","LF","learning/Slide16.JPG","This is a dep:","","",""
"html-keyboard-response","54","241622","0.0-5.0-0.16","LF","v9kdh4rpsp","1280","720","0","1","0","5ed14691e983f5067842fd20","","null","","","learningBlock1","","","","This is a bim:","null","","","","","",""
"image-keyboard-response","55","241958","0.0-5.0-1.16","LF","v9kdh4rpsp","1280","720","0","1","0","5ed14691e983f5067842fd20","","null","","","","","","","learning/Slide17.JPG","null","","","","","",""
"html-keyboard-response","56","242976","0.0-5.0-2.16","LF","v9kdh4rpsp","1280","720","0","1","0","5ed14691e983f5067842fd20","","null","","","learningBlock1","","","","<div style=""font-size:60px;""> </div>","null","LF","learning/Slide17.JPG","This is a bim:","","",""
"html-keyboard-response","57","243979","0.0-5.0-0.17","LF","v9kdh4rpsp","1280","720","0","1","0","5ed14691e983f5067842fd20","","null","","","learningBlock1","","","","This is a tob:","null","","","","","",""
"image-keyboard-response","58","244329","0.0-5.0-1.17","LF","v9kdh4rpsp","1280","720","0","1","0","5ed14691e983f5067842fd20","","null","","","","","","","learning/Slide18.JPG","null","","","","","",""
"html-keyboard-response","59","245350","0.0-5.0-2.17","LF","v9kdh4rpsp","1280","720","0","1","0","5ed14691e983f5067842fd20","","null","","","learningBlock1","","","","<div style=""font-size:60px;""> </div>","null","LF","learning/Slide18.JPG","This is a tob:","","",""
"html-keyboard-response","60","246367","0.0-5.0-0.18","LF","v9kdh4rpsp","1280","720","0","1","0","5ed14691e983f5067842fd20","","null","","","learningBlock1","","","","This is a wug:","null","","","","","",""
"image-keyboard-response","61","246700","0.0-5.0-1.18","LF","v9kdh4rpsp","1280","720","0","1","0","5ed14691e983f5067842fd20","","null","","","","","","","learning/Slide19.JPG","null","","","","","",""
"html-keyboard-response","62","247708","0.0-5.0-2.18","LF","v9kdh4rpsp","1280","720","0","1","0","5ed14691e983f5067842fd20","","null","","","learningBlock1","","","","<div style=""font-size:60px;""> </div>","null","LF","learning/Slide19.JPG","This is a wug:","","",""
"html-keyboard-response","63","248715","0.0-5.0-0.19","LF","v9kdh4rpsp","1280","720","0","1","0","5ed14691e983f5067842fd20","","null","","","learningBlock1","","","","This is a bim:","null","","","","","",""
"image-keyboard-response","64","249054","0.0-5.0-1.19","LF","v9kdh4rpsp","1280","720","0","1","0","5ed14691e983f5067842fd20","","null","","","","","","","learning/Slide20.JPG","null","","","","","",""
"html-keyboard-response","65","250057","0.0-5.0-2.19","LF","v9kdh4rpsp","1280","720","0","1","0","5ed14691e983f5067842fd20","","null","","","learningBlock1","","","","<div style=""font-size:60px;""> </div>","null","LF","learning/Slide20.JPG","This is a bim:","","",""
"html-keyboard-response","66","251078","0.0-5.0-0.20","LF","v9kdh4rpsp","1280","720","0","1","0","5ed14691e983f5067842fd20","","null","","","learningBlock1","","","","This is a dep:","null","","","","","",""
"image-keyboard-response","67","251432","0.0-5.0-1.20","LF","v9kdh4rpsp","1280","720","0","1","0","5ed14691e983f5067842fd20","","null","","","","","","","learning/Slide21.JPG","null","","","","","",""
"html-keyboard-response","68","252441","0.0-5.0-2.20","LF","v9kdh4rpsp","1280","720","0","1","0","5ed14691e983f5067842fd20","","null","","","learningBlock1","","","","<div style=""font-size:60px;""> </div>","null","LF","learning/Slide21.JPG","This is a dep:","","",""
"html-keyboard-response","69","253460","0.0-5.0-0.21","LF","v9kdh4rpsp","1280","720","0","1","0","5ed14691e983f5067842fd20","","null","","","learningBlock1","","","","This is a bim:","null","","","","","",""
"image-keyboard-response","70","253797","0.0-5.0-1.21","LF","v9kdh4rpsp","1280","720","0","1","0","5ed14691e983f5067842fd20","","null","","","","","","","learning/Slide22.JPG","null","","","","","",""
"html-keyboard-response","71","254799","0.0-5.0-2.21","LF","v9kdh4rpsp","1280","720","0","1","0","5ed14691e983f5067842fd20","","null","","","learningBlock1","","","","<div style=""font-size:60px;""> </div>","null","LF","learning/Slide22.JPG","This is a bim:","","",""
"html-keyboard-response","72","255802","0.0-5.0-0.22","LF","v9kdh4rpsp","1280","720","0","1","0","5ed14691e983f5067842fd20","","null","","","learningBlock1","","","","This is a tob:","null","","","","","",""
"image-keyboard-response","73","256144","0.0-5.0-1.22","LF","v9kdh4rpsp","1280","720","0","1","0","5ed14691e983f5067842fd20","","null","","","","","","","learning/Slide23.JPG","null","","","","","",""
"html-keyboard-response","74","257159","0.0-5.0-2.22","LF","v9kdh4rpsp","1280","720","0","1","0","5ed14691e983f5067842fd20","","null","","","learningBlock1","","","","<div style=""font-size:60px;""> </div>","null","LF","learning/Slide23.JPG","This is a tob:","","",""
"html-keyboard-response","75","258165","0.0-5.0-0.23","LF","v9kdh4rpsp","1280","720","0","1","0","5ed14691e983f5067842fd20","","null","","","learningBlock1","","","","This is a wug:","null","","","","","",""
"image-keyboard-response","76","258507","0.0-5.0-1.23","LF","v9kdh4rpsp","1280","720","0","1","0","5ed14691e983f5067842fd20","","null","","","","","","","learning/Slide24.JPG","null","","","","","",""
"html-keyboard-response","77","259525","0.0-5.0-2.23","LF","v9kdh4rpsp","1280","720","0","1","0","5ed14691e983f5067842fd20","","null","","","learningBlock1","","","","<div style=""font-size:60px;""> </div>","null","LF","learning/Slide24.JPG","This is a wug:","","",""
"html-keyboard-response","78","260542","0.0-5.0-0.24","LF","v9kdh4rpsp","1280","720","0","1","0","5ed14691e983f5067842fd20","","null","","","learningBlock1","","","","This is a dep:","null","","","","","",""
"image-keyboard-response","79","260891","0.0-5.0-1.24","LF","v9kdh4rpsp","1280","720","0","1","0","5ed14691e983f5067842fd20","","null","","","","","","","learning/Slide25.JPG","null","","","","","",""
"html-keyboard-response","80","261909","0.0-5.0-2.24","LF","v9kdh4rpsp","1280","720","0","1","0","5ed14691e983f5067842fd20","","null","","","learningBlock1","","","","<div style=""font-size:60px;""> </div>","null","LF","learning/Slide25.JPG","This is a dep:","","",""
"html-keyboard-response","81","262931","0.0-5.0-0.25","LF","v9kdh4rpsp","1280","720","0","1","0","5ed14691e983f5067842fd20","","null","","","learningBlock1","","","","This is a wug:","null","","","","","",""
"image-keyboard-response","82","263279","0.0-5.0-1.25","LF","v9kdh4rpsp","1280","720","0","1","0","5ed14691e983f5067842fd20","","null","","","","","","","learning/Slide26.JPG","null","","","","","",""
"html-keyboard-response","83","264282","0.0-5.0-2.25","LF","v9kdh4rpsp","1280","720","0","1","0","5ed14691e983f5067842fd20","","null","","","learningBlock1","","","","<div style=""font-size:60px;""> </div>","null","LF","learning/Slide26.JPG","This is a wug:","","",""
"html-keyboard-response","84","265284","0.0-5.0-0.26","LF","v9kdh4rpsp","1280","720","0","1","0","5ed14691e983f5067842fd20","","null","","","learningBlock1","","","","This is a bim:","null","","","","","",""
"image-keyboard-response","85","265622","0.0-5.0-1.26","LF","v9kdh4rpsp","1280","720","0","1","0","5ed14691e983f5067842fd20","","null","","","","","","","learning/Slide27.JPG","null","","","","","",""
"html-keyboard-response","86","266625","0.0-5.0-2.26","LF","v9kdh4rpsp","1280","720","0","1","0","5ed14691e983f5067842fd20","","null","","","learningBlock1","","","","<div style=""font-size:60px;""> </div>","null","LF","learning/Slide27.JPG","This is a bim:","","",""
"html-keyboard-response","87","267645","0.0-5.0-0.27","LF","v9kdh4rpsp","1280","720","0","1","0","5ed14691e983f5067842fd20","","null","","","learningBlock1","","","","This is a dep:","null","","","","","",""
"image-keyboard-response","88","267993","0.0-5.0-1.27","LF","v9kdh4rpsp","1280","720","0","1","0","5ed14691e983f5067842fd20","","null","","","","","","","learning/Slide28.JPG","null","","","","","",""
"html-keyboard-response","89","269002","0.0-5.0-2.27","LF","v9kdh4rpsp","1280","720","0","1","0","5ed14691e983f5067842fd20","","null","","","learningBlock1","","","","<div style=""font-size:60px;""> </div>","null","LF","learning/Slide28.JPG","This is a dep:","","",""
"html-keyboard-response","90","270004","0.0-5.0-0.28","LF","v9kdh4rpsp","1280","720","0","1","0","5ed14691e983f5067842fd20","","null","","","learningBlock1","","","","This is a tob:","null","","","","","",""
"image-keyboard-response","91","270341","0.0-5.0-1.28","LF","v9kdh4rpsp","1280","720","0","1","0","5ed14691e983f5067842fd20","","null","","","","","","","learning/Slide29.JPG","null","","","","","",""
"html-keyboard-response","92","271344","0.0-5.0-2.28","LF","v9kdh4rpsp","1280","720","0","1","0","5ed14691e983f5067842fd20","","null","","","learningBlock1","","","","<div style=""font-size:60px;""> </div>","null","LF","learning/Slide29.JPG","This is a tob:","","",""
"html-keyboard-response","93","272366","0.0-5.0-0.29","LF","v9kdh4rpsp","1280","720","0","1","0","5ed14691e983f5067842fd20","","null","","","learningBlock1","","","","This is a dep:","null","","","","","",""
"image-keyboard-response","94","272701","0.0-5.0-1.29","LF","v9kdh4rpsp","1280","720","0","1","0","5ed14691e983f5067842fd20","","null","","","","","","","learning/Slide30.JPG","null","","","","","",""
"html-keyboard-response","95","273703","0.0-5.0-2.29","LF","v9kdh4rpsp","1280","720","0","1","0","5ed14691e983f5067842fd20","","null","","","learningBlock1","","","","<div style=""font-size:60px;""> </div>","null","LF","learning/Slide30.JPG","This is a dep:","","",""
"html-keyboard-response","96","274708","0.0-5.0-0.30","LF","v9kdh4rpsp","1280","720","0","1","0","5ed14691e983f5067842fd20","","null","","","learningBlock1","","","","This is a wug:","null","","","","","",""
"image-keyboard-response","97","275040","0.0-5.0-1.30","LF","v9kdh4rpsp","1280","720","0","1","0","5ed14691e983f5067842fd20","","null","","","","","","","learning/Slide31.JPG","null","","","","","",""
"html-keyboard-response","98","276048","0.0-5.0-2.30","LF","v9kdh4rpsp","1280","720","0","1","0","5ed14691e983f5067842fd20","","null","","","learningBlock1","","","","<div style=""font-size:60px;""> </div>","null","LF","learning/Slide31.JPG","This is a wug:","","",""
"html-keyboard-response","99","277050","0.0-5.0-0.31","LF","v9kdh4rpsp","1280","720","0","1","0","5ed14691e983f5067842fd20","","null","","","learningBlock1","","","","This is a tob:","null","","","","","",""
"image-keyboard-response","100","277386","0.0-5.0-1.31","LF","v9kdh4rpsp","1280","720","0","1","0","5ed14691e983f5067842fd20","","null","","","","","","","learning/Slide32.JPG","null","","","","","",""
"html-keyboard-response","101","278388","0.0-5.0-2.31","LF","v9kdh4rpsp","1280","720","0","1","0","5ed14691e983f5067842fd20","","null","","","learningBlock1","","","","<div style=""font-size:60px;""> </div>","null","LF","learning/Slide32.JPG","This is a tob:","","",""
"html-keyboard-response","102","279391","0.0-5.0-0.32","LF","v9kdh4rpsp","1280","720","0","1","0","5ed14691e983f5067842fd20","","null","","","learningBlock1","","","","This is a bim:","null","","","","","",""
"image-keyboard-response","103","279739","0.0-5.0-1.32","LF","v9kdh4rpsp","1280","720","0","1","0","5ed14691e983f5067842fd20","","null","","","","","","","learning/Slide33.JPG","null","","","","","",""
"html-keyboard-response","104","280741","0.0-5.0-2.32","LF","v9kdh4rpsp","1280","720","0","1","0","5ed14691e983f5067842fd20","","null","","","learningBlock1","","","","<div style=""font-size:60px;""> </div>","null","LF","learning/Slide33.JPG","This is a bim:","","",""
"html-keyboard-response","105","281749","0.0-5.0-0.33","LF","v9kdh4rpsp","1280","720","0","1","0","5ed14691e983f5067842fd20","","null","","","learningBlock1","","","","This is a tob:","null","","","","","",""
"image-keyboard-response","106","282088","0.0-5.0-1.33","LF","v9kdh4rpsp","1280","720","0","1","0","5ed14691e983f5067842fd20","","null","","","","","","","learning/Slide34.JPG","null","","","","","",""
"html-keyboard-response","107","283109","0.0-5.0-2.33","LF","v9kdh4rpsp","1280","720","0","1","0","5ed14691e983f5067842fd20","","null","","","learningBlock1","","","","<div style=""font-size:60px;""> </div>","null","LF","learning/Slide34.JPG","This is a tob:","","",""
"html-keyboard-response","108","284111","0.0-5.0-0.34","LF","v9kdh4rpsp","1280","720","0","1","0","5ed14691e983f5067842fd20","","null","","","learningBlock1","","","","This is a bim:","null","","","","","",""
"image-keyboard-response","109","284444","0.0-5.0-1.34","LF","v9kdh4rpsp","1280","720","0","1","0","5ed14691e983f5067842fd20","","null","","","","","","","learning/Slide35.JPG","null","","","","","",""
"html-keyboard-response","110","285447","0.0-5.0-2.34","LF","v9kdh4rpsp","1280","720","0","1","0","5ed14691e983f5067842fd20","","null","","","learningBlock1","","","","<div style=""font-size:60px;""> </div>","null","LF","learning/Slide35.JPG","This is a bim:","","",""
"html-keyboard-response","111","286450","0.0-5.0-0.35","LF","v9kdh4rpsp","1280","720","0","1","0","5ed14691e983f5067842fd20","","null","","","learningBlock1","","","","This is a dep:","null","","","","","",""
"image-keyboard-response","112","286798","0.0-5.0-1.35","LF","v9kdh4rpsp","1280","720","0","1","0","5ed14691e983f5067842fd20","","null","","","","","","","learning/Slide36.JPG","null","","","","","",""
"html-keyboard-response","113","287801","0.0-5.0-2.35","LF","v9kdh4rpsp","1280","720","0","1","0","5ed14691e983f5067842fd20","","null","","","learningBlock1","","","","<div style=""font-size:60px;""> </div>","null","LF","learning/Slide36.JPG","This is a dep:","","",""
"html-keyboard-response","114","288823","0.0-5.0-0.36","LF","v9kdh4rpsp","1280","720","0","1","0","5ed14691e983f5067842fd20","","null","","","learningBlock1","","","","This is a tob:","null","","","","","",""
"image-keyboard-response","115","289172","0.0-5.0-1.36","LF","v9kdh4rpsp","1280","720","0","1","0","5ed14691e983f5067842fd20","","null","","","","","","","learning/Slide37.JPG","null","","","","","",""
"html-keyboard-response","116","290187","0.0-5.0-2.36","LF","v9kdh4rpsp","1280","720","0","1","0","5ed14691e983f5067842fd20","","null","","","learningBlock1","","","","<div style=""font-size:60px;""> </div>","null","LF","learning/Slide37.JPG","This is a tob:","","",""
"html-keyboard-response","117","291189","0.0-5.0-0.37","LF","v9kdh4rpsp","1280","720","0","1","0","5ed14691e983f5067842fd20","","null","","","learningBlock1","","","","This is a wug:","null","","","","","",""
"image-keyboard-response","118","291531","0.0-5.0-1.37","LF","v9kdh4rpsp","1280","720","0","1","0","5ed14691e983f5067842fd20","","null","","","","","","","learning/Slide38.JPG","null","","","","","",""
"html-keyboard-response","119","292533","0.0-5.0-2.37","LF","v9kdh4rpsp","1280","720","0","1","0","5ed14691e983f5067842fd20","","null","","","learningBlock1","","","","<div style=""font-size:60px;""> </div>","null","LF","learning/Slide38.JPG","This is a wug:","","",""
"html-keyboard-response","120","293551","0.0-5.0-0.38","LF","v9kdh4rpsp","1280","720","0","1","0","5ed14691e983f5067842fd20","","null","","","learningBlock1","","","","This is a bim:","null","","","","","",""
"image-keyboard-response","121","293899","0.0-5.0-1.38","LF","v9kdh4rpsp","1280","720","0","1","0","5ed14691e983f5067842fd20","","null","","","","","","","learning/Slide39.JPG","null","","","","","",""
"html-keyboard-response","122","294902","0.0-5.0-2.38","LF","v9kdh4rpsp","1280","720","0","1","0","5ed14691e983f5067842fd20","","null","","","learningBlock1","","","","<div style=""font-size:60px;""> </div>","null","LF","learning/Slide39.JPG","This is a bim:","","",""
"html-keyboard-response","123","295908","0.0-5.0-0.39","LF","v9kdh4rpsp","1280","720","0","1","0","5ed14691e983f5067842fd20","","null","","","learningBlock1","","","","This is a tob:","null","","","","","",""
"image-keyboard-response","124","296246","0.0-5.0-1.39","LF","v9kdh4rpsp","1280","720","0","1","0","5ed14691e983f5067842fd20","","null","","","","","","","learning/Slide40.JPG","null","","","","","",""
"html-keyboard-response","125","297248","0.0-5.0-2.39","LF","v9kdh4rpsp","1280","720","0","1","0","5ed14691e983f5067842fd20","","null","","","learningBlock1","","","","<div style=""font-size:60px;""> </div>","null","LF","learning/Slide40.JPG","This is a tob:","","",""
"html-keyboard-response","126","298250","0.0-5.0-0.40","LF","v9kdh4rpsp","1280","720","0","1","0","5ed14691e983f5067842fd20","","null","","","learningBlock1","","","","This is a bim:","null","","","","","",""
"image-keyboard-response","127","298598","0.0-5.0-1.40","LF","v9kdh4rpsp","1280","720","0","1","0","5ed14691e983f5067842fd20","","null","","","","","","","learning/Slide41.JPG","null","","","","","",""
"html-keyboard-response","128","299606","0.0-5.0-2.40","LF","v9kdh4rpsp","1280","720","0","1","0","5ed14691e983f5067842fd20","","null","","","learningBlock1","","","","<div style=""font-size:60px;""> </div>","null","LF","learning/Slide41.JPG","This is a bim:","","",""
"html-keyboard-response","129","300623","0.0-5.0-0.41","LF","v9kdh4rpsp","1280","720","0","1","0","5ed14691e983f5067842fd20","","null","","","learningBlock1","","","","This is a dep:","null","","","","","",""
"image-keyboard-response","130","300960","0.0-5.0-1.41","LF","v9kdh4rpsp","1280","720","0","1","0","5ed14691e983f5067842fd20","","null","","","","","","","learning/Slide42.JPG","null","","","","","",""
"html-keyboard-response","131","301962","0.0-5.0-2.41","LF","v9kdh4rpsp","1280","720","0","1","0","5ed14691e983f5067842fd20","","null","","","learningBlock1","","","","<div style=""font-size:60px;""> </div>","null","LF","learning/Slide42.JPG","This is a dep:","","",""
"html-keyboard-response","132","302964","0.0-5.0-0.42","LF","v9kdh4rpsp","1280","720","0","1","0","5ed14691e983f5067842fd20","","null","","","learningBlock1","","","","This is a wug:","null","","","","","",""
"image-keyboard-response","133","303312","0.0-5.0-1.42","LF","v9kdh4rpsp","1280","720","0","1","0","5ed14691e983f5067842fd20","","null","","","","","","","learning/Slide43.JPG","null","","","","","",""
"html-keyboard-response","134","304321","0.0-5.0-2.42","LF","v9kdh4rpsp","1280","720","0","1","0","5ed14691e983f5067842fd20","","null","","","learningBlock1","","","","<div style=""font-size:60px;""> </div>","null","LF","learning/Slide43.JPG","This is a wug:","","",""
"html-keyboard-response","135","305323","0.0-5.0-0.43","LF","v9kdh4rpsp","1280","720","0","1","0","5ed14691e983f5067842fd20","","null","","","learningBlock1","","","","This is a bim:","null","","","","","",""
"image-keyboard-response","136","305657","0.0-5.0-1.43","LF","v9kdh4rpsp","1280","720","0","1","0","5ed14691e983f5067842fd20","","null","","","","","","","learning/Slide44.JPG","null","","","","","",""
"html-keyboard-response","137","306662","0.0-5.0-2.43","LF","v9kdh4rpsp","1280","720","0","1","0","5ed14691e983f5067842fd20","","null","","","learningBlock1","","","","<div style=""font-size:60px;""> </div>","null","LF","learning/Slide44.JPG","This is a bim:","","",""
"html-keyboard-response","138","307681","0.0-5.0-0.44","LF","v9kdh4rpsp","1280","720","0","1","0","5ed14691e983f5067842fd20","","null","","","learningBlock1","","","","This is a wug:","null","","","","","",""
"image-keyboard-response","139","308029","0.0-5.0-1.44","LF","v9kdh4rpsp","1280","720","0","1","0","5ed14691e983f5067842fd20","","null","","","","","","","learning/Slide45.JPG","null","","","","","",""
"html-keyboard-response","140","309047","0.0-5.0-2.44","LF","v9kdh4rpsp","1280","720","0","1","0","5ed14691e983f5067842fd20","","null","","","learningBlock1","","","","<div style=""font-size:60px;""> </div>","null","LF","learning/Slide45.JPG","This is a wug:","","",""
"html-keyboard-response","141","310057","0.0-5.0-0.45","LF","v9kdh4rpsp","1280","720","0","1","0","5ed14691e983f5067842fd20","","null","","","learningBlock1","","","","This is a dep:","null","","","","","",""
"image-keyboard-response","142","310414","0.0-5.0-1.45","LF","v9kdh4rpsp","1280","720","0","1","0","5ed14691e983f5067842fd20","","null","","","","","","","learning/Slide46.JPG","null","","","","","",""
"html-keyboard-response","143","311432","0.0-5.0-2.45","LF","v9kdh4rpsp","1280","720","0","1","0","5ed14691e983f5067842fd20","","null","","","learningBlock1","","","","<div style=""font-size:60px;""> </div>","null","LF","learning/Slide46.JPG","This is a dep:","","",""
"html-keyboard-response","144","312434","0.0-5.0-0.46","LF","v9kdh4rpsp","1280","720","0","1","0","5ed14691e983f5067842fd20","","null","","","learningBlock1","","","","This is a tob:","null","","","","","",""
"image-keyboard-response","145","312783","0.0-5.0-1.46","LF","v9kdh4rpsp","1280","720","0","1","0","5ed14691e983f5067842fd20","","null","","","","","","","learning/Slide47.JPG","null","","","","","",""
"html-keyboard-response","146","313805","0.0-5.0-2.46","LF","v9kdh4rpsp","1280","720","0","1","0","5ed14691e983f5067842fd20","","null","","","learningBlock1","","","","<div style=""font-size:60px;""> </div>","null","LF","learning/Slide47.JPG","This is a tob:","","",""
"html-keyboard-response","147","314807","0.0-5.0-0.47","LF","v9kdh4rpsp","1280","720","0","1","0","5ed14691e983f5067842fd20","","null","","","learningBlock1","","","","This is a bim:","null","","","","","",""
"image-keyboard-response","148","315160","0.0-5.0-1.47","LF","v9kdh4rpsp","1280","720","0","1","0","5ed14691e983f5067842fd20","","null","","","","","","","learning/Slide48.JPG","null","","","","","",""
"html-keyboard-response","149","316168","0.0-5.0-2.47","LF","v9kdh4rpsp","1280","720","0","1","0","5ed14691e983f5067842fd20","","null","","","learningBlock1","","","","<div style=""font-size:60px;""> </div>","null","LF","learning/Slide48.JPG","This is a bim:","","",""
"html-keyboard-response","150","317185","0.0-5.0-0.48","LF","v9kdh4rpsp","1280","720","0","1","0","5ed14691e983f5067842fd20","","null","","","learningBlock1","","","","This is a dep:","null","","","","","",""
"image-keyboard-response","151","317529","0.0-5.0-1.48","LF","v9kdh4rpsp","1280","720","0","1","0","5ed14691e983f5067842fd20","","null","","","","","","","learning/Slide49.JPG","null","","","","","",""
"html-keyboard-response","152","318532","0.0-5.0-2.48","LF","v9kdh4rpsp","1280","720","0","1","0","5ed14691e983f5067842fd20","","null","","","learningBlock1","","","","<div style=""font-size:60px;""> </div>","null","LF","learning/Slide49.JPG","This is a dep:","","",""
"html-keyboard-response","153","319549","0.0-5.0-0.49","LF","v9kdh4rpsp","1280","720","0","1","0","5ed14691e983f5067842fd20","","null","","","learningBlock1","","","","This is a tob:","null","","","","","",""
"image-keyboard-response","154","319898","0.0-5.0-1.49","LF","v9kdh4rpsp","1280","720","0","1","0","5ed14691e983f5067842fd20","","null","","","","","","","learning/Slide50.JPG","null","","","","","",""
"html-keyboard-response","155","320900","0.0-5.0-2.49","LF","v9kdh4rpsp","1280","720","0","1","0","5ed14691e983f5067842fd20","","null","","","learningBlock1","","","","<div style=""font-size:60px;""> </div>","null","LF","learning/Slide50.JPG","This is a tob:","","",""
"html-keyboard-response","156","321906","0.0-5.0-0.50","LF","v9kdh4rpsp","1280","720","0","1","0","5ed14691e983f5067842fd20","","null","","","learningBlock1","","","","This is a bim:","null","","","","","",""
"image-keyboard-response","157","322243","0.0-5.0-1.50","LF","v9kdh4rpsp","1280","720","0","1","0","5ed14691e983f5067842fd20","","null","","","","","","","learning/Slide51.JPG","null","","","","","",""
"html-keyboard-response","158","323245","0.0-5.0-2.50","LF","v9kdh4rpsp","1280","720","0","1","0","5ed14691e983f5067842fd20","","null","","","learningBlock1","","","","<div style=""font-size:60px;""> </div>","null","LF","learning/Slide51.JPG","This is a bim:","","",""
"html-keyboard-response","159","324247","0.0-5.0-0.51","LF","v9kdh4rpsp","1280","720","0","1","0","5ed14691e983f5067842fd20","","null","","","learningBlock1","","","","This is a wug:","null","","","","","",""
"image-keyboard-response","160","324594","0.0-5.0-1.51","LF","v9kdh4rpsp","1280","720","0","1","0","5ed14691e983f5067842fd20","","null","","","","","","","learning/Slide52.JPG","null","","","","","",""
"html-keyboard-response","161","325596","0.0-5.0-2.51","LF","v9kdh4rpsp","1280","720","0","1","0","5ed14691e983f5067842fd20","","null","","","learningBlock1","","","","<div style=""font-size:60px;""> </div>","null","LF","learning/Slide52.JPG","This is a wug:","","",""
"html-keyboard-response","162","326608","0.0-5.0-0.52","LF","v9kdh4rpsp","1280","720","0","1","0","5ed14691e983f5067842fd20","","null","","","learningBlock1","","","","This is a tob:","null","","","","","",""
"image-keyboard-response","163","326941","0.0-5.0-1.52","LF","v9kdh4rpsp","1280","720","0","1","0","5ed14691e983f5067842fd20","","null","","","","","","","learning/Slide53.JPG","null","","","","","",""
"html-keyboard-response","164","327963","0.0-5.0-2.52","LF","v9kdh4rpsp","1280","720","0","1","0","5ed14691e983f5067842fd20","","null","","","learningBlock1","","","","<div style=""font-size:60px;""> </div>","null","LF","learning/Slide53.JPG","This is a tob:","","",""
"html-keyboard-response","165","328970","0.0-5.0-0.53","LF","v9kdh4rpsp","1280","720","0","1","0","5ed14691e983f5067842fd20","","null","","","learningBlock1","","","","This is a dep:","null","","","","","",""
"image-keyboard-response","166","329318","0.0-5.0-1.53","LF","v9kdh4rpsp","1280","720","0","1","0","5ed14691e983f5067842fd20","","null","","","","","","","learning/Slide54.JPG","null","","","","","",""
"html-keyboard-response","167","330337","0.0-5.0-2.53","LF","v9kdh4rpsp","1280","720","0","1","0","5ed14691e983f5067842fd20","","null","","","learningBlock1","","","","<div style=""font-size:60px;""> </div>","null","LF","learning/Slide54.JPG","This is a dep:","","",""
"html-keyboard-response","168","331344","0.0-5.0-0.54","LF","v9kdh4rpsp","1280","720","0","1","0","5ed14691e983f5067842fd20","","null","","","learningBlock1","","","","This is a bim:","null","","","","","",""
"image-keyboard-response","169","331686","0.0-5.0-1.54","LF","v9kdh4rpsp","1280","720","0","1","0","5ed14691e983f5067842fd20","","null","","","","","","","learning/Slide55.JPG","null","","","","","",""
"html-keyboard-response","170","332704","0.0-5.0-2.54","LF","v9kdh4rpsp","1280","720","0","1","0","5ed14691e983f5067842fd20","","null","","","learningBlock1","","","","<div style=""font-size:60px;""> </div>","null","LF","learning/Slide55.JPG","This is a bim:","","",""
"html-keyboard-response","171","333706","0.0-5.0-0.55","LF","v9kdh4rpsp","1280","720","0","1","0","5ed14691e983f5067842fd20","","null","","","learningBlock1","","","","This is a tob:","null","","","","","",""
"image-keyboard-response","172","334056","0.0-5.0-1.55","LF","v9kdh4rpsp","1280","720","0","1","0","5ed14691e983f5067842fd20","","null","","","","","","","learning/Slide56.JPG","null","","","","","",""
"html-keyboard-response","173","335064","0.0-5.0-2.55","LF","v9kdh4rpsp","1280","720","0","1","0","5ed14691e983f5067842fd20","","null","","","learningBlock1","","","","<div style=""font-size:60px;""> </div>","null","LF","learning/Slide56.JPG","This is a tob:","","",""
"html-keyboard-response","174","336074","0.0-5.0-0.56","LF","v9kdh4rpsp","1280","720","0","1","0","5ed14691e983f5067842fd20","","null","","","learningBlock1","","","","This is a dep:","null","","","","","",""
"image-keyboard-response","175","336424","0.0-5.0-1.56","LF","v9kdh4rpsp","1280","720","0","1","0","5ed14691e983f5067842fd20","","null","","","","","","","learning/Slide57.JPG","null","","","","","",""
"html-keyboard-response","176","337441","0.0-5.0-2.56","LF","v9kdh4rpsp","1280","720","0","1","0","5ed14691e983f5067842fd20","","null","","","learningBlock1","","","","<div style=""font-size:60px;""> </div>","null","LF","learning/Slide57.JPG","This is a dep:","","",""
"html-keyboard-response","177","338458","0.0-5.0-0.57","LF","v9kdh4rpsp","1280","720","0","1","0","5ed14691e983f5067842fd20","","null","","","learningBlock1","","","","This is a wug:","null","","","","","",""
"image-keyboard-response","178","338793","0.0-5.0-1.57","LF","v9kdh4rpsp","1280","720","0","1","0","5ed14691e983f5067842fd20","","null","","","","","","","learning/Slide58.JPG","null","","","","","",""
"html-keyboard-response","179","339812","0.0-5.0-2.57","LF","v9kdh4rpsp","1280","720","0","1","0","5ed14691e983f5067842fd20","","null","","","learningBlock1","","","","<div style=""font-size:60px;""> </div>","null","LF","learning/Slide58.JPG","This is a wug:","","",""
"html-keyboard-response","180","340830","0.0-5.0-0.58","LF","v9kdh4rpsp","1280","720","0","1","0","5ed14691e983f5067842fd20","","null","","","learningBlock1","","","","This is a dep:","null","","","","","",""
"image-keyboard-response","181","341178","0.0-5.0-1.58","LF","v9kdh4rpsp","1280","720","0","1","0","5ed14691e983f5067842fd20","","null","","","","","","","learning/Slide59.JPG","null","","","","","",""
"html-keyboard-response","182","342185","0.0-5.0-2.58","LF","v9kdh4rpsp","1280","720","0","1","0","5ed14691e983f5067842fd20","","null","","","learningBlock1","","","","<div style=""font-size:60px;""> </div>","null","LF","learning/Slide59.JPG","This is a dep:","","",""
"html-keyboard-response","183","343202","0.0-5.0-0.59","LF","v9kdh4rpsp","1280","720","0","1","0","5ed14691e983f5067842fd20","","null","","","learningBlock1","","","","This is a wug:","null","","","","","",""
"image-keyboard-response","184","343543","0.0-5.0-1.59","LF","v9kdh4rpsp","1280","720","0","1","0","5ed14691e983f5067842fd20","","null","","","","","","","learning/Slide60.JPG","null","","","","","",""
"html-keyboard-response","185","344545","0.0-5.0-2.59","LF","v9kdh4rpsp","1280","720","0","1","0","5ed14691e983f5067842fd20","","null","","","learningBlock1","","","","<div style=""font-size:60px;""> </div>","null","LF","learning/Slide60.JPG","This is a wug:","","",""
"html-keyboard-response","186","345559","0.0-5.0-0.60","LF","v9kdh4rpsp","1280","720","0","1","0","5ed14691e983f5067842fd20","","null","","","learningBlock1","","","","This is a bim:","null","","","","","",""
"image-keyboard-response","187","345899","0.0-5.0-1.60","LF","v9kdh4rpsp","1280","720","0","1","0","5ed14691e983f5067842fd20","","null","","","","","","","learning/Slide61.JPG","null","","","","","",""
"html-keyboard-response","188","346905","0.0-5.0-2.60","LF","v9kdh4rpsp","1280","720","0","1","0","5ed14691e983f5067842fd20","","null","","","learningBlock1","","","","<div style=""font-size:60px;""> </div>","null","LF","learning/Slide61.JPG","This is a bim:","","",""
"html-keyboard-response","189","347923","0.0-5.0-0.61","LF","v9kdh4rpsp","1280","720","0","1","0","5ed14691e983f5067842fd20","","null","","","learningBlock1","","","","This is a dep:","null","","","","","",""
"image-keyboard-response","190","348261","0.0-5.0-1.61","LF","v9kdh4rpsp","1280","720","0","1","0","5ed14691e983f5067842fd20","","null","","","","","","","learning/Slide62.JPG","null","","","","","",""
"html-keyboard-response","191","349264","0.0-5.0-2.61","LF","v9kdh4rpsp","1280","720","0","1","0","5ed14691e983f5067842fd20","","null","","","learningBlock1","","","","<div style=""font-size:60px;""> </div>","null","LF","learning/Slide62.JPG","This is a dep:","","",""
"html-keyboard-response","192","350282","0.0-5.0-0.62","LF","v9kdh4rpsp","1280","720","0","1","0","5ed14691e983f5067842fd20","","null","","","learningBlock1","","","","This is a bim:","null","","","","","",""
"image-keyboard-response","193","350629","0.0-5.0-1.62","LF","v9kdh4rpsp","1280","720","0","1","0","5ed14691e983f5067842fd20","","null","","","","","","","learning/Slide63.JPG","null","","","","","",""
"html-keyboard-response","194","351652","0.0-5.0-2.62","LF","v9kdh4rpsp","1280","720","0","1","0","5ed14691e983f5067842fd20","","null","","","learningBlock1","","","","<div style=""font-size:60px;""> </div>","null","LF","learning/Slide63.JPG","This is a bim:","","",""
"html-keyboard-response","195","352654","0.0-5.0-0.63","LF","v9kdh4rpsp","1280","720","0","1","0","5ed14691e983f5067842fd20","","null","","","learningBlock1","","","","This is a tob:","null","","","","","",""
"image-keyboard-response","196","353002","0.0-5.0-1.63","LF","v9kdh4rpsp","1280","720","0","1","0","5ed14691e983f5067842fd20","","null","","","","","","","learning/Slide64.JPG","null","","","","","",""
"html-keyboard-response","197","354011","0.0-5.0-2.63","LF","v9kdh4rpsp","1280","720","0","1","0","5ed14691e983f5067842fd20","","null","","","learningBlock1","","","","<div style=""font-size:60px;""> </div>","null","LF","learning/Slide64.JPG","This is a tob:","","",""
"html-keyboard-response","198","355013","0.0-5.0-0.64","LF","v9kdh4rpsp","1280","720","0","1","0","5ed14691e983f5067842fd20","","null","","","learningBlock1","","","","This is a wug:","null","","","","","",""
"image-keyboard-response","199","355354","0.0-5.0-1.64","LF","v9kdh4rpsp","1280","720","0","1","0","5ed14691e983f5067842fd20","","null","","","","","","","learning/Slide65.JPG","null","","","","","",""
"html-keyboard-response","200","356373","0.0-5.0-2.64","LF","v9kdh4rpsp","1280","720","0","1","0","5ed14691e983f5067842fd20","","null","","","learningBlock1","","","","<div style=""font-size:60px;""> </div>","null","LF","learning/Slide65.JPG","This is a wug:","","",""
"html-keyboard-response","201","357375","0.0-5.0-0.65","LF","v9kdh4rpsp","1280","720","0","1","0","5ed14691e983f5067842fd20","","null","","","learningBlock1","","","","This is a dep:","null","","","","","",""
"image-keyboard-response","202","357710","0.0-5.0-1.65","LF","v9kdh4rpsp","1280","720","0","1","0","5ed14691e983f5067842fd20","","null","","","","","","","learning/Slide66.JPG","null","","","","","",""
"html-keyboard-response","203","358712","0.0-5.0-2.65","LF","v9kdh4rpsp","1280","720","0","1","0","5ed14691e983f5067842fd20","","null","","","learningBlock1","","","","<div style=""font-size:60px;""> </div>","null","LF","learning/Slide66.JPG","This is a dep:","","",""
"html-keyboard-response","204","359716","0.0-5.0-0.66","LF","v9kdh4rpsp","1280","720","0","1","0","5ed14691e983f5067842fd20","","null","","","learningBlock1","","","","This is a tob:","null","","","","","",""
"image-keyboard-response","205","360067","0.0-5.0-1.66","LF","v9kdh4rpsp","1280","720","0","1","0","5ed14691e983f5067842fd20","","null","","","","","","","learning/Slide67.JPG","null","","","","","",""
"html-keyboard-response","206","361088","0.0-5.0-2.66","LF","v9kdh4rpsp","1280","720","0","1","0","5ed14691e983f5067842fd20","","null","","","learningBlock1","","","","<div style=""font-size:60px;""> </div>","null","LF","learning/Slide67.JPG","This is a tob:","","",""
"html-keyboard-response","207","362091","0.0-5.0-0.67","LF","v9kdh4rpsp","1280","720","0","1","0","5ed14691e983f5067842fd20","","null","","","learningBlock1","","","","This is a wug:","null","","","","","",""
"image-keyboard-response","208","362439","0.0-5.0-1.67","LF","v9kdh4rpsp","1280","720","0","1","0","5ed14691e983f5067842fd20","","null","","","","","","","learning/Slide68.JPG","null","","","","","",""
"html-keyboard-response","209","363442","0.0-5.0-2.67","LF","v9kdh4rpsp","1280","720","0","1","0","5ed14691e983f5067842fd20","","null","","","learningBlock1","","","","<div style=""font-size:60px;""> </div>","null","LF","learning/Slide68.JPG","This is a wug:","","",""
"html-keyboard-response","210","364451","0.0-5.0-0.68","LF","v9kdh4rpsp","1280","720","0","1","0","5ed14691e983f5067842fd20","","null","","","learningBlock1","","","","This is a tob:","null","","","","","",""
"image-keyboard-response","211","364785","0.0-5.0-1.68","LF","v9kdh4rpsp","1280","720","0","1","0","5ed14691e983f5067842fd20","","null","","","","","","","learning/Slide69.JPG","null","","","","","",""
"html-keyboard-response","212","365808","0.0-5.0-2.68","LF","v9kdh4rpsp","1280","720","0","1","0","5ed14691e983f5067842fd20","","null","","","learningBlock1","","","","<div style=""font-size:60px;""> </div>","null","LF","learning/Slide69.JPG","This is a tob:","","",""
"html-keyboard-response","213","366811","0.0-5.0-0.69","LF","v9kdh4rpsp","1280","720","0","1","0","5ed14691e983f5067842fd20","","null","","","learningBlock1","","","","This is a dep:","null","","","","","",""
"image-keyboard-response","214","367162","0.0-5.0-1.69","LF","v9kdh4rpsp","1280","720","0","1","0","5ed14691e983f5067842fd20","","null","","","","","","","learning/Slide70.JPG","null","","","","","",""
"html-keyboard-response","215","368171","0.0-5.0-2.69","LF","v9kdh4rpsp","1280","720","0","1","0","5ed14691e983f5067842fd20","","null","","","learningBlock1","","","","<div style=""font-size:60px;""> </div>","null","LF","learning/Slide70.JPG","This is a dep:","","",""
"html-keyboard-response","216","369176","0.0-5.0-0.70","LF","v9kdh4rpsp","1280","720","0","1","0","5ed14691e983f5067842fd20","","null","","","learningBlock1","","","","This is a wug:","null","","","","","",""
"image-keyboard-response","217","369508","0.0-5.0-1.70","LF","v9kdh4rpsp","1280","720","0","1","0","5ed14691e983f5067842fd20","","null","","","","","","","learning/Slide71.JPG","null","","","","","",""
"html-keyboard-response","218","370514","0.0-5.0-2.70","LF","v9kdh4rpsp","1280","720","0","1","0","5ed14691e983f5067842fd20","","null","","","learningBlock1","","","","<div style=""font-size:60px;""> </div>","null","LF","learning/Slide71.JPG","This is a wug:","","",""
"html-keyboard-response","219","371533","0.0-5.0-0.71","LF","v9kdh4rpsp","1280","720","0","1","0","5ed14691e983f5067842fd20","","null","","","learningBlock1","","","","This is a bim:","null","","","","","",""
"image-keyboard-response","220","371886","0.0-5.0-1.71","LF","v9kdh4rpsp","1280","720","0","1","0","5ed14691e983f5067842fd20","","null","","","","","","","learning/Slide72.JPG","null","","","","","",""
"html-keyboard-response","221","372888","0.0-5.0-2.71","LF","v9kdh4rpsp","1280","720","0","1","0","5ed14691e983f5067842fd20","","null","","","learningBlock1","","","","<div style=""font-size:60px;""> </div>","null","LF","learning/Slide72.JPG","This is a bim:","","",""
"html-keyboard-response","222","373894","0.0-5.0-0.72","LF","v9kdh4rpsp","1280","720","0","1","0","5ed14691e983f5067842fd20","","null","","","learningBlock1","","","","This is a wug:","null","","","","","",""
"image-keyboard-response","223","374246","0.0-5.0-1.72","LF","v9kdh4rpsp","1280","720","0","1","0","5ed14691e983f5067842fd20","","null","","","","","","","learning/Slide73.JPG","null","","","","","",""
"html-keyboard-response","224","375249","0.0-5.0-2.72","LF","v9kdh4rpsp","1280","720","0","1","0","5ed14691e983f5067842fd20","","null","","","learningBlock1","","","","<div style=""font-size:60px;""> </div>","null","LF","learning/Slide73.JPG","This is a wug:","","",""
"html-keyboard-response","225","376251","0.0-5.0-0.73","LF","v9kdh4rpsp","1280","720","0","1","0","5ed14691e983f5067842fd20","","null","","","learningBlock1","","","","This is a dep:","null","","","","","",""
"image-keyboard-response","226","376599","0.0-5.0-1.73","LF","v9kdh4rpsp","1280","720","0","1","0","5ed14691e983f5067842fd20","","null","","","","","","","learning/Slide74.JPG","null","","","","","",""
"html-keyboard-response","227","377612","0.0-5.0-2.73","LF","v9kdh4rpsp","1280","720","0","1","0","5ed14691e983f5067842fd20","","null","","","learningBlock1","","","","<div style=""font-size:60px;""> </div>","null","LF","learning/Slide74.JPG","This is a dep:","","",""
"html-keyboard-response","228","378615","0.0-5.0-0.74","LF","v9kdh4rpsp","1280","720","0","1","0","5ed14691e983f5067842fd20","","null","","","learningBlock1","","","","This is a tob:","null","","","","","",""
"image-keyboard-response","229","378952","0.0-5.0-1.74","LF","v9kdh4rpsp","1280","720","0","1","0","5ed14691e983f5067842fd20","","null","","","","","","","learning/Slide75.JPG","null","","","","","",""
"html-keyboard-response","230","379955","0.0-5.0-2.74","LF","v9kdh4rpsp","1280","720","0","1","0","5ed14691e983f5067842fd20","","null","","","learningBlock1","","","","<div style=""font-size:60px;""> </div>","null","LF","learning/Slide75.JPG","This is a tob:","","",""
"html-keyboard-response","231","380977","0.0-5.0-0.75","LF","v9kdh4rpsp","1280","720","0","1","0","5ed14691e983f5067842fd20","","null","","","learningBlock1","","","","This is a bim:","null","","","","","",""
"image-keyboard-response","232","381324","0.0-5.0-1.75","LF","v9kdh4rpsp","1280","720","0","1","0","5ed14691e983f5067842fd20","","null","","","","","","","learning/Slide76.JPG","null","","","","","",""
"html-keyboard-response","233","382331","0.0-5.0-2.75","LF","v9kdh4rpsp","1280","720","0","1","0","5ed14691e983f5067842fd20","","null","","","learningBlock1","","","","<div style=""font-size:60px;""> </div>","null","LF","learning/Slide76.JPG","This is a bim:","","",""
"html-keyboard-response","234","383339","0.0-5.0-0.76","LF","v9kdh4rpsp","1280","720","0","1","0","5ed14691e983f5067842fd20","","null","","","learningBlock1","","","","This is a tob:","null","","","","","",""
"image-keyboard-response","235","383671","0.0-5.0-1.76","LF","v9kdh4rpsp","1280","720","0","1","0","5ed14691e983f5067842fd20","","null","","","","","","","learning/Slide77.JPG","null","","","","","",""
"html-keyboard-response","236","384694","0.0-5.0-2.76","LF","v9kdh4rpsp","1280","720","0","1","0","5ed14691e983f5067842fd20","","null","","","learningBlock1","","","","<div style=""font-size:60px;""> </div>","null","LF","learning/Slide77.JPG","This is a tob:","","",""
"html-keyboard-response","237","385696","0.0-5.0-0.77","LF","v9kdh4rpsp","1280","720","0","1","0","5ed14691e983f5067842fd20","","null","","","learningBlock1","","","","This is a wug:","null","","","","","",""
"image-keyboard-response","238","386044","0.0-5.0-1.77","LF","v9kdh4rpsp","1280","720","0","1","0","5ed14691e983f5067842fd20","","null","","","","","","","learning/Slide78.JPG","null","","","","","",""
"html-keyboard-response","239","387060","0.0-5.0-2.77","LF","v9kdh4rpsp","1280","720","0","1","0","5ed14691e983f5067842fd20","","null","","","learningBlock1","","","","<div style=""font-size:60px;""> </div>","null","LF","learning/Slide78.JPG","This is a wug:","","",""
"html-keyboard-response","240","388066","0.0-5.0-0.78","LF","v9kdh4rpsp","1280","720","0","1","0","5ed14691e983f5067842fd20","","null","","","learningBlock1","","","","This is a bim:","null","","","","","",""
"image-keyboard-response","241","388413","0.0-5.0-1.78","LF","v9kdh4rpsp","1280","720","0","1","0","5ed14691e983f5067842fd20","","null","","","","","","","learning/Slide79.JPG","null","","","","","",""
"html-keyboard-response","242","389434","0.0-5.0-2.78","LF","v9kdh4rpsp","1280","720","0","1","0","5ed14691e983f5067842fd20","","null","","","learningBlock1","","","","<div style=""font-size:60px;""> </div>","null","LF","learning/Slide79.JPG","This is a bim:","","",""
"html-keyboard-response","243","390436","0.0-5.0-0.79","LF","v9kdh4rpsp","1280","720","0","1","0","5ed14691e983f5067842fd20","","null","","","learningBlock1","","","","This is a tob:","null","","","","","",""
"image-keyboard-response","244","390787","0.0-5.0-1.79","LF","v9kdh4rpsp","1280","720","0","1","0","5ed14691e983f5067842fd20","","null","","","","","","","learning/Slide80.JPG","null","","","","","",""
"html-keyboard-response","245","391790","0.0-5.0-2.79","LF","v9kdh4rpsp","1280","720","0","1","0","5ed14691e983f5067842fd20","","null","","","learningBlock1","","","","<div style=""font-size:60px;""> </div>","null","LF","learning/Slide80.JPG","This is a tob:","","",""
"instructions","246","396350","0.0-6.0","LF","v9kdh4rpsp","1280","720","0","1","0","5ed14691e983f5067842fd20","","NA","","[{""page_index"":0,""viewing_time"":4558.460000029299}]","instructions","","","","","","","","","","",""
"html-keyboard-response","247","397353","0.0-7.0-0.0","LF","v9kdh4rpsp","1280","720","0","1","0","5ed14691e983f5067842fd20","","null","","","learningBlock2","","","","This is a wug:","null","","","","","",""
"image-keyboard-response","248","397691","0.0-7.0-1.0","LF","v9kdh4rpsp","1280","720","0","1","0","5ed14691e983f5067842fd20","","null","","","","","","","learning/Slide81.JPG","null","","","","","",""
"html-keyboard-response","249","398696","0.0-7.0-2.0","LF","v9kdh4rpsp","1280","720","0","1","0","5ed14691e983f5067842fd20","","null","","","learningBlock2","","","","<div style=""font-size:60px;""> </div>","null","LF","learning/Slide81.JPG","This is a wug:","","",""
"html-keyboard-response","250","399705","0.0-7.0-0.1","LF","v9kdh4rpsp","1280","720","0","1","0","5ed14691e983f5067842fd20","","null","","","learningBlock2","","","","This is a bim:","null","","","","","",""
"image-keyboard-response","251","400045","0.0-7.0-1.1","LF","v9kdh4rpsp","1280","720","0","1","0","5ed14691e983f5067842fd20","","null","","","","","","","learning/Slide82.JPG","null","","","","","",""
"html-keyboard-response","252","401063","0.0-7.0-2.1","LF","v9kdh4rpsp","1280","720","0","1","0","5ed14691e983f5067842fd20","","null","","","learningBlock2","","","","<div style=""font-size:60px;""> </div>","null","LF","learning/Slide82.JPG","This is a bim:","","",""
"html-keyboard-response","253","402073","0.0-7.0-0.2","LF","v9kdh4rpsp","1280","720","0","1","0","5ed14691e983f5067842fd20","","null","","","learningBlock2","","","","This is a wug:","null","","","","","",""
"image-keyboard-response","254","402411","0.0-7.0-1.2","LF","v9kdh4rpsp","1280","720","0","1","0","5ed14691e983f5067842fd20","","null","","","","","","","learning/Slide83.JPG","null","","","","","",""
"html-keyboard-response","255","403433","0.0-7.0-2.2","LF","v9kdh4rpsp","1280","720","0","1","0","5ed14691e983f5067842fd20","","null","","","learningBlock2","","","","<div style=""font-size:60px;""> </div>","null","LF","learning/Slide83.JPG","This is a wug:","","",""
"html-keyboard-response","256","404435","0.0-7.0-0.3","LF","v9kdh4rpsp","1280","720","0","1","0","5ed14691e983f5067842fd20","","null","","","learningBlock2","","","","This is a dep:","null","","","","","",""
"image-keyboard-response","257","404784","0.0-7.0-1.3","LF","v9kdh4rpsp","1280","720","0","1","0","5ed14691e983f5067842fd20","","null","","","","","","","learning/Slide84.JPG","null","","","","","",""
"html-keyboard-response","258","405792","0.0-7.0-2.3","LF","v9kdh4rpsp","1280","720","0","1","0","5ed14691e983f5067842fd20","","null","","","learningBlock2","","","","<div style=""font-size:60px;""> </div>","null","LF","learning/Slide84.JPG","This is a dep:","","",""
"html-keyboard-response","259","406794","0.0-7.0-0.4","LF","v9kdh4rpsp","1280","720","0","1","0","5ed14691e983f5067842fd20","","null","","","learningBlock2","","","","This is a bim:","null","","","","","",""
"image-keyboard-response","260","407127","0.0-7.0-1.4","LF","v9kdh4rpsp","1280","720","0","1","0","5ed14691e983f5067842fd20","","null","","","","","","","learning/Slide85.JPG","null","","","","","",""
"html-keyboard-response","261","408148","0.0-7.0-2.4","LF","v9kdh4rpsp","1280","720","0","1","0","5ed14691e983f5067842fd20","","null","","","learningBlock2","","","","<div style=""font-size:60px;""> </div>","null","LF","learning/Slide85.JPG","This is a bim:","","",""
"html-keyboard-response","262","409150","0.0-7.0-0.5","LF","v9kdh4rpsp","1280","720","0","1","0","5ed14691e983f5067842fd20","","null","","","learningBlock2","","","","This is a tob:","null","","","","","",""
"image-keyboard-response","263","409499","0.0-7.0-1.5","LF","v9kdh4rpsp","1280","720","0","1","0","5ed14691e983f5067842fd20","","null","","","","","","","learning/Slide86.JPG","null","","","","","",""
"html-keyboard-response","264","410510","0.0-7.0-2.5","LF","v9kdh4rpsp","1280","720","0","1","0","5ed14691e983f5067842fd20","","null","","","learningBlock2","","","","<div style=""font-size:60px;""> </div>","null","LF","learning/Slide86.JPG","This is a tob:","","",""
"html-keyboard-response","265","411514","0.0-7.0-0.6","LF","v9kdh4rpsp","1280","720","0","1","0","5ed14691e983f5067842fd20","","null","","","learningBlock2","","","","This is a wug:","null","","","","","",""
"image-keyboard-response","266","411845","0.0-7.0-1.6","LF","v9kdh4rpsp","1280","720","0","1","0","5ed14691e983f5067842fd20","","null","","","","","","","learning/Slide87.JPG","null","","","","","",""
"html-keyboard-response","267","412860","0.0-7.0-2.6","LF","v9kdh4rpsp","1280","720","0","1","0","5ed14691e983f5067842fd20","","null","","","learningBlock2","","","","<div style=""font-size:60px;""> </div>","null","LF","learning/Slide87.JPG","This is a wug:","","",""
"html-keyboard-response","268","413883","0.0-7.0-0.7","LF","v9kdh4rpsp","1280","720","0","1","0","5ed14691e983f5067842fd20","","null","","","learningBlock2","","","","This is a tob:","null","","","","","",""
"image-keyboard-response","269","414238","0.0-7.0-1.7","LF","v9kdh4rpsp","1280","720","0","1","0","5ed14691e983f5067842fd20","","null","","","","","","","learning/Slide88.JPG","null","","","","","",""
"html-keyboard-response","270","415255","0.0-7.0-2.7","LF","v9kdh4rpsp","1280","720","0","1","0","5ed14691e983f5067842fd20","","null","","","learningBlock2","","","","<div style=""font-size:60px;""> </div>","null","LF","learning/Slide88.JPG","This is a tob:","","",""
"html-keyboard-response","271","416261","0.0-7.0-0.8","LF","v9kdh4rpsp","1280","720","0","1","0","5ed14691e983f5067842fd20","","null","","","learningBlock2","","","","This is a bim:","null","","","","","",""
"image-keyboard-response","272","416599","0.0-7.0-1.8","LF","v9kdh4rpsp","1280","720","0","1","0","5ed14691e983f5067842fd20","","null","","","","","","","learning/Slide89.JPG","null","","","","","",""
"html-keyboard-response","273","417601","0.0-7.0-2.8","LF","v9kdh4rpsp","1280","720","0","1","0","5ed14691e983f5067842fd20","","null","","","learningBlock2","","","","<div style=""font-size:60px;""> </div>","null","LF","learning/Slide89.JPG","This is a bim:","","",""
"html-keyboard-response","274","418603","0.0-7.0-0.9","LF","v9kdh4rpsp","1280","720","0","1","0","5ed14691e983f5067842fd20","","null","","","learningBlock2","","","","This is a dep:","null","","","","","",""
"image-keyboard-response","275","418951","0.0-7.0-1.9","LF","v9kdh4rpsp","1280","720","0","1","0","5ed14691e983f5067842fd20","","null","","","","","","","learning/Slide90.JPG","null","","","","","",""
"html-keyboard-response","276","419958","0.0-7.0-2.9","LF","v9kdh4rpsp","1280","720","0","1","0","5ed14691e983f5067842fd20","","null","","","learningBlock2","","","","<div style=""font-size:60px;""> </div>","null","LF","learning/Slide90.JPG","This is a dep:","","",""
"html-keyboard-response","277","420961","0.0-7.0-0.10","LF","v9kdh4rpsp","1280","720","0","1","0","5ed14691e983f5067842fd20","","null","","","learningBlock2","","","","This is a wug:","null","","","","","",""
"image-keyboard-response","278","421299","0.0-7.0-1.10","LF","v9kdh4rpsp","1280","720","0","1","0","5ed14691e983f5067842fd20","","null","","","","","","","learning/Slide91.JPG","null","","","","","",""
"html-keyboard-response","279","422302","0.0-7.0-2.10","LF","v9kdh4rpsp","1280","720","0","1","0","5ed14691e983f5067842fd20","","null","","","learningBlock2","","","","<div style=""font-size:60px;""> </div>","null","LF","learning/Slide91.JPG","This is a wug:","","",""
"html-keyboard-response","280","423324","0.0-7.0-0.11","LF","v9kdh4rpsp","1280","720","0","1","0","5ed14691e983f5067842fd20","","null","","","learningBlock2","","","","This is a tob:","null","","","","","",""
"image-keyboard-response","281","423673","0.0-7.0-1.11","LF","v9kdh4rpsp","1280","720","0","1","0","5ed14691e983f5067842fd20","","null","","","","","","","learning/Slide92.JPG","null","","","","","",""
"html-keyboard-response","282","424678","0.0-7.0-2.11","LF","v9kdh4rpsp","1280","720","0","1","0","5ed14691e983f5067842fd20","","null","","","learningBlock2","","","","<div style=""font-size:60px;""> </div>","null","LF","learning/Slide92.JPG","This is a tob:","","",""
"html-keyboard-response","283","425685","0.0-7.0-0.12","LF","v9kdh4rpsp","1280","720","0","1","0","5ed14691e983f5067842fd20","","null","","","learningBlock2","","","","This is a bim:","null","","","","","",""
"image-keyboard-response","284","426019","0.0-7.0-1.12","LF","v9kdh4rpsp","1280","720","0","1","0","5ed14691e983f5067842fd20","","null","","","","","","","learning/Slide93.JPG","null","","","","","",""
"html-keyboard-response","285","427041","0.0-7.0-2.12","LF","v9kdh4rpsp","1280","720","0","1","0","5ed14691e983f5067842fd20","","null","","","learningBlock2","","","","<div style=""font-size:60px;""> </div>","null","LF","learning/Slide93.JPG","This is a bim:","","",""
"html-keyboard-response","286","428044","0.0-7.0-0.13","LF","v9kdh4rpsp","1280","720","0","1","0","5ed14691e983f5067842fd20","","null","","","learningBlock2","","","","This is a tob:","null","","","","","",""
"image-keyboard-response","287","428396","0.0-7.0-1.13","LF","v9kdh4rpsp","1280","720","0","1","0","5ed14691e983f5067842fd20","","null","","","","","","","learning/Slide94.JPG","null","","","","","",""
"html-keyboard-response","288","429405","0.0-7.0-2.13","LF","v9kdh4rpsp","1280","720","0","1","0","5ed14691e983f5067842fd20","","null","","","learningBlock2","","","","<div style=""font-size:60px;""> </div>","null","LF","learning/Slide94.JPG","This is a tob:","","",""
"html-keyboard-response","289","430408","0.0-7.0-0.14","LF","v9kdh4rpsp","1280","720","0","1","0","5ed14691e983f5067842fd20","","null","","","learningBlock2","","","","This is a wug:","null","","","","","",""
"image-keyboard-response","290","430743","0.0-7.0-1.14","LF","v9kdh4rpsp","1280","720","0","1","0","5ed14691e983f5067842fd20","","null","","","","","","","learning/Slide95.JPG","null","","","","","",""
"html-keyboard-response","291","431747","0.0-7.0-2.14","LF","v9kdh4rpsp","1280","720","0","1","0","5ed14691e983f5067842fd20","","null","","","learningBlock2","","","","<div style=""font-size:60px;""> </div>","null","LF","learning/Slide95.JPG","This is a wug:","","",""
"html-keyboard-response","292","432769","0.0-7.0-0.15","LF","v9kdh4rpsp","1280","720","0","1","0","5ed14691e983f5067842fd20","","null","","","learningBlock2","","","","This is a tob:","null","","","","","",""
"image-keyboard-response","293","433121","0.0-7.0-1.15","LF","v9kdh4rpsp","1280","720","0","1","0","5ed14691e983f5067842fd20","","null","","","","","","","learning/Slide96.JPG","null","","","","","",""
"html-keyboard-response","294","434129","0.0-7.0-2.15","LF","v9kdh4rpsp","1280","720","0","1","0","5ed14691e983f5067842fd20","","null","","","learningBlock2","","","","<div style=""font-size:60px;""> </div>","null","LF","learning/Slide96.JPG","This is a tob:","","",""
"html-keyboard-response","295","435146","0.0-7.0-0.16","LF","v9kdh4rpsp","1280","720","0","1","0","5ed14691e983f5067842fd20","","null","","","learningBlock2","","","","This is a dep:","null","","","","","",""
"image-keyboard-response","296","435484","0.0-7.0-1.16","LF","v9kdh4rpsp","1280","720","0","1","0","5ed14691e983f5067842fd20","","null","","","","","","","learning/Slide97.JPG","null","","","","","",""
"html-keyboard-response","297","436490","0.0-7.0-2.16","LF","v9kdh4rpsp","1280","720","0","1","0","5ed14691e983f5067842fd20","","null","","","learningBlock2","","","","<div style=""font-size:60px;""> </div>","null","LF","learning/Slide97.JPG","This is a dep:","","",""
"html-keyboard-response","298","437504","0.0-7.0-0.17","LF","v9kdh4rpsp","1280","720","0","1","0","5ed14691e983f5067842fd20","","null","","","learningBlock2","","","","This is a bim:","null","","","","","",""
"image-keyboard-response","299","437850","0.0-7.0-1.17","LF","v9kdh4rpsp","1280","720","0","1","0","5ed14691e983f5067842fd20","","null","","","","","","","learning/Slide98.JPG","null","","","","","",""
"html-keyboard-response","300","438864","0.0-7.0-2.17","LF","v9kdh4rpsp","1280","720","0","1","0","5ed14691e983f5067842fd20","","null","","","learningBlock2","","","","<div style=""font-size:60px;""> </div>","null","LF","learning/Slide98.JPG","This is a bim:","","",""
"html-keyboard-response","301","439878","0.0-7.0-0.18","LF","v9kdh4rpsp","1280","720","0","1","0","5ed14691e983f5067842fd20","","null","","","learningBlock2","","","","This is a dep:","null","","","","","",""
"image-keyboard-response","302","440213","0.0-7.0-1.18","LF","v9kdh4rpsp","1280","720","0","1","0","5ed14691e983f5067842fd20","","null","","","","","","","learning/Slide99.JPG","null","","","","","",""
"html-keyboard-response","303","441221","0.0-7.0-2.18","LF","v9kdh4rpsp","1280","720","0","1","0","5ed14691e983f5067842fd20","","null","","","learningBlock2","","","","<div style=""font-size:60px;""> </div>","null","LF","learning/Slide99.JPG","This is a dep:","","",""
"html-keyboard-response","304","442223","0.0-7.0-0.19","LF","v9kdh4rpsp","1280","720","0","1","0","5ed14691e983f5067842fd20","","null","","","learningBlock2","","","","This is a bim:","null","","","","","",""
"image-keyboard-response","305","442572","0.0-7.0-1.19","LF","v9kdh4rpsp","1280","720","0","1","0","5ed14691e983f5067842fd20","","null","","","","","","","learning/Slide100.JPG","null","","","","","",""
"html-keyboard-response","306","443578","0.0-7.0-2.19","LF","v9kdh4rpsp","1280","720","0","1","0","5ed14691e983f5067842fd20","","null","","","learningBlock2","","","","<div style=""font-size:60px;""> </div>","null","LF","learning/Slide100.JPG","This is a bim:","","",""
"html-keyboard-response","307","444581","0.0-7.0-0.20","LF","v9kdh4rpsp","1280","720","0","1","0","5ed14691e983f5067842fd20","","null","","","learningBlock2","","","","This is a tob:","null","","","","","",""
"image-keyboard-response","308","444923","0.0-7.0-1.20","LF","v9kdh4rpsp","1280","720","0","1","0","5ed14691e983f5067842fd20","","null","","","","","","","learning/Slide101.JPG","null","","","","","",""
"html-keyboard-response","309","445941","0.0-7.0-2.20","LF","v9kdh4rpsp","1280","720","0","1","0","5ed14691e983f5067842fd20","","null","","","learningBlock2","","","","<div style=""font-size:60px;""> </div>","null","LF","learning/Slide101.JPG","This is a tob:","","",""
"html-keyboard-response","310","446943","0.0-7.0-0.21","LF","v9kdh4rpsp","1280","720","0","1","0","5ed14691e983f5067842fd20","","null","","","learningBlock2","","","","This is a bim:","null","","","","","",""
"image-keyboard-response","311","447291","0.0-7.0-1.21","LF","v9kdh4rpsp","1280","720","0","1","0","5ed14691e983f5067842fd20","","null","","","","","","","learning/Slide102.JPG","null","","","","","",""
"html-keyboard-response","312","448294","0.0-7.0-2.21","LF","v9kdh4rpsp","1280","720","0","1","0","5ed14691e983f5067842fd20","","null","","","learningBlock2","","","","<div style=""font-size:60px;""> </div>","null","LF","learning/Slide102.JPG","This is a bim:","","",""
"html-keyboard-response","313","449301","0.0-7.0-0.22","LF","v9kdh4rpsp","1280","720","0","1","0","5ed14691e983f5067842fd20","","null","","","learningBlock2","","","","This is a dep:","null","","","","","",""
"image-keyboard-response","314","449637","0.0-7.0-1.22","LF","v9kdh4rpsp","1280","720","0","1","0","5ed14691e983f5067842fd20","","null","","","","","","","learning/Slide103.JPG","null","","","","","",""
"html-keyboard-response","315","450655","0.0-7.0-2.22","LF","v9kdh4rpsp","1280","720","0","1","0","5ed14691e983f5067842fd20","","null","","","learningBlock2","","","","<div style=""font-size:60px;""> </div>","null","LF","learning/Slide103.JPG","This is a dep:","","",""
"html-keyboard-response","316","451673","0.0-7.0-0.23","LF","v9kdh4rpsp","1280","720","0","1","0","5ed14691e983f5067842fd20","","null","","","learningBlock2","","","","This is a tob:","null","","","","","",""
"image-keyboard-response","317","452021","0.0-7.0-1.23","LF","v9kdh4rpsp","1280","720","0","1","0","5ed14691e983f5067842fd20","","null","","","","","","","learning/Slide104.JPG","null","","","","","",""
"html-keyboard-response","318","453023","0.0-7.0-2.23","LF","v9kdh4rpsp","1280","720","0","1","0","5ed14691e983f5067842fd20","","null","","","learningBlock2","","","","<div style=""font-size:60px;""> </div>","null","LF","learning/Slide104.JPG","This is a tob:","","",""
"html-keyboard-response","319","454026","0.0-7.0-0.24","LF","v9kdh4rpsp","1280","720","0","1","0","5ed14691e983f5067842fd20","","null","","","learningBlock2","","","","This is a dep:","null","","","","","",""
"image-keyboard-response","320","454369","0.0-7.0-1.24","LF","v9kdh4rpsp","1280","720","0","1","0","5ed14691e983f5067842fd20","","null","","","","","","","learning/Slide105.JPG","null","","","","","",""
"html-keyboard-response","321","455387","0.0-7.0-2.24","LF","v9kdh4rpsp","1280","720","0","1","0","5ed14691e983f5067842fd20","","null","","","learningBlock2","","","","<div style=""font-size:60px;""> </div>","null","LF","learning/Slide105.JPG","This is a dep:","","",""
"html-keyboard-response","322","456389","0.0-7.0-0.25","LF","v9kdh4rpsp","1280","720","0","1","0","5ed14691e983f5067842fd20","","null","","","learningBlock2","","","","This is a wug:","null","","","","","",""
"image-keyboard-response","323","456737","0.0-7.0-1.25","LF","v9kdh4rpsp","1280","720","0","1","0","5ed14691e983f5067842fd20","","null","","","","","","","learning/Slide106.JPG","null","","","","","",""
"html-keyboard-response","324","457760","0.0-7.0-2.25","LF","v9kdh4rpsp","1280","720","0","1","0","5ed14691e983f5067842fd20","","null","","","learningBlock2","","","","<div style=""font-size:60px;""> </div>","null","LF","learning/Slide106.JPG","This is a wug:","","",""
"html-keyboard-response","325","458762","0.0-7.0-0.26","LF","v9kdh4rpsp","1280","720","0","1","0","5ed14691e983f5067842fd20","","null","","","learningBlock2","","","","This is a bim:","null","","","","","",""
"image-keyboard-response","326","459111","0.0-7.0-1.26","LF","v9kdh4rpsp","1280","720","0","1","0","5ed14691e983f5067842fd20","","null","","","","","","","learning/Slide107.JPG","null","","","","","",""
"html-keyboard-response","327","460128","0.0-7.0-2.26","LF","v9kdh4rpsp","1280","720","0","1","0","5ed14691e983f5067842fd20","","null","","","learningBlock2","","","","<div style=""font-size:60px;""> </div>","null","LF","learning/Slide107.JPG","This is a bim:","","",""
"html-keyboard-response","328","461144","0.0-7.0-0.27","LF","v9kdh4rpsp","1280","720","0","1","0","5ed14691e983f5067842fd20","","null","","","learningBlock2","","","","This is a dep:","null","","","","","",""
"image-keyboard-response","329","461482","0.0-7.0-1.27","LF","v9kdh4rpsp","1280","720","0","1","0","5ed14691e983f5067842fd20","","null","","","","","","","learning/Slide108.JPG","null","","","","","",""
"html-keyboard-response","330","462488","0.0-7.0-2.27","LF","v9kdh4rpsp","1280","720","0","1","0","5ed14691e983f5067842fd20","","null","","","learningBlock2","","","","<div style=""font-size:60px;""> </div>","null","LF","learning/Slide108.JPG","This is a dep:","","",""
"html-keyboard-response","331","463502","0.0-7.0-0.28","LF","v9kdh4rpsp","1280","720","0","1","0","5ed14691e983f5067842fd20","","null","","","learningBlock2","","","","This is a wug:","null","","","","","",""
"image-keyboard-response","332","463851","0.0-7.0-1.28","LF","v9kdh4rpsp","1280","720","0","1","0","5ed14691e983f5067842fd20","","null","","","","","","","learning/Slide109.JPG","null","","","","","",""
"html-keyboard-response","333","464872","0.0-7.0-2.28","LF","v9kdh4rpsp","1280","720","0","1","0","5ed14691e983f5067842fd20","","null","","","learningBlock2","","","","<div style=""font-size:60px;""> </div>","null","LF","learning/Slide109.JPG","This is a wug:","","",""
"html-keyboard-response","334","465874","0.0-7.0-0.29","LF","v9kdh4rpsp","1280","720","0","1","0","5ed14691e983f5067842fd20","","null","","","learningBlock2","","","","This is a bim:","null","","","","","",""
"image-keyboard-response","335","466223","0.0-7.0-1.29","LF","v9kdh4rpsp","1280","720","0","1","0","5ed14691e983f5067842fd20","","null","","","","","","","learning/Slide110.JPG","null","","","","","",""
"html-keyboard-response","336","467228","0.0-7.0-2.29","LF","v9kdh4rpsp","1280","720","0","1","0","5ed14691e983f5067842fd20","","null","","","learningBlock2","","","","<div style=""font-size:60px;""> </div>","null","LF","learning/Slide110.JPG","This is a bim:","","",""
"html-keyboard-response","337","468232","0.0-7.0-0.30","LF","v9kdh4rpsp","1280","720","0","1","0","5ed14691e983f5067842fd20","","null","","","learningBlock2","","","","This is a tob:","null","","","","","",""
"image-keyboard-response","338","468571","0.0-7.0-1.30","LF","v9kdh4rpsp","1280","720","0","1","0","5ed14691e983f5067842fd20","","null","","","","","","","learning/Slide111.JPG","null","","","","","",""
"html-keyboard-response","339","469592","0.0-7.0-2.30","LF","v9kdh4rpsp","1280","720","0","1","0","5ed14691e983f5067842fd20","","null","","","learningBlock2","","","","<div style=""font-size:60px;""> </div>","null","LF","learning/Slide111.JPG","This is a tob:","","",""
"html-keyboard-response","340","470594","0.0-7.0-0.31","LF","v9kdh4rpsp","1280","720","0","1","0","5ed14691e983f5067842fd20","","null","","","learningBlock2","","","","This is a wug:","null","","","","","",""
"image-keyboard-response","341","470946","0.0-7.0-1.31","LF","v9kdh4rpsp","1280","720","0","1","0","5ed14691e983f5067842fd20","","null","","","","","","","learning/Slide112.JPG","null","","","","","",""
"html-keyboard-response","342","471955","0.0-7.0-2.31","LF","v9kdh4rpsp","1280","720","0","1","0","5ed14691e983f5067842fd20","","null","","","learningBlock2","","","","<div style=""font-size:60px;""> </div>","null","LF","learning/Slide112.JPG","This is a wug:","","",""
"html-keyboard-response","343","472958","0.0-7.0-0.32","LF","v9kdh4rpsp","1280","720","0","1","0","5ed14691e983f5067842fd20","","null","","","learningBlock2","","","","This is a tob:","null","","","","","",""
"image-keyboard-response","344","473291","0.0-7.0-1.32","LF","v9kdh4rpsp","1280","720","0","1","0","5ed14691e983f5067842fd20","","null","","","","","","","learning/Slide113.JPG","null","","","","","",""
"html-keyboard-response","345","474308","0.0-7.0-2.32","LF","v9kdh4rpsp","1280","720","0","1","0","5ed14691e983f5067842fd20","","null","","","learningBlock2","","","","<div style=""font-size:60px;""> </div>","null","LF","learning/Slide113.JPG","This is a tob:","","",""
"html-keyboard-response","346","475314","0.0-7.0-0.33","LF","v9kdh4rpsp","1280","720","0","1","0","5ed14691e983f5067842fd20","","null","","","learningBlock2","","","","This is a wug:","null","","","","","",""
"image-keyboard-response","347","475661","0.0-7.0-1.33","LF","v9kdh4rpsp","1280","720","0","1","0","5ed14691e983f5067842fd20","","null","","","","","","","learning/Slide114.JPG","null","","","","","",""
"html-keyboard-response","348","476666","0.0-7.0-2.33","LF","v9kdh4rpsp","1280","720","0","1","0","5ed14691e983f5067842fd20","","null","","","learningBlock2","","","","<div style=""font-size:60px;""> </div>","null","LF","learning/Slide114.JPG","This is a wug:","","",""
"html-keyboard-response","349","477673","0.0-7.0-0.34","LF","v9kdh4rpsp","1280","720","0","1","0","5ed14691e983f5067842fd20","","null","","","learningBlock2","","","","This is a bim:","null","","","","","",""
"image-keyboard-response","350","478010","0.0-7.0-1.34","LF","v9kdh4rpsp","1280","720","0","1","0","5ed14691e983f5067842fd20","","null","","","","","","","learning/Slide115.JPG","null","","","","","",""
"html-keyboard-response","351","479032","0.0-7.0-2.34","LF","v9kdh4rpsp","1280","720","0","1","0","5ed14691e983f5067842fd20","","null","","","learningBlock2","","","","<div style=""font-size:60px;""> </div>","null","LF","learning/Slide115.JPG","This is a bim:","","",""
"html-keyboard-response","352","480034","0.0-7.0-0.35","LF","v9kdh4rpsp","1280","720","0","1","0","5ed14691e983f5067842fd20","","null","","","learningBlock2","","","","This is a dep:","null","","","","","",""
"image-keyboard-response","353","480383","0.0-7.0-1.35","LF","v9kdh4rpsp","1280","720","0","1","0","5ed14691e983f5067842fd20","","null","","","","","","","learning/Slide116.JPG","null","","","","","",""
"html-keyboard-response","354","481390","0.0-7.0-2.35","LF","v9kdh4rpsp","1280","720","0","1","0","5ed14691e983f5067842fd20","","null","","","learningBlock2","","","","<div style=""font-size:60px;""> </div>","null","LF","learning/Slide116.JPG","This is a dep:","","",""
"html-keyboard-response","355","482396","0.0-7.0-0.36","LF","v9kdh4rpsp","1280","720","0","1","0","5ed14691e983f5067842fd20","","null","","","learningBlock2","","","","This is a tob:","null","","","","","",""
"image-keyboard-response","356","482728","0.0-7.0-1.36","LF","v9kdh4rpsp","1280","720","0","1","0","5ed14691e983f5067842fd20","","null","","","","","","","learning/Slide117.JPG","null","","","","","",""
"html-keyboard-response","357","483730","0.0-7.0-2.36","LF","v9kdh4rpsp","1280","720","0","1","0","5ed14691e983f5067842fd20","","null","","","learningBlock2","","","","<div style=""font-size:60px;""> </div>","null","LF","learning/Slide117.JPG","This is a tob:","","",""
"html-keyboard-response","358","484752","0.0-7.0-0.37","LF","v9kdh4rpsp","1280","720","0","1","0","5ed14691e983f5067842fd20","","null","","","learningBlock2","","","","This is a dep:","null","","","","","",""
"image-keyboard-response","359","485091","0.0-7.0-1.37","LF","v9kdh4rpsp","1280","720","0","1","0","5ed14691e983f5067842fd20","","null","","","","","","","learning/Slide118.JPG","null","","","","","",""
"html-keyboard-response","360","486108","0.0-7.0-2.37","LF","v9kdh4rpsp","1280","720","0","1","0","5ed14691e983f5067842fd20","","null","","","learningBlock2","","","","<div style=""font-size:60px;""> </div>","null","LF","learning/Slide118.JPG","This is a dep:","","",""
"html-keyboard-response","361","487112","0.0-7.0-0.38","LF","v9kdh4rpsp","1280","720","0","1","0","5ed14691e983f5067842fd20","","null","","","learningBlock2","","","","This is a wug:","null","","","","","",""
"image-keyboard-response","362","487443","0.0-7.0-1.38","LF","v9kdh4rpsp","1280","720","0","1","0","5ed14691e983f5067842fd20","","null","","","","","","","learning/Slide119.JPG","null","","","","","",""
"html-keyboard-response","363","488447","0.0-7.0-2.38","LF","v9kdh4rpsp","1280","720","0","1","0","5ed14691e983f5067842fd20","","null","","","learningBlock2","","","","<div style=""font-size:60px;""> </div>","null","LF","learning/Slide119.JPG","This is a wug:","","",""
"html-keyboard-response","364","489467","0.0-7.0-0.39","LF","v9kdh4rpsp","1280","720","0","1","0","5ed14691e983f5067842fd20","","null","","","learningBlock2","","","","This is a dep:","null","","","","","",""
"image-keyboard-response","365","489821","0.0-7.0-1.39","LF","v9kdh4rpsp","1280","720","0","1","0","5ed14691e983f5067842fd20","","null","","","","","","","learning/Slide120.JPG","null","","","","","",""
"html-keyboard-response","366","490824","0.0-7.0-2.39","LF","v9kdh4rpsp","1280","720","0","1","0","5ed14691e983f5067842fd20","","null","","","learningBlock2","","","","<div style=""font-size:60px;""> </div>","null","LF","learning/Slide120.JPG","This is a dep:","","",""
"html-keyboard-response","367","491826","0.0-7.0-0.40","LF","v9kdh4rpsp","1280","720","0","1","0","5ed14691e983f5067842fd20","","null","","","learningBlock2","","","","This is a bim:","null","","","","","",""
"image-keyboard-response","368","492166","0.0-7.0-1.40","LF","v9kdh4rpsp","1280","720","0","1","0","5ed14691e983f5067842fd20","","null","","","","","","","learning/Slide121.JPG","null","","","","","",""
"html-keyboard-response","369","493186","0.0-7.0-2.40","LF","v9kdh4rpsp","1280","720","0","1","0","5ed14691e983f5067842fd20","","null","","","learningBlock2","","","","<div style=""font-size:60px;""> </div>","null","LF","learning/Slide121.JPG","This is a bim:","","",""
"html-keyboard-response","370","494188","0.0-7.0-0.41","LF","v9kdh4rpsp","1280","720","0","1","0","5ed14691e983f5067842fd20","","null","","","learningBlock2","","","","This is a wug:","null","","","","","",""
"image-keyboard-response","371","494537","0.0-7.0-1.41","LF","v9kdh4rpsp","1280","720","0","1","0","5ed14691e983f5067842fd20","","null","","","","","","","learning/Slide122.JPG","null","","","","","",""
"html-keyboard-response","372","495547","0.0-7.0-2.41","LF","v9kdh4rpsp","1280","720","0","1","0","5ed14691e983f5067842fd20","","null","","","learningBlock2","","","","<div style=""font-size:60px;""> </div>","null","LF","learning/Slide122.JPG","This is a wug:","","",""
"html-keyboard-response","373","496577","0.0-7.0-0.42","LF","v9kdh4rpsp","1280","720","0","1","0","5ed14691e983f5067842fd20","","null","","","learningBlock2","","","","This is a bim:","null","","","","","",""
"image-keyboard-response","374","496917","0.0-7.0-1.42","LF","v9kdh4rpsp","1280","720","0","1","0","5ed14691e983f5067842fd20","","null","","","","","","","learning/Slide123.JPG","null","","","","","",""
"html-keyboard-response","375","497935","0.0-7.0-2.42","LF","v9kdh4rpsp","1280","720","0","1","0","5ed14691e983f5067842fd20","","null","","","learningBlock2","","","","<div style=""font-size:60px;""> </div>","null","LF","learning/Slide123.JPG","This is a bim:","","",""
"html-keyboard-response","376","498937","0.0-7.0-0.43","LF","v9kdh4rpsp","1280","720","0","1","0","5ed14691e983f5067842fd20","","null","","","learningBlock2","","","","This is a tob:","null","","","","","",""
"image-keyboard-response","377","499275","0.0-7.0-1.43","LF","v9kdh4rpsp","1280","720","0","1","0","5ed14691e983f5067842fd20","","null","","","","","","","learning/Slide124.JPG","null","","","","","",""
"html-keyboard-response","378","500288","0.0-7.0-2.43","LF","v9kdh4rpsp","1280","720","0","1","0","5ed14691e983f5067842fd20","","null","","","learningBlock2","","","","<div style=""font-size:60px;""> </div>","null","LF","learning/Slide124.JPG","This is a tob:","","",""
"html-keyboard-response","379","501292","0.0-7.0-0.44","LF","v9kdh4rpsp","1280","720","0","1","0","5ed14691e983f5067842fd20","","null","","","learningBlock2","","","","This is a bim:","null","","","","","",""
"image-keyboard-response","380","501629","0.0-7.0-1.44","LF","v9kdh4rpsp","1280","720","0","1","0","5ed14691e983f5067842fd20","","null","","","","","","","learning/Slide125.JPG","null","","","","","",""
"html-keyboard-response","381","502631","0.0-7.0-2.44","LF","v9kdh4rpsp","1280","720","0","1","0","5ed14691e983f5067842fd20","","null","","","learningBlock2","","","","<div style=""font-size:60px;""> </div>","null","LF","learning/Slide125.JPG","This is a bim:","","",""
"html-keyboard-response","382","503634","0.0-7.0-0.45","LF","v9kdh4rpsp","1280","720","0","1","0","5ed14691e983f5067842fd20","","null","","","learningBlock2","","","","This is a tob:","null","","","","","",""
"image-keyboard-response","383","503981","0.0-7.0-1.45","LF","v9kdh4rpsp","1280","720","0","1","0","5ed14691e983f5067842fd20","","null","","","","","","","learning/Slide126.JPG","null","","","","","",""
"html-keyboard-response","384","504998","0.0-7.0-2.45","LF","v9kdh4rpsp","1280","720","0","1","0","5ed14691e983f5067842fd20","","null","","","learningBlock2","","","","<div style=""font-size:60px;""> </div>","null","LF","learning/Slide126.JPG","This is a tob:","","",""
"html-keyboard-response","385","506021","0.0-7.0-0.46","LF","v9kdh4rpsp","1280","720","0","1","0","5ed14691e983f5067842fd20","","null","","","learningBlock2","","","","This is a dep:","null","","","","","",""
"image-keyboard-response","386","506374","0.0-7.0-1.46","LF","v9kdh4rpsp","1280","720","0","1","0","5ed14691e983f5067842fd20","","null","","","","","","","learning/Slide127.JPG","null","","","","","",""
"html-keyboard-response","387","507380","0.0-7.0-2.46","LF","v9kdh4rpsp","1280","720","0","1","0","5ed14691e983f5067842fd20","","null","","","learningBlock2","","","","<div style=""font-size:60px;""> </div>","null","LF","learning/Slide127.JPG","This is a dep:","","",""
"html-keyboard-response","388","508382","0.0-7.0-0.47","LF","v9kdh4rpsp","1280","720","0","1","0","5ed14691e983f5067842fd20","","null","","","learningBlock2","","","","This is a wug:","null","","","","","",""
"image-keyboard-response","389","508720","0.0-7.0-1.47","LF","v9kdh4rpsp","1280","720","0","1","0","5ed14691e983f5067842fd20","","null","","","","","","","learning/Slide128.JPG","null","","","","","",""
"html-keyboard-response","390","509742","0.0-7.0-2.47","LF","v9kdh4rpsp","1280","720","0","1","0","5ed14691e983f5067842fd20","","null","","","learningBlock2","","","","<div style=""font-size:60px;""> </div>","null","LF","learning/Slide128.JPG","This is a wug:","","",""
"html-keyboard-response","391","510743","0.0-7.0-0.48","LF","v9kdh4rpsp","1280","720","0","1","0","5ed14691e983f5067842fd20","","null","","","learningBlock2","","","","This is a tob:","null","","","","","",""
"image-keyboard-response","392","511093","0.0-7.0-1.48","LF","v9kdh4rpsp","1280","720","0","1","0","5ed14691e983f5067842fd20","","null","","","","","","","learning/Slide129.JPG","null","","","","","",""
"html-keyboard-response","393","512097","0.0-7.0-2.48","LF","v9kdh4rpsp","1280","720","0","1","0","5ed14691e983f5067842fd20","","null","","","learningBlock2","","","","<div style=""font-size:60px;""> </div>","null","LF","learning/Slide129.JPG","This is a tob:","","",""
"html-keyboard-response","394","513106","0.0-7.0-0.49","LF","v9kdh4rpsp","1280","720","0","1","0","5ed14691e983f5067842fd20","","null","","","learningBlock2","","","","This is a wug:","null","","","","","",""
"image-keyboard-response","395","513443","0.0-7.0-1.49","LF","v9kdh4rpsp","1280","720","0","1","0","5ed14691e983f5067842fd20","","null","","","","","","","learning/Slide130.JPG","null","","","","","",""
"html-keyboard-response","396","514447","0.0-7.0-2.49","LF","v9kdh4rpsp","1280","720","0","1","0","5ed14691e983f5067842fd20","","null","","","learningBlock2","","","","<div style=""font-size:60px;""> </div>","null","LF","learning/Slide130.JPG","This is a wug:","","",""
"html-keyboard-response","397","515449","0.0-7.0-0.50","LF","v9kdh4rpsp","1280","720","0","1","0","5ed14691e983f5067842fd20","","null","","","learningBlock2","","","","This is a bim:","null","","","","","",""
"image-keyboard-response","398","515785","0.0-7.0-1.50","LF","v9kdh4rpsp","1280","720","0","1","0","5ed14691e983f5067842fd20","","null","","","","","","","learning/Slide131.JPG","null","","","","","",""
"html-keyboard-response","399","516788","0.0-7.0-2.50","LF","v9kdh4rpsp","1280","720","0","1","0","5ed14691e983f5067842fd20","","null","","","learningBlock2","","","","<div style=""font-size:60px;""> </div>","null","LF","learning/Slide131.JPG","This is a bim:","","",""
"html-keyboard-response","400","517805","0.0-7.0-0.51","LF","v9kdh4rpsp","1280","720","0","1","0","5ed14691e983f5067842fd20","","null","","","learningBlock2","","","","This is a dep:","null","","","","","",""
"image-keyboard-response","401","518154","0.0-7.0-1.51","LF","v9kdh4rpsp","1280","720","0","1","0","5ed14691e983f5067842fd20","","null","","","","","","","learning/Slide132.JPG","null","","","","","",""
"html-keyboard-response","402","519156","0.0-7.0-2.51","LF","v9kdh4rpsp","1280","720","0","1","0","5ed14691e983f5067842fd20","","null","","","learningBlock2","","","","<div style=""font-size:60px;""> </div>","null","LF","learning/Slide132.JPG","This is a dep:","","",""
"html-keyboard-response","403","520177","0.0-7.0-0.52","LF","v9kdh4rpsp","1280","720","0","1","0","5ed14691e983f5067842fd20","","null","","","learningBlock2","","","","This is a tob:","null","","","","","",""
"image-keyboard-response","404","520532","0.0-7.0-1.52","LF","v9kdh4rpsp","1280","720","0","1","0","5ed14691e983f5067842fd20","","null","","","","","","","learning/Slide133.JPG","null","","","","","",""
"html-keyboard-response","405","521540","0.0-7.0-2.52","LF","v9kdh4rpsp","1280","720","0","1","0","5ed14691e983f5067842fd20","","null","","","learningBlock2","","","","<div style=""font-size:60px;""> </div>","null","LF","learning/Slide133.JPG","This is a tob:","","",""
"html-keyboard-response","406","522542","0.0-7.0-0.53","LF","v9kdh4rpsp","1280","720","0","1","0","5ed14691e983f5067842fd20","","null","","","learningBlock2","","","","This is a dep:","null","","","","","",""
"image-keyboard-response","407","522878","0.0-7.0-1.53","LF","v9kdh4rpsp","1280","720","0","1","0","5ed14691e983f5067842fd20","","null","","","","","","","learning/Slide134.JPG","null","","","","","",""
"html-keyboard-response","408","523881","0.0-7.0-2.53","LF","v9kdh4rpsp","1280","720","0","1","0","5ed14691e983f5067842fd20","","null","","","learningBlock2","","","","<div style=""font-size:60px;""> </div>","null","LF","learning/Slide134.JPG","This is a dep:","","",""
"html-keyboard-response","409","524886","0.0-7.0-0.54","LF","v9kdh4rpsp","1280","720","0","1","0","5ed14691e983f5067842fd20","","null","","","learningBlock2","","","","This is a tob:","null","","","","","",""
"image-keyboard-response","410","525236","0.0-7.0-1.54","LF","v9kdh4rpsp","1280","720","0","1","0","5ed14691e983f5067842fd20","","null","","","","","","","learning/Slide135.JPG","null","","","","","",""
"html-keyboard-response","411","526241","0.0-7.0-2.54","LF","v9kdh4rpsp","1280","720","0","1","0","5ed14691e983f5067842fd20","","null","","","learningBlock2","","","","<div style=""font-size:60px;""> </div>","null","LF","learning/Slide135.JPG","This is a tob:","","",""
"html-keyboard-response","412","527257","0.0-7.0-0.55","LF","v9kdh4rpsp","1280","720","0","1","0","5ed14691e983f5067842fd20","","null","","","learningBlock2","","","","This is a wug:","null","","","","","",""
"image-keyboard-response","413","527595","0.0-7.0-1.55","LF","v9kdh4rpsp","1280","720","0","1","0","5ed14691e983f5067842fd20","","null","","","","","","","learning/Slide136.JPG","null","","","","","",""
"html-keyboard-response","414","528597","0.0-7.0-2.55","LF","v9kdh4rpsp","1280","720","0","1","0","5ed14691e983f5067842fd20","","null","","","learningBlock2","","","","<div style=""font-size:60px;""> </div>","null","LF","learning/Slide136.JPG","This is a wug:","","",""
"html-keyboard-response","415","529600","0.0-7.0-0.56","LF","v9kdh4rpsp","1280","720","0","1","0","5ed14691e983f5067842fd20","","null","","","learningBlock2","","","","This is a tob:","null","","","","","",""
"image-keyboard-response","416","529936","0.0-7.0-1.56","LF","v9kdh4rpsp","1280","720","0","1","0","5ed14691e983f5067842fd20","","null","","","","","","","learning/Slide137.JPG","null","","","","","",""
"html-keyboard-response","417","530953","0.0-7.0-2.56","LF","v9kdh4rpsp","1280","720","0","1","0","5ed14691e983f5067842fd20","","null","","","learningBlock2","","","","<div style=""font-size:60px;""> </div>","null","LF","learning/Slide137.JPG","This is a tob:","","",""
"html-keyboard-response","418","531959","0.0-7.0-0.57","LF","v9kdh4rpsp","1280","720","0","1","0","5ed14691e983f5067842fd20","","null","","","learningBlock2","","","","This is a bim:","null","","","","","",""
"image-keyboard-response","419","532305","0.0-7.0-1.57","LF","v9kdh4rpsp","1280","720","0","1","0","5ed14691e983f5067842fd20","","null","","","","","","","learning/Slide138.JPG","null","","","","","",""
"html-keyboard-response","420","533307","0.0-7.0-2.57","LF","v9kdh4rpsp","1280","720","0","1","0","5ed14691e983f5067842fd20","","null","","","learningBlock2","","","","<div style=""font-size:60px;""> </div>","null","LF","learning/Slide138.JPG","This is a bim:","","",""
"html-keyboard-response","421","534330","0.0-7.0-0.58","LF","v9kdh4rpsp","1280","720","0","1","0","5ed14691e983f5067842fd20","","null","","","learningBlock2","","","","This is a wug:","null","","","","","",""
"image-keyboard-response","422","534664","0.0-7.0-1.58","LF","v9kdh4rpsp","1280","720","0","1","0","5ed14691e983f5067842fd20","","null","","","","","","","learning/Slide139.JPG","null","","","","","",""
"html-keyboard-response","423","535667","0.0-7.0-2.58","LF","v9kdh4rpsp","1280","720","0","1","0","5ed14691e983f5067842fd20","","null","","","learningBlock2","","","","<div style=""font-size:60px;""> </div>","null","LF","learning/Slide139.JPG","This is a wug:","","",""
"html-keyboard-response","424","536669","0.0-7.0-0.59","LF","v9kdh4rpsp","1280","720","0","1","0","5ed14691e983f5067842fd20","","null","","","learningBlock2","","","","This is a dep:","null","","","","","",""
"image-keyboard-response","425","537002","0.0-7.0-1.59","LF","v9kdh4rpsp","1280","720","0","1","0","5ed14691e983f5067842fd20","","null","","","","","","","learning/Slide140.JPG","null","","","","","",""
"html-keyboard-response","426","538010","0.0-7.0-2.59","LF","v9kdh4rpsp","1280","720","0","1","0","5ed14691e983f5067842fd20","","null","","","learningBlock2","","","","<div style=""font-size:60px;""> </div>","null","LF","learning/Slide140.JPG","This is a dep:","","",""
"html-keyboard-response","427","539016","0.0-7.0-0.60","LF","v9kdh4rpsp","1280","720","0","1","0","5ed14691e983f5067842fd20","","null","","","learningBlock2","","","","This is a tob:","null","","","","","",""
"image-keyboard-response","428","539360","0.0-7.0-1.60","LF","v9kdh4rpsp","1280","720","0","1","0","5ed14691e983f5067842fd20","","null","","","","","","","learning/Slide141.JPG","null","","","","","",""
"html-keyboard-response","429","540377","0.0-7.0-2.60","LF","v9kdh4rpsp","1280","720","0","1","0","5ed14691e983f5067842fd20","","null","","","learningBlock2","","","","<div style=""font-size:60px;""> </div>","null","LF","learning/Slide141.JPG","This is a tob:","","",""
"html-keyboard-response","430","541379","0.0-7.0-0.61","LF","v9kdh4rpsp","1280","720","0","1","0","5ed14691e983f5067842fd20","","null","","","learningBlock2","","","","This is a wug:","null","","","","","",""
"image-keyboard-response","431","541728","0.0-7.0-1.61","LF","v9kdh4rpsp","1280","720","0","1","0","5ed14691e983f5067842fd20","","null","","","","","","","learning/Slide142.JPG","null","","","","","",""
"html-keyboard-response","432","542744","0.0-7.0-2.61","LF","v9kdh4rpsp","1280","720","0","1","0","5ed14691e983f5067842fd20","","null","","","learningBlock2","","","","<div style=""font-size:60px;""> </div>","null","LF","learning/Slide142.JPG","This is a wug:","","",""
"html-keyboard-response","433","543747","0.0-7.0-0.62","LF","v9kdh4rpsp","1280","720","0","1","0","5ed14691e983f5067842fd20","","null","","","learningBlock2","","","","This is a bim:","null","","","","","",""
"image-keyboard-response","434","544084","0.0-7.0-1.62","LF","v9kdh4rpsp","1280","720","0","1","0","5ed14691e983f5067842fd20","","null","","","","","","","learning/Slide143.JPG","null","","","","","",""
"html-keyboard-response","435","545097","0.0-7.0-2.62","LF","v9kdh4rpsp","1280","720","0","1","0","5ed14691e983f5067842fd20","","null","","","learningBlock2","","","","<div style=""font-size:60px;""> </div>","null","LF","learning/Slide143.JPG","This is a bim:","","",""
"html-keyboard-response","436","546104","0.0-7.0-0.63","LF","v9kdh4rpsp","1280","720","0","1","0","5ed14691e983f5067842fd20","","null","","","learningBlock2","","","","This is a dep:","null","","","","","",""
"image-keyboard-response","437","546474","0.0-7.0-1.63","LF","v9kdh4rpsp","1280","720","0","1","0","5ed14691e983f5067842fd20","","null","","","","","","","learning/Slide144.JPG","null","","","","","",""
