"trial_type","trial_index","time_elapsed","internal_node_id","condition","subject","screen_width","screen_height","attention","distraction","conscientious","prolificID","success","rt","url","view_history","test_part","final_height_px","final_width_px","scale_factor","stimulus","key_press","learningType","presentedImage","presentedLabel","button_pressed","response","responses"
"pavlovia","0","12","0.0-0.0","LF","pmz1eqhg0u","1366","768","0","1","0","5f1bfe98441e2743f34fa16a","","","","","","","","","","","","","","","",""
"fullscreen","1","35778","0.0-1.0","LF","pmz1eqhg0u","1366","768","0","1","0","5f1bfe98441e2743f34fa16a","true","","","","","","","","","","","","","","",""
"external-html","2","98929","0.0-2.0-0.0","LF","pmz1eqhg0u","1366","768","0","1","0","5f1bfe98441e2743f34fa16a","","61897.225000022445","text/information_english.html","","","","","","","","","","","","",""
"external-html","3","109565","0.0-2.0-1.0","LF","pmz1eqhg0u","1366","768","0","1","0","5f1bfe98441e2743f34fa16a","","9570.890000031795","text/consent_english.html","","","","","","","","","","","","",""
"instructions","4","133260","0.0-3.0","LF","pmz1eqhg0u","1366","768","0","1","0","5f1bfe98441e2743f34fa16a","","NA","","[{""page_index"":0,""viewing_time"":5531.439999991562},{""page_index"":1,""viewing_time"":18156.264999997802}]","instructions","","","","","","","","","","",""
"resize","5","240060","0.0-4.0","LF","pmz1eqhg0u","1366","768","0","1","0","5f1bfe98441e2743f34fa16a","","","","","","","344","2.1841269841269844","","","","","","","",""
"html-keyboard-response","6","241065","0.0-5.0-0.0","LF","pmz1eqhg0u","1366","768","0","1","0","5f1bfe98441e2743f34fa16a","","null","","","learningBlock1","","","","This is a tob:","null","","","","","",""
"image-keyboard-response","7","241394","0.0-5.0-1.0","LF","pmz1eqhg0u","1366","768","0","1","0","5f1bfe98441e2743f34fa16a","","null","","","","","","","learning/Slide1.JPG","null","","","","","",""
"html-keyboard-response","8","242398","0.0-5.0-2.0","LF","pmz1eqhg0u","1366","768","0","1","0","5f1bfe98441e2743f34fa16a","","null","","","learningBlock1","","","","<div style=""font-size:60px;""> </div>","null","LF","learning/Slide1.JPG","This is a tob:","","",""
"html-keyboard-response","9","243400","0.0-5.0-0.1","LF","pmz1eqhg0u","1366","768","0","1","0","5f1bfe98441e2743f34fa16a","","null","","","learningBlock1","","","","This is a wug:","null","","","","","",""
"image-keyboard-response","10","243728","0.0-5.0-1.1","LF","pmz1eqhg0u","1366","768","0","1","0","5f1bfe98441e2743f34fa16a","","null","","","","","","","learning/Slide2.JPG","null","","","","","",""
"html-keyboard-response","11","244731","0.0-5.0-2.1","LF","pmz1eqhg0u","1366","768","0","1","0","5f1bfe98441e2743f34fa16a","","null","","","learningBlock1","","","","<div style=""font-size:60px;""> </div>","null","LF","learning/Slide2.JPG","This is a wug:","","",""
"html-keyboard-response","12","245733","0.0-5.0-0.2","LF","pmz1eqhg0u","1366","768","0","1","0","5f1bfe98441e2743f34fa16a","","null","","","learningBlock1","","","","This is a bim:","null","","","","","",""
"image-keyboard-response","13","246063","0.0-5.0-1.2","LF","pmz1eqhg0u","1366","768","0","1","0","5f1bfe98441e2743f34fa16a","","null","","","","","","","learning/Slide3.JPG","null","","","","","",""
"html-keyboard-response","14","247065","0.0-5.0-2.2","LF","pmz1eqhg0u","1366","768","0","1","0","5f1bfe98441e2743f34fa16a","","null","","","learningBlock1","","","","<div style=""font-size:60px;""> </div>","null","LF","learning/Slide3.JPG","This is a bim:","","",""
"html-keyboard-response","15","248069","0.0-5.0-0.3","LF","pmz1eqhg0u","1366","768","0","1","0","5f1bfe98441e2743f34fa16a","","null","","","learningBlock1","","","","This is a dep:","null","","","","","",""
"image-keyboard-response","16","248397","0.0-5.0-1.3","LF","pmz1eqhg0u","1366","768","0","1","0","5f1bfe98441e2743f34fa16a","","null","","","","","","","learning/Slide4.JPG","null","","","","","",""
"html-keyboard-response","17","249400","0.0-5.0-2.3","LF","pmz1eqhg0u","1366","768","0","1","0","5f1bfe98441e2743f34fa16a","","null","","","learningBlock1","","","","<div style=""font-size:60px;""> </div>","null","LF","learning/Slide4.JPG","This is a dep:","","",""
"html-keyboard-response","18","250403","0.0-5.0-0.4","LF","pmz1eqhg0u","1366","768","0","1","0","5f1bfe98441e2743f34fa16a","","null","","","learningBlock1","","","","This is a wug:","null","","","","","",""
"image-keyboard-response","19","250731","0.0-5.0-1.4","LF","pmz1eqhg0u","1366","768","0","1","0","5f1bfe98441e2743f34fa16a","","null","","","","","","","learning/Slide5.JPG","null","","","","","",""
"html-keyboard-response","20","251732","0.0-5.0-2.4","LF","pmz1eqhg0u","1366","768","0","1","0","5f1bfe98441e2743f34fa16a","","null","","","learningBlock1","","","","<div style=""font-size:60px;""> </div>","null","LF","learning/Slide5.JPG","This is a wug:","","",""
"html-keyboard-response","21","252735","0.0-5.0-0.5","LF","pmz1eqhg0u","1366","768","0","1","0","5f1bfe98441e2743f34fa16a","","null","","","learningBlock1","","","","This is a dep:","null","","","","","",""
"image-keyboard-response","22","253064","0.0-5.0-1.5","LF","pmz1eqhg0u","1366","768","0","1","0","5f1bfe98441e2743f34fa16a","","null","","","","","","","learning/Slide6.JPG","null","","","","","",""
"html-keyboard-response","23","254067","0.0-5.0-2.5","LF","pmz1eqhg0u","1366","768","0","1","0","5f1bfe98441e2743f34fa16a","","null","","","learningBlock1","","","","<div style=""font-size:60px;""> </div>","null","LF","learning/Slide6.JPG","This is a dep:","","",""
"html-keyboard-response","24","255069","0.0-5.0-0.6","LF","pmz1eqhg0u","1366","768","0","1","0","5f1bfe98441e2743f34fa16a","","null","","","learningBlock1","","","","This is a wug:","null","","","","","",""
"image-keyboard-response","25","255397","0.0-5.0-1.6","LF","pmz1eqhg0u","1366","768","0","1","0","5f1bfe98441e2743f34fa16a","","null","","","","","","","learning/Slide7.JPG","null","","","","","",""
"html-keyboard-response","26","256400","0.0-5.0-2.6","LF","pmz1eqhg0u","1366","768","0","1","0","5f1bfe98441e2743f34fa16a","","null","","","learningBlock1","","","","<div style=""font-size:60px;""> </div>","null","LF","learning/Slide7.JPG","This is a wug:","","",""
"html-keyboard-response","27","257402","0.0-5.0-0.7","LF","pmz1eqhg0u","1366","768","0","1","0","5f1bfe98441e2743f34fa16a","","null","","","learningBlock1","","","","This is a bim:","null","","","","","",""
"image-keyboard-response","28","257731","0.0-5.0-1.7","LF","pmz1eqhg0u","1366","768","0","1","0","5f1bfe98441e2743f34fa16a","","null","","","","","","","learning/Slide8.JPG","null","","","","","",""
"html-keyboard-response","29","258734","0.0-5.0-2.7","LF","pmz1eqhg0u","1366","768","0","1","0","5f1bfe98441e2743f34fa16a","","null","","","learningBlock1","","","","<div style=""font-size:60px;""> </div>","null","LF","learning/Slide8.JPG","This is a bim:","","",""
"html-keyboard-response","30","259736","0.0-5.0-0.8","LF","pmz1eqhg0u","1366","768","0","1","0","5f1bfe98441e2743f34fa16a","","null","","","learningBlock1","","","","This is a wug:","null","","","","","",""
"image-keyboard-response","31","260064","0.0-5.0-1.8","LF","pmz1eqhg0u","1366","768","0","1","0","5f1bfe98441e2743f34fa16a","","null","","","","","","","learning/Slide9.JPG","null","","","","","",""
"html-keyboard-response","32","261066","0.0-5.0-2.8","LF","pmz1eqhg0u","1366","768","0","1","0","5f1bfe98441e2743f34fa16a","","null","","","learningBlock1","","","","<div style=""font-size:60px;""> </div>","null","LF","learning/Slide9.JPG","This is a wug:","","",""
"html-keyboard-response","33","262069","0.0-5.0-0.9","LF","pmz1eqhg0u","1366","768","0","1","0","5f1bfe98441e2743f34fa16a","","null","","","learningBlock1","","","","This is a dep:","null","","","","","",""
"image-keyboard-response","34","262396","0.0-5.0-1.9","LF","pmz1eqhg0u","1366","768","0","1","0","5f1bfe98441e2743f34fa16a","","null","","","","","","","learning/Slide10.JPG","null","","","","","",""
"html-keyboard-response","35","263399","0.0-5.0-2.9","LF","pmz1eqhg0u","1366","768","0","1","0","5f1bfe98441e2743f34fa16a","","null","","","learningBlock1","","","","<div style=""font-size:60px;""> </div>","null","LF","learning/Slide10.JPG","This is a dep:","","",""
"html-keyboard-response","36","264402","0.0-5.0-0.10","LF","pmz1eqhg0u","1366","768","0","1","0","5f1bfe98441e2743f34fa16a","","null","","","learningBlock1","","","","This is a tob:","null","","","","","",""
"image-keyboard-response","37","264731","0.0-5.0-1.10","LF","pmz1eqhg0u","1366","768","0","1","0","5f1bfe98441e2743f34fa16a","","null","","","","","","","learning/Slide11.JPG","null","","","","","",""
"html-keyboard-response","38","265733","0.0-5.0-2.10","LF","pmz1eqhg0u","1366","768","0","1","0","5f1bfe98441e2743f34fa16a","","null","","","learningBlock1","","","","<div style=""font-size:60px;""> </div>","null","LF","learning/Slide11.JPG","This is a tob:","","",""
"html-keyboard-response","39","266735","0.0-5.0-0.11","LF","pmz1eqhg0u","1366","768","0","1","0","5f1bfe98441e2743f34fa16a","","null","","","learningBlock1","","","","This is a dep:","null","","","","","",""
"image-keyboard-response","40","267064","0.0-5.0-1.11","LF","pmz1eqhg0u","1366","768","0","1","0","5f1bfe98441e2743f34fa16a","","null","","","","","","","learning/Slide12.JPG","null","","","","","",""
"html-keyboard-response","41","268066","0.0-5.0-2.11","LF","pmz1eqhg0u","1366","768","0","1","0","5f1bfe98441e2743f34fa16a","","null","","","learningBlock1","","","","<div style=""font-size:60px;""> </div>","null","LF","learning/Slide12.JPG","This is a dep:","","",""
"html-keyboard-response","42","269068","0.0-5.0-0.12","LF","pmz1eqhg0u","1366","768","0","1","0","5f1bfe98441e2743f34fa16a","","null","","","learningBlock1","","","","This is a bim:","null","","","","","",""
"image-keyboard-response","43","269397","0.0-5.0-1.12","LF","pmz1eqhg0u","1366","768","0","1","0","5f1bfe98441e2743f34fa16a","","null","","","","","","","learning/Slide13.JPG","null","","","","","",""
"html-keyboard-response","44","270399","0.0-5.0-2.12","LF","pmz1eqhg0u","1366","768","0","1","0","5f1bfe98441e2743f34fa16a","","null","","","learningBlock1","","","","<div style=""font-size:60px;""> </div>","null","LF","learning/Slide13.JPG","This is a bim:","","",""
"html-keyboard-response","45","271401","0.0-5.0-0.13","LF","pmz1eqhg0u","1366","768","0","1","0","5f1bfe98441e2743f34fa16a","","null","","","learningBlock1","","","","This is a wug:","null","","","","","",""
"image-keyboard-response","46","271730","0.0-5.0-1.13","LF","pmz1eqhg0u","1366","768","0","1","0","5f1bfe98441e2743f34fa16a","","null","","","","","","","learning/Slide14.JPG","null","","","","","",""
"html-keyboard-response","47","272733","0.0-5.0-2.13","LF","pmz1eqhg0u","1366","768","0","1","0","5f1bfe98441e2743f34fa16a","","null","","","learningBlock1","","","","<div style=""font-size:60px;""> </div>","null","LF","learning/Slide14.JPG","This is a wug:","","",""
"html-keyboard-response","48","273736","0.0-5.0-0.14","LF","pmz1eqhg0u","1366","768","0","1","0","5f1bfe98441e2743f34fa16a","","null","","","learningBlock1","","","","This is a tob:","null","","","","","",""
"image-keyboard-response","49","274065","0.0-5.0-1.14","LF","pmz1eqhg0u","1366","768","0","1","0","5f1bfe98441e2743f34fa16a","","null","","","","","","","learning/Slide15.JPG","null","","","","","",""
"html-keyboard-response","50","275067","0.0-5.0-2.14","LF","pmz1eqhg0u","1366","768","0","1","0","5f1bfe98441e2743f34fa16a","","null","","","learningBlock1","","","","<div style=""font-size:60px;""> </div>","null","LF","learning/Slide15.JPG","This is a tob:","","",""
"html-keyboard-response","51","276070","0.0-5.0-0.15","LF","pmz1eqhg0u","1366","768","0","1","0","5f1bfe98441e2743f34fa16a","","null","","","learningBlock1","","","","This is a dep:","null","","","","","",""
"image-keyboard-response","52","276398","0.0-5.0-1.15","LF","pmz1eqhg0u","1366","768","0","1","0","5f1bfe98441e2743f34fa16a","","null","","","","","","","learning/Slide16.JPG","null","","","","","",""
"html-keyboard-response","53","277401","0.0-5.0-2.15","LF","pmz1eqhg0u","1366","768","0","1","0","5f1bfe98441e2743f34fa16a","","null","","","learningBlock1","","","","<div style=""font-size:60px;""> </div>","null","LF","learning/Slide16.JPG","This is a dep:","","",""
"html-keyboard-response","54","278404","0.0-5.0-0.16","LF","pmz1eqhg0u","1366","768","0","1","0","5f1bfe98441e2743f34fa16a","","null","","","learningBlock1","","","","This is a bim:","null","","","","","",""
"image-keyboard-response","55","278732","0.0-5.0-1.16","LF","pmz1eqhg0u","1366","768","0","1","0","5f1bfe98441e2743f34fa16a","","null","","","","","","","learning/Slide17.JPG","null","","","","","",""
"html-keyboard-response","56","279735","0.0-5.0-2.16","LF","pmz1eqhg0u","1366","768","0","1","0","5f1bfe98441e2743f34fa16a","","null","","","learningBlock1","","","","<div style=""font-size:60px;""> </div>","null","LF","learning/Slide17.JPG","This is a bim:","","",""
"html-keyboard-response","57","280737","0.0-5.0-0.17","LF","pmz1eqhg0u","1366","768","0","1","0","5f1bfe98441e2743f34fa16a","","null","","","learningBlock1","","","","This is a tob:","null","","","","","",""
"image-keyboard-response","58","281066","0.0-5.0-1.17","LF","pmz1eqhg0u","1366","768","0","1","0","5f1bfe98441e2743f34fa16a","","null","","","","","","","learning/Slide18.JPG","null","","","","","",""
"html-keyboard-response","59","282068","0.0-5.0-2.17","LF","pmz1eqhg0u","1366","768","0","1","0","5f1bfe98441e2743f34fa16a","","null","","","learningBlock1","","","","<div style=""font-size:60px;""> </div>","null","LF","learning/Slide18.JPG","This is a tob:","","",""
"html-keyboard-response","60","283070","0.0-5.0-0.18","LF","pmz1eqhg0u","1366","768","0","1","0","5f1bfe98441e2743f34fa16a","","null","","","learningBlock1","","","","This is a wug:","null","","","","","",""
"image-keyboard-response","61","283399","0.0-5.0-1.18","LF","pmz1eqhg0u","1366","768","0","1","0","5f1bfe98441e2743f34fa16a","","null","","","","","","","learning/Slide19.JPG","null","","","","","",""
"html-keyboard-response","62","284401","0.0-5.0-2.18","LF","pmz1eqhg0u","1366","768","0","1","0","5f1bfe98441e2743f34fa16a","","null","","","learningBlock1","","","","<div style=""font-size:60px;""> </div>","null","LF","learning/Slide19.JPG","This is a wug:","","",""
"html-keyboard-response","63","285404","0.0-5.0-0.19","LF","pmz1eqhg0u","1366","768","0","1","0","5f1bfe98441e2743f34fa16a","","null","","","learningBlock1","","","","This is a bim:","null","","","","","",""
"image-keyboard-response","64","285733","0.0-5.0-1.19","LF","pmz1eqhg0u","1366","768","0","1","0","5f1bfe98441e2743f34fa16a","","null","","","","","","","learning/Slide20.JPG","null","","","","","",""
"html-keyboard-response","65","286736","0.0-5.0-2.19","LF","pmz1eqhg0u","1366","768","0","1","0","5f1bfe98441e2743f34fa16a","","null","","","learningBlock1","","","","<div style=""font-size:60px;""> </div>","null","LF","learning/Slide20.JPG","This is a bim:","","",""
"html-keyboard-response","66","287738","0.0-5.0-0.20","LF","pmz1eqhg0u","1366","768","0","1","0","5f1bfe98441e2743f34fa16a","","null","","","learningBlock1","","","","This is a dep:","null","","","","","",""
"image-keyboard-response","67","288067","0.0-5.0-1.20","LF","pmz1eqhg0u","1366","768","0","1","0","5f1bfe98441e2743f34fa16a","","null","","","","","","","learning/Slide21.JPG","null","","","","","",""
"html-keyboard-response","68","289070","0.0-5.0-2.20","LF","pmz1eqhg0u","1366","768","0","1","0","5f1bfe98441e2743f34fa16a","","null","","","learningBlock1","","","","<div style=""font-size:60px;""> </div>","null","LF","learning/Slide21.JPG","This is a dep:","","",""
"html-keyboard-response","69","290075","0.0-5.0-0.21","LF","pmz1eqhg0u","1366","768","0","1","0","5f1bfe98441e2743f34fa16a","","null","","","learningBlock1","","","","This is a bim:","null","","","","","",""
"image-keyboard-response","70","290403","0.0-5.0-1.21","LF","pmz1eqhg0u","1366","768","0","1","0","5f1bfe98441e2743f34fa16a","","null","","","","","","","learning/Slide22.JPG","null","","","","","",""
"html-keyboard-response","71","291405","0.0-5.0-2.21","LF","pmz1eqhg0u","1366","768","0","1","0","5f1bfe98441e2743f34fa16a","","null","","","learningBlock1","","","","<div style=""font-size:60px;""> </div>","null","LF","learning/Slide22.JPG","This is a bim:","","",""
"html-keyboard-response","72","292408","0.0-5.0-0.22","LF","pmz1eqhg0u","1366","768","0","1","0","5f1bfe98441e2743f34fa16a","","null","","","learningBlock1","","","","This is a tob:","null","","","","","",""
"image-keyboard-response","73","292736","0.0-5.0-1.22","LF","pmz1eqhg0u","1366","768","0","1","0","5f1bfe98441e2743f34fa16a","","null","","","","","","","learning/Slide23.JPG","null","","","","","",""
"html-keyboard-response","74","293738","0.0-5.0-2.22","LF","pmz1eqhg0u","1366","768","0","1","0","5f1bfe98441e2743f34fa16a","","null","","","learningBlock1","","","","<div style=""font-size:60px;""> </div>","null","LF","learning/Slide23.JPG","This is a tob:","","",""
"html-keyboard-response","75","294742","0.0-5.0-0.23","LF","pmz1eqhg0u","1366","768","0","1","0","5f1bfe98441e2743f34fa16a","","null","","","learningBlock1","","","","This is a wug:","null","","","","","",""
"image-keyboard-response","76","295070","0.0-5.0-1.23","LF","pmz1eqhg0u","1366","768","0","1","0","5f1bfe98441e2743f34fa16a","","null","","","","","","","learning/Slide24.JPG","null","","","","","",""
"html-keyboard-response","77","296073","0.0-5.0-2.23","LF","pmz1eqhg0u","1366","768","0","1","0","5f1bfe98441e2743f34fa16a","","null","","","learningBlock1","","","","<div style=""font-size:60px;""> </div>","null","LF","learning/Slide24.JPG","This is a wug:","","",""
"html-keyboard-response","78","297076","0.0-5.0-0.24","LF","pmz1eqhg0u","1366","768","0","1","0","5f1bfe98441e2743f34fa16a","","null","","","learningBlock1","","","","This is a dep:","null","","","","","",""
"image-keyboard-response","79","297404","0.0-5.0-1.24","LF","pmz1eqhg0u","1366","768","0","1","0","5f1bfe98441e2743f34fa16a","","null","","","","","","","learning/Slide25.JPG","null","","","","","",""
"html-keyboard-response","80","298407","0.0-5.0-2.24","LF","pmz1eqhg0u","1366","768","0","1","0","5f1bfe98441e2743f34fa16a","","null","","","learningBlock1","","","","<div style=""font-size:60px;""> </div>","null","LF","learning/Slide25.JPG","This is a dep:","","",""
"html-keyboard-response","81","299409","0.0-5.0-0.25","LF","pmz1eqhg0u","1366","768","0","1","0","5f1bfe98441e2743f34fa16a","","null","","","learningBlock1","","","","This is a wug:","null","","","","","",""
"image-keyboard-response","82","299737","0.0-5.0-1.25","LF","pmz1eqhg0u","1366","768","0","1","0","5f1bfe98441e2743f34fa16a","","null","","","","","","","learning/Slide26.JPG","null","","","","","",""
"html-keyboard-response","83","300739","0.0-5.0-2.25","LF","pmz1eqhg0u","1366","768","0","1","0","5f1bfe98441e2743f34fa16a","","null","","","learningBlock1","","","","<div style=""font-size:60px;""> </div>","null","LF","learning/Slide26.JPG","This is a wug:","","",""
"html-keyboard-response","84","301741","0.0-5.0-0.26","LF","pmz1eqhg0u","1366","768","0","1","0","5f1bfe98441e2743f34fa16a","","null","","","learningBlock1","","","","This is a bim:","null","","","","","",""
"image-keyboard-response","85","302068","0.0-5.0-1.26","LF","pmz1eqhg0u","1366","768","0","1","0","5f1bfe98441e2743f34fa16a","","null","","","","","","","learning/Slide27.JPG","null","","","","","",""
"html-keyboard-response","86","303070","0.0-5.0-2.26","LF","pmz1eqhg0u","1366","768","0","1","0","5f1bfe98441e2743f34fa16a","","null","","","learningBlock1","","","","<div style=""font-size:60px;""> </div>","null","LF","learning/Slide27.JPG","This is a bim:","","",""
"html-keyboard-response","87","304072","0.0-5.0-0.27","LF","pmz1eqhg0u","1366","768","0","1","0","5f1bfe98441e2743f34fa16a","","null","","","learningBlock1","","","","This is a dep:","null","","","","","",""
"image-keyboard-response","88","304400","0.0-5.0-1.27","LF","pmz1eqhg0u","1366","768","0","1","0","5f1bfe98441e2743f34fa16a","","null","","","","","","","learning/Slide28.JPG","null","","","","","",""
"html-keyboard-response","89","305402","0.0-5.0-2.27","LF","pmz1eqhg0u","1366","768","0","1","0","5f1bfe98441e2743f34fa16a","","null","","","learningBlock1","","","","<div style=""font-size:60px;""> </div>","null","LF","learning/Slide28.JPG","This is a dep:","","",""
"html-keyboard-response","90","306405","0.0-5.0-0.28","LF","pmz1eqhg0u","1366","768","0","1","0","5f1bfe98441e2743f34fa16a","","null","","","learningBlock1","","","","This is a tob:","null","","","","","",""
"image-keyboard-response","91","306733","0.0-5.0-1.28","LF","pmz1eqhg0u","1366","768","0","1","0","5f1bfe98441e2743f34fa16a","","null","","","","","","","learning/Slide29.JPG","null","","","","","",""
"html-keyboard-response","92","307735","0.0-5.0-2.28","LF","pmz1eqhg0u","1366","768","0","1","0","5f1bfe98441e2743f34fa16a","","null","","","learningBlock1","","","","<div style=""font-size:60px;""> </div>","null","LF","learning/Slide29.JPG","This is a tob:","","",""
"html-keyboard-response","93","308737","0.0-5.0-0.29","LF","pmz1eqhg0u","1366","768","0","1","0","5f1bfe98441e2743f34fa16a","","null","","","learningBlock1","","","","This is a dep:","null","","","","","",""
"image-keyboard-response","94","309065","0.0-5.0-1.29","LF","pmz1eqhg0u","1366","768","0","1","0","5f1bfe98441e2743f34fa16a","","null","","","","","","","learning/Slide30.JPG","null","","","","","",""
"html-keyboard-response","95","310067","0.0-5.0-2.29","LF","pmz1eqhg0u","1366","768","0","1","0","5f1bfe98441e2743f34fa16a","","null","","","learningBlock1","","","","<div style=""font-size:60px;""> </div>","null","LF","learning/Slide30.JPG","This is a dep:","","",""
"html-keyboard-response","96","311070","0.0-5.0-0.30","LF","pmz1eqhg0u","1366","768","0","1","0","5f1bfe98441e2743f34fa16a","","null","","","learningBlock1","","","","This is a wug:","null","","","","","",""
"image-keyboard-response","97","311397","0.0-5.0-1.30","LF","pmz1eqhg0u","1366","768","0","1","0","5f1bfe98441e2743f34fa16a","","null","","","","","","","learning/Slide31.JPG","null","","","","","",""
"html-keyboard-response","98","312399","0.0-5.0-2.30","LF","pmz1eqhg0u","1366","768","0","1","0","5f1bfe98441e2743f34fa16a","","null","","","learningBlock1","","","","<div style=""font-size:60px;""> </div>","null","LF","learning/Slide31.JPG","This is a wug:","","",""
"html-keyboard-response","99","313401","0.0-5.0-0.31","LF","pmz1eqhg0u","1366","768","0","1","0","5f1bfe98441e2743f34fa16a","","null","","","learningBlock1","","","","This is a tob:","null","","","","","",""
"image-keyboard-response","100","313730","0.0-5.0-1.31","LF","pmz1eqhg0u","1366","768","0","1","0","5f1bfe98441e2743f34fa16a","","null","","","","","","","learning/Slide32.JPG","null","","","","","",""
"html-keyboard-response","101","314732","0.0-5.0-2.31","LF","pmz1eqhg0u","1366","768","0","1","0","5f1bfe98441e2743f34fa16a","","null","","","learningBlock1","","","","<div style=""font-size:60px;""> </div>","null","LF","learning/Slide32.JPG","This is a tob:","","",""
"html-keyboard-response","102","315733","0.0-5.0-0.32","LF","pmz1eqhg0u","1366","768","0","1","0","5f1bfe98441e2743f34fa16a","","null","","","learningBlock1","","","","This is a bim:","null","","","","","",""
"image-keyboard-response","103","316061","0.0-5.0-1.32","LF","pmz1eqhg0u","1366","768","0","1","0","5f1bfe98441e2743f34fa16a","","null","","","","","","","learning/Slide33.JPG","null","","","","","",""
"html-keyboard-response","104","317063","0.0-5.0-2.32","LF","pmz1eqhg0u","1366","768","0","1","0","5f1bfe98441e2743f34fa16a","","null","","","learningBlock1","","","","<div style=""font-size:60px;""> </div>","null","LF","learning/Slide33.JPG","This is a bim:","","",""
"html-keyboard-response","105","318066","0.0-5.0-0.33","LF","pmz1eqhg0u","1366","768","0","1","0","5f1bfe98441e2743f34fa16a","","null","","","learningBlock1","","","","This is a tob:","null","","","","","",""
"image-keyboard-response","106","318393","0.0-5.0-1.33","LF","pmz1eqhg0u","1366","768","0","1","0","5f1bfe98441e2743f34fa16a","","null","","","","","","","learning/Slide34.JPG","null","","","","","",""
"html-keyboard-response","107","319397","0.0-5.0-2.33","LF","pmz1eqhg0u","1366","768","0","1","0","5f1bfe98441e2743f34fa16a","","null","","","learningBlock1","","","","<div style=""font-size:60px;""> </div>","null","LF","learning/Slide34.JPG","This is a tob:","","",""
"html-keyboard-response","108","320399","0.0-5.0-0.34","LF","pmz1eqhg0u","1366","768","0","1","0","5f1bfe98441e2743f34fa16a","","null","","","learningBlock1","","","","This is a bim:","null","","","","","",""
"image-keyboard-response","109","320727","0.0-5.0-1.34","LF","pmz1eqhg0u","1366","768","0","1","0","5f1bfe98441e2743f34fa16a","","null","","","","","","","learning/Slide35.JPG","null","","","","","",""
"html-keyboard-response","110","321729","0.0-5.0-2.34","LF","pmz1eqhg0u","1366","768","0","1","0","5f1bfe98441e2743f34fa16a","","null","","","learningBlock1","","","","<div style=""font-size:60px;""> </div>","null","LF","learning/Slide35.JPG","This is a bim:","","",""
"html-keyboard-response","111","322731","0.0-5.0-0.35","LF","pmz1eqhg0u","1366","768","0","1","0","5f1bfe98441e2743f34fa16a","","null","","","learningBlock1","","","","This is a dep:","null","","","","","",""
"image-keyboard-response","112","323059","0.0-5.0-1.35","LF","pmz1eqhg0u","1366","768","0","1","0","5f1bfe98441e2743f34fa16a","","null","","","","","","","learning/Slide36.JPG","null","","","","","",""
"html-keyboard-response","113","324061","0.0-5.0-2.35","LF","pmz1eqhg0u","1366","768","0","1","0","5f1bfe98441e2743f34fa16a","","null","","","learningBlock1","","","","<div style=""font-size:60px;""> </div>","null","LF","learning/Slide36.JPG","This is a dep:","","",""
"html-keyboard-response","114","325063","0.0-5.0-0.36","LF","pmz1eqhg0u","1366","768","0","1","0","5f1bfe98441e2743f34fa16a","","null","","","learningBlock1","","","","This is a tob:","null","","","","","",""
"image-keyboard-response","115","325390","0.0-5.0-1.36","LF","pmz1eqhg0u","1366","768","0","1","0","5f1bfe98441e2743f34fa16a","","null","","","","","","","learning/Slide37.JPG","null","","","","","",""
"html-keyboard-response","116","326394","0.0-5.0-2.36","LF","pmz1eqhg0u","1366","768","0","1","0","5f1bfe98441e2743f34fa16a","","null","","","learningBlock1","","","","<div style=""font-size:60px;""> </div>","null","LF","learning/Slide37.JPG","This is a tob:","","",""
"html-keyboard-response","117","327396","0.0-5.0-0.37","LF","pmz1eqhg0u","1366","768","0","1","0","5f1bfe98441e2743f34fa16a","","null","","","learningBlock1","","","","This is a wug:","null","","","","","",""
"image-keyboard-response","118","327724","0.0-5.0-1.37","LF","pmz1eqhg0u","1366","768","0","1","0","5f1bfe98441e2743f34fa16a","","null","","","","","","","learning/Slide38.JPG","null","","","","","",""
"html-keyboard-response","119","328727","0.0-5.0-2.37","LF","pmz1eqhg0u","1366","768","0","1","0","5f1bfe98441e2743f34fa16a","","null","","","learningBlock1","","","","<div style=""font-size:60px;""> </div>","null","LF","learning/Slide38.JPG","This is a wug:","","",""
"html-keyboard-response","120","329730","0.0-5.0-0.38","LF","pmz1eqhg0u","1366","768","0","1","0","5f1bfe98441e2743f34fa16a","","null","","","learningBlock1","","","","This is a bim:","null","","","","","",""
"image-keyboard-response","121","330058","0.0-5.0-1.38","LF","pmz1eqhg0u","1366","768","0","1","0","5f1bfe98441e2743f34fa16a","","null","","","","","","","learning/Slide39.JPG","null","","","","","",""
"html-keyboard-response","122","331060","0.0-5.0-2.38","LF","pmz1eqhg0u","1366","768","0","1","0","5f1bfe98441e2743f34fa16a","","null","","","learningBlock1","","","","<div style=""font-size:60px;""> </div>","null","LF","learning/Slide39.JPG","This is a bim:","","",""
"html-keyboard-response","123","332061","0.0-5.0-0.39","LF","pmz1eqhg0u","1366","768","0","1","0","5f1bfe98441e2743f34fa16a","","null","","","learningBlock1","","","","This is a tob:","null","","","","","",""
"image-keyboard-response","124","332390","0.0-5.0-1.39","LF","pmz1eqhg0u","1366","768","0","1","0","5f1bfe98441e2743f34fa16a","","null","","","","","","","learning/Slide40.JPG","null","","","","","",""
"html-keyboard-response","125","333392","0.0-5.0-2.39","LF","pmz1eqhg0u","1366","768","0","1","0","5f1bfe98441e2743f34fa16a","","null","","","learningBlock1","","","","<div style=""font-size:60px;""> </div>","null","LF","learning/Slide40.JPG","This is a tob:","","",""
"html-keyboard-response","126","334393","0.0-5.0-0.40","LF","pmz1eqhg0u","1366","768","0","1","0","5f1bfe98441e2743f34fa16a","","null","","","learningBlock1","","","","This is a bim:","null","","","","","",""
"image-keyboard-response","127","334722","0.0-5.0-1.40","LF","pmz1eqhg0u","1366","768","0","1","0","5f1bfe98441e2743f34fa16a","","null","","","","","","","learning/Slide41.JPG","null","","","","","",""
"html-keyboard-response","128","335725","0.0-5.0-2.40","LF","pmz1eqhg0u","1366","768","0","1","0","5f1bfe98441e2743f34fa16a","","null","","","learningBlock1","","","","<div style=""font-size:60px;""> </div>","null","LF","learning/Slide41.JPG","This is a bim:","","",""
"html-keyboard-response","129","336727","0.0-5.0-0.41","LF","pmz1eqhg0u","1366","768","0","1","0","5f1bfe98441e2743f34fa16a","","null","","","learningBlock1","","","","This is a dep:","null","","","","","",""
"image-keyboard-response","130","337055","0.0-5.0-1.41","LF","pmz1eqhg0u","1366","768","0","1","0","5f1bfe98441e2743f34fa16a","","null","","","","","","","learning/Slide42.JPG","null","","","","","",""
"html-keyboard-response","131","338057","0.0-5.0-2.41","LF","pmz1eqhg0u","1366","768","0","1","0","5f1bfe98441e2743f34fa16a","","null","","","learningBlock1","","","","<div style=""font-size:60px;""> </div>","null","LF","learning/Slide42.JPG","This is a dep:","","",""
"html-keyboard-response","132","339059","0.0-5.0-0.42","LF","pmz1eqhg0u","1366","768","0","1","0","5f1bfe98441e2743f34fa16a","","null","","","learningBlock1","","","","This is a wug:","null","","","","","",""
"image-keyboard-response","133","339387","0.0-5.0-1.42","LF","pmz1eqhg0u","1366","768","0","1","0","5f1bfe98441e2743f34fa16a","","null","","","","","","","learning/Slide43.JPG","null","","","","","",""
"html-keyboard-response","134","340390","0.0-5.0-2.42","LF","pmz1eqhg0u","1366","768","0","1","0","5f1bfe98441e2743f34fa16a","","null","","","learningBlock1","","","","<div style=""font-size:60px;""> </div>","null","LF","learning/Slide43.JPG","This is a wug:","","",""
"html-keyboard-response","135","341392","0.0-5.0-0.43","LF","pmz1eqhg0u","1366","768","0","1","0","5f1bfe98441e2743f34fa16a","","null","","","learningBlock1","","","","This is a bim:","null","","","","","",""
"image-keyboard-response","136","341720","0.0-5.0-1.43","LF","pmz1eqhg0u","1366","768","0","1","0","5f1bfe98441e2743f34fa16a","","null","","","","","","","learning/Slide44.JPG","null","","","","","",""
"html-keyboard-response","137","342723","0.0-5.0-2.43","LF","pmz1eqhg0u","1366","768","0","1","0","5f1bfe98441e2743f34fa16a","","null","","","learningBlock1","","","","<div style=""font-size:60px;""> </div>","null","LF","learning/Slide44.JPG","This is a bim:","","",""
"html-keyboard-response","138","343725","0.0-5.0-0.44","LF","pmz1eqhg0u","1366","768","0","1","0","5f1bfe98441e2743f34fa16a","","null","","","learningBlock1","","","","This is a wug:","null","","","","","",""
"image-keyboard-response","139","344053","0.0-5.0-1.44","LF","pmz1eqhg0u","1366","768","0","1","0","5f1bfe98441e2743f34fa16a","","null","","","","","","","learning/Slide45.JPG","null","","","","","",""
"html-keyboard-response","140","345056","0.0-5.0-2.44","LF","pmz1eqhg0u","1366","768","0","1","0","5f1bfe98441e2743f34fa16a","","null","","","learningBlock1","","","","<div style=""font-size:60px;""> </div>","null","LF","learning/Slide45.JPG","This is a wug:","","",""
"html-keyboard-response","141","346058","0.0-5.0-0.45","LF","pmz1eqhg0u","1366","768","0","1","0","5f1bfe98441e2743f34fa16a","","null","","","learningBlock1","","","","This is a dep:","null","","","","","",""
"image-keyboard-response","142","346386","0.0-5.0-1.45","LF","pmz1eqhg0u","1366","768","0","1","0","5f1bfe98441e2743f34fa16a","","null","","","","","","","learning/Slide46.JPG","null","","","","","",""
"html-keyboard-response","143","347389","0.0-5.0-2.45","LF","pmz1eqhg0u","1366","768","0","1","0","5f1bfe98441e2743f34fa16a","","null","","","learningBlock1","","","","<div style=""font-size:60px;""> </div>","null","LF","learning/Slide46.JPG","This is a dep:","","",""
"html-keyboard-response","144","348391","0.0-5.0-0.46","LF","pmz1eqhg0u","1366","768","0","1","0","5f1bfe98441e2743f34fa16a","","null","","","learningBlock1","","","","This is a tob:","null","","","","","",""
"image-keyboard-response","145","348718","0.0-5.0-1.46","LF","pmz1eqhg0u","1366","768","0","1","0","5f1bfe98441e2743f34fa16a","","null","","","","","","","learning/Slide47.JPG","null","","","","","",""
"html-keyboard-response","146","349721","0.0-5.0-2.46","LF","pmz1eqhg0u","1366","768","0","1","0","5f1bfe98441e2743f34fa16a","","null","","","learningBlock1","","","","<div style=""font-size:60px;""> </div>","null","LF","learning/Slide47.JPG","This is a tob:","","",""
"html-keyboard-response","147","350723","0.0-5.0-0.47","LF","pmz1eqhg0u","1366","768","0","1","0","5f1bfe98441e2743f34fa16a","","null","","","learningBlock1","","","","This is a bim:","null","","","","","",""
"image-keyboard-response","148","351052","0.0-5.0-1.47","LF","pmz1eqhg0u","1366","768","0","1","0","5f1bfe98441e2743f34fa16a","","null","","","","","","","learning/Slide48.JPG","null","","","","","",""
"html-keyboard-response","149","352054","0.0-5.0-2.47","LF","pmz1eqhg0u","1366","768","0","1","0","5f1bfe98441e2743f34fa16a","","null","","","learningBlock1","","","","<div style=""font-size:60px;""> </div>","null","LF","learning/Slide48.JPG","This is a bim:","","",""
"html-keyboard-response","150","353056","0.0-5.0-0.48","LF","pmz1eqhg0u","1366","768","0","1","0","5f1bfe98441e2743f34fa16a","","null","","","learningBlock1","","","","This is a dep:","null","","","","","",""
"image-keyboard-response","151","353385","0.0-5.0-1.48","LF","pmz1eqhg0u","1366","768","0","1","0","5f1bfe98441e2743f34fa16a","","null","","","","","","","learning/Slide49.JPG","null","","","","","",""
"html-keyboard-response","152","354388","0.0-5.0-2.48","LF","pmz1eqhg0u","1366","768","0","1","0","5f1bfe98441e2743f34fa16a","","null","","","learningBlock1","","","","<div style=""font-size:60px;""> </div>","null","LF","learning/Slide49.JPG","This is a dep:","","",""
"html-keyboard-response","153","355389","0.0-5.0-0.49","LF","pmz1eqhg0u","1366","768","0","1","0","5f1bfe98441e2743f34fa16a","","null","","","learningBlock1","","","","This is a tob:","null","","","","","",""
"image-keyboard-response","154","355717","0.0-5.0-1.49","LF","pmz1eqhg0u","1366","768","0","1","0","5f1bfe98441e2743f34fa16a","","null","","","","","","","learning/Slide50.JPG","null","","","","","",""
"html-keyboard-response","155","356719","0.0-5.0-2.49","LF","pmz1eqhg0u","1366","768","0","1","0","5f1bfe98441e2743f34fa16a","","null","","","learningBlock1","","","","<div style=""font-size:60px;""> </div>","null","LF","learning/Slide50.JPG","This is a tob:","","",""
"html-keyboard-response","156","357720","0.0-5.0-0.50","LF","pmz1eqhg0u","1366","768","0","1","0","5f1bfe98441e2743f34fa16a","","null","","","learningBlock1","","","","This is a bim:","null","","","","","",""
"image-keyboard-response","157","358048","0.0-5.0-1.50","LF","pmz1eqhg0u","1366","768","0","1","0","5f1bfe98441e2743f34fa16a","","null","","","","","","","learning/Slide51.JPG","null","","","","","",""
"html-keyboard-response","158","359051","0.0-5.0-2.50","LF","pmz1eqhg0u","1366","768","0","1","0","5f1bfe98441e2743f34fa16a","","null","","","learningBlock1","","","","<div style=""font-size:60px;""> </div>","null","LF","learning/Slide51.JPG","This is a bim:","","",""
"html-keyboard-response","159","360052","0.0-5.0-0.51","LF","pmz1eqhg0u","1366","768","0","1","0","5f1bfe98441e2743f34fa16a","","null","","","learningBlock1","","","","This is a wug:","null","","","","","",""
"image-keyboard-response","160","360381","0.0-5.0-1.51","LF","pmz1eqhg0u","1366","768","0","1","0","5f1bfe98441e2743f34fa16a","","null","","","","","","","learning/Slide52.JPG","null","","","","","",""
"html-keyboard-response","161","361385","0.0-5.0-2.51","LF","pmz1eqhg0u","1366","768","0","1","0","5f1bfe98441e2743f34fa16a","","null","","","learningBlock1","","","","<div style=""font-size:60px;""> </div>","null","LF","learning/Slide52.JPG","This is a wug:","","",""
"html-keyboard-response","162","362388","0.0-5.0-0.52","LF","pmz1eqhg0u","1366","768","0","1","0","5f1bfe98441e2743f34fa16a","","null","","","learningBlock1","","","","This is a tob:","null","","","","","",""
"image-keyboard-response","163","362717","0.0-5.0-1.52","LF","pmz1eqhg0u","1366","768","0","1","0","5f1bfe98441e2743f34fa16a","","null","","","","","","","learning/Slide53.JPG","null","","","","","",""
"html-keyboard-response","164","363718","0.0-5.0-2.52","LF","pmz1eqhg0u","1366","768","0","1","0","5f1bfe98441e2743f34fa16a","","null","","","learningBlock1","","","","<div style=""font-size:60px;""> </div>","null","LF","learning/Slide53.JPG","This is a tob:","","",""
"html-keyboard-response","165","364720","0.0-5.0-0.53","LF","pmz1eqhg0u","1366","768","0","1","0","5f1bfe98441e2743f34fa16a","","null","","","learningBlock1","","","","This is a dep:","null","","","","","",""
"image-keyboard-response","166","365048","0.0-5.0-1.53","LF","pmz1eqhg0u","1366","768","0","1","0","5f1bfe98441e2743f34fa16a","","null","","","","","","","learning/Slide54.JPG","null","","","","","",""
"html-keyboard-response","167","366051","0.0-5.0-2.53","LF","pmz1eqhg0u","1366","768","0","1","0","5f1bfe98441e2743f34fa16a","","null","","","learningBlock1","","","","<div style=""font-size:60px;""> </div>","null","LF","learning/Slide54.JPG","This is a dep:","","",""
"html-keyboard-response","168","367053","0.0-5.0-0.54","LF","pmz1eqhg0u","1366","768","0","1","0","5f1bfe98441e2743f34fa16a","","null","","","learningBlock1","","","","This is a bim:","null","","","","","",""
"image-keyboard-response","169","367382","0.0-5.0-1.54","LF","pmz1eqhg0u","1366","768","0","1","0","5f1bfe98441e2743f34fa16a","","null","","","","","","","learning/Slide55.JPG","null","","","","","",""
"html-keyboard-response","170","368384","0.0-5.0-2.54","LF","pmz1eqhg0u","1366","768","0","1","0","5f1bfe98441e2743f34fa16a","","null","","","learningBlock1","","","","<div style=""font-size:60px;""> </div>","null","LF","learning/Slide55.JPG","This is a bim:","","",""
"html-keyboard-response","171","369388","0.0-5.0-0.55","LF","pmz1eqhg0u","1366","768","0","1","0","5f1bfe98441e2743f34fa16a","","null","","","learningBlock1","","","","This is a tob:","null","","","","","",""
"image-keyboard-response","172","369716","0.0-5.0-1.55","LF","pmz1eqhg0u","1366","768","0","1","0","5f1bfe98441e2743f34fa16a","","null","","","","","","","learning/Slide56.JPG","null","","","","","",""
"html-keyboard-response","173","370718","0.0-5.0-2.55","LF","pmz1eqhg0u","1366","768","0","1","0","5f1bfe98441e2743f34fa16a","","null","","","learningBlock1","","","","<div style=""font-size:60px;""> </div>","null","LF","learning/Slide56.JPG","This is a tob:","","",""
"html-keyboard-response","174","371720","0.0-5.0-0.56","LF","pmz1eqhg0u","1366","768","0","1","0","5f1bfe98441e2743f34fa16a","","null","","","learningBlock1","","","","This is a dep:","null","","","","","",""
"image-keyboard-response","175","372047","0.0-5.0-1.56","LF","pmz1eqhg0u","1366","768","0","1","0","5f1bfe98441e2743f34fa16a","","null","","","","","","","learning/Slide57.JPG","null","","","","","",""
"html-keyboard-response","176","373049","0.0-5.0-2.56","LF","pmz1eqhg0u","1366","768","0","1","0","5f1bfe98441e2743f34fa16a","","null","","","learningBlock1","","","","<div style=""font-size:60px;""> </div>","null","LF","learning/Slide57.JPG","This is a dep:","","",""
"html-keyboard-response","177","374052","0.0-5.0-0.57","LF","pmz1eqhg0u","1366","768","0","1","0","5f1bfe98441e2743f34fa16a","","null","","","learningBlock1","","","","This is a wug:","null","","","","","",""
"image-keyboard-response","178","374383","0.0-5.0-1.57","LF","pmz1eqhg0u","1366","768","0","1","0","5f1bfe98441e2743f34fa16a","","null","","","","","","","learning/Slide58.JPG","null","","","","","",""
"html-keyboard-response","179","375386","0.0-5.0-2.57","LF","pmz1eqhg0u","1366","768","0","1","0","5f1bfe98441e2743f34fa16a","","null","","","learningBlock1","","","","<div style=""font-size:60px;""> </div>","null","LF","learning/Slide58.JPG","This is a wug:","","",""
"html-keyboard-response","180","376388","0.0-5.0-0.58","LF","pmz1eqhg0u","1366","768","0","1","0","5f1bfe98441e2743f34fa16a","","null","","","learningBlock1","","","","This is a dep:","null","","","","","",""
"image-keyboard-response","181","376716","0.0-5.0-1.58","LF","pmz1eqhg0u","1366","768","0","1","0","5f1bfe98441e2743f34fa16a","","null","","","","","","","learning/Slide59.JPG","null","","","","","",""
"html-keyboard-response","182","377719","0.0-5.0-2.58","LF","pmz1eqhg0u","1366","768","0","1","0","5f1bfe98441e2743f34fa16a","","null","","","learningBlock1","","","","<div style=""font-size:60px;""> </div>","null","LF","learning/Slide59.JPG","This is a dep:","","",""
"html-keyboard-response","183","378721","0.0-5.0-0.59","LF","pmz1eqhg0u","1366","768","0","1","0","5f1bfe98441e2743f34fa16a","","null","","","learningBlock1","","","","This is a wug:","null","","","","","",""
"image-keyboard-response","184","379049","0.0-5.0-1.59","LF","pmz1eqhg0u","1366","768","0","1","0","5f1bfe98441e2743f34fa16a","","null","","","","","","","learning/Slide60.JPG","null","","","","","",""
"html-keyboard-response","185","380052","0.0-5.0-2.59","LF","pmz1eqhg0u","1366","768","0","1","0","5f1bfe98441e2743f34fa16a","","null","","","learningBlock1","","","","<div style=""font-size:60px;""> </div>","null","LF","learning/Slide60.JPG","This is a wug:","","",""
"html-keyboard-response","186","381054","0.0-5.0-0.60","LF","pmz1eqhg0u","1366","768","0","1","0","5f1bfe98441e2743f34fa16a","","null","","","learningBlock1","","","","This is a bim:","null","","","","","",""
"image-keyboard-response","187","381383","0.0-5.0-1.60","LF","pmz1eqhg0u","1366","768","0","1","0","5f1bfe98441e2743f34fa16a","","null","","","","","","","learning/Slide61.JPG","null","","","","","",""
"html-keyboard-response","188","382384","0.0-5.0-2.60","LF","pmz1eqhg0u","1366","768","0","1","0","5f1bfe98441e2743f34fa16a","","null","","","learningBlock1","","","","<div style=""font-size:60px;""> </div>","null","LF","learning/Slide61.JPG","This is a bim:","","",""
"html-keyboard-response","189","383387","0.0-5.0-0.61","LF","pmz1eqhg0u","1366","768","0","1","0","5f1bfe98441e2743f34fa16a","","null","","","learningBlock1","","","","This is a dep:","null","","","","","",""
"image-keyboard-response","190","383715","0.0-5.0-1.61","LF","pmz1eqhg0u","1366","768","0","1","0","5f1bfe98441e2743f34fa16a","","null","","","","","","","learning/Slide62.JPG","null","","","","","",""
"html-keyboard-response","191","384718","0.0-5.0-2.61","LF","pmz1eqhg0u","1366","768","0","1","0","5f1bfe98441e2743f34fa16a","","null","","","learningBlock1","","","","<div style=""font-size:60px;""> </div>","null","LF","learning/Slide62.JPG","This is a dep:","","",""
"html-keyboard-response","192","385721","0.0-5.0-0.62","LF","pmz1eqhg0u","1366","768","0","1","0","5f1bfe98441e2743f34fa16a","","null","","","learningBlock1","","","","This is a bim:","null","","","","","",""
"image-keyboard-response","193","386049","0.0-5.0-1.62","LF","pmz1eqhg0u","1366","768","0","1","0","5f1bfe98441e2743f34fa16a","","null","","","","","","","learning/Slide63.JPG","null","","","","","",""
"html-keyboard-response","194","387051","0.0-5.0-2.62","LF","pmz1eqhg0u","1366","768","0","1","0","5f1bfe98441e2743f34fa16a","","null","","","learningBlock1","","","","<div style=""font-size:60px;""> </div>","null","LF","learning/Slide63.JPG","This is a bim:","","",""
"html-keyboard-response","195","388054","0.0-5.0-0.63","LF","pmz1eqhg0u","1366","768","0","1","0","5f1bfe98441e2743f34fa16a","","null","","","learningBlock1","","","","This is a tob:","null","","","","","",""
"image-keyboard-response","196","388382","0.0-5.0-1.63","LF","pmz1eqhg0u","1366","768","0","1","0","5f1bfe98441e2743f34fa16a","","null","","","","","","","learning/Slide64.JPG","null","","","","","",""
"html-keyboard-response","197","389390","0.0-5.0-2.63","LF","pmz1eqhg0u","1366","768","0","1","0","5f1bfe98441e2743f34fa16a","","null","","","learningBlock1","","","","<div style=""font-size:60px;""> </div>","null","LF","learning/Slide64.JPG","This is a tob:","","",""
"html-keyboard-response","198","390391","0.0-5.0-0.64","LF","pmz1eqhg0u","1366","768","0","1","0","5f1bfe98441e2743f34fa16a","","null","","","learningBlock1","","","","This is a wug:","null","","","","","",""
"image-keyboard-response","199","390720","0.0-5.0-1.64","LF","pmz1eqhg0u","1366","768","0","1","0","5f1bfe98441e2743f34fa16a","","null","","","","","","","learning/Slide65.JPG","null","","","","","",""
"html-keyboard-response","200","391722","0.0-5.0-2.64","LF","pmz1eqhg0u","1366","768","0","1","0","5f1bfe98441e2743f34fa16a","","null","","","learningBlock1","","","","<div style=""font-size:60px;""> </div>","null","LF","learning/Slide65.JPG","This is a wug:","","",""
"html-keyboard-response","201","392726","0.0-5.0-0.65","LF","pmz1eqhg0u","1366","768","0","1","0","5f1bfe98441e2743f34fa16a","","null","","","learningBlock1","","","","This is a dep:","null","","","","","",""
"image-keyboard-response","202","393054","0.0-5.0-1.65","LF","pmz1eqhg0u","1366","768","0","1","0","5f1bfe98441e2743f34fa16a","","null","","","","","","","learning/Slide66.JPG","null","","","","","",""
"html-keyboard-response","203","394056","0.0-5.0-2.65","LF","pmz1eqhg0u","1366","768","0","1","0","5f1bfe98441e2743f34fa16a","","null","","","learningBlock1","","","","<div style=""font-size:60px;""> </div>","null","LF","learning/Slide66.JPG","This is a dep:","","",""
"html-keyboard-response","204","395058","0.0-5.0-0.66","LF","pmz1eqhg0u","1366","768","0","1","0","5f1bfe98441e2743f34fa16a","","null","","","learningBlock1","","","","This is a tob:","null","","","","","",""
"image-keyboard-response","205","395386","0.0-5.0-1.66","LF","pmz1eqhg0u","1366","768","0","1","0","5f1bfe98441e2743f34fa16a","","null","","","","","","","learning/Slide67.JPG","null","","","","","",""
"html-keyboard-response","206","396388","0.0-5.0-2.66","LF","pmz1eqhg0u","1366","768","0","1","0","5f1bfe98441e2743f34fa16a","","null","","","learningBlock1","","","","<div style=""font-size:60px;""> </div>","null","LF","learning/Slide67.JPG","This is a tob:","","",""
"html-keyboard-response","207","397391","0.0-5.0-0.67","LF","pmz1eqhg0u","1366","768","0","1","0","5f1bfe98441e2743f34fa16a","","null","","","learningBlock1","","","","This is a wug:","null","","","","","",""
"image-keyboard-response","208","397720","0.0-5.0-1.67","LF","pmz1eqhg0u","1366","768","0","1","0","5f1bfe98441e2743f34fa16a","","null","","","","","","","learning/Slide68.JPG","null","","","","","",""
"html-keyboard-response","209","398722","0.0-5.0-2.67","LF","pmz1eqhg0u","1366","768","0","1","0","5f1bfe98441e2743f34fa16a","","null","","","learningBlock1","","","","<div style=""font-size:60px;""> </div>","null","LF","learning/Slide68.JPG","This is a wug:","","",""
"html-keyboard-response","210","399724","0.0-5.0-0.68","LF","pmz1eqhg0u","1366","768","0","1","0","5f1bfe98441e2743f34fa16a","","null","","","learningBlock1","","","","This is a tob:","null","","","","","",""
"image-keyboard-response","211","400052","0.0-5.0-1.68","LF","pmz1eqhg0u","1366","768","0","1","0","5f1bfe98441e2743f34fa16a","","null","","","","","","","learning/Slide69.JPG","null","","","","","",""
"html-keyboard-response","212","401054","0.0-5.0-2.68","LF","pmz1eqhg0u","1366","768","0","1","0","5f1bfe98441e2743f34fa16a","","null","","","learningBlock1","","","","<div style=""font-size:60px;""> </div>","null","LF","learning/Slide69.JPG","This is a tob:","","",""
"html-keyboard-response","213","402057","0.0-5.0-0.69","LF","pmz1eqhg0u","1366","768","0","1","0","5f1bfe98441e2743f34fa16a","","null","","","learningBlock1","","","","This is a dep:","null","","","","","",""
"image-keyboard-response","214","402386","0.0-5.0-1.69","LF","pmz1eqhg0u","1366","768","0","1","0","5f1bfe98441e2743f34fa16a","","null","","","","","","","learning/Slide70.JPG","null","","","","","",""
"html-keyboard-response","215","403388","0.0-5.0-2.69","LF","pmz1eqhg0u","1366","768","0","1","0","5f1bfe98441e2743f34fa16a","","null","","","learningBlock1","","","","<div style=""font-size:60px;""> </div>","null","LF","learning/Slide70.JPG","This is a dep:","","",""
"html-keyboard-response","216","404391","0.0-5.0-0.70","LF","pmz1eqhg0u","1366","768","0","1","0","5f1bfe98441e2743f34fa16a","","null","","","learningBlock1","","","","This is a wug:","null","","","","","",""
"image-keyboard-response","217","404720","0.0-5.0-1.70","LF","pmz1eqhg0u","1366","768","0","1","0","5f1bfe98441e2743f34fa16a","","null","","","","","","","learning/Slide71.JPG","null","","","","","",""
"html-keyboard-response","218","405723","0.0-5.0-2.70","LF","pmz1eqhg0u","1366","768","0","1","0","5f1bfe98441e2743f34fa16a","","null","","","learningBlock1","","","","<div style=""font-size:60px;""> </div>","null","LF","learning/Slide71.JPG","This is a wug:","","",""
"html-keyboard-response","219","406726","0.0-5.0-0.71","LF","pmz1eqhg0u","1366","768","0","1","0","5f1bfe98441e2743f34fa16a","","null","","","learningBlock1","","","","This is a bim:","null","","","","","",""
"image-keyboard-response","220","407053","0.0-5.0-1.71","LF","pmz1eqhg0u","1366","768","0","1","0","5f1bfe98441e2743f34fa16a","","null","","","","","","","learning/Slide72.JPG","null","","","","","",""
"html-keyboard-response","221","408055","0.0-5.0-2.71","LF","pmz1eqhg0u","1366","768","0","1","0","5f1bfe98441e2743f34fa16a","","null","","","learningBlock1","","","","<div style=""font-size:60px;""> </div>","null","LF","learning/Slide72.JPG","This is a bim:","","",""
"html-keyboard-response","222","409059","0.0-5.0-0.72","LF","pmz1eqhg0u","1366","768","0","1","0","5f1bfe98441e2743f34fa16a","","null","","","learningBlock1","","","","This is a wug:","null","","","","","",""
"image-keyboard-response","223","409389","0.0-5.0-1.72","LF","pmz1eqhg0u","1366","768","0","1","0","5f1bfe98441e2743f34fa16a","","null","","","","","","","learning/Slide73.JPG","null","","","","","",""
"html-keyboard-response","224","410392","0.0-5.0-2.72","LF","pmz1eqhg0u","1366","768","0","1","0","5f1bfe98441e2743f34fa16a","","null","","","learningBlock1","","","","<div style=""font-size:60px;""> </div>","null","LF","learning/Slide73.JPG","This is a wug:","","",""
"html-keyboard-response","225","411394","0.0-5.0-0.73","LF","pmz1eqhg0u","1366","768","0","1","0","5f1bfe98441e2743f34fa16a","","null","","","learningBlock1","","","","This is a dep:","null","","","","","",""
"image-keyboard-response","226","411723","0.0-5.0-1.73","LF","pmz1eqhg0u","1366","768","0","1","0","5f1bfe98441e2743f34fa16a","","null","","","","","","","learning/Slide74.JPG","null","","","","","",""
"html-keyboard-response","227","412726","0.0-5.0-2.73","LF","pmz1eqhg0u","1366","768","0","1","0","5f1bfe98441e2743f34fa16a","","null","","","learningBlock1","","","","<div style=""font-size:60px;""> </div>","null","LF","learning/Slide74.JPG","This is a dep:","","",""
"html-keyboard-response","228","413727","0.0-5.0-0.74","LF","pmz1eqhg0u","1366","768","0","1","0","5f1bfe98441e2743f34fa16a","","null","","","learningBlock1","","","","This is a tob:","null","","","","","",""
"image-keyboard-response","229","414076","0.0-5.0-1.74","LF","pmz1eqhg0u","1366","768","0","1","0","5f1bfe98441e2743f34fa16a","","null","","","","","","","learning/Slide75.JPG","null","","","","","",""
"html-keyboard-response","230","415078","0.0-5.0-2.74","LF","pmz1eqhg0u","1366","768","0","1","0","5f1bfe98441e2743f34fa16a","","null","","","learningBlock1","","","","<div style=""font-size:60px;""> </div>","null","LF","learning/Slide75.JPG","This is a tob:","","",""
"html-keyboard-response","231","416081","0.0-5.0-0.75","LF","pmz1eqhg0u","1366","768","0","1","0","5f1bfe98441e2743f34fa16a","","null","","","learningBlock1","","","","This is a bim:","null","","","","","",""
"image-keyboard-response","232","416409","0.0-5.0-1.75","LF","pmz1eqhg0u","1366","768","0","1","0","5f1bfe98441e2743f34fa16a","","null","","","","","","","learning/Slide76.JPG","null","","","","","",""
"html-keyboard-response","233","417411","0.0-5.0-2.75","LF","pmz1eqhg0u","1366","768","0","1","0","5f1bfe98441e2743f34fa16a","","null","","","learningBlock1","","","","<div style=""font-size:60px;""> </div>","null","LF","learning/Slide76.JPG","This is a bim:","","",""
"html-keyboard-response","234","418414","0.0-5.0-0.76","LF","pmz1eqhg0u","1366","768","0","1","0","5f1bfe98441e2743f34fa16a","","null","","","learningBlock1","","","","This is a tob:","null","","","","","",""
"image-keyboard-response","235","418743","0.0-5.0-1.76","LF","pmz1eqhg0u","1366","768","0","1","0","5f1bfe98441e2743f34fa16a","","null","","","","","","","learning/Slide77.JPG","null","","","","","",""
"html-keyboard-response","236","419745","0.0-5.0-2.76","LF","pmz1eqhg0u","1366","768","0","1","0","5f1bfe98441e2743f34fa16a","","null","","","learningBlock1","","","","<div style=""font-size:60px;""> </div>","null","LF","learning/Slide77.JPG","This is a tob:","","",""
"html-keyboard-response","237","420748","0.0-5.0-0.77","LF","pmz1eqhg0u","1366","768","0","1","0","5f1bfe98441e2743f34fa16a","","null","","","learningBlock1","","","","This is a wug:","null","","","","","",""
"image-keyboard-response","238","421076","0.0-5.0-1.77","LF","pmz1eqhg0u","1366","768","0","1","0","5f1bfe98441e2743f34fa16a","","null","","","","","","","learning/Slide78.JPG","null","","","","","",""
"html-keyboard-response","239","422078","0.0-5.0-2.77","LF","pmz1eqhg0u","1366","768","0","1","0","5f1bfe98441e2743f34fa16a","","null","","","learningBlock1","","","","<div style=""font-size:60px;""> </div>","null","LF","learning/Slide78.JPG","This is a wug:","","",""
"html-keyboard-response","240","423080","0.0-5.0-0.78","LF","pmz1eqhg0u","1366","768","0","1","0","5f1bfe98441e2743f34fa16a","","null","","","learningBlock1","","","","This is a bim:","null","","","","","",""
"image-keyboard-response","241","423408","0.0-5.0-1.78","LF","pmz1eqhg0u","1366","768","0","1","0","5f1bfe98441e2743f34fa16a","","null","","","","","","","learning/Slide79.JPG","null","","","","","",""
"html-keyboard-response","242","424410","0.0-5.0-2.78","LF","pmz1eqhg0u","1366","768","0","1","0","5f1bfe98441e2743f34fa16a","","null","","","learningBlock1","","","","<div style=""font-size:60px;""> </div>","null","LF","learning/Slide79.JPG","This is a bim:","","",""
"html-keyboard-response","243","425412","0.0-5.0-0.79","LF","pmz1eqhg0u","1366","768","0","1","0","5f1bfe98441e2743f34fa16a","","null","","","learningBlock1","","","","This is a tob:","null","","","","","",""
"image-keyboard-response","244","425741","0.0-5.0-1.79","LF","pmz1eqhg0u","1366","768","0","1","0","5f1bfe98441e2743f34fa16a","","null","","","","","","","learning/Slide80.JPG","null","","","","","",""
"html-keyboard-response","245","426744","0.0-5.0-2.79","LF","pmz1eqhg0u","1366","768","0","1","0","5f1bfe98441e2743f34fa16a","","null","","","learningBlock1","","","","<div style=""font-size:60px;""> </div>","null","LF","learning/Slide80.JPG","This is a tob:","","",""
"instructions","246","433683","0.0-6.0","LF","pmz1eqhg0u","1366","768","0","1","0","5f1bfe98441e2743f34fa16a","","NA","","[{""page_index"":0,""viewing_time"":6938.200000033248}]","instructions","","","","","","","","","","",""
"html-keyboard-response","247","434686","0.0-7.0-0.0","LF","pmz1eqhg0u","1366","768","0","1","0","5f1bfe98441e2743f34fa16a","","null","","","learningBlock2","","","","This is a wug:","null","","","","","",""
"image-keyboard-response","248","435015","0.0-7.0-1.0","LF","pmz1eqhg0u","1366","768","0","1","0","5f1bfe98441e2743f34fa16a","","null","","","","","","","learning/Slide81.JPG","null","","","","","",""
"html-keyboard-response","249","436019","0.0-7.0-2.0","LF","pmz1eqhg0u","1366","768","0","1","0","5f1bfe98441e2743f34fa16a","","null","","","learningBlock2","","","","<div style=""font-size:60px;""> </div>","null","LF","learning/Slide81.JPG","This is a wug:","","",""
"html-keyboard-response","250","437021","0.0-7.0-0.1","LF","pmz1eqhg0u","1366","768","0","1","0","5f1bfe98441e2743f34fa16a","","null","","","learningBlock2","","","","This is a bim:","null","","","","","",""
"image-keyboard-response","251","437352","0.0-7.0-1.1","LF","pmz1eqhg0u","1366","768","0","1","0","5f1bfe98441e2743f34fa16a","","null","","","","","","","learning/Slide82.JPG","null","","","","","",""
"html-keyboard-response","252","438355","0.0-7.0-2.1","LF","pmz1eqhg0u","1366","768","0","1","0","5f1bfe98441e2743f34fa16a","","null","","","learningBlock2","","","","<div style=""font-size:60px;""> </div>","null","LF","learning/Slide82.JPG","This is a bim:","","",""
"html-keyboard-response","253","439357","0.0-7.0-0.2","LF","pmz1eqhg0u","1366","768","0","1","0","5f1bfe98441e2743f34fa16a","","null","","","learningBlock2","","","","This is a wug:","null","","","","","",""
"image-keyboard-response","254","439687","0.0-7.0-1.2","LF","pmz1eqhg0u","1366","768","0","1","0","5f1bfe98441e2743f34fa16a","","null","","","","","","","learning/Slide83.JPG","null","","","","","",""
"html-keyboard-response","255","440691","0.0-7.0-2.2","LF","pmz1eqhg0u","1366","768","0","1","0","5f1bfe98441e2743f34fa16a","","null","","","learningBlock2","","","","<div style=""font-size:60px;""> </div>","null","LF","learning/Slide83.JPG","This is a wug:","","",""
"html-keyboard-response","256","441693","0.0-7.0-0.3","LF","pmz1eqhg0u","1366","768","0","1","0","5f1bfe98441e2743f34fa16a","","null","","","learningBlock2","","","","This is a dep:","null","","","","","",""
"image-keyboard-response","257","442021","0.0-7.0-1.3","LF","pmz1eqhg0u","1366","768","0","1","0","5f1bfe98441e2743f34fa16a","","null","","","","","","","learning/Slide84.JPG","null","","","","","",""
"html-keyboard-response","258","443023","0.0-7.0-2.3","LF","pmz1eqhg0u","1366","768","0","1","0","5f1bfe98441e2743f34fa16a","","null","","","learningBlock2","","","","<div style=""font-size:60px;""> </div>","null","LF","learning/Slide84.JPG","This is a dep:","","",""
"html-keyboard-response","259","444028","0.0-7.0-0.4","LF","pmz1eqhg0u","1366","768","0","1","0","5f1bfe98441e2743f34fa16a","","null","","","learningBlock2","","","","This is a bim:","null","","","","","",""
"image-keyboard-response","260","444356","0.0-7.0-1.4","LF","pmz1eqhg0u","1366","768","0","1","0","5f1bfe98441e2743f34fa16a","","null","","","","","","","learning/Slide85.JPG","null","","","","","",""
"html-keyboard-response","261","445359","0.0-7.0-2.4","LF","pmz1eqhg0u","1366","768","0","1","0","5f1bfe98441e2743f34fa16a","","null","","","learningBlock2","","","","<div style=""font-size:60px;""> </div>","null","LF","learning/Slide85.JPG","This is a bim:","","",""
"html-keyboard-response","262","446361","0.0-7.0-0.5","LF","pmz1eqhg0u","1366","768","0","1","0","5f1bfe98441e2743f34fa16a","","null","","","learningBlock2","","","","This is a tob:","null","","","","","",""
"image-keyboard-response","263","446690","0.0-7.0-1.5","LF","pmz1eqhg0u","1366","768","0","1","0","5f1bfe98441e2743f34fa16a","","null","","","","","","","learning/Slide86.JPG","null","","","","","",""
"html-keyboard-response","264","447692","0.0-7.0-2.5","LF","pmz1eqhg0u","1366","768","0","1","0","5f1bfe98441e2743f34fa16a","","null","","","learningBlock2","","","","<div style=""font-size:60px;""> </div>","null","LF","learning/Slide86.JPG","This is a tob:","","",""
"html-keyboard-response","265","448693","0.0-7.0-0.6","LF","pmz1eqhg0u","1366","768","0","1","0","5f1bfe98441e2743f34fa16a","","null","","","learningBlock2","","","","This is a wug:","null","","","","","",""
"image-keyboard-response","266","449022","0.0-7.0-1.6","LF","pmz1eqhg0u","1366","768","0","1","0","5f1bfe98441e2743f34fa16a","","null","","","","","","","learning/Slide87.JPG","null","","","","","",""
"html-keyboard-response","267","450024","0.0-7.0-2.6","LF","pmz1eqhg0u","1366","768","0","1","0","5f1bfe98441e2743f34fa16a","","null","","","learningBlock2","","","","<div style=""font-size:60px;""> </div>","null","LF","learning/Slide87.JPG","This is a wug:","","",""
"html-keyboard-response","268","451026","0.0-7.0-0.7","LF","pmz1eqhg0u","1366","768","0","1","0","5f1bfe98441e2743f34fa16a","","null","","","learningBlock2","","","","This is a tob:","null","","","","","",""
"image-keyboard-response","269","451354","0.0-7.0-1.7","LF","pmz1eqhg0u","1366","768","0","1","0","5f1bfe98441e2743f34fa16a","","null","","","","","","","learning/Slide88.JPG","null","","","","","",""
"html-keyboard-response","270","452360","0.0-7.0-2.7","LF","pmz1eqhg0u","1366","768","0","1","0","5f1bfe98441e2743f34fa16a","","null","","","learningBlock2","","","","<div style=""font-size:60px;""> </div>","null","LF","learning/Slide88.JPG","This is a tob:","","",""
"html-keyboard-response","271","453362","0.0-7.0-0.8","LF","pmz1eqhg0u","1366","768","0","1","0","5f1bfe98441e2743f34fa16a","","null","","","learningBlock2","","","","This is a bim:","null","","","","","",""
"image-keyboard-response","272","453691","0.0-7.0-1.8","LF","pmz1eqhg0u","1366","768","0","1","0","5f1bfe98441e2743f34fa16a","","null","","","","","","","learning/Slide89.JPG","null","","","","","",""
"html-keyboard-response","273","454693","0.0-7.0-2.8","LF","pmz1eqhg0u","1366","768","0","1","0","5f1bfe98441e2743f34fa16a","","null","","","learningBlock2","","","","<div style=""font-size:60px;""> </div>","null","LF","learning/Slide89.JPG","This is a bim:","","",""
"html-keyboard-response","274","455696","0.0-7.0-0.9","LF","pmz1eqhg0u","1366","768","0","1","0","5f1bfe98441e2743f34fa16a","","null","","","learningBlock2","","","","This is a dep:","null","","","","","",""
"image-keyboard-response","275","456023","0.0-7.0-1.9","LF","pmz1eqhg0u","1366","768","0","1","0","5f1bfe98441e2743f34fa16a","","null","","","","","","","learning/Slide90.JPG","null","","","","","",""
"html-keyboard-response","276","457027","0.0-7.0-2.9","LF","pmz1eqhg0u","1366","768","0","1","0","5f1bfe98441e2743f34fa16a","","null","","","learningBlock2","","","","<div style=""font-size:60px;""> </div>","null","LF","learning/Slide90.JPG","This is a dep:","","",""
"html-keyboard-response","277","458028","0.0-7.0-0.10","LF","pmz1eqhg0u","1366","768","0","1","0","5f1bfe98441e2743f34fa16a","","null","","","learningBlock2","","","","This is a wug:","null","","","","","",""
"image-keyboard-response","278","458355","0.0-7.0-1.10","LF","pmz1eqhg0u","1366","768","0","1","0","5f1bfe98441e2743f34fa16a","","null","","","","","","","learning/Slide91.JPG","null","","","","","",""
"html-keyboard-response","279","459358","0.0-7.0-2.10","LF","pmz1eqhg0u","1366","768","0","1","0","5f1bfe98441e2743f34fa16a","","null","","","learningBlock2","","","","<div style=""font-size:60px;""> </div>","null","LF","learning/Slide91.JPG","This is a wug:","","",""
"html-keyboard-response","280","460359","0.0-7.0-0.11","LF","pmz1eqhg0u","1366","768","0","1","0","5f1bfe98441e2743f34fa16a","","null","","","learningBlock2","","","","This is a tob:","null","","","","","",""
"image-keyboard-response","281","460687","0.0-7.0-1.11","LF","pmz1eqhg0u","1366","768","0","1","0","5f1bfe98441e2743f34fa16a","","null","","","","","","","learning/Slide92.JPG","null","","","","","",""
"html-keyboard-response","282","461689","0.0-7.0-2.11","LF","pmz1eqhg0u","1366","768","0","1","0","5f1bfe98441e2743f34fa16a","","null","","","learningBlock2","","","","<div style=""font-size:60px;""> </div>","null","LF","learning/Slide92.JPG","This is a tob:","","",""
"html-keyboard-response","283","462691","0.0-7.0-0.12","LF","pmz1eqhg0u","1366","768","0","1","0","5f1bfe98441e2743f34fa16a","","null","","","learningBlock2","","","","This is a bim:","null","","","","","",""
"image-keyboard-response","284","463020","0.0-7.0-1.12","LF","pmz1eqhg0u","1366","768","0","1","0","5f1bfe98441e2743f34fa16a","","null","","","","","","","learning/Slide93.JPG","null","","","","","",""
"html-keyboard-response","285","464022","0.0-7.0-2.12","LF","pmz1eqhg0u","1366","768","0","1","0","5f1bfe98441e2743f34fa16a","","null","","","learningBlock2","","","","<div style=""font-size:60px;""> </div>","null","LF","learning/Slide93.JPG","This is a bim:","","",""
"html-keyboard-response","286","465025","0.0-7.0-0.13","LF","pmz1eqhg0u","1366","768","0","1","0","5f1bfe98441e2743f34fa16a","","null","","","learningBlock2","","","","This is a tob:","null","","","","","",""
"image-keyboard-response","287","465353","0.0-7.0-1.13","LF","pmz1eqhg0u","1366","768","0","1","0","5f1bfe98441e2743f34fa16a","","null","","","","","","","learning/Slide94.JPG","null","","","","","",""
"html-keyboard-response","288","466355","0.0-7.0-2.13","LF","pmz1eqhg0u","1366","768","0","1","0","5f1bfe98441e2743f34fa16a","","null","","","learningBlock2","","","","<div style=""font-size:60px;""> </div>","null","LF","learning/Slide94.JPG","This is a tob:","","",""
"html-keyboard-response","289","467357","0.0-7.0-0.14","LF","pmz1eqhg0u","1366","768","0","1","0","5f1bfe98441e2743f34fa16a","","null","","","learningBlock2","","","","This is a wug:","null","","","","","",""
"image-keyboard-response","290","467685","0.0-7.0-1.14","LF","pmz1eqhg0u","1366","768","0","1","0","5f1bfe98441e2743f34fa16a","","null","","","","","","","learning/Slide95.JPG","null","","","","","",""
"html-keyboard-response","291","468689","0.0-7.0-2.14","LF","pmz1eqhg0u","1366","768","0","1","0","5f1bfe98441e2743f34fa16a","","null","","","learningBlock2","","","","<div style=""font-size:60px;""> </div>","null","LF","learning/Slide95.JPG","This is a wug:","","",""
"html-keyboard-response","292","469691","0.0-7.0-0.15","LF","pmz1eqhg0u","1366","768","0","1","0","5f1bfe98441e2743f34fa16a","","null","","","learningBlock2","","","","This is a tob:","null","","","","","",""
"image-keyboard-response","293","470019","0.0-7.0-1.15","LF","pmz1eqhg0u","1366","768","0","1","0","5f1bfe98441e2743f34fa16a","","null","","","","","","","learning/Slide96.JPG","null","","","","","",""
"html-keyboard-response","294","471022","0.0-7.0-2.15","LF","pmz1eqhg0u","1366","768","0","1","0","5f1bfe98441e2743f34fa16a","","null","","","learningBlock2","","","","<div style=""font-size:60px;""> </div>","null","LF","learning/Slide96.JPG","This is a tob:","","",""
"html-keyboard-response","295","472024","0.0-7.0-0.16","LF","pmz1eqhg0u","1366","768","0","1","0","5f1bfe98441e2743f34fa16a","","null","","","learningBlock2","","","","This is a dep:","null","","","","","",""
"image-keyboard-response","296","472353","0.0-7.0-1.16","LF","pmz1eqhg0u","1366","768","0","1","0","5f1bfe98441e2743f34fa16a","","null","","","","","","","learning/Slide97.JPG","null","","","","","",""
"html-keyboard-response","297","473356","0.0-7.0-2.16","LF","pmz1eqhg0u","1366","768","0","1","0","5f1bfe98441e2743f34fa16a","","null","","","learningBlock2","","","","<div style=""font-size:60px;""> </div>","null","LF","learning/Slide97.JPG","This is a dep:","","",""
"html-keyboard-response","298","474359","0.0-7.0-0.17","LF","pmz1eqhg0u","1366","768","0","1","0","5f1bfe98441e2743f34fa16a","","null","","","learningBlock2","","","","This is a bim:","null","","","","","",""
"image-keyboard-response","299","474688","0.0-7.0-1.17","LF","pmz1eqhg0u","1366","768","0","1","0","5f1bfe98441e2743f34fa16a","","null","","","","","","","learning/Slide98.JPG","null","","","","","",""
"html-keyboard-response","300","475691","0.0-7.0-2.17","LF","pmz1eqhg0u","1366","768","0","1","0","5f1bfe98441e2743f34fa16a","","null","","","learningBlock2","","","","<div style=""font-size:60px;""> </div>","null","LF","learning/Slide98.JPG","This is a bim:","","",""
"html-keyboard-response","301","476693","0.0-7.0-0.18","LF","pmz1eqhg0u","1366","768","0","1","0","5f1bfe98441e2743f34fa16a","","null","","","learningBlock2","","","","This is a dep:","null","","","","","",""
"image-keyboard-response","302","477021","0.0-7.0-1.18","LF","pmz1eqhg0u","1366","768","0","1","0","5f1bfe98441e2743f34fa16a","","null","","","","","","","learning/Slide99.JPG","null","","","","","",""
"html-keyboard-response","303","478023","0.0-7.0-2.18","LF","pmz1eqhg0u","1366","768","0","1","0","5f1bfe98441e2743f34fa16a","","null","","","learningBlock2","","","","<div style=""font-size:60px;""> </div>","null","LF","learning/Slide99.JPG","This is a dep:","","",""
"html-keyboard-response","304","479026","0.0-7.0-0.19","LF","pmz1eqhg0u","1366","768","0","1","0","5f1bfe98441e2743f34fa16a","","null","","","learningBlock2","","","","This is a bim:","null","","","","","",""
"image-keyboard-response","305","479355","0.0-7.0-1.19","LF","pmz1eqhg0u","1366","768","0","1","0","5f1bfe98441e2743f34fa16a","","null","","","","","","","learning/Slide100.JPG","null","","","","","",""
"html-keyboard-response","306","480357","0.0-7.0-2.19","LF","pmz1eqhg0u","1366","768","0","1","0","5f1bfe98441e2743f34fa16a","","null","","","learningBlock2","","","","<div style=""font-size:60px;""> </div>","null","LF","learning/Slide100.JPG","This is a bim:","","",""
"html-keyboard-response","307","481359","0.0-7.0-0.20","LF","pmz1eqhg0u","1366","768","0","1","0","5f1bfe98441e2743f34fa16a","","null","","","learningBlock2","","","","This is a tob:","null","","","","","",""
"image-keyboard-response","308","481687","0.0-7.0-1.20","LF","pmz1eqhg0u","1366","768","0","1","0","5f1bfe98441e2743f34fa16a","","null","","","","","","","learning/Slide101.JPG","null","","","","","",""
"html-keyboard-response","309","482690","0.0-7.0-2.20","LF","pmz1eqhg0u","1366","768","0","1","0","5f1bfe98441e2743f34fa16a","","null","","","learningBlock2","","","","<div style=""font-size:60px;""> </div>","null","LF","learning/Slide101.JPG","This is a tob:","","",""
"html-keyboard-response","310","483692","0.0-7.0-0.21","LF","pmz1eqhg0u","1366","768","0","1","0","5f1bfe98441e2743f34fa16a","","null","","","learningBlock2","","","","This is a bim:","null","","","","","",""
"image-keyboard-response","311","484020","0.0-7.0-1.21","LF","pmz1eqhg0u","1366","768","0","1","0","5f1bfe98441e2743f34fa16a","","null","","","","","","","learning/Slide102.JPG","null","","","","","",""
"html-keyboard-response","312","485023","0.0-7.0-2.21","LF","pmz1eqhg0u","1366","768","0","1","0","5f1bfe98441e2743f34fa16a","","null","","","learningBlock2","","","","<div style=""font-size:60px;""> </div>","null","LF","learning/Slide102.JPG","This is a bim:","","",""
"html-keyboard-response","313","486026","0.0-7.0-0.22","LF","pmz1eqhg0u","1366","768","0","1","0","5f1bfe98441e2743f34fa16a","","null","","","learningBlock2","","","","This is a dep:","null","","","","","",""
"image-keyboard-response","314","486354","0.0-7.0-1.22","LF","pmz1eqhg0u","1366","768","0","1","0","5f1bfe98441e2743f34fa16a","","null","","","","","","","learning/Slide103.JPG","null","","","","","",""
"html-keyboard-response","315","487356","0.0-7.0-2.22","LF","pmz1eqhg0u","1366","768","0","1","0","5f1bfe98441e2743f34fa16a","","null","","","learningBlock2","","","","<div style=""font-size:60px;""> </div>","null","LF","learning/Slide103.JPG","This is a dep:","","",""
"html-keyboard-response","316","488358","0.0-7.0-0.23","LF","pmz1eqhg0u","1366","768","0","1","0","5f1bfe98441e2743f34fa16a","","null","","","learningBlock2","","","","This is a tob:","null","","","","","",""
"image-keyboard-response","317","488686","0.0-7.0-1.23","LF","pmz1eqhg0u","1366","768","0","1","0","5f1bfe98441e2743f34fa16a","","null","","","","","","","learning/Slide104.JPG","null","","","","","",""
"html-keyboard-response","318","489689","0.0-7.0-2.23","LF","pmz1eqhg0u","1366","768","0","1","0","5f1bfe98441e2743f34fa16a","","null","","","learningBlock2","","","","<div style=""font-size:60px;""> </div>","null","LF","learning/Slide104.JPG","This is a tob:","","",""
"html-keyboard-response","319","490691","0.0-7.0-0.24","LF","pmz1eqhg0u","1366","768","0","1","0","5f1bfe98441e2743f34fa16a","","null","","","learningBlock2","","","","This is a dep:","null","","","","","",""
"image-keyboard-response","320","491019","0.0-7.0-1.24","LF","pmz1eqhg0u","1366","768","0","1","0","5f1bfe98441e2743f34fa16a","","null","","","","","","","learning/Slide105.JPG","null","","","","","",""
"html-keyboard-response","321","492021","0.0-7.0-2.24","LF","pmz1eqhg0u","1366","768","0","1","0","5f1bfe98441e2743f34fa16a","","null","","","learningBlock2","","","","<div style=""font-size:60px;""> </div>","null","LF","learning/Slide105.JPG","This is a dep:","","",""
"html-keyboard-response","322","493023","0.0-7.0-0.25","LF","pmz1eqhg0u","1366","768","0","1","0","5f1bfe98441e2743f34fa16a","","null","","","learningBlock2","","","","This is a wug:","null","","","","","",""
"image-keyboard-response","323","493352","0.0-7.0-1.25","LF","pmz1eqhg0u","1366","768","0","1","0","5f1bfe98441e2743f34fa16a","","null","","","","","","","learning/Slide106.JPG","null","","","","","",""
"html-keyboard-response","324","494354","0.0-7.0-2.25","LF","pmz1eqhg0u","1366","768","0","1","0","5f1bfe98441e2743f34fa16a","","null","","","learningBlock2","","","","<div style=""font-size:60px;""> </div>","null","LF","learning/Slide106.JPG","This is a wug:","","",""
"html-keyboard-response","325","495357","0.0-7.0-0.26","LF","pmz1eqhg0u","1366","768","0","1","0","5f1bfe98441e2743f34fa16a","","null","","","learningBlock2","","","","This is a bim:","null","","","","","",""
"image-keyboard-response","326","495685","0.0-7.0-1.26","LF","pmz1eqhg0u","1366","768","0","1","0","5f1bfe98441e2743f34fa16a","","null","","","","","","","learning/Slide107.JPG","null","","","","","",""
"html-keyboard-response","327","496688","0.0-7.0-2.26","LF","pmz1eqhg0u","1366","768","0","1","0","5f1bfe98441e2743f34fa16a","","null","","","learningBlock2","","","","<div style=""font-size:60px;""> </div>","null","LF","learning/Slide107.JPG","This is a bim:","","",""
"html-keyboard-response","328","497690","0.0-7.0-0.27","LF","pmz1eqhg0u","1366","768","0","1","0","5f1bfe98441e2743f34fa16a","","null","","","learningBlock2","","","","This is a dep:","null","","","","","",""
"image-keyboard-response","329","498018","0.0-7.0-1.27","LF","pmz1eqhg0u","1366","768","0","1","0","5f1bfe98441e2743f34fa16a","","null","","","","","","","learning/Slide108.JPG","null","","","","","",""
"html-keyboard-response","330","499021","0.0-7.0-2.27","LF","pmz1eqhg0u","1366","768","0","1","0","5f1bfe98441e2743f34fa16a","","null","","","learningBlock2","","","","<div style=""font-size:60px;""> </div>","null","LF","learning/Slide108.JPG","This is a dep:","","",""
"html-keyboard-response","331","500023","0.0-7.0-0.28","LF","pmz1eqhg0u","1366","768","0","1","0","5f1bfe98441e2743f34fa16a","","null","","","learningBlock2","","","","This is a wug:","null","","","","","",""
"image-keyboard-response","332","500351","0.0-7.0-1.28","LF","pmz1eqhg0u","1366","768","0","1","0","5f1bfe98441e2743f34fa16a","","null","","","","","","","learning/Slide109.JPG","null","","","","","",""
"html-keyboard-response","333","501354","0.0-7.0-2.28","LF","pmz1eqhg0u","1366","768","0","1","0","5f1bfe98441e2743f34fa16a","","null","","","learningBlock2","","","","<div style=""font-size:60px;""> </div>","null","LF","learning/Slide109.JPG","This is a wug:","","",""
"html-keyboard-response","334","502357","0.0-7.0-0.29","LF","pmz1eqhg0u","1366","768","0","1","0","5f1bfe98441e2743f34fa16a","","null","","","learningBlock2","","","","This is a bim:","null","","","","","",""
"image-keyboard-response","335","502685","0.0-7.0-1.29","LF","pmz1eqhg0u","1366","768","0","1","0","5f1bfe98441e2743f34fa16a","","null","","","","","","","learning/Slide110.JPG","null","","","","","",""
"html-keyboard-response","336","503688","0.0-7.0-2.29","LF","pmz1eqhg0u","1366","768","0","1","0","5f1bfe98441e2743f34fa16a","","null","","","learningBlock2","","","","<div style=""font-size:60px;""> </div>","null","LF","learning/Slide110.JPG","This is a bim:","","",""
"html-keyboard-response","337","504689","0.0-7.0-0.30","LF","pmz1eqhg0u","1366","768","0","1","0","5f1bfe98441e2743f34fa16a","","null","","","learningBlock2","","","","This is a tob:","null","","","","","",""
"image-keyboard-response","338","505016","0.0-7.0-1.30","LF","pmz1eqhg0u","1366","768","0","1","0","5f1bfe98441e2743f34fa16a","","null","","","","","","","learning/Slide111.JPG","null","","","","","",""
"html-keyboard-response","339","506019","0.0-7.0-2.30","LF","pmz1eqhg0u","1366","768","0","1","0","5f1bfe98441e2743f34fa16a","","null","","","learningBlock2","","","","<div style=""font-size:60px;""> </div>","null","LF","learning/Slide111.JPG","This is a tob:","","",""
"html-keyboard-response","340","507021","0.0-7.0-0.31","LF","pmz1eqhg0u","1366","768","0","1","0","5f1bfe98441e2743f34fa16a","","null","","","learningBlock2","","","","This is a wug:","null","","","","","",""
"image-keyboard-response","341","507349","0.0-7.0-1.31","LF","pmz1eqhg0u","1366","768","0","1","0","5f1bfe98441e2743f34fa16a","","null","","","","","","","learning/Slide112.JPG","null","","","","","",""
"html-keyboard-response","342","508353","0.0-7.0-2.31","LF","pmz1eqhg0u","1366","768","0","1","0","5f1bfe98441e2743f34fa16a","","null","","","learningBlock2","","","","<div style=""font-size:60px;""> </div>","null","LF","learning/Slide112.JPG","This is a wug:","","",""
"html-keyboard-response","343","509355","0.0-7.0-0.32","LF","pmz1eqhg0u","1366","768","0","1","0","5f1bfe98441e2743f34fa16a","","null","","","learningBlock2","","","","This is a tob:","null","","","","","",""
"image-keyboard-response","344","509683","0.0-7.0-1.32","LF","pmz1eqhg0u","1366","768","0","1","0","5f1bfe98441e2743f34fa16a","","null","","","","","","","learning/Slide113.JPG","null","","","","","",""
"html-keyboard-response","345","510686","0.0-7.0-2.32","LF","pmz1eqhg0u","1366","768","0","1","0","5f1bfe98441e2743f34fa16a","","null","","","learningBlock2","","","","<div style=""font-size:60px;""> </div>","null","LF","learning/Slide113.JPG","This is a tob:","","",""
"html-keyboard-response","346","511688","0.0-7.0-0.33","LF","pmz1eqhg0u","1366","768","0","1","0","5f1bfe98441e2743f34fa16a","","null","","","learningBlock2","","","","This is a wug:","null","","","","","",""
"image-keyboard-response","347","512017","0.0-7.0-1.33","LF","pmz1eqhg0u","1366","768","0","1","0","5f1bfe98441e2743f34fa16a","","null","","","","","","","learning/Slide114.JPG","null","","","","","",""
"html-keyboard-response","348","513019","0.0-7.0-2.33","LF","pmz1eqhg0u","1366","768","0","1","0","5f1bfe98441e2743f34fa16a","","null","","","learningBlock2","","","","<div style=""font-size:60px;""> </div>","null","LF","learning/Slide114.JPG","This is a wug:","","",""
"html-keyboard-response","349","514021","0.0-7.0-0.34","LF","pmz1eqhg0u","1366","768","0","1","0","5f1bfe98441e2743f34fa16a","","null","","","learningBlock2","","","","This is a bim:","null","","","","","",""
"image-keyboard-response","350","514349","0.0-7.0-1.34","LF","pmz1eqhg0u","1366","768","0","1","0","5f1bfe98441e2743f34fa16a","","null","","","","","","","learning/Slide115.JPG","null","","","","","",""
"html-keyboard-response","351","515353","0.0-7.0-2.34","LF","pmz1eqhg0u","1366","768","0","1","0","5f1bfe98441e2743f34fa16a","","null","","","learningBlock2","","","","<div style=""font-size:60px;""> </div>","null","LF","learning/Slide115.JPG","This is a bim:","","",""
"html-keyboard-response","352","516356","0.0-7.0-0.35","LF","pmz1eqhg0u","1366","768","0","1","0","5f1bfe98441e2743f34fa16a","","null","","","learningBlock2","","","","This is a dep:","null","","","","","",""
"image-keyboard-response","353","516684","0.0-7.0-1.35","LF","pmz1eqhg0u","1366","768","0","1","0","5f1bfe98441e2743f34fa16a","","null","","","","","","","learning/Slide116.JPG","null","","","","","",""
"html-keyboard-response","354","517686","0.0-7.0-2.35","LF","pmz1eqhg0u","1366","768","0","1","0","5f1bfe98441e2743f34fa16a","","null","","","learningBlock2","","","","<div style=""font-size:60px;""> </div>","null","LF","learning/Slide116.JPG","This is a dep:","","",""
"html-keyboard-response","355","518689","0.0-7.0-0.36","LF","pmz1eqhg0u","1366","768","0","1","0","5f1bfe98441e2743f34fa16a","","null","","","learningBlock2","","","","This is a tob:","null","","","","","",""
"image-keyboard-response","356","519017","0.0-7.0-1.36","LF","pmz1eqhg0u","1366","768","0","1","0","5f1bfe98441e2743f34fa16a","","null","","","","","","","learning/Slide117.JPG","null","","","","","",""
"html-keyboard-response","357","520020","0.0-7.0-2.36","LF","pmz1eqhg0u","1366","768","0","1","0","5f1bfe98441e2743f34fa16a","","null","","","learningBlock2","","","","<div style=""font-size:60px;""> </div>","null","LF","learning/Slide117.JPG","This is a tob:","","",""
"html-keyboard-response","358","521022","0.0-7.0-0.37","LF","pmz1eqhg0u","1366","768","0","1","0","5f1bfe98441e2743f34fa16a","","null","","","learningBlock2","","","","This is a dep:","null","","","","","",""
"image-keyboard-response","359","521349","0.0-7.0-1.37","LF","pmz1eqhg0u","1366","768","0","1","0","5f1bfe98441e2743f34fa16a","","null","","","","","","","learning/Slide118.JPG","null","","","","","",""
"html-keyboard-response","360","522352","0.0-7.0-2.37","LF","pmz1eqhg0u","1366","768","0","1","0","5f1bfe98441e2743f34fa16a","","null","","","learningBlock2","","","","<div style=""font-size:60px;""> </div>","null","LF","learning/Slide118.JPG","This is a dep:","","",""
"html-keyboard-response","361","523354","0.0-7.0-0.38","LF","pmz1eqhg0u","1366","768","0","1","0","5f1bfe98441e2743f34fa16a","","null","","","learningBlock2","","","","This is a wug:","null","","","","","",""
"image-keyboard-response","362","523684","0.0-7.0-1.38","LF","pmz1eqhg0u","1366","768","0","1","0","5f1bfe98441e2743f34fa16a","","null","","","","","","","learning/Slide119.JPG","null","","","","","",""
"html-keyboard-response","363","524687","0.0-7.0-2.38","LF","pmz1eqhg0u","1366","768","0","1","0","5f1bfe98441e2743f34fa16a","","null","","","learningBlock2","","","","<div style=""font-size:60px;""> </div>","null","LF","learning/Slide119.JPG","This is a wug:","","",""
"html-keyboard-response","364","525689","0.0-7.0-0.39","LF","pmz1eqhg0u","1366","768","0","1","0","5f1bfe98441e2743f34fa16a","","null","","","learningBlock2","","","","This is a dep:","null","","","","","",""
"image-keyboard-response","365","526018","0.0-7.0-1.39","LF","pmz1eqhg0u","1366","768","0","1","0","5f1bfe98441e2743f34fa16a","","null","","","","","","","learning/Slide120.JPG","null","","","","","",""
"html-keyboard-response","366","527021","0.0-7.0-2.39","LF","pmz1eqhg0u","1366","768","0","1","0","5f1bfe98441e2743f34fa16a","","null","","","learningBlock2","","","","<div style=""font-size:60px;""> </div>","null","LF","learning/Slide120.JPG","This is a dep:","","",""
"html-keyboard-response","367","528023","0.0-7.0-0.40","LF","pmz1eqhg0u","1366","768","0","1","0","5f1bfe98441e2743f34fa16a","","null","","","learningBlock2","","","","This is a bim:","null","","","","","",""
"image-keyboard-response","368","528351","0.0-7.0-1.40","LF","pmz1eqhg0u","1366","768","0","1","0","5f1bfe98441e2743f34fa16a","","null","","","","","","","learning/Slide121.JPG","null","","","","","",""
"html-keyboard-response","369","529353","0.0-7.0-2.40","LF","pmz1eqhg0u","1366","768","0","1","0","5f1bfe98441e2743f34fa16a","","null","","","learningBlock2","","","","<div style=""font-size:60px;""> </div>","null","LF","learning/Slide121.JPG","This is a bim:","","",""
"html-keyboard-response","370","530355","0.0-7.0-0.41","LF","pmz1eqhg0u","1366","768","0","1","0","5f1bfe98441e2743f34fa16a","","null","","","learningBlock2","","","","This is a wug:","null","","","","","",""
"image-keyboard-response","371","530685","0.0-7.0-1.41","LF","pmz1eqhg0u","1366","768","0","1","0","5f1bfe98441e2743f34fa16a","","null","","","","","","","learning/Slide122.JPG","null","","","","","",""
"html-keyboard-response","372","531687","0.0-7.0-2.41","LF","pmz1eqhg0u","1366","768","0","1","0","5f1bfe98441e2743f34fa16a","","null","","","learningBlock2","","","","<div style=""font-size:60px;""> </div>","null","LF","learning/Slide122.JPG","This is a wug:","","",""
"html-keyboard-response","373","532689","0.0-7.0-0.42","LF","pmz1eqhg0u","1366","768","0","1","0","5f1bfe98441e2743f34fa16a","","null","","","learningBlock2","","","","This is a bim:","null","","","","","",""
"image-keyboard-response","374","533017","0.0-7.0-1.42","LF","pmz1eqhg0u","1366","768","0","1","0","5f1bfe98441e2743f34fa16a","","null","","","","","","","learning/Slide123.JPG","null","","","","","",""
"html-keyboard-response","375","534020","0.0-7.0-2.42","LF","pmz1eqhg0u","1366","768","0","1","0","5f1bfe98441e2743f34fa16a","","null","","","learningBlock2","","","","<div style=""font-size:60px;""> </div>","null","LF","learning/Slide123.JPG","This is a bim:","","",""
"html-keyboard-response","376","535022","0.0-7.0-0.43","LF","pmz1eqhg0u","1366","768","0","1","0","5f1bfe98441e2743f34fa16a","","null","","","learningBlock2","","","","This is a tob:","null","","","","","",""
"image-keyboard-response","377","535350","0.0-7.0-1.43","LF","pmz1eqhg0u","1366","768","0","1","0","5f1bfe98441e2743f34fa16a","","null","","","","","","","learning/Slide124.JPG","null","","","","","",""
"html-keyboard-response","378","536353","0.0-7.0-2.43","LF","pmz1eqhg0u","1366","768","0","1","0","5f1bfe98441e2743f34fa16a","","null","","","learningBlock2","","","","<div style=""font-size:60px;""> </div>","null","LF","learning/Slide124.JPG","This is a tob:","","",""
"html-keyboard-response","379","537355","0.0-7.0-0.44","LF","pmz1eqhg0u","1366","768","0","1","0","5f1bfe98441e2743f34fa16a","","null","","","learningBlock2","","","","This is a bim:","null","","","","","",""
"image-keyboard-response","380","537684","0.0-7.0-1.44","LF","pmz1eqhg0u","1366","768","0","1","0","5f1bfe98441e2743f34fa16a","","null","","","","","","","learning/Slide125.JPG","null","","","","","",""
"html-keyboard-response","381","538687","0.0-7.0-2.44","LF","pmz1eqhg0u","1366","768","0","1","0","5f1bfe98441e2743f34fa16a","","null","","","learningBlock2","","","","<div style=""font-size:60px;""> </div>","null","LF","learning/Slide125.JPG","This is a bim:","","",""
"html-keyboard-response","382","539689","0.0-7.0-0.45","LF","pmz1eqhg0u","1366","768","0","1","0","5f1bfe98441e2743f34fa16a","","null","","","learningBlock2","","","","This is a tob:","null","","","","","",""
"image-keyboard-response","383","540016","0.0-7.0-1.45","LF","pmz1eqhg0u","1366","768","0","1","0","5f1bfe98441e2743f34fa16a","","null","","","","","","","learning/Slide126.JPG","null","","","","","",""
"html-keyboard-response","384","541018","0.0-7.0-2.45","LF","pmz1eqhg0u","1366","768","0","1","0","5f1bfe98441e2743f34fa16a","","null","","","learningBlock2","","","","<div style=""font-size:60px;""> </div>","null","LF","learning/Slide126.JPG","This is a tob:","","",""
"html-keyboard-response","385","542020","0.0-7.0-0.46","LF","pmz1eqhg0u","1366","768","0","1","0","5f1bfe98441e2743f34fa16a","","null","","","learningBlock2","","","","This is a dep:","null","","","","","",""
"image-keyboard-response","386","542348","0.0-7.0-1.46","LF","pmz1eqhg0u","1366","768","0","1","0","5f1bfe98441e2743f34fa16a","","null","","","","","","","learning/Slide127.JPG","null","","","","","",""
"html-keyboard-response","387","543350","0.0-7.0-2.46","LF","pmz1eqhg0u","1366","768","0","1","0","5f1bfe98441e2743f34fa16a","","null","","","learningBlock2","","","","<div style=""font-size:60px;""> </div>","null","LF","learning/Slide127.JPG","This is a dep:","","",""
"html-keyboard-response","388","544352","0.0-7.0-0.47","LF","pmz1eqhg0u","1366","768","0","1","0","5f1bfe98441e2743f34fa16a","","null","","","learningBlock2","","","","This is a wug:","null","","","","","",""
"image-keyboard-response","389","544681","0.0-7.0-1.47","LF","pmz1eqhg0u","1366","768","0","1","0","5f1bfe98441e2743f34fa16a","","null","","","","","","","learning/Slide128.JPG","null","","","","","",""
"html-keyboard-response","390","545683","0.0-7.0-2.47","LF","pmz1eqhg0u","1366","768","0","1","0","5f1bfe98441e2743f34fa16a","","null","","","learningBlock2","","","","<div style=""font-size:60px;""> </div>","null","LF","learning/Slide128.JPG","This is a wug:","","",""
"html-keyboard-response","391","546687","0.0-7.0-0.48","LF","pmz1eqhg0u","1366","768","0","1","0","5f1bfe98441e2743f34fa16a","","null","","","learningBlock2","","","","This is a tob:","null","","","","","",""
"image-keyboard-response","392","547015","0.0-7.0-1.48","LF","pmz1eqhg0u","1366","768","0","1","0","5f1bfe98441e2743f34fa16a","","null","","","","","","","learning/Slide129.JPG","null","","","","","",""
"html-keyboard-response","393","548017","0.0-7.0-2.48","LF","pmz1eqhg0u","1366","768","0","1","0","5f1bfe98441e2743f34fa16a","","null","","","learningBlock2","","","","<div style=""font-size:60px;""> </div>","null","LF","learning/Slide129.JPG","This is a tob:","","",""
"html-keyboard-response","394","549018","0.0-7.0-0.49","LF","pmz1eqhg0u","1366","768","0","1","0","5f1bfe98441e2743f34fa16a","","null","","","learningBlock2","","","","This is a wug:","null","","","","","",""
"image-keyboard-response","395","549347","0.0-7.0-1.49","LF","pmz1eqhg0u","1366","768","0","1","0","5f1bfe98441e2743f34fa16a","","null","","","","","","","learning/Slide130.JPG","null","","","","","",""
"html-keyboard-response","396","550350","0.0-7.0-2.49","LF","pmz1eqhg0u","1366","768","0","1","0","5f1bfe98441e2743f34fa16a","","null","","","learningBlock2","","","","<div style=""font-size:60px;""> </div>","null","LF","learning/Slide130.JPG","This is a wug:","","",""
"html-keyboard-response","397","551352","0.0-7.0-0.50","LF","pmz1eqhg0u","1366","768","0","1","0","5f1bfe98441e2743f34fa16a","","null","","","learningBlock2","","","","This is a bim:","null","","","","","",""
"image-keyboard-response","398","551681","0.0-7.0-1.50","LF","pmz1eqhg0u","1366","768","0","1","0","5f1bfe98441e2743f34fa16a","","null","","","","","","","learning/Slide131.JPG","null","","","","","",""
"html-keyboard-response","399","552683","0.0-7.0-2.50","LF","pmz1eqhg0u","1366","768","0","1","0","5f1bfe98441e2743f34fa16a","","null","","","learningBlock2","","","","<div style=""font-size:60px;""> </div>","null","LF","learning/Slide131.JPG","This is a bim:","","",""
"html-keyboard-response","400","553686","0.0-7.0-0.51","LF","pmz1eqhg0u","1366","768","0","1","0","5f1bfe98441e2743f34fa16a","","null","","","learningBlock2","","","","This is a dep:","null","","","","","",""
"image-keyboard-response","401","554015","0.0-7.0-1.51","LF","pmz1eqhg0u","1366","768","0","1","0","5f1bfe98441e2743f34fa16a","","null","","","","","","","learning/Slide132.JPG","null","","","","","",""
"html-keyboard-response","402","555017","0.0-7.0-2.51","LF","pmz1eqhg0u","1366","768","0","1","0","5f1bfe98441e2743f34fa16a","","null","","","learningBlock2","","","","<div style=""font-size:60px;""> </div>","null","LF","learning/Slide132.JPG","This is a dep:","","",""
"html-keyboard-response","403","556019","0.0-7.0-0.52","LF","pmz1eqhg0u","1366","768","0","1","0","5f1bfe98441e2743f34fa16a","","null","","","learningBlock2","","","","This is a tob:","null","","","","","",""
"image-keyboard-response","404","556352","0.0-7.0-1.52","LF","pmz1eqhg0u","1366","768","0","1","0","5f1bfe98441e2743f34fa16a","","null","","","","","","","learning/Slide133.JPG","null","","","","","",""
"html-keyboard-response","405","557355","0.0-7.0-2.52","LF","pmz1eqhg0u","1366","768","0","1","0","5f1bfe98441e2743f34fa16a","","null","","","learningBlock2","","","","<div style=""font-size:60px;""> </div>","null","LF","learning/Slide133.JPG","This is a tob:","","",""
"html-keyboard-response","406","558358","0.0-7.0-0.53","LF","pmz1eqhg0u","1366","768","0","1","0","5f1bfe98441e2743f34fa16a","","null","","","learningBlock2","","","","This is a dep:","null","","","","","",""
"image-keyboard-response","407","558685","0.0-7.0-1.53","LF","pmz1eqhg0u","1366","768","0","1","0","5f1bfe98441e2743f34fa16a","","null","","","","","","","learning/Slide134.JPG","null","","","","","",""
"html-keyboard-response","408","559687","0.0-7.0-2.53","LF","pmz1eqhg0u","1366","768","0","1","0","5f1bfe98441e2743f34fa16a","","null","","","learningBlock2","","","","<div style=""font-size:60px;""> </div>","null","LF","learning/Slide134.JPG","This is a dep:","","",""
"html-keyboard-response","409","560689","0.0-7.0-0.54","LF","pmz1eqhg0u","1366","768","0","1","0","5f1bfe98441e2743f34fa16a","","null","","","learningBlock2","","","","This is a tob:","null","","","","","",""
"image-keyboard-response","410","561017","0.0-7.0-1.54","LF","pmz1eqhg0u","1366","768","0","1","0","5f1bfe98441e2743f34fa16a","","null","","","","","","","learning/Slide135.JPG","null","","","","","",""
"html-keyboard-response","411","562019","0.0-7.0-2.54","LF","pmz1eqhg0u","1366","768","0","1","0","5f1bfe98441e2743f34fa16a","","null","","","learningBlock2","","","","<div style=""font-size:60px;""> </div>","null","LF","learning/Slide135.JPG","This is a tob:","","",""
"html-keyboard-response","412","563021","0.0-7.0-0.55","LF","pmz1eqhg0u","1366","768","0","1","0","5f1bfe98441e2743f34fa16a","","null","","","learningBlock2","","","","This is a wug:","null","","","","","",""
"image-keyboard-response","413","563349","0.0-7.0-1.55","LF","pmz1eqhg0u","1366","768","0","1","0","5f1bfe98441e2743f34fa16a","","null","","","","","","","learning/Slide136.JPG","null","","","","","",""
"html-keyboard-response","414","564350","0.0-7.0-2.55","LF","pmz1eqhg0u","1366","768","0","1","0","5f1bfe98441e2743f34fa16a","","null","","","learningBlock2","","","","<div style=""font-size:60px;""> </div>","null","LF","learning/Slide136.JPG","This is a wug:","","",""
"html-keyboard-response","415","565352","0.0-7.0-0.56","LF","pmz1eqhg0u","1366","768","0","1","0","5f1bfe98441e2743f34fa16a","","null","","","learningBlock2","","","","This is a tob:","null","","","","","",""
"image-keyboard-response","416","565680","0.0-7.0-1.56","LF","pmz1eqhg0u","1366","768","0","1","0","5f1bfe98441e2743f34fa16a","","null","","","","","","","learning/Slide137.JPG","null","","","","","",""
"html-keyboard-response","417","566696","0.0-7.0-2.56","LF","pmz1eqhg0u","1366","768","0","1","0","5f1bfe98441e2743f34fa16a","","null","","","learningBlock2","","","","<div style=""font-size:60px;""> </div>","null","LF","learning/Slide137.JPG","This is a tob:","","",""
"html-keyboard-response","418","567699","0.0-7.0-0.57","LF","pmz1eqhg0u","1366","768","0","1","0","5f1bfe98441e2743f34fa16a","","null","","","learningBlock2","","","","This is a bim:","null","","","","","",""
"image-keyboard-response","419","568027","0.0-7.0-1.57","LF","pmz1eqhg0u","1366","768","0","1","0","5f1bfe98441e2743f34fa16a","","null","","","","","","","learning/Slide138.JPG","null","","","","","",""
"html-keyboard-response","420","569030","0.0-7.0-2.57","LF","pmz1eqhg0u","1366","768","0","1","0","5f1bfe98441e2743f34fa16a","","null","","","learningBlock2","","","","<div style=""font-size:60px;""> </div>","null","LF","learning/Slide138.JPG","This is a bim:","","",""
"html-keyboard-response","421","570032","0.0-7.0-0.58","LF","pmz1eqhg0u","1366","768","0","1","0","5f1bfe98441e2743f34fa16a","","null","","","learningBlock2","","","","This is a wug:","null","","","","","",""
"image-keyboard-response","422","570361","0.0-7.0-1.58","LF","pmz1eqhg0u","1366","768","0","1","0","5f1bfe98441e2743f34fa16a","","null","","","","","","","learning/Slide139.JPG","null","","","","","",""
"html-keyboard-response","423","571364","0.0-7.0-2.58","LF","pmz1eqhg0u","1366","768","0","1","0","5f1bfe98441e2743f34fa16a","","null","","","learningBlock2","","","","<div style=""font-size:60px;""> </div>","null","LF","learning/Slide139.JPG","This is a wug:","","",""
"html-keyboard-response","424","572365","0.0-7.0-0.59","LF","pmz1eqhg0u","1366","768","0","1","0","5f1bfe98441e2743f34fa16a","","null","","","learningBlock2","","","","This is a dep:","null","","","","","",""
"image-keyboard-response","425","572694","0.0-7.0-1.59","LF","pmz1eqhg0u","1366","768","0","1","0","5f1bfe98441e2743f34fa16a","","null","","","","","","","learning/Slide140.JPG","null","","","","","",""
"html-keyboard-response","426","573697","0.0-7.0-2.59","LF","pmz1eqhg0u","1366","768","0","1","0","5f1bfe98441e2743f34fa16a","","null","","","learningBlock2","","","","<div style=""font-size:60px;""> </div>","null","LF","learning/Slide140.JPG","This is a dep:","","",""
"html-keyboard-response","427","574699","0.0-7.0-0.60","LF","pmz1eqhg0u","1366","768","0","1","0","5f1bfe98441e2743f34fa16a","","null","","","learningBlock2","","","","This is a tob:","null","","","","","",""
"image-keyboard-response","428","575027","0.0-7.0-1.60","LF","pmz1eqhg0u","1366","768","0","1","0","5f1bfe98441e2743f34fa16a","","null","","","","","","","learning/Slide141.JPG","null","","","","","",""
"html-keyboard-response","429","576029","0.0-7.0-2.60","LF","pmz1eqhg0u","1366","768","0","1","0","5f1bfe98441e2743f34fa16a","","null","","","learningBlock2","","","","<div style=""font-size:60px;""> </div>","null","LF","learning/Slide141.JPG","This is a tob:","","",""
"html-keyboard-response","430","577031","0.0-7.0-0.61","LF","pmz1eqhg0u","1366","768","0","1","0","5f1bfe98441e2743f34fa16a","","null","","","learningBlock2","","","","This is a wug:","null","","","","","",""
"image-keyboard-response","431","577359","0.0-7.0-1.61","LF","pmz1eqhg0u","1366","768","0","1","0","5f1bfe98441e2743f34fa16a","","null","","","","","","","learning/Slide142.JPG","null","","","","","",""
"html-keyboard-response","432","578362","0.0-7.0-2.61","LF","pmz1eqhg0u","1366","768","0","1","0","5f1bfe98441e2743f34fa16a","","null","","","learningBlock2","","","","<div style=""font-size:60px;""> </div>","null","LF","learning/Slide142.JPG","This is a wug:","","",""
"html-keyboard-response","433","579364","0.0-7.0-0.62","LF","pmz1eqhg0u","1366","768","0","1","0","5f1bfe98441e2743f34fa16a","","null","","","learningBlock2","","","","This is a bim:","null","","","","","",""
"image-keyboard-response","434","579693","0.0-7.0-1.62","LF","pmz1eqhg0u","1366","768","0","1","0","5f1bfe98441e2743f34fa16a","","null","","","","","","","learning/Slide143.JPG","null","","","","","",""
"html-keyboard-response","435","580695","0.0-7.0-2.62","LF","pmz1eqhg0u","1366","768","0","1","0","5f1bfe98441e2743f34fa16a","","null","","","learningBlock2","","","","<div style=""font-size:60px;""> </div>","null","LF","learning/Slide143.JPG","This is a bim:","","",""
"html-keyboard-response","436","581698","0.0-7.0-0.63","LF","pmz1eqhg0u","1366","768","0","1","0","5f1bfe98441e2743f34fa16a","","null","","","learningBlock2","","","","This is a dep:","null","","","","","",""
"image-keyboard-response","437","582027","0.0-7.0-1.63","LF","pmz1eqhg0u","1366","768","0","1","0","5f1bfe98441e2743f34fa16a","","null","","","","","","","learning/Slide144.JPG","null","","","","","",""
