"trial_type","trial_index","time_elapsed","internal_node_id","condition","subject","screen_width","screen_height","attention","distraction","conscientious","prolificID","success","rt","url","view_history","test_part","final_height_px","final_width_px","scale_factor","stimulus","key_press","learningType","presentedImage","presentedLabel","button_pressed","response","responses"
"pavlovia","0","14","0.0-0.0","FL","jlov66vr8s","1536","864","0","1","0","5fc65eb000091528ea745f65","","","","","","","","","","","","","","","",""
"fullscreen","1","15139","0.0-1.0","FL","jlov66vr8s","1536","864","0","1","0","5fc65eb000091528ea745f65","true","","","","","","","","","","","","","","",""
"external-html","2","20846","0.0-2.0-0.0","FL","jlov66vr8s","1536","864","0","1","0","5fc65eb000091528ea745f65","","5644.055000011576","text/information_english.html","","","","","","","","","","","","",""
"external-html","3","33882","0.0-2.0-1.0","FL","jlov66vr8s","1536","864","0","1","0","5fc65eb000091528ea745f65","","12970.134999981383","text/consent_english.html","","","","","","","","","","","","",""
"instructions","4","54115","0.0-3.0","FL","jlov66vr8s","1536","864","0","1","0","5fc65eb000091528ea745f65","","NA","","[{""page_index"":0,""viewing_time"":3895.204999978887},{""page_index"":1,""viewing_time"":16336.42000000691}]","instructions","","","","","","","","","","",""
"resize","5","121344","0.0-4.0","FL","jlov66vr8s","1536","864","0","1","0","5fc65eb000091528ea745f65","","","","","","","402","2.5523809523809526","","","","","","","",""
"image-keyboard-response","6","121528","0.0-5.0-0.0","FL","jlov66vr8s","1536","864","0","1","0","5fc65eb000091528ea745f65","","null","","","","","","","learning/Slide1.JPG","null","","","","","",""
"html-keyboard-response","7","122690","0.0-5.0-1.0","FL","jlov66vr8s","1536","864","0","1","0","5fc65eb000091528ea745f65","","null","","","learningBlock1","","","","That was a tob.","null","","","","","",""
"html-keyboard-response","8","123691","0.0-5.0-2.0","FL","jlov66vr8s","1536","864","0","1","0","5fc65eb000091528ea745f65","","null","","","learningBlock1","","","","<div style=""font-size:60px;""> </div>","null","FL","learning/Slide1.JPG","That was a tob.","","",""
"image-keyboard-response","9","123867","0.0-5.0-0.1","FL","jlov66vr8s","1536","864","0","1","0","5fc65eb000091528ea745f65","","null","","","","","","","learning/Slide2.JPG","null","","","","","",""
"html-keyboard-response","10","125023","0.0-5.0-1.1","FL","jlov66vr8s","1536","864","0","1","0","5fc65eb000091528ea745f65","","null","","","learningBlock1","","","","That was a wug.","null","","","","","",""
"html-keyboard-response","11","126024","0.0-5.0-2.1","FL","jlov66vr8s","1536","864","0","1","0","5fc65eb000091528ea745f65","","null","","","learningBlock1","","","","<div style=""font-size:60px;""> </div>","null","FL","learning/Slide2.JPG","That was a wug.","","",""
"image-keyboard-response","12","126201","0.0-5.0-0.2","FL","jlov66vr8s","1536","864","0","1","0","5fc65eb000091528ea745f65","","null","","","","","","","learning/Slide3.JPG","null","","","","","",""
"html-keyboard-response","13","127356","0.0-5.0-1.2","FL","jlov66vr8s","1536","864","0","1","0","5fc65eb000091528ea745f65","","null","","","learningBlock1","","","","That was a bim.","null","","","","","",""
"html-keyboard-response","14","128358","0.0-5.0-2.2","FL","jlov66vr8s","1536","864","0","1","0","5fc65eb000091528ea745f65","","null","","","learningBlock1","","","","<div style=""font-size:60px;""> </div>","null","FL","learning/Slide3.JPG","That was a bim.","","",""
"image-keyboard-response","15","128534","0.0-5.0-0.3","FL","jlov66vr8s","1536","864","0","1","0","5fc65eb000091528ea745f65","","null","","","","","","","learning/Slide4.JPG","null","","","","","",""
"html-keyboard-response","16","129687","0.0-5.0-1.3","FL","jlov66vr8s","1536","864","0","1","0","5fc65eb000091528ea745f65","","null","","","learningBlock1","","","","That was a dep.","null","","","","","",""
"html-keyboard-response","17","130693","0.0-5.0-2.3","FL","jlov66vr8s","1536","864","0","1","0","5fc65eb000091528ea745f65","","null","","","learningBlock1","","","","<div style=""font-size:60px;""> </div>","null","FL","learning/Slide4.JPG","That was a dep.","","",""
"image-keyboard-response","18","130878","0.0-5.0-0.4","FL","jlov66vr8s","1536","864","0","1","0","5fc65eb000091528ea745f65","","null","","","","","","","learning/Slide5.JPG","null","","","","","",""
"html-keyboard-response","19","132037","0.0-5.0-1.4","FL","jlov66vr8s","1536","864","0","1","0","5fc65eb000091528ea745f65","","null","","","learningBlock1","","","","That was a wug.","null","","","","","",""
"html-keyboard-response","20","133040","0.0-5.0-2.4","FL","jlov66vr8s","1536","864","0","1","0","5fc65eb000091528ea745f65","","null","","","learningBlock1","","","","<div style=""font-size:60px;""> </div>","null","FL","learning/Slide5.JPG","That was a wug.","","",""
"image-keyboard-response","21","133216","0.0-5.0-0.5","FL","jlov66vr8s","1536","864","0","1","0","5fc65eb000091528ea745f65","","null","","","","","","","learning/Slide6.JPG","null","","","","","",""
"html-keyboard-response","22","134384","0.0-5.0-1.5","FL","jlov66vr8s","1536","864","0","1","0","5fc65eb000091528ea745f65","","null","","","learningBlock1","","","","That was a dep.","null","","","","","",""
"html-keyboard-response","23","135388","0.0-5.0-2.5","FL","jlov66vr8s","1536","864","0","1","0","5fc65eb000091528ea745f65","","null","","","learningBlock1","","","","<div style=""font-size:60px;""> </div>","null","FL","learning/Slide6.JPG","That was a dep.","","",""
"image-keyboard-response","24","135564","0.0-5.0-0.6","FL","jlov66vr8s","1536","864","0","1","0","5fc65eb000091528ea745f65","","null","","","","","","","learning/Slide7.JPG","null","","","","","",""
"html-keyboard-response","25","136716","0.0-5.0-1.6","FL","jlov66vr8s","1536","864","0","1","0","5fc65eb000091528ea745f65","","null","","","learningBlock1","","","","That was a wug.","null","","","","","",""
"html-keyboard-response","26","137720","0.0-5.0-2.6","FL","jlov66vr8s","1536","864","0","1","0","5fc65eb000091528ea745f65","","null","","","learningBlock1","","","","<div style=""font-size:60px;""> </div>","null","FL","learning/Slide7.JPG","That was a wug.","","",""
"image-keyboard-response","27","137906","0.0-5.0-0.7","FL","jlov66vr8s","1536","864","0","1","0","5fc65eb000091528ea745f65","","null","","","","","","","learning/Slide8.JPG","null","","","","","",""
"html-keyboard-response","28","139064","0.0-5.0-1.7","FL","jlov66vr8s","1536","864","0","1","0","5fc65eb000091528ea745f65","","null","","","learningBlock1","","","","That was a bim.","null","","","","","",""
"html-keyboard-response","29","140067","0.0-5.0-2.7","FL","jlov66vr8s","1536","864","0","1","0","5fc65eb000091528ea745f65","","null","","","learningBlock1","","","","<div style=""font-size:60px;""> </div>","null","FL","learning/Slide8.JPG","That was a bim.","","",""
"image-keyboard-response","30","140253","0.0-5.0-0.8","FL","jlov66vr8s","1536","864","0","1","0","5fc65eb000091528ea745f65","","null","","","","","","","learning/Slide9.JPG","null","","","","","",""
"html-keyboard-response","31","141409","0.0-5.0-1.8","FL","jlov66vr8s","1536","864","0","1","0","5fc65eb000091528ea745f65","","null","","","learningBlock1","","","","That was a wug.","null","","","","","",""
"html-keyboard-response","32","142416","0.0-5.0-2.8","FL","jlov66vr8s","1536","864","0","1","0","5fc65eb000091528ea745f65","","null","","","learningBlock1","","","","<div style=""font-size:60px;""> </div>","null","FL","learning/Slide9.JPG","That was a wug.","","",""
"image-keyboard-response","33","142592","0.0-5.0-0.9","FL","jlov66vr8s","1536","864","0","1","0","5fc65eb000091528ea745f65","","null","","","","","","","learning/Slide10.JPG","null","","","","","",""
"html-keyboard-response","34","143757","0.0-5.0-1.9","FL","jlov66vr8s","1536","864","0","1","0","5fc65eb000091528ea745f65","","null","","","learningBlock1","","","","That was a dep.","null","","","","","",""
"html-keyboard-response","35","144763","0.0-5.0-2.9","FL","jlov66vr8s","1536","864","0","1","0","5fc65eb000091528ea745f65","","null","","","learningBlock1","","","","<div style=""font-size:60px;""> </div>","null","FL","learning/Slide10.JPG","That was a dep.","","",""
"image-keyboard-response","36","144948","0.0-5.0-0.10","FL","jlov66vr8s","1536","864","0","1","0","5fc65eb000091528ea745f65","","null","","","","","","","learning/Slide11.JPG","null","","","","","",""
"html-keyboard-response","37","146107","0.0-5.0-1.10","FL","jlov66vr8s","1536","864","0","1","0","5fc65eb000091528ea745f65","","null","","","learningBlock1","","","","That was a tob.","null","","","","","",""
"html-keyboard-response","38","147112","0.0-5.0-2.10","FL","jlov66vr8s","1536","864","0","1","0","5fc65eb000091528ea745f65","","null","","","learningBlock1","","","","<div style=""font-size:60px;""> </div>","null","FL","learning/Slide11.JPG","That was a tob.","","",""
"image-keyboard-response","39","147289","0.0-5.0-0.11","FL","jlov66vr8s","1536","864","0","1","0","5fc65eb000091528ea745f65","","null","","","","","","","learning/Slide12.JPG","null","","","","","",""
"html-keyboard-response","40","148458","0.0-5.0-1.11","FL","jlov66vr8s","1536","864","0","1","0","5fc65eb000091528ea745f65","","null","","","learningBlock1","","","","That was a dep.","null","","","","","",""
"html-keyboard-response","41","149474","0.0-5.0-2.11","FL","jlov66vr8s","1536","864","0","1","0","5fc65eb000091528ea745f65","","null","","","learningBlock1","","","","<div style=""font-size:60px;""> </div>","null","FL","learning/Slide12.JPG","That was a dep.","","",""
"image-keyboard-response","42","149650","0.0-5.0-0.12","FL","jlov66vr8s","1536","864","0","1","0","5fc65eb000091528ea745f65","","null","","","","","","","learning/Slide13.JPG","null","","","","","",""
"html-keyboard-response","43","150807","0.0-5.0-1.12","FL","jlov66vr8s","1536","864","0","1","0","5fc65eb000091528ea745f65","","null","","","learningBlock1","","","","That was a bim.","null","","","","","",""
"html-keyboard-response","44","151814","0.0-5.0-2.12","FL","jlov66vr8s","1536","864","0","1","0","5fc65eb000091528ea745f65","","null","","","learningBlock1","","","","<div style=""font-size:60px;""> </div>","null","FL","learning/Slide13.JPG","That was a bim.","","",""
"image-keyboard-response","45","151991","0.0-5.0-0.13","FL","jlov66vr8s","1536","864","0","1","0","5fc65eb000091528ea745f65","","null","","","","","","","learning/Slide14.JPG","null","","","","","",""
"html-keyboard-response","46","153146","0.0-5.0-1.13","FL","jlov66vr8s","1536","864","0","1","0","5fc65eb000091528ea745f65","","null","","","learningBlock1","","","","That was a wug.","null","","","","","",""
"html-keyboard-response","47","154152","0.0-5.0-2.13","FL","jlov66vr8s","1536","864","0","1","0","5fc65eb000091528ea745f65","","null","","","learningBlock1","","","","<div style=""font-size:60px;""> </div>","null","FL","learning/Slide14.JPG","That was a wug.","","",""
"image-keyboard-response","48","154337","0.0-5.0-0.14","FL","jlov66vr8s","1536","864","0","1","0","5fc65eb000091528ea745f65","","null","","","","","","","learning/Slide15.JPG","null","","","","","",""
"html-keyboard-response","49","155496","0.0-5.0-1.14","FL","jlov66vr8s","1536","864","0","1","0","5fc65eb000091528ea745f65","","null","","","learningBlock1","","","","That was a tob.","null","","","","","",""
"html-keyboard-response","50","156500","0.0-5.0-2.14","FL","jlov66vr8s","1536","864","0","1","0","5fc65eb000091528ea745f65","","null","","","learningBlock1","","","","<div style=""font-size:60px;""> </div>","null","FL","learning/Slide15.JPG","That was a tob.","","",""
"image-keyboard-response","51","156676","0.0-5.0-0.15","FL","jlov66vr8s","1536","864","0","1","0","5fc65eb000091528ea745f65","","null","","","","","","","learning/Slide16.JPG","null","","","","","",""
"html-keyboard-response","52","157842","0.0-5.0-1.15","FL","jlov66vr8s","1536","864","0","1","0","5fc65eb000091528ea745f65","","null","","","learningBlock1","","","","That was a dep.","null","","","","","",""
"html-keyboard-response","53","158847","0.0-5.0-2.15","FL","jlov66vr8s","1536","864","0","1","0","5fc65eb000091528ea745f65","","null","","","learningBlock1","","","","<div style=""font-size:60px;""> </div>","null","FL","learning/Slide16.JPG","That was a dep.","","",""
"image-keyboard-response","54","159023","0.0-5.0-0.16","FL","jlov66vr8s","1536","864","0","1","0","5fc65eb000091528ea745f65","","null","","","","","","","learning/Slide17.JPG","null","","","","","",""
"html-keyboard-response","55","160188","0.0-5.0-1.16","FL","jlov66vr8s","1536","864","0","1","0","5fc65eb000091528ea745f65","","null","","","learningBlock1","","","","That was a bim.","null","","","","","",""
"html-keyboard-response","56","161203","0.0-5.0-2.16","FL","jlov66vr8s","1536","864","0","1","0","5fc65eb000091528ea745f65","","null","","","learningBlock1","","","","<div style=""font-size:60px;""> </div>","null","FL","learning/Slide17.JPG","That was a bim.","","",""
"image-keyboard-response","57","161380","0.0-5.0-0.17","FL","jlov66vr8s","1536","864","0","1","0","5fc65eb000091528ea745f65","","null","","","","","","","learning/Slide18.JPG","null","","","","","",""
"html-keyboard-response","58","162548","0.0-5.0-1.17","FL","jlov66vr8s","1536","864","0","1","0","5fc65eb000091528ea745f65","","null","","","learningBlock1","","","","That was a tob.","null","","","","","",""
"html-keyboard-response","59","163550","0.0-5.0-2.17","FL","jlov66vr8s","1536","864","0","1","0","5fc65eb000091528ea745f65","","null","","","learningBlock1","","","","<div style=""font-size:60px;""> </div>","null","FL","learning/Slide18.JPG","That was a tob.","","",""
"image-keyboard-response","60","163736","0.0-5.0-0.18","FL","jlov66vr8s","1536","864","0","1","0","5fc65eb000091528ea745f65","","null","","","","","","","learning/Slide19.JPG","null","","","","","",""
"html-keyboard-response","61","164892","0.0-5.0-1.18","FL","jlov66vr8s","1536","864","0","1","0","5fc65eb000091528ea745f65","","null","","","learningBlock1","","","","That was a wug.","null","","","","","",""
"html-keyboard-response","62","165894","0.0-5.0-2.18","FL","jlov66vr8s","1536","864","0","1","0","5fc65eb000091528ea745f65","","null","","","learningBlock1","","","","<div style=""font-size:60px;""> </div>","null","FL","learning/Slide19.JPG","That was a wug.","","",""
"image-keyboard-response","63","166080","0.0-5.0-0.19","FL","jlov66vr8s","1536","864","0","1","0","5fc65eb000091528ea745f65","","null","","","","","","","learning/Slide20.JPG","null","","","","","",""
"html-keyboard-response","64","167239","0.0-5.0-1.19","FL","jlov66vr8s","1536","864","0","1","0","5fc65eb000091528ea745f65","","null","","","learningBlock1","","","","That was a bim.","null","","","","","",""
"html-keyboard-response","65","168243","0.0-5.0-2.19","FL","jlov66vr8s","1536","864","0","1","0","5fc65eb000091528ea745f65","","null","","","learningBlock1","","","","<div style=""font-size:60px;""> </div>","null","FL","learning/Slide20.JPG","That was a bim.","","",""
"image-keyboard-response","66","168419","0.0-5.0-0.20","FL","jlov66vr8s","1536","864","0","1","0","5fc65eb000091528ea745f65","","null","","","","","","","learning/Slide21.JPG","null","","","","","",""
"html-keyboard-response","67","169571","0.0-5.0-1.20","FL","jlov66vr8s","1536","864","0","1","0","5fc65eb000091528ea745f65","","null","","","learningBlock1","","","","That was a dep.","null","","","","","",""
"html-keyboard-response","68","170577","0.0-5.0-2.20","FL","jlov66vr8s","1536","864","0","1","0","5fc65eb000091528ea745f65","","null","","","learningBlock1","","","","<div style=""font-size:60px;""> </div>","null","FL","learning/Slide21.JPG","That was a dep.","","",""
"image-keyboard-response","69","170754","0.0-5.0-0.21","FL","jlov66vr8s","1536","864","0","1","0","5fc65eb000091528ea745f65","","null","","","","","","","learning/Slide22.JPG","null","","","","","",""
"html-keyboard-response","70","171921","0.0-5.0-1.21","FL","jlov66vr8s","1536","864","0","1","0","5fc65eb000091528ea745f65","","null","","","learningBlock1","","","","That was a bim.","null","","","","","",""
"html-keyboard-response","71","172926","0.0-5.0-2.21","FL","jlov66vr8s","1536","864","0","1","0","5fc65eb000091528ea745f65","","null","","","learningBlock1","","","","<div style=""font-size:60px;""> </div>","null","FL","learning/Slide22.JPG","That was a bim.","","",""
"image-keyboard-response","72","173102","0.0-5.0-0.22","FL","jlov66vr8s","1536","864","0","1","0","5fc65eb000091528ea745f65","","null","","","","","","","learning/Slide23.JPG","null","","","","","",""
"html-keyboard-response","73","174271","0.0-5.0-1.22","FL","jlov66vr8s","1536","864","0","1","0","5fc65eb000091528ea745f65","","null","","","learningBlock1","","","","That was a tob.","null","","","","","",""
"html-keyboard-response","74","175276","0.0-5.0-2.22","FL","jlov66vr8s","1536","864","0","1","0","5fc65eb000091528ea745f65","","null","","","learningBlock1","","","","<div style=""font-size:60px;""> </div>","null","FL","learning/Slide23.JPG","That was a tob.","","",""
"image-keyboard-response","75","175462","0.0-5.0-0.23","FL","jlov66vr8s","1536","864","0","1","0","5fc65eb000091528ea745f65","","null","","","","","","","learning/Slide24.JPG","null","","","","","",""
"html-keyboard-response","76","176617","0.0-5.0-1.23","FL","jlov66vr8s","1536","864","0","1","0","5fc65eb000091528ea745f65","","null","","","learningBlock1","","","","That was a wug.","null","","","","","",""
"html-keyboard-response","77","177618","0.0-5.0-2.23","FL","jlov66vr8s","1536","864","0","1","0","5fc65eb000091528ea745f65","","null","","","learningBlock1","","","","<div style=""font-size:60px;""> </div>","null","FL","learning/Slide24.JPG","That was a wug.","","",""
"image-keyboard-response","78","177804","0.0-5.0-0.24","FL","jlov66vr8s","1536","864","0","1","0","5fc65eb000091528ea745f65","","null","","","","","","","learning/Slide25.JPG","null","","","","","",""
"html-keyboard-response","79","178961","0.0-5.0-1.24","FL","jlov66vr8s","1536","864","0","1","0","5fc65eb000091528ea745f65","","null","","","learningBlock1","","","","That was a dep.","null","","","","","",""
"html-keyboard-response","80","179965","0.0-5.0-2.24","FL","jlov66vr8s","1536","864","0","1","0","5fc65eb000091528ea745f65","","null","","","learningBlock1","","","","<div style=""font-size:60px;""> </div>","null","FL","learning/Slide25.JPG","That was a dep.","","",""
"image-keyboard-response","81","180149","0.0-5.0-0.25","FL","jlov66vr8s","1536","864","0","1","0","5fc65eb000091528ea745f65","","null","","","","","","","learning/Slide26.JPG","null","","","","","",""
"html-keyboard-response","82","181308","0.0-5.0-1.25","FL","jlov66vr8s","1536","864","0","1","0","5fc65eb000091528ea745f65","","null","","","learningBlock1","","","","That was a wug.","null","","","","","",""
"html-keyboard-response","83","182312","0.0-5.0-2.25","FL","jlov66vr8s","1536","864","0","1","0","5fc65eb000091528ea745f65","","null","","","learningBlock1","","","","<div style=""font-size:60px;""> </div>","null","FL","learning/Slide26.JPG","That was a wug.","","",""
"image-keyboard-response","84","182488","0.0-5.0-0.26","FL","jlov66vr8s","1536","864","0","1","0","5fc65eb000091528ea745f65","","null","","","","","","","learning/Slide27.JPG","null","","","","","",""
"html-keyboard-response","85","183642","0.0-5.0-1.26","FL","jlov66vr8s","1536","864","0","1","0","5fc65eb000091528ea745f65","","null","","","learningBlock1","","","","That was a bim.","null","","","","","",""
"html-keyboard-response","86","184644","0.0-5.0-2.26","FL","jlov66vr8s","1536","864","0","1","0","5fc65eb000091528ea745f65","","null","","","learningBlock1","","","","<div style=""font-size:60px;""> </div>","null","FL","learning/Slide27.JPG","That was a bim.","","",""
"image-keyboard-response","87","184829","0.0-5.0-0.27","FL","jlov66vr8s","1536","864","0","1","0","5fc65eb000091528ea745f65","","null","","","","","","","learning/Slide28.JPG","null","","","","","",""
"html-keyboard-response","88","185989","0.0-5.0-1.27","FL","jlov66vr8s","1536","864","0","1","0","5fc65eb000091528ea745f65","","null","","","learningBlock1","","","","That was a dep.","null","","","","","",""
"html-keyboard-response","89","186995","0.0-5.0-2.27","FL","jlov66vr8s","1536","864","0","1","0","5fc65eb000091528ea745f65","","null","","","learningBlock1","","","","<div style=""font-size:60px;""> </div>","null","FL","learning/Slide28.JPG","That was a dep.","","",""
"image-keyboard-response","90","187180","0.0-5.0-0.28","FL","jlov66vr8s","1536","864","0","1","0","5fc65eb000091528ea745f65","","null","","","","","","","learning/Slide29.JPG","null","","","","","",""
"html-keyboard-response","91","188337","0.0-5.0-1.28","FL","jlov66vr8s","1536","864","0","1","0","5fc65eb000091528ea745f65","","null","","","learningBlock1","","","","That was a tob.","null","","","","","",""
"html-keyboard-response","92","189341","0.0-5.0-2.28","FL","jlov66vr8s","1536","864","0","1","0","5fc65eb000091528ea745f65","","null","","","learningBlock1","","","","<div style=""font-size:60px;""> </div>","null","FL","learning/Slide29.JPG","That was a tob.","","",""
"image-keyboard-response","93","189517","0.0-5.0-0.29","FL","jlov66vr8s","1536","864","0","1","0","5fc65eb000091528ea745f65","","null","","","","","","","learning/Slide30.JPG","null","","","","","",""
"html-keyboard-response","94","190672","0.0-5.0-1.29","FL","jlov66vr8s","1536","864","0","1","0","5fc65eb000091528ea745f65","","null","","","learningBlock1","","","","That was a dep.","null","","","","","",""
"html-keyboard-response","95","191674","0.0-5.0-2.29","FL","jlov66vr8s","1536","864","0","1","0","5fc65eb000091528ea745f65","","null","","","learningBlock1","","","","<div style=""font-size:60px;""> </div>","null","FL","learning/Slide30.JPG","That was a dep.","","",""
"image-keyboard-response","96","191851","0.0-5.0-0.30","FL","jlov66vr8s","1536","864","0","1","0","5fc65eb000091528ea745f65","","null","","","","","","","learning/Slide31.JPG","null","","","","","",""
"html-keyboard-response","97","193030","0.0-5.0-1.30","FL","jlov66vr8s","1536","864","0","1","0","5fc65eb000091528ea745f65","","null","","","learningBlock1","","","","That was a wug.","null","","","","","",""
"html-keyboard-response","98","194034","0.0-5.0-2.30","FL","jlov66vr8s","1536","864","0","1","0","5fc65eb000091528ea745f65","","null","","","learningBlock1","","","","<div style=""font-size:60px;""> </div>","null","FL","learning/Slide31.JPG","That was a wug.","","",""
"image-keyboard-response","99","194210","0.0-5.0-0.31","FL","jlov66vr8s","1536","864","0","1","0","5fc65eb000091528ea745f65","","null","","","","","","","learning/Slide32.JPG","null","","","","","",""
"html-keyboard-response","100","195362","0.0-5.0-1.31","FL","jlov66vr8s","1536","864","0","1","0","5fc65eb000091528ea745f65","","null","","","learningBlock1","","","","That was a tob.","null","","","","","",""
"html-keyboard-response","101","196367","0.0-5.0-2.31","FL","jlov66vr8s","1536","864","0","1","0","5fc65eb000091528ea745f65","","null","","","learningBlock1","","","","<div style=""font-size:60px;""> </div>","null","FL","learning/Slide32.JPG","That was a tob.","","",""
"image-keyboard-response","102","196543","0.0-5.0-0.32","FL","jlov66vr8s","1536","864","0","1","0","5fc65eb000091528ea745f65","","null","","","","","","","learning/Slide33.JPG","null","","","","","",""
"html-keyboard-response","103","197708","0.0-5.0-1.32","FL","jlov66vr8s","1536","864","0","1","0","5fc65eb000091528ea745f65","","null","","","learningBlock1","","","","That was a bim.","null","","","","","",""
"html-keyboard-response","104","198714","0.0-5.0-2.32","FL","jlov66vr8s","1536","864","0","1","0","5fc65eb000091528ea745f65","","null","","","learningBlock1","","","","<div style=""font-size:60px;""> </div>","null","FL","learning/Slide33.JPG","That was a bim.","","",""
"image-keyboard-response","105","198899","0.0-5.0-0.33","FL","jlov66vr8s","1536","864","0","1","0","5fc65eb000091528ea745f65","","null","","","","","","","learning/Slide34.JPG","null","","","","","",""
"html-keyboard-response","106","200056","0.0-5.0-1.33","FL","jlov66vr8s","1536","864","0","1","0","5fc65eb000091528ea745f65","","null","","","learningBlock1","","","","That was a tob.","null","","","","","",""
"html-keyboard-response","107","201059","0.0-5.0-2.33","FL","jlov66vr8s","1536","864","0","1","0","5fc65eb000091528ea745f65","","null","","","learningBlock1","","","","<div style=""font-size:60px;""> </div>","null","FL","learning/Slide34.JPG","That was a tob.","","",""
"image-keyboard-response","108","201236","0.0-5.0-0.34","FL","jlov66vr8s","1536","864","0","1","0","5fc65eb000091528ea745f65","","null","","","","","","","learning/Slide35.JPG","null","","","","","",""
"html-keyboard-response","109","202401","0.0-5.0-1.34","FL","jlov66vr8s","1536","864","0","1","0","5fc65eb000091528ea745f65","","null","","","learningBlock1","","","","That was a bim.","null","","","","","",""
"html-keyboard-response","110","203406","0.0-5.0-2.34","FL","jlov66vr8s","1536","864","0","1","0","5fc65eb000091528ea745f65","","null","","","learningBlock1","","","","<div style=""font-size:60px;""> </div>","null","FL","learning/Slide35.JPG","That was a bim.","","",""
"image-keyboard-response","111","203591","0.0-5.0-0.35","FL","jlov66vr8s","1536","864","0","1","0","5fc65eb000091528ea745f65","","null","","","","","","","learning/Slide36.JPG","null","","","","","",""
"html-keyboard-response","112","204748","0.0-5.0-1.35","FL","jlov66vr8s","1536","864","0","1","0","5fc65eb000091528ea745f65","","null","","","learningBlock1","","","","That was a dep.","null","","","","","",""
"html-keyboard-response","113","205754","0.0-5.0-2.35","FL","jlov66vr8s","1536","864","0","1","0","5fc65eb000091528ea745f65","","null","","","learningBlock1","","","","<div style=""font-size:60px;""> </div>","null","FL","learning/Slide36.JPG","That was a dep.","","",""
"image-keyboard-response","114","205929","0.0-5.0-0.36","FL","jlov66vr8s","1536","864","0","1","0","5fc65eb000091528ea745f65","","null","","","","","","","learning/Slide37.JPG","null","","","","","",""
"html-keyboard-response","115","207085","0.0-5.0-1.36","FL","jlov66vr8s","1536","864","0","1","0","5fc65eb000091528ea745f65","","null","","","learningBlock1","","","","That was a tob.","null","","","","","",""
"html-keyboard-response","116","208090","0.0-5.0-2.36","FL","jlov66vr8s","1536","864","0","1","0","5fc65eb000091528ea745f65","","null","","","learningBlock1","","","","<div style=""font-size:60px;""> </div>","null","FL","learning/Slide37.JPG","That was a tob.","","",""
"image-keyboard-response","117","208266","0.0-5.0-0.37","FL","jlov66vr8s","1536","864","0","1","0","5fc65eb000091528ea745f65","","null","","","","","","","learning/Slide38.JPG","null","","","","","",""
"html-keyboard-response","118","209432","0.0-5.0-1.37","FL","jlov66vr8s","1536","864","0","1","0","5fc65eb000091528ea745f65","","null","","","learningBlock1","","","","That was a wug.","null","","","","","",""
"html-keyboard-response","119","210437","0.0-5.0-2.37","FL","jlov66vr8s","1536","864","0","1","0","5fc65eb000091528ea745f65","","null","","","learningBlock1","","","","<div style=""font-size:60px;""> </div>","null","FL","learning/Slide38.JPG","That was a wug.","","",""
"image-keyboard-response","120","210623","0.0-5.0-0.38","FL","jlov66vr8s","1536","864","0","1","0","5fc65eb000091528ea745f65","","null","","","","","","","learning/Slide39.JPG","null","","","","","",""
"html-keyboard-response","121","211782","0.0-5.0-1.38","FL","jlov66vr8s","1536","864","0","1","0","5fc65eb000091528ea745f65","","null","","","learningBlock1","","","","That was a bim.","null","","","","","",""
"html-keyboard-response","122","212786","0.0-5.0-2.38","FL","jlov66vr8s","1536","864","0","1","0","5fc65eb000091528ea745f65","","null","","","learningBlock1","","","","<div style=""font-size:60px;""> </div>","null","FL","learning/Slide39.JPG","That was a bim.","","",""
"image-keyboard-response","123","212962","0.0-5.0-0.39","FL","jlov66vr8s","1536","864","0","1","0","5fc65eb000091528ea745f65","","null","","","","","","","learning/Slide40.JPG","null","","","","","",""
"html-keyboard-response","124","214129","0.0-5.0-1.39","FL","jlov66vr8s","1536","864","0","1","0","5fc65eb000091528ea745f65","","null","","","learningBlock1","","","","That was a tob.","null","","","","","",""
"html-keyboard-response","125","215133","0.0-5.0-2.39","FL","jlov66vr8s","1536","864","0","1","0","5fc65eb000091528ea745f65","","null","","","learningBlock1","","","","<div style=""font-size:60px;""> </div>","null","FL","learning/Slide40.JPG","That was a tob.","","",""
"image-keyboard-response","126","215318","0.0-5.0-0.40","FL","jlov66vr8s","1536","864","0","1","0","5fc65eb000091528ea745f65","","null","","","","","","","learning/Slide41.JPG","null","","","","","",""
"html-keyboard-response","127","216476","0.0-5.0-1.40","FL","jlov66vr8s","1536","864","0","1","0","5fc65eb000091528ea745f65","","null","","","learningBlock1","","","","That was a bim.","null","","","","","",""
"html-keyboard-response","128","217478","0.0-5.0-2.40","FL","jlov66vr8s","1536","864","0","1","0","5fc65eb000091528ea745f65","","null","","","learningBlock1","","","","<div style=""font-size:60px;""> </div>","null","FL","learning/Slide41.JPG","That was a bim.","","",""
"image-keyboard-response","129","217662","0.0-5.0-0.41","FL","jlov66vr8s","1536","864","0","1","0","5fc65eb000091528ea745f65","","null","","","","","","","learning/Slide42.JPG","null","","","","","",""
"html-keyboard-response","130","218821","0.0-5.0-1.41","FL","jlov66vr8s","1536","864","0","1","0","5fc65eb000091528ea745f65","","null","","","learningBlock1","","","","That was a dep.","null","","","","","",""
"html-keyboard-response","131","219837","0.0-5.0-2.41","FL","jlov66vr8s","1536","864","0","1","0","5fc65eb000091528ea745f65","","null","","","learningBlock1","","","","<div style=""font-size:60px;""> </div>","null","FL","learning/Slide42.JPG","That was a dep.","","",""
"image-keyboard-response","132","220014","0.0-5.0-0.42","FL","jlov66vr8s","1536","864","0","1","0","5fc65eb000091528ea745f65","","null","","","","","","","learning/Slide43.JPG","null","","","","","",""
"html-keyboard-response","133","221166","0.0-5.0-1.42","FL","jlov66vr8s","1536","864","0","1","0","5fc65eb000091528ea745f65","","null","","","learningBlock1","","","","That was a wug.","null","","","","","",""
"html-keyboard-response","134","222170","0.0-5.0-2.42","FL","jlov66vr8s","1536","864","0","1","0","5fc65eb000091528ea745f65","","null","","","learningBlock1","","","","<div style=""font-size:60px;""> </div>","null","FL","learning/Slide43.JPG","That was a wug.","","",""
"image-keyboard-response","135","222346","0.0-5.0-0.43","FL","jlov66vr8s","1536","864","0","1","0","5fc65eb000091528ea745f65","","null","","","","","","","learning/Slide44.JPG","null","","","","","",""
"html-keyboard-response","136","223512","0.0-5.0-1.43","FL","jlov66vr8s","1536","864","0","1","0","5fc65eb000091528ea745f65","","null","","","learningBlock1","","","","That was a bim.","null","","","","","",""
"html-keyboard-response","137","224515","0.0-5.0-2.43","FL","jlov66vr8s","1536","864","0","1","0","5fc65eb000091528ea745f65","","null","","","learningBlock1","","","","<div style=""font-size:60px;""> </div>","null","FL","learning/Slide44.JPG","That was a bim.","","",""
"image-keyboard-response","138","224692","0.0-5.0-0.44","FL","jlov66vr8s","1536","864","0","1","0","5fc65eb000091528ea745f65","","null","","","","","","","learning/Slide45.JPG","null","","","","","",""
"html-keyboard-response","139","225858","0.0-5.0-1.44","FL","jlov66vr8s","1536","864","0","1","0","5fc65eb000091528ea745f65","","null","","","learningBlock1","","","","That was a wug.","null","","","","","",""
"html-keyboard-response","140","226863","0.0-5.0-2.44","FL","jlov66vr8s","1536","864","0","1","0","5fc65eb000091528ea745f65","","null","","","learningBlock1","","","","<div style=""font-size:60px;""> </div>","null","FL","learning/Slide45.JPG","That was a wug.","","",""
"image-keyboard-response","141","227039","0.0-5.0-0.45","FL","jlov66vr8s","1536","864","0","1","0","5fc65eb000091528ea745f65","","null","","","","","","","learning/Slide46.JPG","null","","","","","",""
"html-keyboard-response","142","228207","0.0-5.0-1.45","FL","jlov66vr8s","1536","864","0","1","0","5fc65eb000091528ea745f65","","null","","","learningBlock1","","","","That was a dep.","null","","","","","",""
"html-keyboard-response","143","229209","0.0-5.0-2.45","FL","jlov66vr8s","1536","864","0","1","0","5fc65eb000091528ea745f65","","null","","","learningBlock1","","","","<div style=""font-size:60px;""> </div>","null","FL","learning/Slide46.JPG","That was a dep.","","",""
"image-keyboard-response","144","229386","0.0-5.0-0.46","FL","jlov66vr8s","1536","864","0","1","0","5fc65eb000091528ea745f65","","null","","","","","","","learning/Slide47.JPG","null","","","","","",""
"html-keyboard-response","145","230550","0.0-5.0-1.46","FL","jlov66vr8s","1536","864","0","1","0","5fc65eb000091528ea745f65","","null","","","learningBlock1","","","","That was a tob.","null","","","","","",""
"html-keyboard-response","146","231556","0.0-5.0-2.46","FL","jlov66vr8s","1536","864","0","1","0","5fc65eb000091528ea745f65","","null","","","learningBlock1","","","","<div style=""font-size:60px;""> </div>","null","FL","learning/Slide47.JPG","That was a tob.","","",""
"image-keyboard-response","147","231740","0.0-5.0-0.47","FL","jlov66vr8s","1536","864","0","1","0","5fc65eb000091528ea745f65","","null","","","","","","","learning/Slide48.JPG","null","","","","","",""
"html-keyboard-response","148","232898","0.0-5.0-1.47","FL","jlov66vr8s","1536","864","0","1","0","5fc65eb000091528ea745f65","","null","","","learningBlock1","","","","That was a bim.","null","","","","","",""
"html-keyboard-response","149","233902","0.0-5.0-2.47","FL","jlov66vr8s","1536","864","0","1","0","5fc65eb000091528ea745f65","","null","","","learningBlock1","","","","<div style=""font-size:60px;""> </div>","null","FL","learning/Slide48.JPG","That was a bim.","","",""
"image-keyboard-response","150","234078","0.0-5.0-0.48","FL","jlov66vr8s","1536","864","0","1","0","5fc65eb000091528ea745f65","","null","","","","","","","learning/Slide49.JPG","null","","","","","",""
"html-keyboard-response","151","235231","0.0-5.0-1.48","FL","jlov66vr8s","1536","864","0","1","0","5fc65eb000091528ea745f65","","null","","","learningBlock1","","","","That was a dep.","null","","","","","",""
"html-keyboard-response","152","236236","0.0-5.0-2.48","FL","jlov66vr8s","1536","864","0","1","0","5fc65eb000091528ea745f65","","null","","","learningBlock1","","","","<div style=""font-size:60px;""> </div>","null","FL","learning/Slide49.JPG","That was a dep.","","",""
"image-keyboard-response","153","236421","0.0-5.0-0.49","FL","jlov66vr8s","1536","864","0","1","0","5fc65eb000091528ea745f65","","null","","","","","","","learning/Slide50.JPG","null","","","","","",""
"html-keyboard-response","154","237589","0.0-5.0-1.49","FL","jlov66vr8s","1536","864","0","1","0","5fc65eb000091528ea745f65","","null","","","learningBlock1","","","","That was a tob.","null","","","","","",""
"html-keyboard-response","155","238593","0.0-5.0-2.49","FL","jlov66vr8s","1536","864","0","1","0","5fc65eb000091528ea745f65","","null","","","learningBlock1","","","","<div style=""font-size:60px;""> </div>","null","FL","learning/Slide50.JPG","That was a tob.","","",""
"image-keyboard-response","156","238769","0.0-5.0-0.50","FL","jlov66vr8s","1536","864","0","1","0","5fc65eb000091528ea745f65","","null","","","","","","","learning/Slide51.JPG","null","","","","","",""
"html-keyboard-response","157","239937","0.0-5.0-1.50","FL","jlov66vr8s","1536","864","0","1","0","5fc65eb000091528ea745f65","","null","","","learningBlock1","","","","That was a bim.","null","","","","","",""
"html-keyboard-response","158","240940","0.0-5.0-2.50","FL","jlov66vr8s","1536","864","0","1","0","5fc65eb000091528ea745f65","","null","","","learningBlock1","","","","<div style=""font-size:60px;""> </div>","null","FL","learning/Slide51.JPG","That was a bim.","","",""
"image-keyboard-response","159","241116","0.0-5.0-0.51","FL","jlov66vr8s","1536","864","0","1","0","5fc65eb000091528ea745f65","","null","","","","","","","learning/Slide52.JPG","null","","","","","",""
"html-keyboard-response","160","242284","0.0-5.0-1.51","FL","jlov66vr8s","1536","864","0","1","0","5fc65eb000091528ea745f65","","null","","","learningBlock1","","","","That was a wug.","null","","","","","",""
"html-keyboard-response","161","243291","0.0-5.0-2.51","FL","jlov66vr8s","1536","864","0","1","0","5fc65eb000091528ea745f65","","null","","","learningBlock1","","","","<div style=""font-size:60px;""> </div>","null","FL","learning/Slide52.JPG","That was a wug.","","",""
"image-keyboard-response","162","243477","0.0-5.0-0.52","FL","jlov66vr8s","1536","864","0","1","0","5fc65eb000091528ea745f65","","null","","","","","","","learning/Slide53.JPG","null","","","","","",""
"html-keyboard-response","163","244635","0.0-5.0-1.52","FL","jlov66vr8s","1536","864","0","1","0","5fc65eb000091528ea745f65","","null","","","learningBlock1","","","","That was a tob.","null","","","","","",""
"html-keyboard-response","164","245639","0.0-5.0-2.52","FL","jlov66vr8s","1536","864","0","1","0","5fc65eb000091528ea745f65","","null","","","learningBlock1","","","","<div style=""font-size:60px;""> </div>","null","FL","learning/Slide53.JPG","That was a tob.","","",""
"image-keyboard-response","165","245816","0.0-5.0-0.53","FL","jlov66vr8s","1536","864","0","1","0","5fc65eb000091528ea745f65","","null","","","","","","","learning/Slide54.JPG","null","","","","","",""
"html-keyboard-response","166","246985","0.0-5.0-1.53","FL","jlov66vr8s","1536","864","0","1","0","5fc65eb000091528ea745f65","","null","","","learningBlock1","","","","That was a dep.","null","","","","","",""
"html-keyboard-response","167","247987","0.0-5.0-2.53","FL","jlov66vr8s","1536","864","0","1","0","5fc65eb000091528ea745f65","","null","","","learningBlock1","","","","<div style=""font-size:60px;""> </div>","null","FL","learning/Slide54.JPG","That was a dep.","","",""
"image-keyboard-response","168","248163","0.0-5.0-0.54","FL","jlov66vr8s","1536","864","0","1","0","5fc65eb000091528ea745f65","","null","","","","","","","learning/Slide55.JPG","null","","","","","",""
"html-keyboard-response","169","249317","0.0-5.0-1.54","FL","jlov66vr8s","1536","864","0","1","0","5fc65eb000091528ea745f65","","null","","","learningBlock1","","","","That was a bim.","null","","","","","",""
"html-keyboard-response","170","250321","0.0-5.0-2.54","FL","jlov66vr8s","1536","864","0","1","0","5fc65eb000091528ea745f65","","null","","","learningBlock1","","","","<div style=""font-size:60px;""> </div>","null","FL","learning/Slide55.JPG","That was a bim.","","",""
"image-keyboard-response","171","250498","0.0-5.0-0.55","FL","jlov66vr8s","1536","864","0","1","0","5fc65eb000091528ea745f65","","null","","","","","","","learning/Slide56.JPG","null","","","","","",""
"html-keyboard-response","172","251650","0.0-5.0-1.55","FL","jlov66vr8s","1536","864","0","1","0","5fc65eb000091528ea745f65","","null","","","learningBlock1","","","","That was a tob.","null","","","","","",""
"html-keyboard-response","173","252654","0.0-5.0-2.55","FL","jlov66vr8s","1536","864","0","1","0","5fc65eb000091528ea745f65","","null","","","learningBlock1","","","","<div style=""font-size:60px;""> </div>","null","FL","learning/Slide56.JPG","That was a tob.","","",""
"image-keyboard-response","174","252830","0.0-5.0-0.56","FL","jlov66vr8s","1536","864","0","1","0","5fc65eb000091528ea745f65","","null","","","","","","","learning/Slide57.JPG","null","","","","","",""
"html-keyboard-response","175","253997","0.0-5.0-1.56","FL","jlov66vr8s","1536","864","0","1","0","5fc65eb000091528ea745f65","","null","","","learningBlock1","","","","That was a dep.","null","","","","","",""
"html-keyboard-response","176","255003","0.0-5.0-2.56","FL","jlov66vr8s","1536","864","0","1","0","5fc65eb000091528ea745f65","","null","","","learningBlock1","","","","<div style=""font-size:60px;""> </div>","null","FL","learning/Slide57.JPG","That was a dep.","","",""
"image-keyboard-response","177","255179","0.0-5.0-0.57","FL","jlov66vr8s","1536","864","0","1","0","5fc65eb000091528ea745f65","","null","","","","","","","learning/Slide58.JPG","null","","","","","",""
"html-keyboard-response","178","256346","0.0-5.0-1.57","FL","jlov66vr8s","1536","864","0","1","0","5fc65eb000091528ea745f65","","null","","","learningBlock1","","","","That was a wug.","null","","","","","",""
"html-keyboard-response","179","257351","0.0-5.0-2.57","FL","jlov66vr8s","1536","864","0","1","0","5fc65eb000091528ea745f65","","null","","","learningBlock1","","","","<div style=""font-size:60px;""> </div>","null","FL","learning/Slide58.JPG","That was a wug.","","",""
"image-keyboard-response","180","257536","0.0-5.0-0.58","FL","jlov66vr8s","1536","864","0","1","0","5fc65eb000091528ea745f65","","null","","","","","","","learning/Slide59.JPG","null","","","","","",""
"html-keyboard-response","181","258694","0.0-5.0-1.58","FL","jlov66vr8s","1536","864","0","1","0","5fc65eb000091528ea745f65","","null","","","learningBlock1","","","","That was a dep.","null","","","","","",""
"html-keyboard-response","182","259696","0.0-5.0-2.58","FL","jlov66vr8s","1536","864","0","1","0","5fc65eb000091528ea745f65","","null","","","learningBlock1","","","","<div style=""font-size:60px;""> </div>","null","FL","learning/Slide59.JPG","That was a dep.","","",""
"image-keyboard-response","183","259874","0.0-5.0-0.59","FL","jlov66vr8s","1536","864","0","1","0","5fc65eb000091528ea745f65","","null","","","","","","","learning/Slide60.JPG","null","","","","","",""
"html-keyboard-response","184","261040","0.0-5.0-1.59","FL","jlov66vr8s","1536","864","0","1","0","5fc65eb000091528ea745f65","","null","","","learningBlock1","","","","That was a wug.","null","","","","","",""
"html-keyboard-response","185","262045","0.0-5.0-2.59","FL","jlov66vr8s","1536","864","0","1","0","5fc65eb000091528ea745f65","","null","","","learningBlock1","","","","<div style=""font-size:60px;""> </div>","null","FL","learning/Slide60.JPG","That was a wug.","","",""
"image-keyboard-response","186","262221","0.0-5.0-0.60","FL","jlov66vr8s","1536","864","0","1","0","5fc65eb000091528ea745f65","","null","","","","","","","learning/Slide61.JPG","null","","","","","",""
"html-keyboard-response","187","263375","0.0-5.0-1.60","FL","jlov66vr8s","1536","864","0","1","0","5fc65eb000091528ea745f65","","null","","","learningBlock1","","","","That was a bim.","null","","","","","",""
"html-keyboard-response","188","264379","0.0-5.0-2.60","FL","jlov66vr8s","1536","864","0","1","0","5fc65eb000091528ea745f65","","null","","","learningBlock1","","","","<div style=""font-size:60px;""> </div>","null","FL","learning/Slide61.JPG","That was a bim.","","",""
"image-keyboard-response","189","264555","0.0-5.0-0.61","FL","jlov66vr8s","1536","864","0","1","0","5fc65eb000091528ea745f65","","null","","","","","","","learning/Slide62.JPG","null","","","","","",""
"html-keyboard-response","190","265724","0.0-5.0-1.61","FL","jlov66vr8s","1536","864","0","1","0","5fc65eb000091528ea745f65","","null","","","learningBlock1","","","","That was a dep.","null","","","","","",""
"html-keyboard-response","191","266729","0.0-5.0-2.61","FL","jlov66vr8s","1536","864","0","1","0","5fc65eb000091528ea745f65","","null","","","learningBlock1","","","","<div style=""font-size:60px;""> </div>","null","FL","learning/Slide62.JPG","That was a dep.","","",""
"image-keyboard-response","192","266906","0.0-5.0-0.62","FL","jlov66vr8s","1536","864","0","1","0","5fc65eb000091528ea745f65","","null","","","","","","","learning/Slide63.JPG","null","","","","","",""
"html-keyboard-response","193","268058","0.0-5.0-1.62","FL","jlov66vr8s","1536","864","0","1","0","5fc65eb000091528ea745f65","","null","","","learningBlock1","","","","That was a bim.","null","","","","","",""
"html-keyboard-response","194","269063","0.0-5.0-2.62","FL","jlov66vr8s","1536","864","0","1","0","5fc65eb000091528ea745f65","","null","","","learningBlock1","","","","<div style=""font-size:60px;""> </div>","null","FL","learning/Slide63.JPG","That was a bim.","","",""
"image-keyboard-response","195","269248","0.0-5.0-0.63","FL","jlov66vr8s","1536","864","0","1","0","5fc65eb000091528ea745f65","","null","","","","","","","learning/Slide64.JPG","null","","","","","",""
"html-keyboard-response","196","270407","0.0-5.0-1.63","FL","jlov66vr8s","1536","864","0","1","0","5fc65eb000091528ea745f65","","null","","","learningBlock1","","","","That was a tob.","null","","","","","",""
"html-keyboard-response","197","271412","0.0-5.0-2.63","FL","jlov66vr8s","1536","864","0","1","0","5fc65eb000091528ea745f65","","null","","","learningBlock1","","","","<div style=""font-size:60px;""> </div>","null","FL","learning/Slide64.JPG","That was a tob.","","",""
"image-keyboard-response","198","271597","0.0-5.0-0.64","FL","jlov66vr8s","1536","864","0","1","0","5fc65eb000091528ea745f65","","null","","","","","","","learning/Slide65.JPG","null","","","","","",""
"html-keyboard-response","199","272755","0.0-5.0-1.64","FL","jlov66vr8s","1536","864","0","1","0","5fc65eb000091528ea745f65","","null","","","learningBlock1","","","","That was a wug.","null","","","","","",""
"html-keyboard-response","200","273759","0.0-5.0-2.64","FL","jlov66vr8s","1536","864","0","1","0","5fc65eb000091528ea745f65","","null","","","learningBlock1","","","","<div style=""font-size:60px;""> </div>","null","FL","learning/Slide65.JPG","That was a wug.","","",""
"image-keyboard-response","201","273935","0.0-5.0-0.65","FL","jlov66vr8s","1536","864","0","1","0","5fc65eb000091528ea745f65","","null","","","","","","","learning/Slide66.JPG","null","","","","","",""
"html-keyboard-response","202","275089","0.0-5.0-1.65","FL","jlov66vr8s","1536","864","0","1","0","5fc65eb000091528ea745f65","","null","","","learningBlock1","","","","That was a dep.","null","","","","","",""
"html-keyboard-response","203","276092","0.0-5.0-2.65","FL","jlov66vr8s","1536","864","0","1","0","5fc65eb000091528ea745f65","","null","","","learningBlock1","","","","<div style=""font-size:60px;""> </div>","null","FL","learning/Slide66.JPG","That was a dep.","","",""
"image-keyboard-response","204","276269","0.0-5.0-0.66","FL","jlov66vr8s","1536","864","0","1","0","5fc65eb000091528ea745f65","","null","","","","","","","learning/Slide67.JPG","null","","","","","",""
"html-keyboard-response","205","277436","0.0-5.0-1.66","FL","jlov66vr8s","1536","864","0","1","0","5fc65eb000091528ea745f65","","null","","","learningBlock1","","","","That was a tob.","null","","","","","",""
"html-keyboard-response","206","278441","0.0-5.0-2.66","FL","jlov66vr8s","1536","864","0","1","0","5fc65eb000091528ea745f65","","null","","","learningBlock1","","","","<div style=""font-size:60px;""> </div>","null","FL","learning/Slide67.JPG","That was a tob.","","",""
"image-keyboard-response","207","278618","0.0-5.0-0.67","FL","jlov66vr8s","1536","864","0","1","0","5fc65eb000091528ea745f65","","null","","","","","","","learning/Slide68.JPG","null","","","","","",""
"html-keyboard-response","208","279783","0.0-5.0-1.67","FL","jlov66vr8s","1536","864","0","1","0","5fc65eb000091528ea745f65","","null","","","learningBlock1","","","","That was a wug.","null","","","","","",""
"html-keyboard-response","209","280787","0.0-5.0-2.67","FL","jlov66vr8s","1536","864","0","1","0","5fc65eb000091528ea745f65","","null","","","learningBlock1","","","","<div style=""font-size:60px;""> </div>","null","FL","learning/Slide68.JPG","That was a wug.","","",""
"image-keyboard-response","210","280964","0.0-5.0-0.68","FL","jlov66vr8s","1536","864","0","1","0","5fc65eb000091528ea745f65","","null","","","","","","","learning/Slide69.JPG","null","","","","","",""
"html-keyboard-response","211","282131","0.0-5.0-1.68","FL","jlov66vr8s","1536","864","0","1","0","5fc65eb000091528ea745f65","","null","","","learningBlock1","","","","That was a tob.","null","","","","","",""
"html-keyboard-response","212","283136","0.0-5.0-2.68","FL","jlov66vr8s","1536","864","0","1","0","5fc65eb000091528ea745f65","","null","","","learningBlock1","","","","<div style=""font-size:60px;""> </div>","null","FL","learning/Slide69.JPG","That was a tob.","","",""
"image-keyboard-response","213","283322","0.0-5.0-0.69","FL","jlov66vr8s","1536","864","0","1","0","5fc65eb000091528ea745f65","","null","","","","","","","learning/Slide70.JPG","null","","","","","",""
"html-keyboard-response","214","284479","0.0-5.0-1.69","FL","jlov66vr8s","1536","864","0","1","0","5fc65eb000091528ea745f65","","null","","","learningBlock1","","","","That was a dep.","null","","","","","",""
"html-keyboard-response","215","285482","0.0-5.0-2.69","FL","jlov66vr8s","1536","864","0","1","0","5fc65eb000091528ea745f65","","null","","","learningBlock1","","","","<div style=""font-size:60px;""> </div>","null","FL","learning/Slide70.JPG","That was a dep.","","",""
"image-keyboard-response","216","285668","0.0-5.0-0.70","FL","jlov66vr8s","1536","864","0","1","0","5fc65eb000091528ea745f65","","null","","","","","","","learning/Slide71.JPG","null","","","","","",""
"html-keyboard-response","217","286825","0.0-5.0-1.70","FL","jlov66vr8s","1536","864","0","1","0","5fc65eb000091528ea745f65","","null","","","learningBlock1","","","","That was a wug.","null","","","","","",""
"html-keyboard-response","218","287832","0.0-5.0-2.70","FL","jlov66vr8s","1536","864","0","1","0","5fc65eb000091528ea745f65","","null","","","learningBlock1","","","","<div style=""font-size:60px;""> </div>","null","FL","learning/Slide71.JPG","That was a wug.","","",""
"image-keyboard-response","219","288016","0.0-5.0-0.71","FL","jlov66vr8s","1536","864","0","1","0","5fc65eb000091528ea745f65","","null","","","","","","","learning/Slide72.JPG","null","","","","","",""
"html-keyboard-response","220","289173","0.0-5.0-1.71","FL","jlov66vr8s","1536","864","0","1","0","5fc65eb000091528ea745f65","","null","","","learningBlock1","","","","That was a bim.","null","","","","","",""
"html-keyboard-response","221","290176","0.0-5.0-2.71","FL","jlov66vr8s","1536","864","0","1","0","5fc65eb000091528ea745f65","","null","","","learningBlock1","","","","<div style=""font-size:60px;""> </div>","null","FL","learning/Slide72.JPG","That was a bim.","","",""
"image-keyboard-response","222","290353","0.0-5.0-0.72","FL","jlov66vr8s","1536","864","0","1","0","5fc65eb000091528ea745f65","","null","","","","","","","learning/Slide73.JPG","null","","","","","",""
"html-keyboard-response","223","291523","0.0-5.0-1.72","FL","jlov66vr8s","1536","864","0","1","0","5fc65eb000091528ea745f65","","null","","","learningBlock1","","","","That was a wug.","null","","","","","",""
"html-keyboard-response","224","292528","0.0-5.0-2.72","FL","jlov66vr8s","1536","864","0","1","0","5fc65eb000091528ea745f65","","null","","","learningBlock1","","","","<div style=""font-size:60px;""> </div>","null","FL","learning/Slide73.JPG","That was a wug.","","",""
"image-keyboard-response","225","292704","0.0-5.0-0.73","FL","jlov66vr8s","1536","864","0","1","0","5fc65eb000091528ea745f65","","null","","","","","","","learning/Slide74.JPG","null","","","","","",""
"html-keyboard-response","226","293872","0.0-5.0-1.73","FL","jlov66vr8s","1536","864","0","1","0","5fc65eb000091528ea745f65","","null","","","learningBlock1","","","","That was a dep.","null","","","","","",""
"html-keyboard-response","227","294876","0.0-5.0-2.73","FL","jlov66vr8s","1536","864","0","1","0","5fc65eb000091528ea745f65","","null","","","learningBlock1","","","","<div style=""font-size:60px;""> </div>","null","FL","learning/Slide74.JPG","That was a dep.","","",""
"image-keyboard-response","228","295062","0.0-5.0-0.74","FL","jlov66vr8s","1536","864","0","1","0","5fc65eb000091528ea745f65","","null","","","","","","","learning/Slide75.JPG","null","","","","","",""
"html-keyboard-response","229","296221","0.0-5.0-1.74","FL","jlov66vr8s","1536","864","0","1","0","5fc65eb000091528ea745f65","","null","","","learningBlock1","","","","That was a tob.","null","","","","","",""
"html-keyboard-response","230","297224","0.0-5.0-2.74","FL","jlov66vr8s","1536","864","0","1","0","5fc65eb000091528ea745f65","","null","","","learningBlock1","","","","<div style=""font-size:60px;""> </div>","null","FL","learning/Slide75.JPG","That was a tob.","","",""
"image-keyboard-response","231","297400","0.0-5.0-0.75","FL","jlov66vr8s","1536","864","0","1","0","5fc65eb000091528ea745f65","","null","","","","","","","learning/Slide76.JPG","null","","","","","",""
"html-keyboard-response","232","298567","0.0-5.0-1.75","FL","jlov66vr8s","1536","864","0","1","0","5fc65eb000091528ea745f65","","null","","","learningBlock1","","","","That was a bim.","null","","","","","",""
"html-keyboard-response","233","299571","0.0-5.0-2.75","FL","jlov66vr8s","1536","864","0","1","0","5fc65eb000091528ea745f65","","null","","","learningBlock1","","","","<div style=""font-size:60px;""> </div>","null","FL","learning/Slide76.JPG","That was a bim.","","",""
"image-keyboard-response","234","299747","0.0-5.0-0.76","FL","jlov66vr8s","1536","864","0","1","0","5fc65eb000091528ea745f65","","null","","","","","","","learning/Slide77.JPG","null","","","","","",""
"html-keyboard-response","235","300916","0.0-5.0-1.76","FL","jlov66vr8s","1536","864","0","1","0","5fc65eb000091528ea745f65","","null","","","learningBlock1","","","","That was a tob.","null","","","","","",""
"html-keyboard-response","236","301920","0.0-5.0-2.76","FL","jlov66vr8s","1536","864","0","1","0","5fc65eb000091528ea745f65","","null","","","learningBlock1","","","","<div style=""font-size:60px;""> </div>","null","FL","learning/Slide77.JPG","That was a tob.","","",""
"image-keyboard-response","237","302096","0.0-5.0-0.77","FL","jlov66vr8s","1536","864","0","1","0","5fc65eb000091528ea745f65","","null","","","","","","","learning/Slide78.JPG","null","","","","","",""
"html-keyboard-response","238","303264","0.0-5.0-1.77","FL","jlov66vr8s","1536","864","0","1","0","5fc65eb000091528ea745f65","","null","","","learningBlock1","","","","That was a wug.","null","","","","","",""
"html-keyboard-response","239","304269","0.0-5.0-2.77","FL","jlov66vr8s","1536","864","0","1","0","5fc65eb000091528ea745f65","","null","","","learningBlock1","","","","<div style=""font-size:60px;""> </div>","null","FL","learning/Slide78.JPG","That was a wug.","","",""
"image-keyboard-response","240","304445","0.0-5.0-0.78","FL","jlov66vr8s","1536","864","0","1","0","5fc65eb000091528ea745f65","","null","","","","","","","learning/Slide79.JPG","null","","","","","",""
"html-keyboard-response","241","305610","0.0-5.0-1.78","FL","jlov66vr8s","1536","864","0","1","0","5fc65eb000091528ea745f65","","null","","","learningBlock1","","","","That was a bim.","null","","","","","",""
"html-keyboard-response","242","306613","0.0-5.0-2.78","FL","jlov66vr8s","1536","864","0","1","0","5fc65eb000091528ea745f65","","null","","","learningBlock1","","","","<div style=""font-size:60px;""> </div>","null","FL","learning/Slide79.JPG","That was a bim.","","",""
"image-keyboard-response","243","306789","0.0-5.0-0.79","FL","jlov66vr8s","1536","864","0","1","0","5fc65eb000091528ea745f65","","null","","","","","","","learning/Slide80.JPG","null","","","","","",""
"html-keyboard-response","244","307956","0.0-5.0-1.79","FL","jlov66vr8s","1536","864","0","1","0","5fc65eb000091528ea745f65","","null","","","learningBlock1","","","","That was a tob.","null","","","","","",""
"html-keyboard-response","245","308961","0.0-5.0-2.79","FL","jlov66vr8s","1536","864","0","1","0","5fc65eb000091528ea745f65","","null","","","learningBlock1","","","","<div style=""font-size:60px;""> </div>","null","FL","learning/Slide80.JPG","That was a tob.","","",""
"instructions","246","312030","0.0-6.0","FL","jlov66vr8s","1536","864","0","1","0","5fc65eb000091528ea745f65","","NA","","[{""page_index"":0,""viewing_time"":3067.8599999810103}]","instructions","","","","","","","","","","",""
"image-keyboard-response","247","312206","0.0-7.0-0.0","FL","jlov66vr8s","1536","864","0","1","0","5fc65eb000091528ea745f65","","null","","","","","","","learning/Slide81.JPG","null","","","","","",""
"html-keyboard-response","248","313363","0.0-7.0-1.0","FL","jlov66vr8s","1536","864","0","1","0","5fc65eb000091528ea745f65","","null","","","learningBlock2","","","","That was a wug.","null","","","","","",""
"html-keyboard-response","249","314368","0.0-7.0-2.0","FL","jlov66vr8s","1536","864","0","1","0","5fc65eb000091528ea745f65","","null","","","learningBlock2","","","","<div style=""font-size:60px;""> </div>","null","FL","learning/Slide81.JPG","That was a wug.","","",""
"image-keyboard-response","250","314554","0.0-7.0-0.1","FL","jlov66vr8s","1536","864","0","1","0","5fc65eb000091528ea745f65","","null","","","","","","","learning/Slide82.JPG","null","","","","","",""
"html-keyboard-response","251","315716","0.0-7.0-1.1","FL","jlov66vr8s","1536","864","0","1","0","5fc65eb000091528ea745f65","","null","","","learningBlock2","","","","That was a bim.","null","","","","","",""
"html-keyboard-response","252","316719","0.0-7.0-2.1","FL","jlov66vr8s","1536","864","0","1","0","5fc65eb000091528ea745f65","","null","","","learningBlock2","","","","<div style=""font-size:60px;""> </div>","null","FL","learning/Slide82.JPG","That was a bim.","","",""
"image-keyboard-response","253","316895","0.0-7.0-0.2","FL","jlov66vr8s","1536","864","0","1","0","5fc65eb000091528ea745f65","","null","","","","","","","learning/Slide83.JPG","null","","","","","",""
"html-keyboard-response","254","318047","0.0-7.0-1.2","FL","jlov66vr8s","1536","864","0","1","0","5fc65eb000091528ea745f65","","null","","","learningBlock2","","","","That was a wug.","null","","","","","",""
"html-keyboard-response","255","319052","0.0-7.0-2.2","FL","jlov66vr8s","1536","864","0","1","0","5fc65eb000091528ea745f65","","null","","","learningBlock2","","","","<div style=""font-size:60px;""> </div>","null","FL","learning/Slide83.JPG","That was a wug.","","",""
"image-keyboard-response","256","319227","0.0-7.0-0.3","FL","jlov66vr8s","1536","864","0","1","0","5fc65eb000091528ea745f65","","null","","","","","","","learning/Slide84.JPG","null","","","","","",""
"html-keyboard-response","257","320381","0.0-7.0-1.3","FL","jlov66vr8s","1536","864","0","1","0","5fc65eb000091528ea745f65","","null","","","learningBlock2","","","","That was a dep.","null","","","","","",""
"html-keyboard-response","258","321385","0.0-7.0-2.3","FL","jlov66vr8s","1536","864","0","1","0","5fc65eb000091528ea745f65","","null","","","learningBlock2","","","","<div style=""font-size:60px;""> </div>","null","FL","learning/Slide84.JPG","That was a dep.","","",""
"image-keyboard-response","259","321570","0.0-7.0-0.4","FL","jlov66vr8s","1536","864","0","1","0","5fc65eb000091528ea745f65","","null","","","","","","","learning/Slide85.JPG","null","","","","","",""
"html-keyboard-response","260","322731","0.0-7.0-1.4","FL","jlov66vr8s","1536","864","0","1","0","5fc65eb000091528ea745f65","","null","","","learningBlock2","","","","That was a bim.","null","","","","","",""
"html-keyboard-response","261","323737","0.0-7.0-2.4","FL","jlov66vr8s","1536","864","0","1","0","5fc65eb000091528ea745f65","","null","","","learningBlock2","","","","<div style=""font-size:60px;""> </div>","null","FL","learning/Slide85.JPG","That was a bim.","","",""
"image-keyboard-response","262","323922","0.0-7.0-0.5","FL","jlov66vr8s","1536","864","0","1","0","5fc65eb000091528ea745f65","","null","","","","","","","learning/Slide86.JPG","null","","","","","",""
"html-keyboard-response","263","325079","0.0-7.0-1.5","FL","jlov66vr8s","1536","864","0","1","0","5fc65eb000091528ea745f65","","null","","","learningBlock2","","","","That was a tob.","null","","","","","",""
"html-keyboard-response","264","326083","0.0-7.0-2.5","FL","jlov66vr8s","1536","864","0","1","0","5fc65eb000091528ea745f65","","null","","","learningBlock2","","","","<div style=""font-size:60px;""> </div>","null","FL","learning/Slide86.JPG","That was a tob.","","",""
"image-keyboard-response","265","326268","0.0-7.0-0.6","FL","jlov66vr8s","1536","864","0","1","0","5fc65eb000091528ea745f65","","null","","","","","","","learning/Slide87.JPG","null","","","","","",""
"html-keyboard-response","266","327430","0.0-7.0-1.6","FL","jlov66vr8s","1536","864","0","1","0","5fc65eb000091528ea745f65","","null","","","learningBlock2","","","","That was a wug.","null","","","","","",""
"html-keyboard-response","267","328433","0.0-7.0-2.6","FL","jlov66vr8s","1536","864","0","1","0","5fc65eb000091528ea745f65","","null","","","learningBlock2","","","","<div style=""font-size:60px;""> </div>","null","FL","learning/Slide87.JPG","That was a wug.","","",""
"image-keyboard-response","268","328609","0.0-7.0-0.7","FL","jlov66vr8s","1536","864","0","1","0","5fc65eb000091528ea745f65","","null","","","","","","","learning/Slide88.JPG","null","","","","","",""
"html-keyboard-response","269","329762","0.0-7.0-1.7","FL","jlov66vr8s","1536","864","0","1","0","5fc65eb000091528ea745f65","","null","","","learningBlock2","","","","That was a tob.","null","","","","","",""
"html-keyboard-response","270","330767","0.0-7.0-2.7","FL","jlov66vr8s","1536","864","0","1","0","5fc65eb000091528ea745f65","","null","","","learningBlock2","","","","<div style=""font-size:60px;""> </div>","null","FL","learning/Slide88.JPG","That was a tob.","","",""
"image-keyboard-response","271","330944","0.0-7.0-0.8","FL","jlov66vr8s","1536","864","0","1","0","5fc65eb000091528ea745f65","","null","","","","","","","learning/Slide89.JPG","null","","","","","",""
"html-keyboard-response","272","332116","0.0-7.0-1.8","FL","jlov66vr8s","1536","864","0","1","0","5fc65eb000091528ea745f65","","null","","","learningBlock2","","","","That was a bim.","null","","","","","",""
"html-keyboard-response","273","333124","0.0-7.0-2.8","FL","jlov66vr8s","1536","864","0","1","0","5fc65eb000091528ea745f65","","null","","","learningBlock2","","","","<div style=""font-size:60px;""> </div>","null","FL","learning/Slide89.JPG","That was a bim.","","",""
"image-keyboard-response","274","333300","0.0-7.0-0.9","FL","jlov66vr8s","1536","864","0","1","0","5fc65eb000091528ea745f65","","null","","","","","","","learning/Slide90.JPG","null","","","","","",""
"html-keyboard-response","275","334473","0.0-7.0-1.9","FL","jlov66vr8s","1536","864","0","1","0","5fc65eb000091528ea745f65","","null","","","learningBlock2","","","","That was a dep.","null","","","","","",""
"html-keyboard-response","276","335480","0.0-7.0-2.9","FL","jlov66vr8s","1536","864","0","1","0","5fc65eb000091528ea745f65","","null","","","learningBlock2","","","","<div style=""font-size:60px;""> </div>","null","FL","learning/Slide90.JPG","That was a dep.","","",""
"image-keyboard-response","277","335656","0.0-7.0-0.10","FL","jlov66vr8s","1536","864","0","1","0","5fc65eb000091528ea745f65","","null","","","","","","","learning/Slide91.JPG","null","","","","","",""
"html-keyboard-response","278","336829","0.0-7.0-1.10","FL","jlov66vr8s","1536","864","0","1","0","5fc65eb000091528ea745f65","","null","","","learningBlock2","","","","That was a wug.","null","","","","","",""
"html-keyboard-response","279","337833","0.0-7.0-2.10","FL","jlov66vr8s","1536","864","0","1","0","5fc65eb000091528ea745f65","","null","","","learningBlock2","","","","<div style=""font-size:60px;""> </div>","null","FL","learning/Slide91.JPG","That was a wug.","","",""
"image-keyboard-response","280","338019","0.0-7.0-0.11","FL","jlov66vr8s","1536","864","0","1","0","5fc65eb000091528ea745f65","","null","","","","","","","learning/Slide92.JPG","null","","","","","",""
"html-keyboard-response","281","339178","0.0-7.0-1.11","FL","jlov66vr8s","1536","864","0","1","0","5fc65eb000091528ea745f65","","null","","","learningBlock2","","","","That was a tob.","null","","","","","",""
"html-keyboard-response","282","340183","0.0-7.0-2.11","FL","jlov66vr8s","1536","864","0","1","0","5fc65eb000091528ea745f65","","null","","","learningBlock2","","","","<div style=""font-size:60px;""> </div>","null","FL","learning/Slide92.JPG","That was a tob.","","",""
"image-keyboard-response","283","340360","0.0-7.0-0.12","FL","jlov66vr8s","1536","864","0","1","0","5fc65eb000091528ea745f65","","null","","","","","","","learning/Slide93.JPG","null","","","","","",""
"html-keyboard-response","284","341528","0.0-7.0-1.12","FL","jlov66vr8s","1536","864","0","1","0","5fc65eb000091528ea745f65","","null","","","learningBlock2","","","","That was a bim.","null","","","","","",""
"html-keyboard-response","285","342531","0.0-7.0-2.12","FL","jlov66vr8s","1536","864","0","1","0","5fc65eb000091528ea745f65","","null","","","learningBlock2","","","","<div style=""font-size:60px;""> </div>","null","FL","learning/Slide93.JPG","That was a bim.","","",""
"image-keyboard-response","286","342707","0.0-7.0-0.13","FL","jlov66vr8s","1536","864","0","1","0","5fc65eb000091528ea745f65","","null","","","","","","","learning/Slide94.JPG","null","","","","","",""
"html-keyboard-response","287","343877","0.0-7.0-1.13","FL","jlov66vr8s","1536","864","0","1","0","5fc65eb000091528ea745f65","","null","","","learningBlock2","","","","That was a tob.","null","","","","","",""
"html-keyboard-response","288","344880","0.0-7.0-2.13","FL","jlov66vr8s","1536","864","0","1","0","5fc65eb000091528ea745f65","","null","","","learningBlock2","","","","<div style=""font-size:60px;""> </div>","null","FL","learning/Slide94.JPG","That was a tob.","","",""
"image-keyboard-response","289","345056","0.0-7.0-0.14","FL","jlov66vr8s","1536","864","0","1","0","5fc65eb000091528ea745f65","","null","","","","","","","learning/Slide95.JPG","null","","","","","",""
"html-keyboard-response","290","346223","0.0-7.0-1.14","FL","jlov66vr8s","1536","864","0","1","0","5fc65eb000091528ea745f65","","null","","","learningBlock2","","","","That was a wug.","null","","","","","",""
"html-keyboard-response","291","347229","0.0-7.0-2.14","FL","jlov66vr8s","1536","864","0","1","0","5fc65eb000091528ea745f65","","null","","","learningBlock2","","","","<div style=""font-size:60px;""> </div>","null","FL","learning/Slide95.JPG","That was a wug.","","",""
"image-keyboard-response","292","347415","0.0-7.0-0.15","FL","jlov66vr8s","1536","864","0","1","0","5fc65eb000091528ea745f65","","null","","","","","","","learning/Slide96.JPG","null","","","","","",""
"html-keyboard-response","293","348570","0.0-7.0-1.15","FL","jlov66vr8s","1536","864","0","1","0","5fc65eb000091528ea745f65","","null","","","learningBlock2","","","","That was a tob.","null","","","","","",""
"html-keyboard-response","294","349576","0.0-7.0-2.15","FL","jlov66vr8s","1536","864","0","1","0","5fc65eb000091528ea745f65","","null","","","learningBlock2","","","","<div style=""font-size:60px;""> </div>","null","FL","learning/Slide96.JPG","That was a tob.","","",""
"image-keyboard-response","295","349752","0.0-7.0-0.16","FL","jlov66vr8s","1536","864","0","1","0","5fc65eb000091528ea745f65","","null","","","","","","","learning/Slide97.JPG","null","","","","","",""
"html-keyboard-response","296","350920","0.0-7.0-1.16","FL","jlov66vr8s","1536","864","0","1","0","5fc65eb000091528ea745f65","","null","","","learningBlock2","","","","That was a dep.","null","","","","","",""
"html-keyboard-response","297","351924","0.0-7.0-2.16","FL","jlov66vr8s","1536","864","0","1","0","5fc65eb000091528ea745f65","","null","","","learningBlock2","","","","<div style=""font-size:60px;""> </div>","null","FL","learning/Slide97.JPG","That was a dep.","","",""
"image-keyboard-response","298","352110","0.0-7.0-0.17","FL","jlov66vr8s","1536","864","0","1","0","5fc65eb000091528ea745f65","","null","","","","","","","learning/Slide98.JPG","null","","","","","",""
"html-keyboard-response","299","353268","0.0-7.0-1.17","FL","jlov66vr8s","1536","864","0","1","0","5fc65eb000091528ea745f65","","null","","","learningBlock2","","","","That was a bim.","null","","","","","",""
"html-keyboard-response","300","354272","0.0-7.0-2.17","FL","jlov66vr8s","1536","864","0","1","0","5fc65eb000091528ea745f65","","null","","","learningBlock2","","","","<div style=""font-size:60px;""> </div>","null","FL","learning/Slide98.JPG","That was a bim.","","",""
"image-keyboard-response","301","354456","0.0-7.0-0.18","FL","jlov66vr8s","1536","864","0","1","0","5fc65eb000091528ea745f65","","null","","","","","","","learning/Slide99.JPG","null","","","","","",""
"html-keyboard-response","302","355617","0.0-7.0-1.18","FL","jlov66vr8s","1536","864","0","1","0","5fc65eb000091528ea745f65","","null","","","learningBlock2","","","","That was a dep.","null","","","","","",""
"html-keyboard-response","303","356621","0.0-7.0-2.18","FL","jlov66vr8s","1536","864","0","1","0","5fc65eb000091528ea745f65","","null","","","learningBlock2","","","","<div style=""font-size:60px;""> </div>","null","FL","learning/Slide99.JPG","That was a dep.","","",""
"image-keyboard-response","304","356798","0.0-7.0-0.19","FL","jlov66vr8s","1536","864","0","1","0","5fc65eb000091528ea745f65","","null","","","","","","","learning/Slide100.JPG","null","","","","","",""
"html-keyboard-response","305","357950","0.0-7.0-1.19","FL","jlov66vr8s","1536","864","0","1","0","5fc65eb000091528ea745f65","","null","","","learningBlock2","","","","That was a bim.","null","","","","","",""
"html-keyboard-response","306","358956","0.0-7.0-2.19","FL","jlov66vr8s","1536","864","0","1","0","5fc65eb000091528ea745f65","","null","","","learningBlock2","","","","<div style=""font-size:60px;""> </div>","null","FL","learning/Slide100.JPG","That was a bim.","","",""
"image-keyboard-response","307","359132","0.0-7.0-0.20","FL","jlov66vr8s","1536","864","0","1","0","5fc65eb000091528ea745f65","","null","","","","","","","learning/Slide101.JPG","null","","","","","",""
"html-keyboard-response","308","360287","0.0-7.0-1.20","FL","jlov66vr8s","1536","864","0","1","0","5fc65eb000091528ea745f65","","null","","","learningBlock2","","","","That was a tob.","null","","","","","",""
"html-keyboard-response","309","361291","0.0-7.0-2.20","FL","jlov66vr8s","1536","864","0","1","0","5fc65eb000091528ea745f65","","null","","","learningBlock2","","","","<div style=""font-size:60px;""> </div>","null","FL","learning/Slide101.JPG","That was a tob.","","",""
"image-keyboard-response","310","361477","0.0-7.0-0.21","FL","jlov66vr8s","1536","864","0","1","0","5fc65eb000091528ea745f65","","null","","","","","","","learning/Slide102.JPG","null","","","","","",""
"html-keyboard-response","311","362635","0.0-7.0-1.21","FL","jlov66vr8s","1536","864","0","1","0","5fc65eb000091528ea745f65","","null","","","learningBlock2","","","","That was a bim.","null","","","","","",""
"html-keyboard-response","312","363641","0.0-7.0-2.21","FL","jlov66vr8s","1536","864","0","1","0","5fc65eb000091528ea745f65","","null","","","learningBlock2","","","","<div style=""font-size:60px;""> </div>","null","FL","learning/Slide102.JPG","That was a bim.","","",""
"image-keyboard-response","313","363817","0.0-7.0-0.22","FL","jlov66vr8s","1536","864","0","1","0","5fc65eb000091528ea745f65","","null","","","","","","","learning/Slide103.JPG","null","","","","","",""
"html-keyboard-response","314","364983","0.0-7.0-1.22","FL","jlov66vr8s","1536","864","0","1","0","5fc65eb000091528ea745f65","","null","","","learningBlock2","","","","That was a dep.","null","","","","","",""
"html-keyboard-response","315","365986","0.0-7.0-2.22","FL","jlov66vr8s","1536","864","0","1","0","5fc65eb000091528ea745f65","","null","","","learningBlock2","","","","<div style=""font-size:60px;""> </div>","null","FL","learning/Slide103.JPG","That was a dep.","","",""
"image-keyboard-response","316","366162","0.0-7.0-0.23","FL","jlov66vr8s","1536","864","0","1","0","5fc65eb000091528ea745f65","","null","","","","","","","learning/Slide104.JPG","null","","","","","",""
"html-keyboard-response","317","367332","0.0-7.0-1.23","FL","jlov66vr8s","1536","864","0","1","0","5fc65eb000091528ea745f65","","null","","","learningBlock2","","","","That was a tob.","null","","","","","",""
"html-keyboard-response","318","368336","0.0-7.0-2.23","FL","jlov66vr8s","1536","864","0","1","0","5fc65eb000091528ea745f65","","null","","","learningBlock2","","","","<div style=""font-size:60px;""> </div>","null","FL","learning/Slide104.JPG","That was a tob.","","",""
"image-keyboard-response","319","368512","0.0-7.0-0.24","FL","jlov66vr8s","1536","864","0","1","0","5fc65eb000091528ea745f65","","null","","","","","","","learning/Slide105.JPG","null","","","","","",""
"html-keyboard-response","320","369665","0.0-7.0-1.24","FL","jlov66vr8s","1536","864","0","1","0","5fc65eb000091528ea745f65","","null","","","learningBlock2","","","","That was a dep.","null","","","","","",""
"html-keyboard-response","321","370669","0.0-7.0-2.24","FL","jlov66vr8s","1536","864","0","1","0","5fc65eb000091528ea745f65","","null","","","learningBlock2","","","","<div style=""font-size:60px;""> </div>","null","FL","learning/Slide105.JPG","That was a dep.","","",""
"image-keyboard-response","322","370845","0.0-7.0-0.25","FL","jlov66vr8s","1536","864","0","1","0","5fc65eb000091528ea745f65","","null","","","","","","","learning/Slide106.JPG","null","","","","","",""
"html-keyboard-response","323","371998","0.0-7.0-1.25","FL","jlov66vr8s","1536","864","0","1","0","5fc65eb000091528ea745f65","","null","","","learningBlock2","","","","That was a wug.","null","","","","","",""
"html-keyboard-response","324","373004","0.0-7.0-2.25","FL","jlov66vr8s","1536","864","0","1","0","5fc65eb000091528ea745f65","","null","","","learningBlock2","","","","<div style=""font-size:60px;""> </div>","null","FL","learning/Slide106.JPG","That was a wug.","","",""
"image-keyboard-response","325","373181","0.0-7.0-0.26","FL","jlov66vr8s","1536","864","0","1","0","5fc65eb000091528ea745f65","","null","","","","","","","learning/Slide107.JPG","null","","","","","",""
"html-keyboard-response","326","374348","0.0-7.0-1.26","FL","jlov66vr8s","1536","864","0","1","0","5fc65eb000091528ea745f65","","null","","","learningBlock2","","","","That was a bim.","null","","","","","",""
"html-keyboard-response","327","375353","0.0-7.0-2.26","FL","jlov66vr8s","1536","864","0","1","0","5fc65eb000091528ea745f65","","null","","","learningBlock2","","","","<div style=""font-size:60px;""> </div>","null","FL","learning/Slide107.JPG","That was a bim.","","",""
"image-keyboard-response","328","375530","0.0-7.0-0.27","FL","jlov66vr8s","1536","864","0","1","0","5fc65eb000091528ea745f65","","null","","","","","","","learning/Slide108.JPG","null","","","","","",""
"html-keyboard-response","329","376699","0.0-7.0-1.27","FL","jlov66vr8s","1536","864","0","1","0","5fc65eb000091528ea745f65","","null","","","learningBlock2","","","","That was a dep.","null","","","","","",""
"html-keyboard-response","330","377703","0.0-7.0-2.27","FL","jlov66vr8s","1536","864","0","1","0","5fc65eb000091528ea745f65","","null","","","learningBlock2","","","","<div style=""font-size:60px;""> </div>","null","FL","learning/Slide108.JPG","That was a dep.","","",""
"image-keyboard-response","331","377888","0.0-7.0-0.28","FL","jlov66vr8s","1536","864","0","1","0","5fc65eb000091528ea745f65","","null","","","","","","","learning/Slide109.JPG","null","","","","","",""
"html-keyboard-response","332","379046","0.0-7.0-1.28","FL","jlov66vr8s","1536","864","0","1","0","5fc65eb000091528ea745f65","","null","","","learningBlock2","","","","That was a wug.","null","","","","","",""
"html-keyboard-response","333","380052","0.0-7.0-2.28","FL","jlov66vr8s","1536","864","0","1","0","5fc65eb000091528ea745f65","","null","","","learningBlock2","","","","<div style=""font-size:60px;""> </div>","null","FL","learning/Slide109.JPG","That was a wug.","","",""
"image-keyboard-response","334","380228","0.0-7.0-0.29","FL","jlov66vr8s","1536","864","0","1","0","5fc65eb000091528ea745f65","","null","","","","","","","learning/Slide110.JPG","null","","","","","",""
"html-keyboard-response","335","381382","0.0-7.0-1.29","FL","jlov66vr8s","1536","864","0","1","0","5fc65eb000091528ea745f65","","null","","","learningBlock2","","","","That was a bim.","null","","","","","",""
"html-keyboard-response","336","382387","0.0-7.0-2.29","FL","jlov66vr8s","1536","864","0","1","0","5fc65eb000091528ea745f65","","null","","","learningBlock2","","","","<div style=""font-size:60px;""> </div>","null","FL","learning/Slide110.JPG","That was a bim.","","",""
"image-keyboard-response","337","382563","0.0-7.0-0.30","FL","jlov66vr8s","1536","864","0","1","0","5fc65eb000091528ea745f65","","null","","","","","","","learning/Slide111.JPG","null","","","","","",""
"html-keyboard-response","338","383732","0.0-7.0-1.30","FL","jlov66vr8s","1536","864","0","1","0","5fc65eb000091528ea745f65","","null","","","learningBlock2","","","","That was a tob.","null","","","","","",""
"html-keyboard-response","339","384738","0.0-7.0-2.30","FL","jlov66vr8s","1536","864","0","1","0","5fc65eb000091528ea745f65","","null","","","learningBlock2","","","","<div style=""font-size:60px;""> </div>","null","FL","learning/Slide111.JPG","That was a tob.","","",""
"image-keyboard-response","340","384924","0.0-7.0-0.31","FL","jlov66vr8s","1536","864","0","1","0","5fc65eb000091528ea745f65","","null","","","","","","","learning/Slide112.JPG","null","","","","","",""
"html-keyboard-response","341","386083","0.0-7.0-1.31","FL","jlov66vr8s","1536","864","0","1","0","5fc65eb000091528ea745f65","","null","","","learningBlock2","","","","That was a wug.","null","","","","","",""
"html-keyboard-response","342","387089","0.0-7.0-2.31","FL","jlov66vr8s","1536","864","0","1","0","5fc65eb000091528ea745f65","","null","","","learningBlock2","","","","<div style=""font-size:60px;""> </div>","null","FL","learning/Slide112.JPG","That was a wug.","","",""
"image-keyboard-response","343","387265","0.0-7.0-0.32","FL","jlov66vr8s","1536","864","0","1","0","5fc65eb000091528ea745f65","","null","","","","","","","learning/Slide113.JPG","null","","","","","",""
"html-keyboard-response","344","388430","0.0-7.0-1.32","FL","jlov66vr8s","1536","864","0","1","0","5fc65eb000091528ea745f65","","null","","","learningBlock2","","","","That was a tob.","null","","","","","",""
"html-keyboard-response","345","389433","0.0-7.0-2.32","FL","jlov66vr8s","1536","864","0","1","0","5fc65eb000091528ea745f65","","null","","","learningBlock2","","","","<div style=""font-size:60px;""> </div>","null","FL","learning/Slide113.JPG","That was a tob.","","",""
"image-keyboard-response","346","389619","0.0-7.0-0.33","FL","jlov66vr8s","1536","864","0","1","0","5fc65eb000091528ea745f65","","null","","","","","","","learning/Slide114.JPG","null","","","","","",""
"html-keyboard-response","347","390776","0.0-7.0-1.33","FL","jlov66vr8s","1536","864","0","1","0","5fc65eb000091528ea745f65","","null","","","learningBlock2","","","","That was a wug.","null","","","","","",""
"html-keyboard-response","348","391782","0.0-7.0-2.33","FL","jlov66vr8s","1536","864","0","1","0","5fc65eb000091528ea745f65","","null","","","learningBlock2","","","","<div style=""font-size:60px;""> </div>","null","FL","learning/Slide114.JPG","That was a wug.","","",""
"image-keyboard-response","349","391968","0.0-7.0-0.34","FL","jlov66vr8s","1536","864","0","1","0","5fc65eb000091528ea745f65","","null","","","","","","","learning/Slide115.JPG","null","","","","","",""
"html-keyboard-response","350","393124","0.0-7.0-1.34","FL","jlov66vr8s","1536","864","0","1","0","5fc65eb000091528ea745f65","","null","","","learningBlock2","","","","That was a bim.","null","","","","","",""
"html-keyboard-response","351","394127","0.0-7.0-2.34","FL","jlov66vr8s","1536","864","0","1","0","5fc65eb000091528ea745f65","","null","","","learningBlock2","","","","<div style=""font-size:60px;""> </div>","null","FL","learning/Slide115.JPG","That was a bim.","","",""
"image-keyboard-response","352","394303","0.0-7.0-0.35","FL","jlov66vr8s","1536","864","0","1","0","5fc65eb000091528ea745f65","","null","","","","","","","learning/Slide116.JPG","null","","","","","",""
"html-keyboard-response","353","395473","0.0-7.0-1.35","FL","jlov66vr8s","1536","864","0","1","0","5fc65eb000091528ea745f65","","null","","","learningBlock2","","","","That was a dep.","null","","","","","",""
"html-keyboard-response","354","396478","0.0-7.0-2.35","FL","jlov66vr8s","1536","864","0","1","0","5fc65eb000091528ea745f65","","null","","","learningBlock2","","","","<div style=""font-size:60px;""> </div>","null","FL","learning/Slide116.JPG","That was a dep.","","",""
"image-keyboard-response","355","396655","0.0-7.0-0.36","FL","jlov66vr8s","1536","864","0","1","0","5fc65eb000091528ea745f65","","null","","","","","","","learning/Slide117.JPG","null","","","","","",""
"html-keyboard-response","356","397820","0.0-7.0-1.36","FL","jlov66vr8s","1536","864","0","1","0","5fc65eb000091528ea745f65","","null","","","learningBlock2","","","","That was a tob.","null","","","","","",""
"html-keyboard-response","357","398824","0.0-7.0-2.36","FL","jlov66vr8s","1536","864","0","1","0","5fc65eb000091528ea745f65","","null","","","learningBlock2","","","","<div style=""font-size:60px;""> </div>","null","FL","learning/Slide117.JPG","That was a tob.","","",""
"image-keyboard-response","358","399001","0.0-7.0-0.37","FL","jlov66vr8s","1536","864","0","1","0","5fc65eb000091528ea745f65","","null","","","","","","","learning/Slide118.JPG","null","","","","","",""
"html-keyboard-response","359","400153","0.0-7.0-1.37","FL","jlov66vr8s","1536","864","0","1","0","5fc65eb000091528ea745f65","","null","","","learningBlock2","","","","That was a dep.","null","","","","","",""
"html-keyboard-response","360","401155","0.0-7.0-2.37","FL","jlov66vr8s","1536","864","0","1","0","5fc65eb000091528ea745f65","","null","","","learningBlock2","","","","<div style=""font-size:60px;""> </div>","null","FL","learning/Slide118.JPG","That was a dep.","","",""
"image-keyboard-response","361","401331","0.0-7.0-0.38","FL","jlov66vr8s","1536","864","0","1","0","5fc65eb000091528ea745f65","","null","","","","","","","learning/Slide119.JPG","null","","","","","",""
"html-keyboard-response","362","402498","0.0-7.0-1.38","FL","jlov66vr8s","1536","864","0","1","0","5fc65eb000091528ea745f65","","null","","","learningBlock2","","","","That was a wug.","null","","","","","",""
"html-keyboard-response","363","403504","0.0-7.0-2.38","FL","jlov66vr8s","1536","864","0","1","0","5fc65eb000091528ea745f65","","null","","","learningBlock2","","","","<div style=""font-size:60px;""> </div>","null","FL","learning/Slide119.JPG","That was a wug.","","",""
"image-keyboard-response","364","403681","0.0-7.0-0.39","FL","jlov66vr8s","1536","864","0","1","0","5fc65eb000091528ea745f65","","null","","","","","","","learning/Slide120.JPG","null","","","","","",""
"html-keyboard-response","365","404833","0.0-7.0-1.39","FL","jlov66vr8s","1536","864","0","1","0","5fc65eb000091528ea745f65","","null","","","learningBlock2","","","","That was a dep.","null","","","","","",""
"html-keyboard-response","366","405839","0.0-7.0-2.39","FL","jlov66vr8s","1536","864","0","1","0","5fc65eb000091528ea745f65","","null","","","learningBlock2","","","","<div style=""font-size:60px;""> </div>","null","FL","learning/Slide120.JPG","That was a dep.","","",""
"image-keyboard-response","367","406025","0.0-7.0-0.40","FL","jlov66vr8s","1536","864","0","1","0","5fc65eb000091528ea745f65","","null","","","","","","","learning/Slide121.JPG","null","","","","","",""
"html-keyboard-response","368","407184","0.0-7.0-1.40","FL","jlov66vr8s","1536","864","0","1","0","5fc65eb000091528ea745f65","","null","","","learningBlock2","","","","That was a bim.","null","","","","","",""
"html-keyboard-response","369","408190","0.0-7.0-2.40","FL","jlov66vr8s","1536","864","0","1","0","5fc65eb000091528ea745f65","","null","","","learningBlock2","","","","<div style=""font-size:60px;""> </div>","null","FL","learning/Slide121.JPG","That was a bim.","","",""
"image-keyboard-response","370","408375","0.0-7.0-0.41","FL","jlov66vr8s","1536","864","0","1","0","5fc65eb000091528ea745f65","","null","","","","","","","learning/Slide122.JPG","null","","","","","",""
"html-keyboard-response","371","409533","0.0-7.0-1.41","FL","jlov66vr8s","1536","864","0","1","0","5fc65eb000091528ea745f65","","null","","","learningBlock2","","","","That was a wug.","null","","","","","",""
"html-keyboard-response","372","410539","0.0-7.0-2.41","FL","jlov66vr8s","1536","864","0","1","0","5fc65eb000091528ea745f65","","null","","","learningBlock2","","","","<div style=""font-size:60px;""> </div>","null","FL","learning/Slide122.JPG","That was a wug.","","",""
"image-keyboard-response","373","410715","0.0-7.0-0.42","FL","jlov66vr8s","1536","864","0","1","0","5fc65eb000091528ea745f65","","null","","","","","","","learning/Slide123.JPG","null","","","","","",""
"html-keyboard-response","374","411884","0.0-7.0-1.42","FL","jlov66vr8s","1536","864","0","1","0","5fc65eb000091528ea745f65","","null","","","learningBlock2","","","","That was a bim.","null","","","","","",""
"html-keyboard-response","375","412890","0.0-7.0-2.42","FL","jlov66vr8s","1536","864","0","1","0","5fc65eb000091528ea745f65","","null","","","learningBlock2","","","","<div style=""font-size:60px;""> </div>","null","FL","learning/Slide123.JPG","That was a bim.","","",""
"image-keyboard-response","376","413066","0.0-7.0-0.43","FL","jlov66vr8s","1536","864","0","1","0","5fc65eb000091528ea745f65","","null","","","","","","","learning/Slide124.JPG","null","","","","","",""
"html-keyboard-response","377","414231","0.0-7.0-1.43","FL","jlov66vr8s","1536","864","0","1","0","5fc65eb000091528ea745f65","","null","","","learningBlock2","","","","That was a tob.","null","","","","","",""
"html-keyboard-response","378","415235","0.0-7.0-2.43","FL","jlov66vr8s","1536","864","0","1","0","5fc65eb000091528ea745f65","","null","","","learningBlock2","","","","<div style=""font-size:60px;""> </div>","null","FL","learning/Slide124.JPG","That was a tob.","","",""
"image-keyboard-response","379","415411","0.0-7.0-0.44","FL","jlov66vr8s","1536","864","0","1","0","5fc65eb000091528ea745f65","","null","","","","","","","learning/Slide125.JPG","null","","","","","",""
"html-keyboard-response","380","416565","0.0-7.0-1.44","FL","jlov66vr8s","1536","864","0","1","0","5fc65eb000091528ea745f65","","null","","","learningBlock2","","","","That was a bim.","null","","","","","",""
"html-keyboard-response","381","417570","0.0-7.0-2.44","FL","jlov66vr8s","1536","864","0","1","0","5fc65eb000091528ea745f65","","null","","","learningBlock2","","","","<div style=""font-size:60px;""> </div>","null","FL","learning/Slide125.JPG","That was a bim.","","",""
"image-keyboard-response","382","417754","0.0-7.0-0.45","FL","jlov66vr8s","1536","864","0","1","0","5fc65eb000091528ea745f65","","null","","","","","","","learning/Slide126.JPG","null","","","","","",""
"html-keyboard-response","383","418913","0.0-7.0-1.45","FL","jlov66vr8s","1536","864","0","1","0","5fc65eb000091528ea745f65","","null","","","learningBlock2","","","","That was a tob.","null","","","","","",""
"html-keyboard-response","384","419920","0.0-7.0-2.45","FL","jlov66vr8s","1536","864","0","1","0","5fc65eb000091528ea745f65","","null","","","learningBlock2","","","","<div style=""font-size:60px;""> </div>","null","FL","learning/Slide126.JPG","That was a tob.","","",""
"image-keyboard-response","385","420105","0.0-7.0-0.46","FL","jlov66vr8s","1536","864","0","1","0","5fc65eb000091528ea745f65","","null","","","","","","","learning/Slide127.JPG","null","","","","","",""
"html-keyboard-response","386","421260","0.0-7.0-1.46","FL","jlov66vr8s","1536","864","0","1","0","5fc65eb000091528ea745f65","","null","","","learningBlock2","","","","That was a dep.","null","","","","","",""
"html-keyboard-response","387","422261","0.0-7.0-2.46","FL","jlov66vr8s","1536","864","0","1","0","5fc65eb000091528ea745f65","","null","","","learningBlock2","","","","<div style=""font-size:60px;""> </div>","null","FL","learning/Slide127.JPG","That was a dep.","","",""
"image-keyboard-response","388","422437","0.0-7.0-0.47","FL","jlov66vr8s","1536","864","0","1","0","5fc65eb000091528ea745f65","","null","","","","","","","learning/Slide128.JPG","null","","","","","",""
"html-keyboard-response","389","423608","0.0-7.0-1.47","FL","jlov66vr8s","1536","864","0","1","0","5fc65eb000091528ea745f65","","null","","","learningBlock2","","","","That was a wug.","null","","","","","",""
"html-keyboard-response","390","424608","0.0-7.0-2.47","FL","jlov66vr8s","1536","864","0","1","0","5fc65eb000091528ea745f65","","null","","","learningBlock2","","","","<div style=""font-size:60px;""> </div>","null","FL","learning/Slide128.JPG","That was a wug.","","",""
"image-keyboard-response","391","424793","0.0-7.0-0.48","FL","jlov66vr8s","1536","864","0","1","0","5fc65eb000091528ea745f65","","null","","","","","","","learning/Slide129.JPG","null","","","","","",""
"html-keyboard-response","392","425951","0.0-7.0-1.48","FL","jlov66vr8s","1536","864","0","1","0","5fc65eb000091528ea745f65","","null","","","learningBlock2","","","","That was a tob.","null","","","","","",""
"html-keyboard-response","393","426954","0.0-7.0-2.48","FL","jlov66vr8s","1536","864","0","1","0","5fc65eb000091528ea745f65","","null","","","learningBlock2","","","","<div style=""font-size:60px;""> </div>","null","FL","learning/Slide129.JPG","That was a tob.","","",""
"image-keyboard-response","394","427140","0.0-7.0-0.49","FL","jlov66vr8s","1536","864","0","1","0","5fc65eb000091528ea745f65","","null","","","","","","","learning/Slide130.JPG","null","","","","","",""
"html-keyboard-response","395","428297","0.0-7.0-1.49","FL","jlov66vr8s","1536","864","0","1","0","5fc65eb000091528ea745f65","","null","","","learningBlock2","","","","That was a wug.","null","","","","","",""
"html-keyboard-response","396","429303","0.0-7.0-2.49","FL","jlov66vr8s","1536","864","0","1","0","5fc65eb000091528ea745f65","","null","","","learningBlock2","","","","<div style=""font-size:60px;""> </div>","null","FL","learning/Slide130.JPG","That was a wug.","","",""
"image-keyboard-response","397","429479","0.0-7.0-0.50","FL","jlov66vr8s","1536","864","0","1","0","5fc65eb000091528ea745f65","","null","","","","","","","learning/Slide131.JPG","null","","","","","",""
"html-keyboard-response","398","430632","0.0-7.0-1.50","FL","jlov66vr8s","1536","864","0","1","0","5fc65eb000091528ea745f65","","null","","","learningBlock2","","","","That was a bim.","null","","","","","",""
"html-keyboard-response","399","431639","0.0-7.0-2.50","FL","jlov66vr8s","1536","864","0","1","0","5fc65eb000091528ea745f65","","null","","","learningBlock2","","","","<div style=""font-size:60px;""> </div>","null","FL","learning/Slide131.JPG","That was a bim.","","",""
"image-keyboard-response","400","431815","0.0-7.0-0.51","FL","jlov66vr8s","1536","864","0","1","0","5fc65eb000091528ea745f65","","null","","","","","","","learning/Slide132.JPG","null","","","","","",""
"html-keyboard-response","401","432981","0.0-7.0-1.51","FL","jlov66vr8s","1536","864","0","1","0","5fc65eb000091528ea745f65","","null","","","learningBlock2","","","","That was a dep.","null","","","","","",""
"html-keyboard-response","402","433986","0.0-7.0-2.51","FL","jlov66vr8s","1536","864","0","1","0","5fc65eb000091528ea745f65","","null","","","learningBlock2","","","","<div style=""font-size:60px;""> </div>","null","FL","learning/Slide132.JPG","That was a dep.","","",""
"image-keyboard-response","403","434172","0.0-7.0-0.52","FL","jlov66vr8s","1536","864","0","1","0","5fc65eb000091528ea745f65","","null","","","","","","","learning/Slide133.JPG","null","","","","","",""
"html-keyboard-response","404","435333","0.0-7.0-1.52","FL","jlov66vr8s","1536","864","0","1","0","5fc65eb000091528ea745f65","","null","","","learningBlock2","","","","That was a tob.","null","","","","","",""
"html-keyboard-response","405","436338","0.0-7.0-2.52","FL","jlov66vr8s","1536","864","0","1","0","5fc65eb000091528ea745f65","","null","","","learningBlock2","","","","<div style=""font-size:60px;""> </div>","null","FL","learning/Slide133.JPG","That was a tob.","","",""
"image-keyboard-response","406","436514","0.0-7.0-0.53","FL","jlov66vr8s","1536","864","0","1","0","5fc65eb000091528ea745f65","","null","","","","","","","learning/Slide134.JPG","null","","","","","",""
"html-keyboard-response","407","437684","0.0-7.0-1.53","FL","jlov66vr8s","1536","864","0","1","0","5fc65eb000091528ea745f65","","null","","","learningBlock2","","","","That was a dep.","null","","","","","",""
"html-keyboard-response","408","438690","0.0-7.0-2.53","FL","jlov66vr8s","1536","864","0","1","0","5fc65eb000091528ea745f65","","null","","","learningBlock2","","","","<div style=""font-size:60px;""> </div>","null","FL","learning/Slide134.JPG","That was a dep.","","",""
"image-keyboard-response","409","438867","0.0-7.0-0.54","FL","jlov66vr8s","1536","864","0","1","0","5fc65eb000091528ea745f65","","null","","","","","","","learning/Slide135.JPG","null","","","","","",""
"html-keyboard-response","410","440021","0.0-7.0-1.54","FL","jlov66vr8s","1536","864","0","1","0","5fc65eb000091528ea745f65","","null","","","learningBlock2","","","","That was a tob.","null","","","","","",""
"html-keyboard-response","411","441026","0.0-7.0-2.54","FL","jlov66vr8s","1536","864","0","1","0","5fc65eb000091528ea745f65","","null","","","learningBlock2","","","","<div style=""font-size:60px;""> </div>","null","FL","learning/Slide135.JPG","That was a tob.","","",""
"image-keyboard-response","412","441202","0.0-7.0-0.55","FL","jlov66vr8s","1536","864","0","1","0","5fc65eb000091528ea745f65","","null","","","","","","","learning/Slide136.JPG","null","","","","","",""
"html-keyboard-response","413","442370","0.0-7.0-1.55","FL","jlov66vr8s","1536","864","0","1","0","5fc65eb000091528ea745f65","","null","","","learningBlock2","","","","That was a wug.","null","","","","","",""
"html-keyboard-response","414","443376","0.0-7.0-2.55","FL","jlov66vr8s","1536","864","0","1","0","5fc65eb000091528ea745f65","","null","","","learningBlock2","","","","<div style=""font-size:60px;""> </div>","null","FL","learning/Slide136.JPG","That was a wug.","","",""
"image-keyboard-response","415","443552","0.0-7.0-0.56","FL","jlov66vr8s","1536","864","0","1","0","5fc65eb000091528ea745f65","","null","","","","","","","learning/Slide137.JPG","null","","","","","",""
"html-keyboard-response","416","444706","0.0-7.0-1.56","FL","jlov66vr8s","1536","864","0","1","0","5fc65eb000091528ea745f65","","null","","","learningBlock2","","","","That was a tob.","null","","","","","",""
"html-keyboard-response","417","445709","0.0-7.0-2.56","FL","jlov66vr8s","1536","864","0","1","0","5fc65eb000091528ea745f65","","null","","","learningBlock2","","","","<div style=""font-size:60px;""> </div>","null","FL","learning/Slide137.JPG","That was a tob.","","",""
"image-keyboard-response","418","445885","0.0-7.0-0.57","FL","jlov66vr8s","1536","864","0","1","0","5fc65eb000091528ea745f65","","null","","","","","","","learning/Slide138.JPG","null","","","","","",""
"html-keyboard-response","419","447037","0.0-7.0-1.57","FL","jlov66vr8s","1536","864","0","1","0","5fc65eb000091528ea745f65","","null","","","learningBlock2","","","","That was a bim.","null","","","","","",""
"html-keyboard-response","420","448043","0.0-7.0-2.57","FL","jlov66vr8s","1536","864","0","1","0","5fc65eb000091528ea745f65","","null","","","learningBlock2","","","","<div style=""font-size:60px;""> </div>","null","FL","learning/Slide138.JPG","That was a bim.","","",""
"image-keyboard-response","421","448228","0.0-7.0-0.58","FL","jlov66vr8s","1536","864","0","1","0","5fc65eb000091528ea745f65","","null","","","","","","","learning/Slide139.JPG","null","","","","","",""
"html-keyboard-response","422","449379","0.0-7.0-1.58","FL","jlov66vr8s","1536","864","0","1","0","5fc65eb000091528ea745f65","","null","","","learningBlock2","","","","That was a wug.","null","","","","","",""
"html-keyboard-response","423","450395","0.0-7.0-2.58","FL","jlov66vr8s","1536","864","0","1","0","5fc65eb000091528ea745f65","","null","","","learningBlock2","","","","<div style=""font-size:60px;""> </div>","null","FL","learning/Slide139.JPG","That was a wug.","","",""
"image-keyboard-response","424","450571","0.0-7.0-0.59","FL","jlov66vr8s","1536","864","0","1","0","5fc65eb000091528ea745f65","","null","","","","","","","learning/Slide140.JPG","null","","","","","",""
"html-keyboard-response","425","451722","0.0-7.0-1.59","FL","jlov66vr8s","1536","864","0","1","0","5fc65eb000091528ea745f65","","null","","","learningBlock2","","","","That was a dep.","null","","","","","",""
"html-keyboard-response","426","452722","0.0-7.0-2.59","FL","jlov66vr8s","1536","864","0","1","0","5fc65eb000091528ea745f65","","null","","","learningBlock2","","","","<div style=""font-size:60px;""> </div>","null","FL","learning/Slide140.JPG","That was a dep.","","",""
"image-keyboard-response","427","452898","0.0-7.0-0.60","FL","jlov66vr8s","1536","864","0","1","0","5fc65eb000091528ea745f65","","null","","","","","","","learning/Slide141.JPG","null","","","","","",""
"html-keyboard-response","428","454055","0.0-7.0-1.60","FL","jlov66vr8s","1536","864","0","1","0","5fc65eb000091528ea745f65","","null","","","learningBlock2","","","","That was a tob.","null","","","","","",""
"html-keyboard-response","429","455058","0.0-7.0-2.60","FL","jlov66vr8s","1536","864","0","1","0","5fc65eb000091528ea745f65","","null","","","learningBlock2","","","","<div style=""font-size:60px;""> </div>","null","FL","learning/Slide141.JPG","That was a tob.","","",""
"image-keyboard-response","430","455235","0.0-7.0-0.61","FL","jlov66vr8s","1536","864","0","1","0","5fc65eb000091528ea745f65","","null","","","","","","","learning/Slide142.JPG","null","","","","","",""
"html-keyboard-response","431","456391","0.0-7.0-1.61","FL","jlov66vr8s","1536","864","0","1","0","5fc65eb000091528ea745f65","","null","","","learningBlock2","","","","That was a wug.","null","","","","","",""
"html-keyboard-response","432","457395","0.0-7.0-2.61","FL","jlov66vr8s","1536","864","0","1","0","5fc65eb000091528ea745f65","","null","","","learningBlock2","","","","<div style=""font-size:60px;""> </div>","null","FL","learning/Slide142.JPG","That was a wug.","","",""
"image-keyboard-response","433","457572","0.0-7.0-0.62","FL","jlov66vr8s","1536","864","0","1","0","5fc65eb000091528ea745f65","","null","","","","","","","learning/Slide143.JPG","null","","","","","",""
"html-keyboard-response","434","458738","0.0-7.0-1.62","FL","jlov66vr8s","1536","864","0","1","0","5fc65eb000091528ea745f65","","null","","","learningBlock2","","","","That was a bim.","null","","","","","",""
"html-keyboard-response","435","459744","0.0-7.0-2.62","FL","jlov66vr8s","1536","864","0","1","0","5fc65eb000091528ea745f65","","null","","","learningBlock2","","","","<div style=""font-size:60px;""> </div>","null","FL","learning/Slide143.JPG","That was a bim.","","",""
"image-keyboard-response","436","459921","0.0-7.0-0.63","FL","jlov66vr8s","1536","864","0","1","0","5fc65eb000091528ea745f65","","null","","","","","","","learning/Slide144.JPG","null","","","","","",""
