"trial_type","trial_index","time_elapsed","internal_node_id","condition","subject","screen_width","screen_height","attention","distraction","conscientious","prolificID","success","rt","url","view_history","test_part","final_height_px","final_width_px","scale_factor","stimulus","key_press","learningType","presentedImage","presentedLabel","button_pressed","response","responses"
"pavlovia","0","18","0.0-0.0","LF","dn0e1jm7ff","1536","864","0","0","0","5e0cf83bc12a3649f4c9ee92","","","","","","","","","","","","","","","",""
"fullscreen","1","42234","0.0-1.0","LF","dn0e1jm7ff","1536","864","0","0","0","5e0cf83bc12a3649f4c9ee92","true","","","","","","","","","","","","","","",""
"external-html","2","46250","0.0-2.0-0.0","LF","dn0e1jm7ff","1536","864","0","0","0","5e0cf83bc12a3649f4c9ee92","","3948.4599999996135","text/information_english.html","","","","","","","","","","","","",""
"external-html","3","50725","0.0-2.0-1.0","LF","dn0e1jm7ff","1536","864","0","0","0","5e0cf83bc12a3649f4c9ee92","","4412.4400000000605","text/consent_english.html","","","","","","","","","","","","",""
"instructions","4","57361","0.0-3.0","LF","dn0e1jm7ff","1536","864","0","0","0","5e0cf83bc12a3649f4c9ee92","","NA","","[{""page_index"":0,""viewing_time"":1646.0550000047078},{""page_index"":1,""viewing_time"":4985.15999999654}]","instructions","","","","","","","","","","",""
"resize","5","59047","0.0-4.0","LF","dn0e1jm7ff","1536","864","0","0","0","5e0cf83bc12a3649f4c9ee92","","","","","","","100","0.634920634920635","","","","","","","",""
"html-keyboard-response","6","60050","0.0-5.0-0.0","LF","dn0e1jm7ff","1536","864","0","0","0","5e0cf83bc12a3649f4c9ee92","","null","","","learningBlock1","","","","This is a tob:","null","","","","","",""
"image-keyboard-response","7","60379","0.0-5.0-1.0","LF","dn0e1jm7ff","1536","864","0","0","0","5e0cf83bc12a3649f4c9ee92","","null","","","","","","","learning/Slide1.JPG","null","","","","","",""
"html-keyboard-response","8","61380","0.0-5.0-2.0","LF","dn0e1jm7ff","1536","864","0","0","0","5e0cf83bc12a3649f4c9ee92","","null","","","learningBlock1","","","","<div style=""font-size:60px;""> </div>","null","LF","learning/Slide1.JPG","This is a tob:","","",""
"html-keyboard-response","9","62382","0.0-5.0-0.1","LF","dn0e1jm7ff","1536","864","0","0","0","5e0cf83bc12a3649f4c9ee92","","null","","","learningBlock1","","","","This is a wug:","null","","","","","",""
"image-keyboard-response","10","62710","0.0-5.0-1.1","LF","dn0e1jm7ff","1536","864","0","0","0","5e0cf83bc12a3649f4c9ee92","","null","","","","","","","learning/Slide2.JPG","null","","","","","",""
"html-keyboard-response","11","63713","0.0-5.0-2.1","LF","dn0e1jm7ff","1536","864","0","0","0","5e0cf83bc12a3649f4c9ee92","","null","","","learningBlock1","","","","<div style=""font-size:60px;""> </div>","null","LF","learning/Slide2.JPG","This is a wug:","","",""
"html-keyboard-response","12","64715","0.0-5.0-0.2","LF","dn0e1jm7ff","1536","864","0","0","0","5e0cf83bc12a3649f4c9ee92","","null","","","learningBlock1","","","","This is a bim:","null","","","","","",""
"image-keyboard-response","13","65043","0.0-5.0-1.2","LF","dn0e1jm7ff","1536","864","0","0","0","5e0cf83bc12a3649f4c9ee92","","null","","","","","","","learning/Slide3.JPG","null","","","","","",""
"html-keyboard-response","14","66045","0.0-5.0-2.2","LF","dn0e1jm7ff","1536","864","0","0","0","5e0cf83bc12a3649f4c9ee92","","null","","","learningBlock1","","","","<div style=""font-size:60px;""> </div>","null","LF","learning/Slide3.JPG","This is a bim:","","",""
"html-keyboard-response","15","67047","0.0-5.0-0.3","LF","dn0e1jm7ff","1536","864","0","0","0","5e0cf83bc12a3649f4c9ee92","","null","","","learningBlock1","","","","This is a dep:","null","","","","","",""
"image-keyboard-response","16","67376","0.0-5.0-1.3","LF","dn0e1jm7ff","1536","864","0","0","0","5e0cf83bc12a3649f4c9ee92","","null","","","","","","","learning/Slide4.JPG","null","","","","","",""
"html-keyboard-response","17","68377","0.0-5.0-2.3","LF","dn0e1jm7ff","1536","864","0","0","0","5e0cf83bc12a3649f4c9ee92","","null","","","learningBlock1","","","","<div style=""font-size:60px;""> </div>","null","LF","learning/Slide4.JPG","This is a dep:","","",""
"html-keyboard-response","18","69379","0.0-5.0-0.4","LF","dn0e1jm7ff","1536","864","0","0","0","5e0cf83bc12a3649f4c9ee92","","null","","","learningBlock1","","","","This is a wug:","null","","","","","",""
"image-keyboard-response","19","69708","0.0-5.0-1.4","LF","dn0e1jm7ff","1536","864","0","0","0","5e0cf83bc12a3649f4c9ee92","","null","","","","","","","learning/Slide5.JPG","null","","","","","",""
"html-keyboard-response","20","70710","0.0-5.0-2.4","LF","dn0e1jm7ff","1536","864","0","0","0","5e0cf83bc12a3649f4c9ee92","","null","","","learningBlock1","","","","<div style=""font-size:60px;""> </div>","null","LF","learning/Slide5.JPG","This is a wug:","","",""
"html-keyboard-response","21","71712","0.0-5.0-0.5","LF","dn0e1jm7ff","1536","864","0","0","0","5e0cf83bc12a3649f4c9ee92","","null","","","learningBlock1","","","","This is a dep:","null","","","","","",""
"image-keyboard-response","22","72040","0.0-5.0-1.5","LF","dn0e1jm7ff","1536","864","0","0","0","5e0cf83bc12a3649f4c9ee92","","null","","","","","","","learning/Slide6.JPG","null","","","","","",""
"html-keyboard-response","23","73042","0.0-5.0-2.5","LF","dn0e1jm7ff","1536","864","0","0","0","5e0cf83bc12a3649f4c9ee92","","null","","","learningBlock1","","","","<div style=""font-size:60px;""> </div>","null","LF","learning/Slide6.JPG","This is a dep:","","",""
"html-keyboard-response","24","74044","0.0-5.0-0.6","LF","dn0e1jm7ff","1536","864","0","0","0","5e0cf83bc12a3649f4c9ee92","","null","","","learningBlock1","","","","This is a wug:","null","","","","","",""
"image-keyboard-response","25","74371","0.0-5.0-1.6","LF","dn0e1jm7ff","1536","864","0","0","0","5e0cf83bc12a3649f4c9ee92","","null","","","","","","","learning/Slide7.JPG","null","","","","","",""
"html-keyboard-response","26","75373","0.0-5.0-2.6","LF","dn0e1jm7ff","1536","864","0","0","0","5e0cf83bc12a3649f4c9ee92","","null","","","learningBlock1","","","","<div style=""font-size:60px;""> </div>","null","LF","learning/Slide7.JPG","This is a wug:","","",""
"html-keyboard-response","27","76375","0.0-5.0-0.7","LF","dn0e1jm7ff","1536","864","0","0","0","5e0cf83bc12a3649f4c9ee92","","null","","","learningBlock1","","","","This is a bim:","null","","","","","",""
"image-keyboard-response","28","76704","0.0-5.0-1.7","LF","dn0e1jm7ff","1536","864","0","0","0","5e0cf83bc12a3649f4c9ee92","","null","","","","","","","learning/Slide8.JPG","null","","","","","",""
"html-keyboard-response","29","77705","0.0-5.0-2.7","LF","dn0e1jm7ff","1536","864","0","0","0","5e0cf83bc12a3649f4c9ee92","","null","","","learningBlock1","","","","<div style=""font-size:60px;""> </div>","null","LF","learning/Slide8.JPG","This is a bim:","","",""
"html-keyboard-response","30","78707","0.0-5.0-0.8","LF","dn0e1jm7ff","1536","864","0","0","0","5e0cf83bc12a3649f4c9ee92","","null","","","learningBlock1","","","","This is a wug:","null","","","","","",""
"image-keyboard-response","31","79035","0.0-5.0-1.8","LF","dn0e1jm7ff","1536","864","0","0","0","5e0cf83bc12a3649f4c9ee92","","null","","","","","","","learning/Slide9.JPG","null","","","","","",""
"html-keyboard-response","32","80036","0.0-5.0-2.8","LF","dn0e1jm7ff","1536","864","0","0","0","5e0cf83bc12a3649f4c9ee92","","null","","","learningBlock1","","","","<div style=""font-size:60px;""> </div>","null","LF","learning/Slide9.JPG","This is a wug:","","",""
"html-keyboard-response","33","81039","0.0-5.0-0.9","LF","dn0e1jm7ff","1536","864","0","0","0","5e0cf83bc12a3649f4c9ee92","","null","","","learningBlock1","","","","This is a dep:","null","","","","","",""
"image-keyboard-response","34","81367","0.0-5.0-1.9","LF","dn0e1jm7ff","1536","864","0","0","0","5e0cf83bc12a3649f4c9ee92","","null","","","","","","","learning/Slide10.JPG","null","","","","","",""
"html-keyboard-response","35","82369","0.0-5.0-2.9","LF","dn0e1jm7ff","1536","864","0","0","0","5e0cf83bc12a3649f4c9ee92","","null","","","learningBlock1","","","","<div style=""font-size:60px;""> </div>","null","LF","learning/Slide10.JPG","This is a dep:","","",""
"html-keyboard-response","36","83370","0.0-5.0-0.10","LF","dn0e1jm7ff","1536","864","0","0","0","5e0cf83bc12a3649f4c9ee92","","null","","","learningBlock1","","","","This is a tob:","null","","","","","",""
"image-keyboard-response","37","83697","0.0-5.0-1.10","LF","dn0e1jm7ff","1536","864","0","0","0","5e0cf83bc12a3649f4c9ee92","","null","","","","","","","learning/Slide11.JPG","null","","","","","",""
"html-keyboard-response","38","84699","0.0-5.0-2.10","LF","dn0e1jm7ff","1536","864","0","0","0","5e0cf83bc12a3649f4c9ee92","","null","","","learningBlock1","","","","<div style=""font-size:60px;""> </div>","null","LF","learning/Slide11.JPG","This is a tob:","","",""
"html-keyboard-response","39","85701","0.0-5.0-0.11","LF","dn0e1jm7ff","1536","864","0","0","0","5e0cf83bc12a3649f4c9ee92","","null","","","learningBlock1","","","","This is a dep:","null","","","","","",""
"image-keyboard-response","40","86030","0.0-5.0-1.11","LF","dn0e1jm7ff","1536","864","0","0","0","5e0cf83bc12a3649f4c9ee92","","null","","","","","","","learning/Slide12.JPG","null","","","","","",""
"html-keyboard-response","41","87032","0.0-5.0-2.11","LF","dn0e1jm7ff","1536","864","0","0","0","5e0cf83bc12a3649f4c9ee92","","null","","","learningBlock1","","","","<div style=""font-size:60px;""> </div>","null","LF","learning/Slide12.JPG","This is a dep:","","",""
"html-keyboard-response","42","88034","0.0-5.0-0.12","LF","dn0e1jm7ff","1536","864","0","0","0","5e0cf83bc12a3649f4c9ee92","","null","","","learningBlock1","","","","This is a bim:","null","","","","","",""
"image-keyboard-response","43","88362","0.0-5.0-1.12","LF","dn0e1jm7ff","1536","864","0","0","0","5e0cf83bc12a3649f4c9ee92","","null","","","","","","","learning/Slide13.JPG","null","","","","","",""
"html-keyboard-response","44","89363","0.0-5.0-2.12","LF","dn0e1jm7ff","1536","864","0","0","0","5e0cf83bc12a3649f4c9ee92","","null","","","learningBlock1","","","","<div style=""font-size:60px;""> </div>","null","LF","learning/Slide13.JPG","This is a bim:","","",""
"html-keyboard-response","45","90366","0.0-5.0-0.13","LF","dn0e1jm7ff","1536","864","0","0","0","5e0cf83bc12a3649f4c9ee92","","null","","","learningBlock1","","","","This is a wug:","null","","","","","",""
"image-keyboard-response","46","90693","0.0-5.0-1.13","LF","dn0e1jm7ff","1536","864","0","0","0","5e0cf83bc12a3649f4c9ee92","","null","","","","","","","learning/Slide14.JPG","null","","","","","",""
"html-keyboard-response","47","91695","0.0-5.0-2.13","LF","dn0e1jm7ff","1536","864","0","0","0","5e0cf83bc12a3649f4c9ee92","","null","","","learningBlock1","","","","<div style=""font-size:60px;""> </div>","null","LF","learning/Slide14.JPG","This is a wug:","","",""
"html-keyboard-response","48","92696","0.0-5.0-0.14","LF","dn0e1jm7ff","1536","864","0","0","0","5e0cf83bc12a3649f4c9ee92","","null","","","learningBlock1","","","","This is a tob:","null","","","","","",""
"image-keyboard-response","49","93025","0.0-5.0-1.14","LF","dn0e1jm7ff","1536","864","0","0","0","5e0cf83bc12a3649f4c9ee92","","null","","","","","","","learning/Slide15.JPG","null","","","","","",""
"html-keyboard-response","50","94026","0.0-5.0-2.14","LF","dn0e1jm7ff","1536","864","0","0","0","5e0cf83bc12a3649f4c9ee92","","null","","","learningBlock1","","","","<div style=""font-size:60px;""> </div>","null","LF","learning/Slide15.JPG","This is a tob:","","",""
"html-keyboard-response","51","95028","0.0-5.0-0.15","LF","dn0e1jm7ff","1536","864","0","0","0","5e0cf83bc12a3649f4c9ee92","","null","","","learningBlock1","","","","This is a dep:","null","","","","","",""
"image-keyboard-response","52","95356","0.0-5.0-1.15","LF","dn0e1jm7ff","1536","864","0","0","0","5e0cf83bc12a3649f4c9ee92","","null","","","","","","","learning/Slide16.JPG","null","","","","","",""
"html-keyboard-response","53","96358","0.0-5.0-2.15","LF","dn0e1jm7ff","1536","864","0","0","0","5e0cf83bc12a3649f4c9ee92","","null","","","learningBlock1","","","","<div style=""font-size:60px;""> </div>","null","LF","learning/Slide16.JPG","This is a dep:","","",""
"html-keyboard-response","54","97359","0.0-5.0-0.16","LF","dn0e1jm7ff","1536","864","0","0","0","5e0cf83bc12a3649f4c9ee92","","null","","","learningBlock1","","","","This is a bim:","null","","","","","",""
"image-keyboard-response","55","97687","0.0-5.0-1.16","LF","dn0e1jm7ff","1536","864","0","0","0","5e0cf83bc12a3649f4c9ee92","","null","","","","","","","learning/Slide17.JPG","null","","","","","",""
"html-keyboard-response","56","98688","0.0-5.0-2.16","LF","dn0e1jm7ff","1536","864","0","0","0","5e0cf83bc12a3649f4c9ee92","","null","","","learningBlock1","","","","<div style=""font-size:60px;""> </div>","null","LF","learning/Slide17.JPG","This is a bim:","","",""
"html-keyboard-response","57","99690","0.0-5.0-0.17","LF","dn0e1jm7ff","1536","864","0","0","0","5e0cf83bc12a3649f4c9ee92","","null","","","learningBlock1","","","","This is a tob:","null","","","","","",""
"image-keyboard-response","58","100018","0.0-5.0-1.17","LF","dn0e1jm7ff","1536","864","0","0","0","5e0cf83bc12a3649f4c9ee92","","null","","","","","","","learning/Slide18.JPG","null","","","","","",""
"html-keyboard-response","59","101020","0.0-5.0-2.17","LF","dn0e1jm7ff","1536","864","0","0","0","5e0cf83bc12a3649f4c9ee92","","null","","","learningBlock1","","","","<div style=""font-size:60px;""> </div>","null","LF","learning/Slide18.JPG","This is a tob:","","",""
"html-keyboard-response","60","102021","0.0-5.0-0.18","LF","dn0e1jm7ff","1536","864","0","0","0","5e0cf83bc12a3649f4c9ee92","","null","","","learningBlock1","","","","This is a wug:","null","","","","","",""
"image-keyboard-response","61","102350","0.0-5.0-1.18","LF","dn0e1jm7ff","1536","864","0","0","0","5e0cf83bc12a3649f4c9ee92","","null","","","","","","","learning/Slide19.JPG","null","","","","","",""
"html-keyboard-response","62","103352","0.0-5.0-2.18","LF","dn0e1jm7ff","1536","864","0","0","0","5e0cf83bc12a3649f4c9ee92","","null","","","learningBlock1","","","","<div style=""font-size:60px;""> </div>","null","LF","learning/Slide19.JPG","This is a wug:","","",""
"html-keyboard-response","63","104354","0.0-5.0-0.19","LF","dn0e1jm7ff","1536","864","0","0","0","5e0cf83bc12a3649f4c9ee92","","null","","","learningBlock1","","","","This is a bim:","null","","","","","",""
"image-keyboard-response","64","104683","0.0-5.0-1.19","LF","dn0e1jm7ff","1536","864","0","0","0","5e0cf83bc12a3649f4c9ee92","","null","","","","","","","learning/Slide20.JPG","null","","","","","",""
"html-keyboard-response","65","105684","0.0-5.0-2.19","LF","dn0e1jm7ff","1536","864","0","0","0","5e0cf83bc12a3649f4c9ee92","","null","","","learningBlock1","","","","<div style=""font-size:60px;""> </div>","null","LF","learning/Slide20.JPG","This is a bim:","","",""
"html-keyboard-response","66","106686","0.0-5.0-0.20","LF","dn0e1jm7ff","1536","864","0","0","0","5e0cf83bc12a3649f4c9ee92","","null","","","learningBlock1","","","","This is a dep:","null","","","","","",""
"image-keyboard-response","67","107014","0.0-5.0-1.20","LF","dn0e1jm7ff","1536","864","0","0","0","5e0cf83bc12a3649f4c9ee92","","null","","","","","","","learning/Slide21.JPG","null","","","","","",""
"html-keyboard-response","68","108015","0.0-5.0-2.20","LF","dn0e1jm7ff","1536","864","0","0","0","5e0cf83bc12a3649f4c9ee92","","null","","","learningBlock1","","","","<div style=""font-size:60px;""> </div>","null","LF","learning/Slide21.JPG","This is a dep:","","",""
"html-keyboard-response","69","109019","0.0-5.0-0.21","LF","dn0e1jm7ff","1536","864","0","0","0","5e0cf83bc12a3649f4c9ee92","","null","","","learningBlock1","","","","This is a bim:","null","","","","","",""
"image-keyboard-response","70","109346","0.0-5.0-1.21","LF","dn0e1jm7ff","1536","864","0","0","0","5e0cf83bc12a3649f4c9ee92","","null","","","","","","","learning/Slide22.JPG","null","","","","","",""
"html-keyboard-response","71","110349","0.0-5.0-2.21","LF","dn0e1jm7ff","1536","864","0","0","0","5e0cf83bc12a3649f4c9ee92","","null","","","learningBlock1","","","","<div style=""font-size:60px;""> </div>","null","LF","learning/Slide22.JPG","This is a bim:","","",""
"html-keyboard-response","72","111350","0.0-5.0-0.22","LF","dn0e1jm7ff","1536","864","0","0","0","5e0cf83bc12a3649f4c9ee92","","null","","","learningBlock1","","","","This is a tob:","null","","","","","",""
"image-keyboard-response","73","111679","0.0-5.0-1.22","LF","dn0e1jm7ff","1536","864","0","0","0","5e0cf83bc12a3649f4c9ee92","","null","","","","","","","learning/Slide23.JPG","null","","","","","",""
"html-keyboard-response","74","112680","0.0-5.0-2.22","LF","dn0e1jm7ff","1536","864","0","0","0","5e0cf83bc12a3649f4c9ee92","","null","","","learningBlock1","","","","<div style=""font-size:60px;""> </div>","null","LF","learning/Slide23.JPG","This is a tob:","","",""
"html-keyboard-response","75","113682","0.0-5.0-0.23","LF","dn0e1jm7ff","1536","864","0","0","0","5e0cf83bc12a3649f4c9ee92","","null","","","learningBlock1","","","","This is a wug:","null","","","","","",""
"image-keyboard-response","76","114011","0.0-5.0-1.23","LF","dn0e1jm7ff","1536","864","0","0","0","5e0cf83bc12a3649f4c9ee92","","null","","","","","","","learning/Slide24.JPG","null","","","","","",""
"html-keyboard-response","77","115013","0.0-5.0-2.23","LF","dn0e1jm7ff","1536","864","0","0","0","5e0cf83bc12a3649f4c9ee92","","null","","","learningBlock1","","","","<div style=""font-size:60px;""> </div>","null","LF","learning/Slide24.JPG","This is a wug:","","",""
"html-keyboard-response","78","116014","0.0-5.0-0.24","LF","dn0e1jm7ff","1536","864","0","0","0","5e0cf83bc12a3649f4c9ee92","","null","","","learningBlock1","","","","This is a dep:","null","","","","","",""
"image-keyboard-response","79","116342","0.0-5.0-1.24","LF","dn0e1jm7ff","1536","864","0","0","0","5e0cf83bc12a3649f4c9ee92","","null","","","","","","","learning/Slide25.JPG","null","","","","","",""
"html-keyboard-response","80","117343","0.0-5.0-2.24","LF","dn0e1jm7ff","1536","864","0","0","0","5e0cf83bc12a3649f4c9ee92","","null","","","learningBlock1","","","","<div style=""font-size:60px;""> </div>","null","LF","learning/Slide25.JPG","This is a dep:","","",""
"html-keyboard-response","81","118344","0.0-5.0-0.25","LF","dn0e1jm7ff","1536","864","0","0","0","5e0cf83bc12a3649f4c9ee92","","null","","","learningBlock1","","","","This is a wug:","null","","","","","",""
"image-keyboard-response","82","118671","0.0-5.0-1.25","LF","dn0e1jm7ff","1536","864","0","0","0","5e0cf83bc12a3649f4c9ee92","","null","","","","","","","learning/Slide26.JPG","null","","","","","",""
"html-keyboard-response","83","119673","0.0-5.0-2.25","LF","dn0e1jm7ff","1536","864","0","0","0","5e0cf83bc12a3649f4c9ee92","","null","","","learningBlock1","","","","<div style=""font-size:60px;""> </div>","null","LF","learning/Slide26.JPG","This is a wug:","","",""
"html-keyboard-response","84","120675","0.0-5.0-0.26","LF","dn0e1jm7ff","1536","864","0","0","0","5e0cf83bc12a3649f4c9ee92","","null","","","learningBlock1","","","","This is a bim:","null","","","","","",""
"image-keyboard-response","85","121002","0.0-5.0-1.26","LF","dn0e1jm7ff","1536","864","0","0","0","5e0cf83bc12a3649f4c9ee92","","null","","","","","","","learning/Slide27.JPG","null","","","","","",""
"html-keyboard-response","86","122004","0.0-5.0-2.26","LF","dn0e1jm7ff","1536","864","0","0","0","5e0cf83bc12a3649f4c9ee92","","null","","","learningBlock1","","","","<div style=""font-size:60px;""> </div>","null","LF","learning/Slide27.JPG","This is a bim:","","",""
"html-keyboard-response","87","123006","0.0-5.0-0.27","LF","dn0e1jm7ff","1536","864","0","0","0","5e0cf83bc12a3649f4c9ee92","","null","","","learningBlock1","","","","This is a dep:","null","","","","","",""
"image-keyboard-response","88","123334","0.0-5.0-1.27","LF","dn0e1jm7ff","1536","864","0","0","0","5e0cf83bc12a3649f4c9ee92","","null","","","","","","","learning/Slide28.JPG","null","","","","","",""
"html-keyboard-response","89","124337","0.0-5.0-2.27","LF","dn0e1jm7ff","1536","864","0","0","0","5e0cf83bc12a3649f4c9ee92","","null","","","learningBlock1","","","","<div style=""font-size:60px;""> </div>","null","LF","learning/Slide28.JPG","This is a dep:","","",""
"html-keyboard-response","90","125339","0.0-5.0-0.28","LF","dn0e1jm7ff","1536","864","0","0","0","5e0cf83bc12a3649f4c9ee92","","null","","","learningBlock1","","","","This is a tob:","null","","","","","",""
"image-keyboard-response","91","125666","0.0-5.0-1.28","LF","dn0e1jm7ff","1536","864","0","0","0","5e0cf83bc12a3649f4c9ee92","","null","","","","","","","learning/Slide29.JPG","null","","","","","",""
"html-keyboard-response","92","126668","0.0-5.0-2.28","LF","dn0e1jm7ff","1536","864","0","0","0","5e0cf83bc12a3649f4c9ee92","","null","","","learningBlock1","","","","<div style=""font-size:60px;""> </div>","null","LF","learning/Slide29.JPG","This is a tob:","","",""
"html-keyboard-response","93","127669","0.0-5.0-0.29","LF","dn0e1jm7ff","1536","864","0","0","0","5e0cf83bc12a3649f4c9ee92","","null","","","learningBlock1","","","","This is a dep:","null","","","","","",""
"image-keyboard-response","94","127997","0.0-5.0-1.29","LF","dn0e1jm7ff","1536","864","0","0","0","5e0cf83bc12a3649f4c9ee92","","null","","","","","","","learning/Slide30.JPG","null","","","","","",""
"html-keyboard-response","95","128999","0.0-5.0-2.29","LF","dn0e1jm7ff","1536","864","0","0","0","5e0cf83bc12a3649f4c9ee92","","null","","","learningBlock1","","","","<div style=""font-size:60px;""> </div>","null","LF","learning/Slide30.JPG","This is a dep:","","",""
"html-keyboard-response","96","130000","0.0-5.0-0.30","LF","dn0e1jm7ff","1536","864","0","0","0","5e0cf83bc12a3649f4c9ee92","","null","","","learningBlock1","","","","This is a wug:","null","","","","","",""
"image-keyboard-response","97","130327","0.0-5.0-1.30","LF","dn0e1jm7ff","1536","864","0","0","0","5e0cf83bc12a3649f4c9ee92","","null","","","","","","","learning/Slide31.JPG","null","","","","","",""
"html-keyboard-response","98","131329","0.0-5.0-2.30","LF","dn0e1jm7ff","1536","864","0","0","0","5e0cf83bc12a3649f4c9ee92","","null","","","learningBlock1","","","","<div style=""font-size:60px;""> </div>","null","LF","learning/Slide31.JPG","This is a wug:","","",""
"html-keyboard-response","99","132331","0.0-5.0-0.31","LF","dn0e1jm7ff","1536","864","0","0","0","5e0cf83bc12a3649f4c9ee92","","null","","","learningBlock1","","","","This is a tob:","null","","","","","",""
"image-keyboard-response","100","132659","0.0-5.0-1.31","LF","dn0e1jm7ff","1536","864","0","0","0","5e0cf83bc12a3649f4c9ee92","","null","","","","","","","learning/Slide32.JPG","null","","","","","",""
"html-keyboard-response","101","133661","0.0-5.0-2.31","LF","dn0e1jm7ff","1536","864","0","0","0","5e0cf83bc12a3649f4c9ee92","","null","","","learningBlock1","","","","<div style=""font-size:60px;""> </div>","null","LF","learning/Slide32.JPG","This is a tob:","","",""
"html-keyboard-response","102","134662","0.0-5.0-0.32","LF","dn0e1jm7ff","1536","864","0","0","0","5e0cf83bc12a3649f4c9ee92","","null","","","learningBlock1","","","","This is a bim:","null","","","","","",""
"image-keyboard-response","103","134988","0.0-5.0-1.32","LF","dn0e1jm7ff","1536","864","0","0","0","5e0cf83bc12a3649f4c9ee92","","null","","","","","","","learning/Slide33.JPG","null","","","","","",""
"html-keyboard-response","104","135990","0.0-5.0-2.32","LF","dn0e1jm7ff","1536","864","0","0","0","5e0cf83bc12a3649f4c9ee92","","null","","","learningBlock1","","","","<div style=""font-size:60px;""> </div>","null","LF","learning/Slide33.JPG","This is a bim:","","",""
"html-keyboard-response","105","136991","0.0-5.0-0.33","LF","dn0e1jm7ff","1536","864","0","0","0","5e0cf83bc12a3649f4c9ee92","","null","","","learningBlock1","","","","This is a tob:","null","","","","","",""
"image-keyboard-response","106","137319","0.0-5.0-1.33","LF","dn0e1jm7ff","1536","864","0","0","0","5e0cf83bc12a3649f4c9ee92","","null","","","","","","","learning/Slide34.JPG","null","","","","","",""
"html-keyboard-response","107","138320","0.0-5.0-2.33","LF","dn0e1jm7ff","1536","864","0","0","0","5e0cf83bc12a3649f4c9ee92","","null","","","learningBlock1","","","","<div style=""font-size:60px;""> </div>","null","LF","learning/Slide34.JPG","This is a tob:","","",""
"html-keyboard-response","108","139322","0.0-5.0-0.34","LF","dn0e1jm7ff","1536","864","0","0","0","5e0cf83bc12a3649f4c9ee92","","null","","","learningBlock1","","","","This is a bim:","null","","","","","",""
"image-keyboard-response","109","139650","0.0-5.0-1.34","LF","dn0e1jm7ff","1536","864","0","0","0","5e0cf83bc12a3649f4c9ee92","","null","","","","","","","learning/Slide35.JPG","null","","","","","",""
"html-keyboard-response","110","140652","0.0-5.0-2.34","LF","dn0e1jm7ff","1536","864","0","0","0","5e0cf83bc12a3649f4c9ee92","","null","","","learningBlock1","","","","<div style=""font-size:60px;""> </div>","null","LF","learning/Slide35.JPG","This is a bim:","","",""
"html-keyboard-response","111","141654","0.0-5.0-0.35","LF","dn0e1jm7ff","1536","864","0","0","0","5e0cf83bc12a3649f4c9ee92","","null","","","learningBlock1","","","","This is a dep:","null","","","","","",""
"image-keyboard-response","112","141984","0.0-5.0-1.35","LF","dn0e1jm7ff","1536","864","0","0","0","5e0cf83bc12a3649f4c9ee92","","null","","","","","","","learning/Slide36.JPG","null","","","","","",""
"html-keyboard-response","113","142986","0.0-5.0-2.35","LF","dn0e1jm7ff","1536","864","0","0","0","5e0cf83bc12a3649f4c9ee92","","null","","","learningBlock1","","","","<div style=""font-size:60px;""> </div>","null","LF","learning/Slide36.JPG","This is a dep:","","",""
"html-keyboard-response","114","143988","0.0-5.0-0.36","LF","dn0e1jm7ff","1536","864","0","0","0","5e0cf83bc12a3649f4c9ee92","","null","","","learningBlock1","","","","This is a tob:","null","","","","","",""
"image-keyboard-response","115","144316","0.0-5.0-1.36","LF","dn0e1jm7ff","1536","864","0","0","0","5e0cf83bc12a3649f4c9ee92","","null","","","","","","","learning/Slide37.JPG","null","","","","","",""
"html-keyboard-response","116","145317","0.0-5.0-2.36","LF","dn0e1jm7ff","1536","864","0","0","0","5e0cf83bc12a3649f4c9ee92","","null","","","learningBlock1","","","","<div style=""font-size:60px;""> </div>","null","LF","learning/Slide37.JPG","This is a tob:","","",""
"html-keyboard-response","117","146319","0.0-5.0-0.37","LF","dn0e1jm7ff","1536","864","0","0","0","5e0cf83bc12a3649f4c9ee92","","null","","","learningBlock1","","","","This is a wug:","null","","","","","",""
"image-keyboard-response","118","146646","0.0-5.0-1.37","LF","dn0e1jm7ff","1536","864","0","0","0","5e0cf83bc12a3649f4c9ee92","","null","","","","","","","learning/Slide38.JPG","null","","","","","",""
"html-keyboard-response","119","147647","0.0-5.0-2.37","LF","dn0e1jm7ff","1536","864","0","0","0","5e0cf83bc12a3649f4c9ee92","","null","","","learningBlock1","","","","<div style=""font-size:60px;""> </div>","null","LF","learning/Slide38.JPG","This is a wug:","","",""
"html-keyboard-response","120","148649","0.0-5.0-0.38","LF","dn0e1jm7ff","1536","864","0","0","0","5e0cf83bc12a3649f4c9ee92","","null","","","learningBlock1","","","","This is a bim:","null","","","","","",""
"image-keyboard-response","121","148976","0.0-5.0-1.38","LF","dn0e1jm7ff","1536","864","0","0","0","5e0cf83bc12a3649f4c9ee92","","null","","","","","","","learning/Slide39.JPG","null","","","","","",""
"html-keyboard-response","122","149977","0.0-5.0-2.38","LF","dn0e1jm7ff","1536","864","0","0","0","5e0cf83bc12a3649f4c9ee92","","null","","","learningBlock1","","","","<div style=""font-size:60px;""> </div>","null","LF","learning/Slide39.JPG","This is a bim:","","",""
"html-keyboard-response","123","150979","0.0-5.0-0.39","LF","dn0e1jm7ff","1536","864","0","0","0","5e0cf83bc12a3649f4c9ee92","","null","","","learningBlock1","","","","This is a tob:","null","","","","","",""
"image-keyboard-response","124","151306","0.0-5.0-1.39","LF","dn0e1jm7ff","1536","864","0","0","0","5e0cf83bc12a3649f4c9ee92","","null","","","","","","","learning/Slide40.JPG","null","","","","","",""
"html-keyboard-response","125","152309","0.0-5.0-2.39","LF","dn0e1jm7ff","1536","864","0","0","0","5e0cf83bc12a3649f4c9ee92","","null","","","learningBlock1","","","","<div style=""font-size:60px;""> </div>","null","LF","learning/Slide40.JPG","This is a tob:","","",""
"html-keyboard-response","126","153311","0.0-5.0-0.40","LF","dn0e1jm7ff","1536","864","0","0","0","5e0cf83bc12a3649f4c9ee92","","null","","","learningBlock1","","","","This is a bim:","null","","","","","",""
"image-keyboard-response","127","153639","0.0-5.0-1.40","LF","dn0e1jm7ff","1536","864","0","0","0","5e0cf83bc12a3649f4c9ee92","","null","","","","","","","learning/Slide41.JPG","null","","","","","",""
"html-keyboard-response","128","154640","0.0-5.0-2.40","LF","dn0e1jm7ff","1536","864","0","0","0","5e0cf83bc12a3649f4c9ee92","","null","","","learningBlock1","","","","<div style=""font-size:60px;""> </div>","null","LF","learning/Slide41.JPG","This is a bim:","","",""
"html-keyboard-response","129","155641","0.0-5.0-0.41","LF","dn0e1jm7ff","1536","864","0","0","0","5e0cf83bc12a3649f4c9ee92","","null","","","learningBlock1","","","","This is a dep:","null","","","","","",""
"image-keyboard-response","130","155968","0.0-5.0-1.41","LF","dn0e1jm7ff","1536","864","0","0","0","5e0cf83bc12a3649f4c9ee92","","null","","","","","","","learning/Slide42.JPG","null","","","","","",""
"html-keyboard-response","131","156970","0.0-5.0-2.41","LF","dn0e1jm7ff","1536","864","0","0","0","5e0cf83bc12a3649f4c9ee92","","null","","","learningBlock1","","","","<div style=""font-size:60px;""> </div>","null","LF","learning/Slide42.JPG","This is a dep:","","",""
"html-keyboard-response","132","157972","0.0-5.0-0.42","LF","dn0e1jm7ff","1536","864","0","0","0","5e0cf83bc12a3649f4c9ee92","","null","","","learningBlock1","","","","This is a wug:","null","","","","","",""
"image-keyboard-response","133","158300","0.0-5.0-1.42","LF","dn0e1jm7ff","1536","864","0","0","0","5e0cf83bc12a3649f4c9ee92","","null","","","","","","","learning/Slide43.JPG","null","","","","","",""
"html-keyboard-response","134","159302","0.0-5.0-2.42","LF","dn0e1jm7ff","1536","864","0","0","0","5e0cf83bc12a3649f4c9ee92","","null","","","learningBlock1","","","","<div style=""font-size:60px;""> </div>","null","LF","learning/Slide43.JPG","This is a wug:","","",""
"html-keyboard-response","135","160304","0.0-5.0-0.43","LF","dn0e1jm7ff","1536","864","0","0","0","5e0cf83bc12a3649f4c9ee92","","null","","","learningBlock1","","","","This is a bim:","null","","","","","",""
"image-keyboard-response","136","160632","0.0-5.0-1.43","LF","dn0e1jm7ff","1536","864","0","0","0","5e0cf83bc12a3649f4c9ee92","","null","","","","","","","learning/Slide44.JPG","null","","","","","",""
"html-keyboard-response","137","161633","0.0-5.0-2.43","LF","dn0e1jm7ff","1536","864","0","0","0","5e0cf83bc12a3649f4c9ee92","","null","","","learningBlock1","","","","<div style=""font-size:60px;""> </div>","null","LF","learning/Slide44.JPG","This is a bim:","","",""
"html-keyboard-response","138","162634","0.0-5.0-0.44","LF","dn0e1jm7ff","1536","864","0","0","0","5e0cf83bc12a3649f4c9ee92","","null","","","learningBlock1","","","","This is a wug:","null","","","","","",""
"image-keyboard-response","139","162962","0.0-5.0-1.44","LF","dn0e1jm7ff","1536","864","0","0","0","5e0cf83bc12a3649f4c9ee92","","null","","","","","","","learning/Slide45.JPG","null","","","","","",""
"html-keyboard-response","140","163964","0.0-5.0-2.44","LF","dn0e1jm7ff","1536","864","0","0","0","5e0cf83bc12a3649f4c9ee92","","null","","","learningBlock1","","","","<div style=""font-size:60px;""> </div>","null","LF","learning/Slide45.JPG","This is a wug:","","",""
"html-keyboard-response","141","164966","0.0-5.0-0.45","LF","dn0e1jm7ff","1536","864","0","0","0","5e0cf83bc12a3649f4c9ee92","","null","","","learningBlock1","","","","This is a dep:","null","","","","","",""
"image-keyboard-response","142","165294","0.0-5.0-1.45","LF","dn0e1jm7ff","1536","864","0","0","0","5e0cf83bc12a3649f4c9ee92","","null","","","","","","","learning/Slide46.JPG","null","","","","","",""
"html-keyboard-response","143","166295","0.0-5.0-2.45","LF","dn0e1jm7ff","1536","864","0","0","0","5e0cf83bc12a3649f4c9ee92","","null","","","learningBlock1","","","","<div style=""font-size:60px;""> </div>","null","LF","learning/Slide46.JPG","This is a dep:","","",""
"html-keyboard-response","144","167297","0.0-5.0-0.46","LF","dn0e1jm7ff","1536","864","0","0","0","5e0cf83bc12a3649f4c9ee92","","null","","","learningBlock1","","","","This is a tob:","null","","","","","",""
"image-keyboard-response","145","167626","0.0-5.0-1.46","LF","dn0e1jm7ff","1536","864","0","0","0","5e0cf83bc12a3649f4c9ee92","","null","","","","","","","learning/Slide47.JPG","null","","","","","",""
"html-keyboard-response","146","168628","0.0-5.0-2.46","LF","dn0e1jm7ff","1536","864","0","0","0","5e0cf83bc12a3649f4c9ee92","","null","","","learningBlock1","","","","<div style=""font-size:60px;""> </div>","null","LF","learning/Slide47.JPG","This is a tob:","","",""
"html-keyboard-response","147","169629","0.0-5.0-0.47","LF","dn0e1jm7ff","1536","864","0","0","0","5e0cf83bc12a3649f4c9ee92","","null","","","learningBlock1","","","","This is a bim:","null","","","","","",""
"image-keyboard-response","148","169956","0.0-5.0-1.47","LF","dn0e1jm7ff","1536","864","0","0","0","5e0cf83bc12a3649f4c9ee92","","null","","","","","","","learning/Slide48.JPG","null","","","","","",""
"html-keyboard-response","149","170957","0.0-5.0-2.47","LF","dn0e1jm7ff","1536","864","0","0","0","5e0cf83bc12a3649f4c9ee92","","null","","","learningBlock1","","","","<div style=""font-size:60px;""> </div>","null","LF","learning/Slide48.JPG","This is a bim:","","",""
"html-keyboard-response","150","171959","0.0-5.0-0.48","LF","dn0e1jm7ff","1536","864","0","0","0","5e0cf83bc12a3649f4c9ee92","","null","","","learningBlock1","","","","This is a dep:","null","","","","","",""
"image-keyboard-response","151","172286","0.0-5.0-1.48","LF","dn0e1jm7ff","1536","864","0","0","0","5e0cf83bc12a3649f4c9ee92","","null","","","","","","","learning/Slide49.JPG","null","","","","","",""
"html-keyboard-response","152","173288","0.0-5.0-2.48","LF","dn0e1jm7ff","1536","864","0","0","0","5e0cf83bc12a3649f4c9ee92","","null","","","learningBlock1","","","","<div style=""font-size:60px;""> </div>","null","LF","learning/Slide49.JPG","This is a dep:","","",""
"html-keyboard-response","153","174289","0.0-5.0-0.49","LF","dn0e1jm7ff","1536","864","0","0","0","5e0cf83bc12a3649f4c9ee92","","null","","","learningBlock1","","","","This is a tob:","null","","","","","",""
"image-keyboard-response","154","174617","0.0-5.0-1.49","LF","dn0e1jm7ff","1536","864","0","0","0","5e0cf83bc12a3649f4c9ee92","","null","","","","","","","learning/Slide50.JPG","null","","","","","",""
"html-keyboard-response","155","175619","0.0-5.0-2.49","LF","dn0e1jm7ff","1536","864","0","0","0","5e0cf83bc12a3649f4c9ee92","","null","","","learningBlock1","","","","<div style=""font-size:60px;""> </div>","null","LF","learning/Slide50.JPG","This is a tob:","","",""
"html-keyboard-response","156","176620","0.0-5.0-0.50","LF","dn0e1jm7ff","1536","864","0","0","0","5e0cf83bc12a3649f4c9ee92","","null","","","learningBlock1","","","","This is a bim:","null","","","","","",""
"image-keyboard-response","157","176948","0.0-5.0-1.50","LF","dn0e1jm7ff","1536","864","0","0","0","5e0cf83bc12a3649f4c9ee92","","null","","","","","","","learning/Slide51.JPG","null","","","","","",""
"html-keyboard-response","158","177949","0.0-5.0-2.50","LF","dn0e1jm7ff","1536","864","0","0","0","5e0cf83bc12a3649f4c9ee92","","null","","","learningBlock1","","","","<div style=""font-size:60px;""> </div>","null","LF","learning/Slide51.JPG","This is a bim:","","",""
"html-keyboard-response","159","178951","0.0-5.0-0.51","LF","dn0e1jm7ff","1536","864","0","0","0","5e0cf83bc12a3649f4c9ee92","","null","","","learningBlock1","","","","This is a wug:","null","","","","","",""
"image-keyboard-response","160","179279","0.0-5.0-1.51","LF","dn0e1jm7ff","1536","864","0","0","0","5e0cf83bc12a3649f4c9ee92","","null","","","","","","","learning/Slide52.JPG","null","","","","","",""
"html-keyboard-response","161","180281","0.0-5.0-2.51","LF","dn0e1jm7ff","1536","864","0","0","0","5e0cf83bc12a3649f4c9ee92","","null","","","learningBlock1","","","","<div style=""font-size:60px;""> </div>","null","LF","learning/Slide52.JPG","This is a wug:","","",""
"html-keyboard-response","162","181284","0.0-5.0-0.52","LF","dn0e1jm7ff","1536","864","0","0","0","5e0cf83bc12a3649f4c9ee92","","null","","","learningBlock1","","","","This is a tob:","null","","","","","",""
"image-keyboard-response","163","181612","0.0-5.0-1.52","LF","dn0e1jm7ff","1536","864","0","0","0","5e0cf83bc12a3649f4c9ee92","","null","","","","","","","learning/Slide53.JPG","null","","","","","",""
"html-keyboard-response","164","182614","0.0-5.0-2.52","LF","dn0e1jm7ff","1536","864","0","0","0","5e0cf83bc12a3649f4c9ee92","","null","","","learningBlock1","","","","<div style=""font-size:60px;""> </div>","null","LF","learning/Slide53.JPG","This is a tob:","","",""
"html-keyboard-response","165","183616","0.0-5.0-0.53","LF","dn0e1jm7ff","1536","864","0","0","0","5e0cf83bc12a3649f4c9ee92","","null","","","learningBlock1","","","","This is a dep:","null","","","","","",""
"image-keyboard-response","166","183944","0.0-5.0-1.53","LF","dn0e1jm7ff","1536","864","0","0","0","5e0cf83bc12a3649f4c9ee92","","null","","","","","","","learning/Slide54.JPG","null","","","","","",""
"html-keyboard-response","167","184946","0.0-5.0-2.53","LF","dn0e1jm7ff","1536","864","0","0","0","5e0cf83bc12a3649f4c9ee92","","null","","","learningBlock1","","","","<div style=""font-size:60px;""> </div>","null","LF","learning/Slide54.JPG","This is a dep:","","",""
"html-keyboard-response","168","185948","0.0-5.0-0.54","LF","dn0e1jm7ff","1536","864","0","0","0","5e0cf83bc12a3649f4c9ee92","","null","","","learningBlock1","","","","This is a bim:","null","","","","","",""
"image-keyboard-response","169","186276","0.0-5.0-1.54","LF","dn0e1jm7ff","1536","864","0","0","0","5e0cf83bc12a3649f4c9ee92","","null","","","","","","","learning/Slide55.JPG","null","","","","","",""
"html-keyboard-response","170","187277","0.0-5.0-2.54","LF","dn0e1jm7ff","1536","864","0","0","0","5e0cf83bc12a3649f4c9ee92","","null","","","learningBlock1","","","","<div style=""font-size:60px;""> </div>","null","LF","learning/Slide55.JPG","This is a bim:","","",""
"html-keyboard-response","171","188278","0.0-5.0-0.55","LF","dn0e1jm7ff","1536","864","0","0","0","5e0cf83bc12a3649f4c9ee92","","null","","","learningBlock1","","","","This is a tob:","null","","","","","",""
"image-keyboard-response","172","188606","0.0-5.0-1.55","LF","dn0e1jm7ff","1536","864","0","0","0","5e0cf83bc12a3649f4c9ee92","","null","","","","","","","learning/Slide56.JPG","null","","","","","",""
"html-keyboard-response","173","189607","0.0-5.0-2.55","LF","dn0e1jm7ff","1536","864","0","0","0","5e0cf83bc12a3649f4c9ee92","","null","","","learningBlock1","","","","<div style=""font-size:60px;""> </div>","null","LF","learning/Slide56.JPG","This is a tob:","","",""
"html-keyboard-response","174","190608","0.0-5.0-0.56","LF","dn0e1jm7ff","1536","864","0","0","0","5e0cf83bc12a3649f4c9ee92","","null","","","learningBlock1","","","","This is a dep:","null","","","","","",""
"image-keyboard-response","175","190936","0.0-5.0-1.56","LF","dn0e1jm7ff","1536","864","0","0","0","5e0cf83bc12a3649f4c9ee92","","null","","","","","","","learning/Slide57.JPG","null","","","","","",""
"html-keyboard-response","176","191938","0.0-5.0-2.56","LF","dn0e1jm7ff","1536","864","0","0","0","5e0cf83bc12a3649f4c9ee92","","null","","","learningBlock1","","","","<div style=""font-size:60px;""> </div>","null","LF","learning/Slide57.JPG","This is a dep:","","",""
"html-keyboard-response","177","192939","0.0-5.0-0.57","LF","dn0e1jm7ff","1536","864","0","0","0","5e0cf83bc12a3649f4c9ee92","","null","","","learningBlock1","","","","This is a wug:","null","","","","","",""
"image-keyboard-response","178","193266","0.0-5.0-1.57","LF","dn0e1jm7ff","1536","864","0","0","0","5e0cf83bc12a3649f4c9ee92","","null","","","","","","","learning/Slide58.JPG","null","","","","","",""
"html-keyboard-response","179","194267","0.0-5.0-2.57","LF","dn0e1jm7ff","1536","864","0","0","0","5e0cf83bc12a3649f4c9ee92","","null","","","learningBlock1","","","","<div style=""font-size:60px;""> </div>","null","LF","learning/Slide58.JPG","This is a wug:","","",""
"html-keyboard-response","180","195268","0.0-5.0-0.58","LF","dn0e1jm7ff","1536","864","0","0","0","5e0cf83bc12a3649f4c9ee92","","null","","","learningBlock1","","","","This is a dep:","null","","","","","",""
"image-keyboard-response","181","195596","0.0-5.0-1.58","LF","dn0e1jm7ff","1536","864","0","0","0","5e0cf83bc12a3649f4c9ee92","","null","","","","","","","learning/Slide59.JPG","null","","","","","",""
"html-keyboard-response","182","196597","0.0-5.0-2.58","LF","dn0e1jm7ff","1536","864","0","0","0","5e0cf83bc12a3649f4c9ee92","","null","","","learningBlock1","","","","<div style=""font-size:60px;""> </div>","null","LF","learning/Slide59.JPG","This is a dep:","","",""
"html-keyboard-response","183","197600","0.0-5.0-0.59","LF","dn0e1jm7ff","1536","864","0","0","0","5e0cf83bc12a3649f4c9ee92","","null","","","learningBlock1","","","","This is a wug:","null","","","","","",""
"image-keyboard-response","184","197927","0.0-5.0-1.59","LF","dn0e1jm7ff","1536","864","0","0","0","5e0cf83bc12a3649f4c9ee92","","null","","","","","","","learning/Slide60.JPG","null","","","","","",""
"html-keyboard-response","185","198929","0.0-5.0-2.59","LF","dn0e1jm7ff","1536","864","0","0","0","5e0cf83bc12a3649f4c9ee92","","null","","","learningBlock1","","","","<div style=""font-size:60px;""> </div>","null","LF","learning/Slide60.JPG","This is a wug:","","",""
"html-keyboard-response","186","199931","0.0-5.0-0.60","LF","dn0e1jm7ff","1536","864","0","0","0","5e0cf83bc12a3649f4c9ee92","","null","","","learningBlock1","","","","This is a bim:","null","","","","","",""
"image-keyboard-response","187","200258","0.0-5.0-1.60","LF","dn0e1jm7ff","1536","864","0","0","0","5e0cf83bc12a3649f4c9ee92","","null","","","","","","","learning/Slide61.JPG","null","","","","","",""
"html-keyboard-response","188","201259","0.0-5.0-2.60","LF","dn0e1jm7ff","1536","864","0","0","0","5e0cf83bc12a3649f4c9ee92","","null","","","learningBlock1","","","","<div style=""font-size:60px;""> </div>","null","LF","learning/Slide61.JPG","This is a bim:","","",""
"html-keyboard-response","189","202262","0.0-5.0-0.61","LF","dn0e1jm7ff","1536","864","0","0","0","5e0cf83bc12a3649f4c9ee92","","null","","","learningBlock1","","","","This is a dep:","null","","","","","",""
"image-keyboard-response","190","202591","0.0-5.0-1.61","LF","dn0e1jm7ff","1536","864","0","0","0","5e0cf83bc12a3649f4c9ee92","","null","","","","","","","learning/Slide62.JPG","null","","","","","",""
"html-keyboard-response","191","203593","0.0-5.0-2.61","LF","dn0e1jm7ff","1536","864","0","0","0","5e0cf83bc12a3649f4c9ee92","","null","","","learningBlock1","","","","<div style=""font-size:60px;""> </div>","null","LF","learning/Slide62.JPG","This is a dep:","","",""
"html-keyboard-response","192","204595","0.0-5.0-0.62","LF","dn0e1jm7ff","1536","864","0","0","0","5e0cf83bc12a3649f4c9ee92","","null","","","learningBlock1","","","","This is a bim:","null","","","","","",""
"image-keyboard-response","193","204922","0.0-5.0-1.62","LF","dn0e1jm7ff","1536","864","0","0","0","5e0cf83bc12a3649f4c9ee92","","null","","","","","","","learning/Slide63.JPG","null","","","","","",""
"html-keyboard-response","194","205924","0.0-5.0-2.62","LF","dn0e1jm7ff","1536","864","0","0","0","5e0cf83bc12a3649f4c9ee92","","null","","","learningBlock1","","","","<div style=""font-size:60px;""> </div>","null","LF","learning/Slide63.JPG","This is a bim:","","",""
"html-keyboard-response","195","206926","0.0-5.0-0.63","LF","dn0e1jm7ff","1536","864","0","0","0","5e0cf83bc12a3649f4c9ee92","","null","","","learningBlock1","","","","This is a tob:","null","","","","","",""
"image-keyboard-response","196","207252","0.0-5.0-1.63","LF","dn0e1jm7ff","1536","864","0","0","0","5e0cf83bc12a3649f4c9ee92","","null","","","","","","","learning/Slide64.JPG","null","","","","","",""
"html-keyboard-response","197","208254","0.0-5.0-2.63","LF","dn0e1jm7ff","1536","864","0","0","0","5e0cf83bc12a3649f4c9ee92","","null","","","learningBlock1","","","","<div style=""font-size:60px;""> </div>","null","LF","learning/Slide64.JPG","This is a tob:","","",""
"html-keyboard-response","198","209255","0.0-5.0-0.64","LF","dn0e1jm7ff","1536","864","0","0","0","5e0cf83bc12a3649f4c9ee92","","null","","","learningBlock1","","","","This is a wug:","null","","","","","",""
"image-keyboard-response","199","209583","0.0-5.0-1.64","LF","dn0e1jm7ff","1536","864","0","0","0","5e0cf83bc12a3649f4c9ee92","","null","","","","","","","learning/Slide65.JPG","null","","","","","",""
"html-keyboard-response","200","210584","0.0-5.0-2.64","LF","dn0e1jm7ff","1536","864","0","0","0","5e0cf83bc12a3649f4c9ee92","","null","","","learningBlock1","","","","<div style=""font-size:60px;""> </div>","null","LF","learning/Slide65.JPG","This is a wug:","","",""
"html-keyboard-response","201","211586","0.0-5.0-0.65","LF","dn0e1jm7ff","1536","864","0","0","0","5e0cf83bc12a3649f4c9ee92","","null","","","learningBlock1","","","","This is a dep:","null","","","","","",""
"image-keyboard-response","202","211913","0.0-5.0-1.65","LF","dn0e1jm7ff","1536","864","0","0","0","5e0cf83bc12a3649f4c9ee92","","null","","","","","","","learning/Slide66.JPG","null","","","","","",""
"html-keyboard-response","203","212915","0.0-5.0-2.65","LF","dn0e1jm7ff","1536","864","0","0","0","5e0cf83bc12a3649f4c9ee92","","null","","","learningBlock1","","","","<div style=""font-size:60px;""> </div>","null","LF","learning/Slide66.JPG","This is a dep:","","",""
"html-keyboard-response","204","213916","0.0-5.0-0.66","LF","dn0e1jm7ff","1536","864","0","0","0","5e0cf83bc12a3649f4c9ee92","","null","","","learningBlock1","","","","This is a tob:","null","","","","","",""
"image-keyboard-response","205","214244","0.0-5.0-1.66","LF","dn0e1jm7ff","1536","864","0","0","0","5e0cf83bc12a3649f4c9ee92","","null","","","","","","","learning/Slide67.JPG","null","","","","","",""
"html-keyboard-response","206","215246","0.0-5.0-2.66","LF","dn0e1jm7ff","1536","864","0","0","0","5e0cf83bc12a3649f4c9ee92","","null","","","learningBlock1","","","","<div style=""font-size:60px;""> </div>","null","LF","learning/Slide67.JPG","This is a tob:","","",""
"html-keyboard-response","207","216247","0.0-5.0-0.67","LF","dn0e1jm7ff","1536","864","0","0","0","5e0cf83bc12a3649f4c9ee92","","null","","","learningBlock1","","","","This is a wug:","null","","","","","",""
"image-keyboard-response","208","216574","0.0-5.0-1.67","LF","dn0e1jm7ff","1536","864","0","0","0","5e0cf83bc12a3649f4c9ee92","","null","","","","","","","learning/Slide68.JPG","null","","","","","",""
"html-keyboard-response","209","217575","0.0-5.0-2.67","LF","dn0e1jm7ff","1536","864","0","0","0","5e0cf83bc12a3649f4c9ee92","","null","","","learningBlock1","","","","<div style=""font-size:60px;""> </div>","null","LF","learning/Slide68.JPG","This is a wug:","","",""
"html-keyboard-response","210","218577","0.0-5.0-0.68","LF","dn0e1jm7ff","1536","864","0","0","0","5e0cf83bc12a3649f4c9ee92","","null","","","learningBlock1","","","","This is a tob:","null","","","","","",""
"image-keyboard-response","211","218904","0.0-5.0-1.68","LF","dn0e1jm7ff","1536","864","0","0","0","5e0cf83bc12a3649f4c9ee92","","null","","","","","","","learning/Slide69.JPG","null","","","","","",""
"html-keyboard-response","212","219906","0.0-5.0-2.68","LF","dn0e1jm7ff","1536","864","0","0","0","5e0cf83bc12a3649f4c9ee92","","null","","","learningBlock1","","","","<div style=""font-size:60px;""> </div>","null","LF","learning/Slide69.JPG","This is a tob:","","",""
"html-keyboard-response","213","220908","0.0-5.0-0.69","LF","dn0e1jm7ff","1536","864","0","0","0","5e0cf83bc12a3649f4c9ee92","","null","","","learningBlock1","","","","This is a dep:","null","","","","","",""
"image-keyboard-response","214","221237","0.0-5.0-1.69","LF","dn0e1jm7ff","1536","864","0","0","0","5e0cf83bc12a3649f4c9ee92","","null","","","","","","","learning/Slide70.JPG","null","","","","","",""
"html-keyboard-response","215","222238","0.0-5.0-2.69","LF","dn0e1jm7ff","1536","864","0","0","0","5e0cf83bc12a3649f4c9ee92","","null","","","learningBlock1","","","","<div style=""font-size:60px;""> </div>","null","LF","learning/Slide70.JPG","This is a dep:","","",""
"html-keyboard-response","216","223240","0.0-5.0-0.70","LF","dn0e1jm7ff","1536","864","0","0","0","5e0cf83bc12a3649f4c9ee92","","null","","","learningBlock1","","","","This is a wug:","null","","","","","",""
"image-keyboard-response","217","223568","0.0-5.0-1.70","LF","dn0e1jm7ff","1536","864","0","0","0","5e0cf83bc12a3649f4c9ee92","","null","","","","","","","learning/Slide71.JPG","null","","","","","",""
"html-keyboard-response","218","224570","0.0-5.0-2.70","LF","dn0e1jm7ff","1536","864","0","0","0","5e0cf83bc12a3649f4c9ee92","","null","","","learningBlock1","","","","<div style=""font-size:60px;""> </div>","null","LF","learning/Slide71.JPG","This is a wug:","","",""
"html-keyboard-response","219","225571","0.0-5.0-0.71","LF","dn0e1jm7ff","1536","864","0","0","0","5e0cf83bc12a3649f4c9ee92","","null","","","learningBlock1","","","","This is a bim:","null","","","","","",""
"image-keyboard-response","220","225898","0.0-5.0-1.71","LF","dn0e1jm7ff","1536","864","0","0","0","5e0cf83bc12a3649f4c9ee92","","null","","","","","","","learning/Slide72.JPG","null","","","","","",""
"html-keyboard-response","221","226900","0.0-5.0-2.71","LF","dn0e1jm7ff","1536","864","0","0","0","5e0cf83bc12a3649f4c9ee92","","null","","","learningBlock1","","","","<div style=""font-size:60px;""> </div>","null","LF","learning/Slide72.JPG","This is a bim:","","",""
"html-keyboard-response","222","227902","0.0-5.0-0.72","LF","dn0e1jm7ff","1536","864","0","0","0","5e0cf83bc12a3649f4c9ee92","","null","","","learningBlock1","","","","This is a wug:","null","","","","","",""
"image-keyboard-response","223","228230","0.0-5.0-1.72","LF","dn0e1jm7ff","1536","864","0","0","0","5e0cf83bc12a3649f4c9ee92","","null","","","","","","","learning/Slide73.JPG","null","","","","","",""
"html-keyboard-response","224","229233","0.0-5.0-2.72","LF","dn0e1jm7ff","1536","864","0","0","0","5e0cf83bc12a3649f4c9ee92","","null","","","learningBlock1","","","","<div style=""font-size:60px;""> </div>","null","LF","learning/Slide73.JPG","This is a wug:","","",""
"html-keyboard-response","225","230234","0.0-5.0-0.73","LF","dn0e1jm7ff","1536","864","0","0","0","5e0cf83bc12a3649f4c9ee92","","null","","","learningBlock1","","","","This is a dep:","null","","","","","",""
"image-keyboard-response","226","230562","0.0-5.0-1.73","LF","dn0e1jm7ff","1536","864","0","0","0","5e0cf83bc12a3649f4c9ee92","","null","","","","","","","learning/Slide74.JPG","null","","","","","",""
"html-keyboard-response","227","231563","0.0-5.0-2.73","LF","dn0e1jm7ff","1536","864","0","0","0","5e0cf83bc12a3649f4c9ee92","","null","","","learningBlock1","","","","<div style=""font-size:60px;""> </div>","null","LF","learning/Slide74.JPG","This is a dep:","","",""
"html-keyboard-response","228","232565","0.0-5.0-0.74","LF","dn0e1jm7ff","1536","864","0","0","0","5e0cf83bc12a3649f4c9ee92","","null","","","learningBlock1","","","","This is a tob:","null","","","","","",""
"image-keyboard-response","229","232892","0.0-5.0-1.74","LF","dn0e1jm7ff","1536","864","0","0","0","5e0cf83bc12a3649f4c9ee92","","null","","","","","","","learning/Slide75.JPG","null","","","","","",""
"html-keyboard-response","230","233894","0.0-5.0-2.74","LF","dn0e1jm7ff","1536","864","0","0","0","5e0cf83bc12a3649f4c9ee92","","null","","","learningBlock1","","","","<div style=""font-size:60px;""> </div>","null","LF","learning/Slide75.JPG","This is a tob:","","",""
"html-keyboard-response","231","234896","0.0-5.0-0.75","LF","dn0e1jm7ff","1536","864","0","0","0","5e0cf83bc12a3649f4c9ee92","","null","","","learningBlock1","","","","This is a bim:","null","","","","","",""
"image-keyboard-response","232","235225","0.0-5.0-1.75","LF","dn0e1jm7ff","1536","864","0","0","0","5e0cf83bc12a3649f4c9ee92","","null","","","","","","","learning/Slide76.JPG","null","","","","","",""
"html-keyboard-response","233","236226","0.0-5.0-2.75","LF","dn0e1jm7ff","1536","864","0","0","0","5e0cf83bc12a3649f4c9ee92","","null","","","learningBlock1","","","","<div style=""font-size:60px;""> </div>","null","LF","learning/Slide76.JPG","This is a bim:","","",""
"html-keyboard-response","234","237228","0.0-5.0-0.76","LF","dn0e1jm7ff","1536","864","0","0","0","5e0cf83bc12a3649f4c9ee92","","null","","","learningBlock1","","","","This is a tob:","null","","","","","",""
"image-keyboard-response","235","237555","0.0-5.0-1.76","LF","dn0e1jm7ff","1536","864","0","0","0","5e0cf83bc12a3649f4c9ee92","","null","","","","","","","learning/Slide77.JPG","null","","","","","",""
"html-keyboard-response","236","238557","0.0-5.0-2.76","LF","dn0e1jm7ff","1536","864","0","0","0","5e0cf83bc12a3649f4c9ee92","","null","","","learningBlock1","","","","<div style=""font-size:60px;""> </div>","null","LF","learning/Slide77.JPG","This is a tob:","","",""
"html-keyboard-response","237","239559","0.0-5.0-0.77","LF","dn0e1jm7ff","1536","864","0","0","0","5e0cf83bc12a3649f4c9ee92","","null","","","learningBlock1","","","","This is a wug:","null","","","","","",""
"image-keyboard-response","238","239886","0.0-5.0-1.77","LF","dn0e1jm7ff","1536","864","0","0","0","5e0cf83bc12a3649f4c9ee92","","null","","","","","","","learning/Slide78.JPG","null","","","","","",""
"html-keyboard-response","239","240888","0.0-5.0-2.77","LF","dn0e1jm7ff","1536","864","0","0","0","5e0cf83bc12a3649f4c9ee92","","null","","","learningBlock1","","","","<div style=""font-size:60px;""> </div>","null","LF","learning/Slide78.JPG","This is a wug:","","",""
"html-keyboard-response","240","241889","0.0-5.0-0.78","LF","dn0e1jm7ff","1536","864","0","0","0","5e0cf83bc12a3649f4c9ee92","","null","","","learningBlock1","","","","This is a bim:","null","","","","","",""
"image-keyboard-response","241","242217","0.0-5.0-1.78","LF","dn0e1jm7ff","1536","864","0","0","0","5e0cf83bc12a3649f4c9ee92","","null","","","","","","","learning/Slide79.JPG","null","","","","","",""
"html-keyboard-response","242","243218","0.0-5.0-2.78","LF","dn0e1jm7ff","1536","864","0","0","0","5e0cf83bc12a3649f4c9ee92","","null","","","learningBlock1","","","","<div style=""font-size:60px;""> </div>","null","LF","learning/Slide79.JPG","This is a bim:","","",""
"html-keyboard-response","243","244220","0.0-5.0-0.79","LF","dn0e1jm7ff","1536","864","0","0","0","5e0cf83bc12a3649f4c9ee92","","null","","","learningBlock1","","","","This is a tob:","null","","","","","",""
"image-keyboard-response","244","244548","0.0-5.0-1.79","LF","dn0e1jm7ff","1536","864","0","0","0","5e0cf83bc12a3649f4c9ee92","","null","","","","","","","learning/Slide80.JPG","null","","","","","",""
"html-keyboard-response","245","245550","0.0-5.0-2.79","LF","dn0e1jm7ff","1536","864","0","0","0","5e0cf83bc12a3649f4c9ee92","","null","","","learningBlock1","","","","<div style=""font-size:60px;""> </div>","null","LF","learning/Slide80.JPG","This is a tob:","","",""
"instructions","246","249757","0.0-6.0","LF","dn0e1jm7ff","1536","864","0","0","0","5e0cf83bc12a3649f4c9ee92","","NA","","[{""page_index"":0,""viewing_time"":4206.590000001597}]","instructions","","","","","","","","","","",""
"html-keyboard-response","247","250758","0.0-7.0-0.0","LF","dn0e1jm7ff","1536","864","0","0","0","5e0cf83bc12a3649f4c9ee92","","null","","","learningBlock2","","","","This is a wug:","null","","","","","",""
"image-keyboard-response","248","251086","0.0-7.0-1.0","LF","dn0e1jm7ff","1536","864","0","0","0","5e0cf83bc12a3649f4c9ee92","","null","","","","","","","learning/Slide81.JPG","null","","","","","",""
"html-keyboard-response","249","252087","0.0-7.0-2.0","LF","dn0e1jm7ff","1536","864","0","0","0","5e0cf83bc12a3649f4c9ee92","","null","","","learningBlock2","","","","<div style=""font-size:60px;""> </div>","null","LF","learning/Slide81.JPG","This is a wug:","","",""
"html-keyboard-response","250","253089","0.0-7.0-0.1","LF","dn0e1jm7ff","1536","864","0","0","0","5e0cf83bc12a3649f4c9ee92","","null","","","learningBlock2","","","","This is a bim:","null","","","","","",""
"image-keyboard-response","251","253417","0.0-7.0-1.1","LF","dn0e1jm7ff","1536","864","0","0","0","5e0cf83bc12a3649f4c9ee92","","null","","","","","","","learning/Slide82.JPG","null","","","","","",""
"html-keyboard-response","252","254418","0.0-7.0-2.1","LF","dn0e1jm7ff","1536","864","0","0","0","5e0cf83bc12a3649f4c9ee92","","null","","","learningBlock2","","","","<div style=""font-size:60px;""> </div>","null","LF","learning/Slide82.JPG","This is a bim:","","",""
"html-keyboard-response","253","255420","0.0-7.0-0.2","LF","dn0e1jm7ff","1536","864","0","0","0","5e0cf83bc12a3649f4c9ee92","","null","","","learningBlock2","","","","This is a wug:","null","","","","","",""
"image-keyboard-response","254","255747","0.0-7.0-1.2","LF","dn0e1jm7ff","1536","864","0","0","0","5e0cf83bc12a3649f4c9ee92","","null","","","","","","","learning/Slide83.JPG","null","","","","","",""
"html-keyboard-response","255","256749","0.0-7.0-2.2","LF","dn0e1jm7ff","1536","864","0","0","0","5e0cf83bc12a3649f4c9ee92","","null","","","learningBlock2","","","","<div style=""font-size:60px;""> </div>","null","LF","learning/Slide83.JPG","This is a wug:","","",""
"html-keyboard-response","256","257751","0.0-7.0-0.3","LF","dn0e1jm7ff","1536","864","0","0","0","5e0cf83bc12a3649f4c9ee92","","null","","","learningBlock2","","","","This is a dep:","null","","","","","",""
"image-keyboard-response","257","258078","0.0-7.0-1.3","LF","dn0e1jm7ff","1536","864","0","0","0","5e0cf83bc12a3649f4c9ee92","","null","","","","","","","learning/Slide84.JPG","null","","","","","",""
"html-keyboard-response","258","259079","0.0-7.0-2.3","LF","dn0e1jm7ff","1536","864","0","0","0","5e0cf83bc12a3649f4c9ee92","","null","","","learningBlock2","","","","<div style=""font-size:60px;""> </div>","null","LF","learning/Slide84.JPG","This is a dep:","","",""
"html-keyboard-response","259","260080","0.0-7.0-0.4","LF","dn0e1jm7ff","1536","864","0","0","0","5e0cf83bc12a3649f4c9ee92","","null","","","learningBlock2","","","","This is a bim:","null","","","","","",""
"image-keyboard-response","260","260407","0.0-7.0-1.4","LF","dn0e1jm7ff","1536","864","0","0","0","5e0cf83bc12a3649f4c9ee92","","null","","","","","","","learning/Slide85.JPG","null","","","","","",""
"html-keyboard-response","261","261409","0.0-7.0-2.4","LF","dn0e1jm7ff","1536","864","0","0","0","5e0cf83bc12a3649f4c9ee92","","null","","","learningBlock2","","","","<div style=""font-size:60px;""> </div>","null","LF","learning/Slide85.JPG","This is a bim:","","",""
"html-keyboard-response","262","262411","0.0-7.0-0.5","LF","dn0e1jm7ff","1536","864","0","0","0","5e0cf83bc12a3649f4c9ee92","","null","","","learningBlock2","","","","This is a tob:","null","","","","","",""
"image-keyboard-response","263","262739","0.0-7.0-1.5","LF","dn0e1jm7ff","1536","864","0","0","0","5e0cf83bc12a3649f4c9ee92","","null","","","","","","","learning/Slide86.JPG","null","","","","","",""
"html-keyboard-response","264","263740","0.0-7.0-2.5","LF","dn0e1jm7ff","1536","864","0","0","0","5e0cf83bc12a3649f4c9ee92","","null","","","learningBlock2","","","","<div style=""font-size:60px;""> </div>","null","LF","learning/Slide86.JPG","This is a tob:","","",""
"html-keyboard-response","265","264742","0.0-7.0-0.6","LF","dn0e1jm7ff","1536","864","0","0","0","5e0cf83bc12a3649f4c9ee92","","null","","","learningBlock2","","","","This is a wug:","null","","","","","",""
"image-keyboard-response","266","265070","0.0-7.0-1.6","LF","dn0e1jm7ff","1536","864","0","0","0","5e0cf83bc12a3649f4c9ee92","","null","","","","","","","learning/Slide87.JPG","null","","","","","",""
"html-keyboard-response","267","266072","0.0-7.0-2.6","LF","dn0e1jm7ff","1536","864","0","0","0","5e0cf83bc12a3649f4c9ee92","","null","","","learningBlock2","","","","<div style=""font-size:60px;""> </div>","null","LF","learning/Slide87.JPG","This is a wug:","","",""
"html-keyboard-response","268","267074","0.0-7.0-0.7","LF","dn0e1jm7ff","1536","864","0","0","0","5e0cf83bc12a3649f4c9ee92","","null","","","learningBlock2","","","","This is a tob:","null","","","","","",""
"image-keyboard-response","269","267404","0.0-7.0-1.7","LF","dn0e1jm7ff","1536","864","0","0","0","5e0cf83bc12a3649f4c9ee92","","null","","","","","","","learning/Slide88.JPG","null","","","","","",""
"html-keyboard-response","270","268406","0.0-7.0-2.7","LF","dn0e1jm7ff","1536","864","0","0","0","5e0cf83bc12a3649f4c9ee92","","null","","","learningBlock2","","","","<div style=""font-size:60px;""> </div>","null","LF","learning/Slide88.JPG","This is a tob:","","",""
"html-keyboard-response","271","269408","0.0-7.0-0.8","LF","dn0e1jm7ff","1536","864","0","0","0","5e0cf83bc12a3649f4c9ee92","","null","","","learningBlock2","","","","This is a bim:","null","","","","","",""
"image-keyboard-response","272","269736","0.0-7.0-1.8","LF","dn0e1jm7ff","1536","864","0","0","0","5e0cf83bc12a3649f4c9ee92","","null","","","","","","","learning/Slide89.JPG","null","","","","","",""
"html-keyboard-response","273","270738","0.0-7.0-2.8","LF","dn0e1jm7ff","1536","864","0","0","0","5e0cf83bc12a3649f4c9ee92","","null","","","learningBlock2","","","","<div style=""font-size:60px;""> </div>","null","LF","learning/Slide89.JPG","This is a bim:","","",""
"html-keyboard-response","274","271740","0.0-7.0-0.9","LF","dn0e1jm7ff","1536","864","0","0","0","5e0cf83bc12a3649f4c9ee92","","null","","","learningBlock2","","","","This is a dep:","null","","","","","",""
"image-keyboard-response","275","272068","0.0-7.0-1.9","LF","dn0e1jm7ff","1536","864","0","0","0","5e0cf83bc12a3649f4c9ee92","","null","","","","","","","learning/Slide90.JPG","null","","","","","",""
"html-keyboard-response","276","273070","0.0-7.0-2.9","LF","dn0e1jm7ff","1536","864","0","0","0","5e0cf83bc12a3649f4c9ee92","","null","","","learningBlock2","","","","<div style=""font-size:60px;""> </div>","null","LF","learning/Slide90.JPG","This is a dep:","","",""
"html-keyboard-response","277","274071","0.0-7.0-0.10","LF","dn0e1jm7ff","1536","864","0","0","0","5e0cf83bc12a3649f4c9ee92","","null","","","learningBlock2","","","","This is a wug:","null","","","","","",""
"image-keyboard-response","278","274399","0.0-7.0-1.10","LF","dn0e1jm7ff","1536","864","0","0","0","5e0cf83bc12a3649f4c9ee92","","null","","","","","","","learning/Slide91.JPG","null","","","","","",""
"html-keyboard-response","279","275401","0.0-7.0-2.10","LF","dn0e1jm7ff","1536","864","0","0","0","5e0cf83bc12a3649f4c9ee92","","null","","","learningBlock2","","","","<div style=""font-size:60px;""> </div>","null","LF","learning/Slide91.JPG","This is a wug:","","",""
"html-keyboard-response","280","276402","0.0-7.0-0.11","LF","dn0e1jm7ff","1536","864","0","0","0","5e0cf83bc12a3649f4c9ee92","","null","","","learningBlock2","","","","This is a tob:","null","","","","","",""
"image-keyboard-response","281","276731","0.0-7.0-1.11","LF","dn0e1jm7ff","1536","864","0","0","0","5e0cf83bc12a3649f4c9ee92","","null","","","","","","","learning/Slide92.JPG","null","","","","","",""
"html-keyboard-response","282","277732","0.0-7.0-2.11","LF","dn0e1jm7ff","1536","864","0","0","0","5e0cf83bc12a3649f4c9ee92","","null","","","learningBlock2","","","","<div style=""font-size:60px;""> </div>","null","LF","learning/Slide92.JPG","This is a tob:","","",""
"html-keyboard-response","283","278733","0.0-7.0-0.12","LF","dn0e1jm7ff","1536","864","0","0","0","5e0cf83bc12a3649f4c9ee92","","null","","","learningBlock2","","","","This is a bim:","null","","","","","",""
"image-keyboard-response","284","279061","0.0-7.0-1.12","LF","dn0e1jm7ff","1536","864","0","0","0","5e0cf83bc12a3649f4c9ee92","","null","","","","","","","learning/Slide93.JPG","null","","","","","",""
"html-keyboard-response","285","280063","0.0-7.0-2.12","LF","dn0e1jm7ff","1536","864","0","0","0","5e0cf83bc12a3649f4c9ee92","","null","","","learningBlock2","","","","<div style=""font-size:60px;""> </div>","null","LF","learning/Slide93.JPG","This is a bim:","","",""
"html-keyboard-response","286","281064","0.0-7.0-0.13","LF","dn0e1jm7ff","1536","864","0","0","0","5e0cf83bc12a3649f4c9ee92","","null","","","learningBlock2","","","","This is a tob:","null","","","","","",""
"image-keyboard-response","287","281392","0.0-7.0-1.13","LF","dn0e1jm7ff","1536","864","0","0","0","5e0cf83bc12a3649f4c9ee92","","null","","","","","","","learning/Slide94.JPG","null","","","","","",""
"html-keyboard-response","288","282392","0.0-7.0-2.13","LF","dn0e1jm7ff","1536","864","0","0","0","5e0cf83bc12a3649f4c9ee92","","null","","","learningBlock2","","","","<div style=""font-size:60px;""> </div>","null","LF","learning/Slide94.JPG","This is a tob:","","",""
"html-keyboard-response","289","283393","0.0-7.0-0.14","LF","dn0e1jm7ff","1536","864","0","0","0","5e0cf83bc12a3649f4c9ee92","","null","","","learningBlock2","","","","This is a wug:","null","","","","","",""
"image-keyboard-response","290","283721","0.0-7.0-1.14","LF","dn0e1jm7ff","1536","864","0","0","0","5e0cf83bc12a3649f4c9ee92","","null","","","","","","","learning/Slide95.JPG","null","","","","","",""
"html-keyboard-response","291","284722","0.0-7.0-2.14","LF","dn0e1jm7ff","1536","864","0","0","0","5e0cf83bc12a3649f4c9ee92","","null","","","learningBlock2","","","","<div style=""font-size:60px;""> </div>","null","LF","learning/Slide95.JPG","This is a wug:","","",""
"html-keyboard-response","292","285724","0.0-7.0-0.15","LF","dn0e1jm7ff","1536","864","0","0","0","5e0cf83bc12a3649f4c9ee92","","null","","","learningBlock2","","","","This is a tob:","null","","","","","",""
"image-keyboard-response","293","286053","0.0-7.0-1.15","LF","dn0e1jm7ff","1536","864","0","0","0","5e0cf83bc12a3649f4c9ee92","","null","","","","","","","learning/Slide96.JPG","null","","","","","",""
"html-keyboard-response","294","287054","0.0-7.0-2.15","LF","dn0e1jm7ff","1536","864","0","0","0","5e0cf83bc12a3649f4c9ee92","","null","","","learningBlock2","","","","<div style=""font-size:60px;""> </div>","null","LF","learning/Slide96.JPG","This is a tob:","","",""
"html-keyboard-response","295","288056","0.0-7.0-0.16","LF","dn0e1jm7ff","1536","864","0","0","0","5e0cf83bc12a3649f4c9ee92","","null","","","learningBlock2","","","","This is a dep:","null","","","","","",""
"image-keyboard-response","296","288385","0.0-7.0-1.16","LF","dn0e1jm7ff","1536","864","0","0","0","5e0cf83bc12a3649f4c9ee92","","null","","","","","","","learning/Slide97.JPG","null","","","","","",""
"html-keyboard-response","297","289387","0.0-7.0-2.16","LF","dn0e1jm7ff","1536","864","0","0","0","5e0cf83bc12a3649f4c9ee92","","null","","","learningBlock2","","","","<div style=""font-size:60px;""> </div>","null","LF","learning/Slide97.JPG","This is a dep:","","",""
"html-keyboard-response","298","290388","0.0-7.0-0.17","LF","dn0e1jm7ff","1536","864","0","0","0","5e0cf83bc12a3649f4c9ee92","","null","","","learningBlock2","","","","This is a bim:","null","","","","","",""
"image-keyboard-response","299","290715","0.0-7.0-1.17","LF","dn0e1jm7ff","1536","864","0","0","0","5e0cf83bc12a3649f4c9ee92","","null","","","","","","","learning/Slide98.JPG","null","","","","","",""
"html-keyboard-response","300","291717","0.0-7.0-2.17","LF","dn0e1jm7ff","1536","864","0","0","0","5e0cf83bc12a3649f4c9ee92","","null","","","learningBlock2","","","","<div style=""font-size:60px;""> </div>","null","LF","learning/Slide98.JPG","This is a bim:","","",""
"html-keyboard-response","301","292719","0.0-7.0-0.18","LF","dn0e1jm7ff","1536","864","0","0","0","5e0cf83bc12a3649f4c9ee92","","null","","","learningBlock2","","","","This is a dep:","null","","","","","",""
"image-keyboard-response","302","293046","0.0-7.0-1.18","LF","dn0e1jm7ff","1536","864","0","0","0","5e0cf83bc12a3649f4c9ee92","","null","","","","","","","learning/Slide99.JPG","null","","","","","",""
"html-keyboard-response","303","294047","0.0-7.0-2.18","LF","dn0e1jm7ff","1536","864","0","0","0","5e0cf83bc12a3649f4c9ee92","","null","","","learningBlock2","","","","<div style=""font-size:60px;""> </div>","null","LF","learning/Slide99.JPG","This is a dep:","","",""
"html-keyboard-response","304","295049","0.0-7.0-0.19","LF","dn0e1jm7ff","1536","864","0","0","0","5e0cf83bc12a3649f4c9ee92","","null","","","learningBlock2","","","","This is a bim:","null","","","","","",""
"image-keyboard-response","305","295377","0.0-7.0-1.19","LF","dn0e1jm7ff","1536","864","0","0","0","5e0cf83bc12a3649f4c9ee92","","null","","","","","","","learning/Slide100.JPG","null","","","","","",""
"html-keyboard-response","306","296379","0.0-7.0-2.19","LF","dn0e1jm7ff","1536","864","0","0","0","5e0cf83bc12a3649f4c9ee92","","null","","","learningBlock2","","","","<div style=""font-size:60px;""> </div>","null","LF","learning/Slide100.JPG","This is a bim:","","",""
"html-keyboard-response","307","297382","0.0-7.0-0.20","LF","dn0e1jm7ff","1536","864","0","0","0","5e0cf83bc12a3649f4c9ee92","","null","","","learningBlock2","","","","This is a tob:","null","","","","","",""
"image-keyboard-response","308","297709","0.0-7.0-1.20","LF","dn0e1jm7ff","1536","864","0","0","0","5e0cf83bc12a3649f4c9ee92","","null","","","","","","","learning/Slide101.JPG","null","","","","","",""
"html-keyboard-response","309","298711","0.0-7.0-2.20","LF","dn0e1jm7ff","1536","864","0","0","0","5e0cf83bc12a3649f4c9ee92","","null","","","learningBlock2","","","","<div style=""font-size:60px;""> </div>","null","LF","learning/Slide101.JPG","This is a tob:","","",""
"html-keyboard-response","310","299713","0.0-7.0-0.21","LF","dn0e1jm7ff","1536","864","0","0","0","5e0cf83bc12a3649f4c9ee92","","null","","","learningBlock2","","","","This is a bim:","null","","","","","",""
"image-keyboard-response","311","300041","0.0-7.0-1.21","LF","dn0e1jm7ff","1536","864","0","0","0","5e0cf83bc12a3649f4c9ee92","","null","","","","","","","learning/Slide102.JPG","null","","","","","",""
"html-keyboard-response","312","301042","0.0-7.0-2.21","LF","dn0e1jm7ff","1536","864","0","0","0","5e0cf83bc12a3649f4c9ee92","","null","","","learningBlock2","","","","<div style=""font-size:60px;""> </div>","null","LF","learning/Slide102.JPG","This is a bim:","","",""
"html-keyboard-response","313","302043","0.0-7.0-0.22","LF","dn0e1jm7ff","1536","864","0","0","0","5e0cf83bc12a3649f4c9ee92","","null","","","learningBlock2","","","","This is a dep:","null","","","","","",""
"image-keyboard-response","314","302370","0.0-7.0-1.22","LF","dn0e1jm7ff","1536","864","0","0","0","5e0cf83bc12a3649f4c9ee92","","null","","","","","","","learning/Slide103.JPG","null","","","","","",""
"html-keyboard-response","315","303372","0.0-7.0-2.22","LF","dn0e1jm7ff","1536","864","0","0","0","5e0cf83bc12a3649f4c9ee92","","null","","","learningBlock2","","","","<div style=""font-size:60px;""> </div>","null","LF","learning/Slide103.JPG","This is a dep:","","",""
"html-keyboard-response","316","304374","0.0-7.0-0.23","LF","dn0e1jm7ff","1536","864","0","0","0","5e0cf83bc12a3649f4c9ee92","","null","","","learningBlock2","","","","This is a tob:","null","","","","","",""
"image-keyboard-response","317","304704","0.0-7.0-1.23","LF","dn0e1jm7ff","1536","864","0","0","0","5e0cf83bc12a3649f4c9ee92","","null","","","","","","","learning/Slide104.JPG","null","","","","","",""
"html-keyboard-response","318","305706","0.0-7.0-2.23","LF","dn0e1jm7ff","1536","864","0","0","0","5e0cf83bc12a3649f4c9ee92","","null","","","learningBlock2","","","","<div style=""font-size:60px;""> </div>","null","LF","learning/Slide104.JPG","This is a tob:","","",""
"html-keyboard-response","319","306708","0.0-7.0-0.24","LF","dn0e1jm7ff","1536","864","0","0","0","5e0cf83bc12a3649f4c9ee92","","null","","","learningBlock2","","","","This is a dep:","null","","","","","",""
"image-keyboard-response","320","307035","0.0-7.0-1.24","LF","dn0e1jm7ff","1536","864","0","0","0","5e0cf83bc12a3649f4c9ee92","","null","","","","","","","learning/Slide105.JPG","null","","","","","",""
"html-keyboard-response","321","308037","0.0-7.0-2.24","LF","dn0e1jm7ff","1536","864","0","0","0","5e0cf83bc12a3649f4c9ee92","","null","","","learningBlock2","","","","<div style=""font-size:60px;""> </div>","null","LF","learning/Slide105.JPG","This is a dep:","","",""
"html-keyboard-response","322","309039","0.0-7.0-0.25","LF","dn0e1jm7ff","1536","864","0","0","0","5e0cf83bc12a3649f4c9ee92","","null","","","learningBlock2","","","","This is a wug:","null","","","","","",""
"image-keyboard-response","323","309366","0.0-7.0-1.25","LF","dn0e1jm7ff","1536","864","0","0","0","5e0cf83bc12a3649f4c9ee92","","null","","","","","","","learning/Slide106.JPG","null","","","","","",""
"html-keyboard-response","324","310367","0.0-7.0-2.25","LF","dn0e1jm7ff","1536","864","0","0","0","5e0cf83bc12a3649f4c9ee92","","null","","","learningBlock2","","","","<div style=""font-size:60px;""> </div>","null","LF","learning/Slide106.JPG","This is a wug:","","",""
"html-keyboard-response","325","311369","0.0-7.0-0.26","LF","dn0e1jm7ff","1536","864","0","0","0","5e0cf83bc12a3649f4c9ee92","","null","","","learningBlock2","","","","This is a bim:","null","","","","","",""
"image-keyboard-response","326","311697","0.0-7.0-1.26","LF","dn0e1jm7ff","1536","864","0","0","0","5e0cf83bc12a3649f4c9ee92","","null","","","","","","","learning/Slide107.JPG","null","","","","","",""
"html-keyboard-response","327","312698","0.0-7.0-2.26","LF","dn0e1jm7ff","1536","864","0","0","0","5e0cf83bc12a3649f4c9ee92","","null","","","learningBlock2","","","","<div style=""font-size:60px;""> </div>","null","LF","learning/Slide107.JPG","This is a bim:","","",""
"html-keyboard-response","328","313699","0.0-7.0-0.27","LF","dn0e1jm7ff","1536","864","0","0","0","5e0cf83bc12a3649f4c9ee92","","null","","","learningBlock2","","","","This is a dep:","null","","","","","",""
"image-keyboard-response","329","314027","0.0-7.0-1.27","LF","dn0e1jm7ff","1536","864","0","0","0","5e0cf83bc12a3649f4c9ee92","","null","","","","","","","learning/Slide108.JPG","null","","","","","",""
"html-keyboard-response","330","315029","0.0-7.0-2.27","LF","dn0e1jm7ff","1536","864","0","0","0","5e0cf83bc12a3649f4c9ee92","","null","","","learningBlock2","","","","<div style=""font-size:60px;""> </div>","null","LF","learning/Slide108.JPG","This is a dep:","","",""
"html-keyboard-response","331","316031","0.0-7.0-0.28","LF","dn0e1jm7ff","1536","864","0","0","0","5e0cf83bc12a3649f4c9ee92","","null","","","learningBlock2","","","","This is a wug:","null","","","","","",""
"image-keyboard-response","332","316358","0.0-7.0-1.28","LF","dn0e1jm7ff","1536","864","0","0","0","5e0cf83bc12a3649f4c9ee92","","null","","","","","","","learning/Slide109.JPG","null","","","","","",""
"html-keyboard-response","333","317359","0.0-7.0-2.28","LF","dn0e1jm7ff","1536","864","0","0","0","5e0cf83bc12a3649f4c9ee92","","null","","","learningBlock2","","","","<div style=""font-size:60px;""> </div>","null","LF","learning/Slide109.JPG","This is a wug:","","",""
"html-keyboard-response","334","318360","0.0-7.0-0.29","LF","dn0e1jm7ff","1536","864","0","0","0","5e0cf83bc12a3649f4c9ee92","","null","","","learningBlock2","","","","This is a bim:","null","","","","","",""
"image-keyboard-response","335","318689","0.0-7.0-1.29","LF","dn0e1jm7ff","1536","864","0","0","0","5e0cf83bc12a3649f4c9ee92","","null","","","","","","","learning/Slide110.JPG","null","","","","","",""
"html-keyboard-response","336","319692","0.0-7.0-2.29","LF","dn0e1jm7ff","1536","864","0","0","0","5e0cf83bc12a3649f4c9ee92","","null","","","learningBlock2","","","","<div style=""font-size:60px;""> </div>","null","LF","learning/Slide110.JPG","This is a bim:","","",""
"html-keyboard-response","337","320693","0.0-7.0-0.30","LF","dn0e1jm7ff","1536","864","0","0","0","5e0cf83bc12a3649f4c9ee92","","null","","","learningBlock2","","","","This is a tob:","null","","","","","",""
"image-keyboard-response","338","321021","0.0-7.0-1.30","LF","dn0e1jm7ff","1536","864","0","0","0","5e0cf83bc12a3649f4c9ee92","","null","","","","","","","learning/Slide111.JPG","null","","","","","",""
"html-keyboard-response","339","322022","0.0-7.0-2.30","LF","dn0e1jm7ff","1536","864","0","0","0","5e0cf83bc12a3649f4c9ee92","","null","","","learningBlock2","","","","<div style=""font-size:60px;""> </div>","null","LF","learning/Slide111.JPG","This is a tob:","","",""
"html-keyboard-response","340","323024","0.0-7.0-0.31","LF","dn0e1jm7ff","1536","864","0","0","0","5e0cf83bc12a3649f4c9ee92","","null","","","learningBlock2","","","","This is a wug:","null","","","","","",""
"image-keyboard-response","341","323351","0.0-7.0-1.31","LF","dn0e1jm7ff","1536","864","0","0","0","5e0cf83bc12a3649f4c9ee92","","null","","","","","","","learning/Slide112.JPG","null","","","","","",""
"html-keyboard-response","342","324353","0.0-7.0-2.31","LF","dn0e1jm7ff","1536","864","0","0","0","5e0cf83bc12a3649f4c9ee92","","null","","","learningBlock2","","","","<div style=""font-size:60px;""> </div>","null","LF","learning/Slide112.JPG","This is a wug:","","",""
"html-keyboard-response","343","325355","0.0-7.0-0.32","LF","dn0e1jm7ff","1536","864","0","0","0","5e0cf83bc12a3649f4c9ee92","","null","","","learningBlock2","","","","This is a tob:","null","","","","","",""
"image-keyboard-response","344","325684","0.0-7.0-1.32","LF","dn0e1jm7ff","1536","864","0","0","0","5e0cf83bc12a3649f4c9ee92","","null","","","","","","","learning/Slide113.JPG","null","","","","","",""
"html-keyboard-response","345","326685","0.0-7.0-2.32","LF","dn0e1jm7ff","1536","864","0","0","0","5e0cf83bc12a3649f4c9ee92","","null","","","learningBlock2","","","","<div style=""font-size:60px;""> </div>","null","LF","learning/Slide113.JPG","This is a tob:","","",""
"html-keyboard-response","346","327687","0.0-7.0-0.33","LF","dn0e1jm7ff","1536","864","0","0","0","5e0cf83bc12a3649f4c9ee92","","null","","","learningBlock2","","","","This is a wug:","null","","","","","",""
"image-keyboard-response","347","328015","0.0-7.0-1.33","LF","dn0e1jm7ff","1536","864","0","0","0","5e0cf83bc12a3649f4c9ee92","","null","","","","","","","learning/Slide114.JPG","null","","","","","",""
"html-keyboard-response","348","329017","0.0-7.0-2.33","LF","dn0e1jm7ff","1536","864","0","0","0","5e0cf83bc12a3649f4c9ee92","","null","","","learningBlock2","","","","<div style=""font-size:60px;""> </div>","null","LF","learning/Slide114.JPG","This is a wug:","","",""
"html-keyboard-response","349","330018","0.0-7.0-0.34","LF","dn0e1jm7ff","1536","864","0","0","0","5e0cf83bc12a3649f4c9ee92","","null","","","learningBlock2","","","","This is a bim:","null","","","","","",""
"image-keyboard-response","350","330346","0.0-7.0-1.34","LF","dn0e1jm7ff","1536","864","0","0","0","5e0cf83bc12a3649f4c9ee92","","null","","","","","","","learning/Slide115.JPG","null","","","","","",""
"html-keyboard-response","351","331348","0.0-7.0-2.34","LF","dn0e1jm7ff","1536","864","0","0","0","5e0cf83bc12a3649f4c9ee92","","null","","","learningBlock2","","","","<div style=""font-size:60px;""> </div>","null","LF","learning/Slide115.JPG","This is a bim:","","",""
"html-keyboard-response","352","332350","0.0-7.0-0.35","LF","dn0e1jm7ff","1536","864","0","0","0","5e0cf83bc12a3649f4c9ee92","","null","","","learningBlock2","","","","This is a dep:","null","","","","","",""
"image-keyboard-response","353","332677","0.0-7.0-1.35","LF","dn0e1jm7ff","1536","864","0","0","0","5e0cf83bc12a3649f4c9ee92","","null","","","","","","","learning/Slide116.JPG","null","","","","","",""
"html-keyboard-response","354","333680","0.0-7.0-2.35","LF","dn0e1jm7ff","1536","864","0","0","0","5e0cf83bc12a3649f4c9ee92","","null","","","learningBlock2","","","","<div style=""font-size:60px;""> </div>","null","LF","learning/Slide116.JPG","This is a dep:","","",""
"html-keyboard-response","355","334682","0.0-7.0-0.36","LF","dn0e1jm7ff","1536","864","0","0","0","5e0cf83bc12a3649f4c9ee92","","null","","","learningBlock2","","","","This is a tob:","null","","","","","",""
"image-keyboard-response","356","335011","0.0-7.0-1.36","LF","dn0e1jm7ff","1536","864","0","0","0","5e0cf83bc12a3649f4c9ee92","","null","","","","","","","learning/Slide117.JPG","null","","","","","",""
"html-keyboard-response","357","336013","0.0-7.0-2.36","LF","dn0e1jm7ff","1536","864","0","0","0","5e0cf83bc12a3649f4c9ee92","","null","","","learningBlock2","","","","<div style=""font-size:60px;""> </div>","null","LF","learning/Slide117.JPG","This is a tob:","","",""
"html-keyboard-response","358","337015","0.0-7.0-0.37","LF","dn0e1jm7ff","1536","864","0","0","0","5e0cf83bc12a3649f4c9ee92","","null","","","learningBlock2","","","","This is a dep:","null","","","","","",""
"image-keyboard-response","359","337343","0.0-7.0-1.37","LF","dn0e1jm7ff","1536","864","0","0","0","5e0cf83bc12a3649f4c9ee92","","null","","","","","","","learning/Slide118.JPG","null","","","","","",""
"html-keyboard-response","360","338346","0.0-7.0-2.37","LF","dn0e1jm7ff","1536","864","0","0","0","5e0cf83bc12a3649f4c9ee92","","null","","","learningBlock2","","","","<div style=""font-size:60px;""> </div>","null","LF","learning/Slide118.JPG","This is a dep:","","",""
"html-keyboard-response","361","339348","0.0-7.0-0.38","LF","dn0e1jm7ff","1536","864","0","0","0","5e0cf83bc12a3649f4c9ee92","","null","","","learningBlock2","","","","This is a wug:","null","","","","","",""
"image-keyboard-response","362","339677","0.0-7.0-1.38","LF","dn0e1jm7ff","1536","864","0","0","0","5e0cf83bc12a3649f4c9ee92","","null","","","","","","","learning/Slide119.JPG","null","","","","","",""
"html-keyboard-response","363","340678","0.0-7.0-2.38","LF","dn0e1jm7ff","1536","864","0","0","0","5e0cf83bc12a3649f4c9ee92","","null","","","learningBlock2","","","","<div style=""font-size:60px;""> </div>","null","LF","learning/Slide119.JPG","This is a wug:","","",""
"html-keyboard-response","364","341680","0.0-7.0-0.39","LF","dn0e1jm7ff","1536","864","0","0","0","5e0cf83bc12a3649f4c9ee92","","null","","","learningBlock2","","","","This is a dep:","null","","","","","",""
"image-keyboard-response","365","342007","0.0-7.0-1.39","LF","dn0e1jm7ff","1536","864","0","0","0","5e0cf83bc12a3649f4c9ee92","","null","","","","","","","learning/Slide120.JPG","null","","","","","",""
"html-keyboard-response","366","343009","0.0-7.0-2.39","LF","dn0e1jm7ff","1536","864","0","0","0","5e0cf83bc12a3649f4c9ee92","","null","","","learningBlock2","","","","<div style=""font-size:60px;""> </div>","null","LF","learning/Slide120.JPG","This is a dep:","","",""
"html-keyboard-response","367","344011","0.0-7.0-0.40","LF","dn0e1jm7ff","1536","864","0","0","0","5e0cf83bc12a3649f4c9ee92","","null","","","learningBlock2","","","","This is a bim:","null","","","","","",""
"image-keyboard-response","368","344338","0.0-7.0-1.40","LF","dn0e1jm7ff","1536","864","0","0","0","5e0cf83bc12a3649f4c9ee92","","null","","","","","","","learning/Slide121.JPG","null","","","","","",""
"html-keyboard-response","369","345340","0.0-7.0-2.40","LF","dn0e1jm7ff","1536","864","0","0","0","5e0cf83bc12a3649f4c9ee92","","null","","","learningBlock2","","","","<div style=""font-size:60px;""> </div>","null","LF","learning/Slide121.JPG","This is a bim:","","",""
"html-keyboard-response","370","346342","0.0-7.0-0.41","LF","dn0e1jm7ff","1536","864","0","0","0","5e0cf83bc12a3649f4c9ee92","","null","","","learningBlock2","","","","This is a wug:","null","","","","","",""
"image-keyboard-response","371","346670","0.0-7.0-1.41","LF","dn0e1jm7ff","1536","864","0","0","0","5e0cf83bc12a3649f4c9ee92","","null","","","","","","","learning/Slide122.JPG","null","","","","","",""
"html-keyboard-response","372","347672","0.0-7.0-2.41","LF","dn0e1jm7ff","1536","864","0","0","0","5e0cf83bc12a3649f4c9ee92","","null","","","learningBlock2","","","","<div style=""font-size:60px;""> </div>","null","LF","learning/Slide122.JPG","This is a wug:","","",""
"html-keyboard-response","373","348674","0.0-7.0-0.42","LF","dn0e1jm7ff","1536","864","0","0","0","5e0cf83bc12a3649f4c9ee92","","null","","","learningBlock2","","","","This is a bim:","null","","","","","",""
"image-keyboard-response","374","349002","0.0-7.0-1.42","LF","dn0e1jm7ff","1536","864","0","0","0","5e0cf83bc12a3649f4c9ee92","","null","","","","","","","learning/Slide123.JPG","null","","","","","",""
"html-keyboard-response","375","350004","0.0-7.0-2.42","LF","dn0e1jm7ff","1536","864","0","0","0","5e0cf83bc12a3649f4c9ee92","","null","","","learningBlock2","","","","<div style=""font-size:60px;""> </div>","null","LF","learning/Slide123.JPG","This is a bim:","","",""
"html-keyboard-response","376","351005","0.0-7.0-0.43","LF","dn0e1jm7ff","1536","864","0","0","0","5e0cf83bc12a3649f4c9ee92","","null","","","learningBlock2","","","","This is a tob:","null","","","","","",""
"image-keyboard-response","377","351332","0.0-7.0-1.43","LF","dn0e1jm7ff","1536","864","0","0","0","5e0cf83bc12a3649f4c9ee92","","null","","","","","","","learning/Slide124.JPG","null","","","","","",""
"html-keyboard-response","378","352334","0.0-7.0-2.43","LF","dn0e1jm7ff","1536","864","0","0","0","5e0cf83bc12a3649f4c9ee92","","null","","","learningBlock2","","","","<div style=""font-size:60px;""> </div>","null","LF","learning/Slide124.JPG","This is a tob:","","",""
"html-keyboard-response","379","353335","0.0-7.0-0.44","LF","dn0e1jm7ff","1536","864","0","0","0","5e0cf83bc12a3649f4c9ee92","","null","","","learningBlock2","","","","This is a bim:","null","","","","","",""
"image-keyboard-response","380","353662","0.0-7.0-1.44","LF","dn0e1jm7ff","1536","864","0","0","0","5e0cf83bc12a3649f4c9ee92","","null","","","","","","","learning/Slide125.JPG","null","","","","","",""
"html-keyboard-response","381","354663","0.0-7.0-2.44","LF","dn0e1jm7ff","1536","864","0","0","0","5e0cf83bc12a3649f4c9ee92","","null","","","learningBlock2","","","","<div style=""font-size:60px;""> </div>","null","LF","learning/Slide125.JPG","This is a bim:","","",""
"html-keyboard-response","382","355664","0.0-7.0-0.45","LF","dn0e1jm7ff","1536","864","0","0","0","5e0cf83bc12a3649f4c9ee92","","null","","","learningBlock2","","","","This is a tob:","null","","","","","",""
"image-keyboard-response","383","355992","0.0-7.0-1.45","LF","dn0e1jm7ff","1536","864","0","0","0","5e0cf83bc12a3649f4c9ee92","","null","","","","","","","learning/Slide126.JPG","null","","","","","",""
"html-keyboard-response","384","356994","0.0-7.0-2.45","LF","dn0e1jm7ff","1536","864","0","0","0","5e0cf83bc12a3649f4c9ee92","","null","","","learningBlock2","","","","<div style=""font-size:60px;""> </div>","null","LF","learning/Slide126.JPG","This is a tob:","","",""
"html-keyboard-response","385","357996","0.0-7.0-0.46","LF","dn0e1jm7ff","1536","864","0","0","0","5e0cf83bc12a3649f4c9ee92","","null","","","learningBlock2","","","","This is a dep:","null","","","","","",""
"image-keyboard-response","386","358323","0.0-7.0-1.46","LF","dn0e1jm7ff","1536","864","0","0","0","5e0cf83bc12a3649f4c9ee92","","null","","","","","","","learning/Slide127.JPG","null","","","","","",""
"html-keyboard-response","387","359325","0.0-7.0-2.46","LF","dn0e1jm7ff","1536","864","0","0","0","5e0cf83bc12a3649f4c9ee92","","null","","","learningBlock2","","","","<div style=""font-size:60px;""> </div>","null","LF","learning/Slide127.JPG","This is a dep:","","",""
"html-keyboard-response","388","360326","0.0-7.0-0.47","LF","dn0e1jm7ff","1536","864","0","0","0","5e0cf83bc12a3649f4c9ee92","","null","","","learningBlock2","","","","This is a wug:","null","","","","","",""
"image-keyboard-response","389","360655","0.0-7.0-1.47","LF","dn0e1jm7ff","1536","864","0","0","0","5e0cf83bc12a3649f4c9ee92","","null","","","","","","","learning/Slide128.JPG","null","","","","","",""
"html-keyboard-response","390","361657","0.0-7.0-2.47","LF","dn0e1jm7ff","1536","864","0","0","0","5e0cf83bc12a3649f4c9ee92","","null","","","learningBlock2","","","","<div style=""font-size:60px;""> </div>","null","LF","learning/Slide128.JPG","This is a wug:","","",""
"html-keyboard-response","391","362659","0.0-7.0-0.48","LF","dn0e1jm7ff","1536","864","0","0","0","5e0cf83bc12a3649f4c9ee92","","null","","","learningBlock2","","","","This is a tob:","null","","","","","",""
"image-keyboard-response","392","362987","0.0-7.0-1.48","LF","dn0e1jm7ff","1536","864","0","0","0","5e0cf83bc12a3649f4c9ee92","","null","","","","","","","learning/Slide129.JPG","null","","","","","",""
"html-keyboard-response","393","363989","0.0-7.0-2.48","LF","dn0e1jm7ff","1536","864","0","0","0","5e0cf83bc12a3649f4c9ee92","","null","","","learningBlock2","","","","<div style=""font-size:60px;""> </div>","null","LF","learning/Slide129.JPG","This is a tob:","","",""
"html-keyboard-response","394","364990","0.0-7.0-0.49","LF","dn0e1jm7ff","1536","864","0","0","0","5e0cf83bc12a3649f4c9ee92","","null","","","learningBlock2","","","","This is a wug:","null","","","","","",""
"image-keyboard-response","395","365317","0.0-7.0-1.49","LF","dn0e1jm7ff","1536","864","0","0","0","5e0cf83bc12a3649f4c9ee92","","null","","","","","","","learning/Slide130.JPG","null","","","","","",""
"html-keyboard-response","396","366319","0.0-7.0-2.49","LF","dn0e1jm7ff","1536","864","0","0","0","5e0cf83bc12a3649f4c9ee92","","null","","","learningBlock2","","","","<div style=""font-size:60px;""> </div>","null","LF","learning/Slide130.JPG","This is a wug:","","",""
"html-keyboard-response","397","367321","0.0-7.0-0.50","LF","dn0e1jm7ff","1536","864","0","0","0","5e0cf83bc12a3649f4c9ee92","","null","","","learningBlock2","","","","This is a bim:","null","","","","","",""
"image-keyboard-response","398","367650","0.0-7.0-1.50","LF","dn0e1jm7ff","1536","864","0","0","0","5e0cf83bc12a3649f4c9ee92","","null","","","","","","","learning/Slide131.JPG","null","","","","","",""
"html-keyboard-response","399","368652","0.0-7.0-2.50","LF","dn0e1jm7ff","1536","864","0","0","0","5e0cf83bc12a3649f4c9ee92","","null","","","learningBlock2","","","","<div style=""font-size:60px;""> </div>","null","LF","learning/Slide131.JPG","This is a bim:","","",""
"html-keyboard-response","400","369653","0.0-7.0-0.51","LF","dn0e1jm7ff","1536","864","0","0","0","5e0cf83bc12a3649f4c9ee92","","null","","","learningBlock2","","","","This is a dep:","null","","","","","",""
"image-keyboard-response","401","369982","0.0-7.0-1.51","LF","dn0e1jm7ff","1536","864","0","0","0","5e0cf83bc12a3649f4c9ee92","","null","","","","","","","learning/Slide132.JPG","null","","","","","",""
"html-keyboard-response","402","370985","0.0-7.0-2.51","LF","dn0e1jm7ff","1536","864","0","0","0","5e0cf83bc12a3649f4c9ee92","","null","","","learningBlock2","","","","<div style=""font-size:60px;""> </div>","null","LF","learning/Slide132.JPG","This is a dep:","","",""
"html-keyboard-response","403","371988","0.0-7.0-0.52","LF","dn0e1jm7ff","1536","864","0","0","0","5e0cf83bc12a3649f4c9ee92","","null","","","learningBlock2","","","","This is a tob:","null","","","","","",""
"image-keyboard-response","404","372319","0.0-7.0-1.52","LF","dn0e1jm7ff","1536","864","0","0","0","5e0cf83bc12a3649f4c9ee92","","null","","","","","","","learning/Slide133.JPG","null","","","","","",""
"html-keyboard-response","405","373322","0.0-7.0-2.52","LF","dn0e1jm7ff","1536","864","0","0","0","5e0cf83bc12a3649f4c9ee92","","null","","","learningBlock2","","","","<div style=""font-size:60px;""> </div>","null","LF","learning/Slide133.JPG","This is a tob:","","",""
"html-keyboard-response","406","374323","0.0-7.0-0.53","LF","dn0e1jm7ff","1536","864","0","0","0","5e0cf83bc12a3649f4c9ee92","","null","","","learningBlock2","","","","This is a dep:","null","","","","","",""
"image-keyboard-response","407","374650","0.0-7.0-1.53","LF","dn0e1jm7ff","1536","864","0","0","0","5e0cf83bc12a3649f4c9ee92","","null","","","","","","","learning/Slide134.JPG","null","","","","","",""
"html-keyboard-response","408","375653","0.0-7.0-2.53","LF","dn0e1jm7ff","1536","864","0","0","0","5e0cf83bc12a3649f4c9ee92","","null","","","learningBlock2","","","","<div style=""font-size:60px;""> </div>","null","LF","learning/Slide134.JPG","This is a dep:","","",""
"html-keyboard-response","409","376655","0.0-7.0-0.54","LF","dn0e1jm7ff","1536","864","0","0","0","5e0cf83bc12a3649f4c9ee92","","null","","","learningBlock2","","","","This is a tob:","null","","","","","",""
"image-keyboard-response","410","376982","0.0-7.0-1.54","LF","dn0e1jm7ff","1536","864","0","0","0","5e0cf83bc12a3649f4c9ee92","","null","","","","","","","learning/Slide135.JPG","null","","","","","",""
"html-keyboard-response","411","377984","0.0-7.0-2.54","LF","dn0e1jm7ff","1536","864","0","0","0","5e0cf83bc12a3649f4c9ee92","","null","","","learningBlock2","","","","<div style=""font-size:60px;""> </div>","null","LF","learning/Slide135.JPG","This is a tob:","","",""
"html-keyboard-response","412","378986","0.0-7.0-0.55","LF","dn0e1jm7ff","1536","864","0","0","0","5e0cf83bc12a3649f4c9ee92","","null","","","learningBlock2","","","","This is a wug:","null","","","","","",""
"image-keyboard-response","413","379314","0.0-7.0-1.55","LF","dn0e1jm7ff","1536","864","0","0","0","5e0cf83bc12a3649f4c9ee92","","null","","","","","","","learning/Slide136.JPG","null","","","","","",""
"html-keyboard-response","414","380316","0.0-7.0-2.55","LF","dn0e1jm7ff","1536","864","0","0","0","5e0cf83bc12a3649f4c9ee92","","null","","","learningBlock2","","","","<div style=""font-size:60px;""> </div>","null","LF","learning/Slide136.JPG","This is a wug:","","",""
"html-keyboard-response","415","381318","0.0-7.0-0.56","LF","dn0e1jm7ff","1536","864","0","0","0","5e0cf83bc12a3649f4c9ee92","","null","","","learningBlock2","","","","This is a tob:","null","","","","","",""
"image-keyboard-response","416","381645","0.0-7.0-1.56","LF","dn0e1jm7ff","1536","864","0","0","0","5e0cf83bc12a3649f4c9ee92","","null","","","","","","","learning/Slide137.JPG","null","","","","","",""
"html-keyboard-response","417","382647","0.0-7.0-2.56","LF","dn0e1jm7ff","1536","864","0","0","0","5e0cf83bc12a3649f4c9ee92","","null","","","learningBlock2","","","","<div style=""font-size:60px;""> </div>","null","LF","learning/Slide137.JPG","This is a tob:","","",""
"html-keyboard-response","418","383647","0.0-7.0-0.57","LF","dn0e1jm7ff","1536","864","0","0","0","5e0cf83bc12a3649f4c9ee92","","null","","","learningBlock2","","","","This is a bim:","null","","","","","",""
"image-keyboard-response","419","383976","0.0-7.0-1.57","LF","dn0e1jm7ff","1536","864","0","0","0","5e0cf83bc12a3649f4c9ee92","","null","","","","","","","learning/Slide138.JPG","null","","","","","",""
"html-keyboard-response","420","384978","0.0-7.0-2.57","LF","dn0e1jm7ff","1536","864","0","0","0","5e0cf83bc12a3649f4c9ee92","","null","","","learningBlock2","","","","<div style=""font-size:60px;""> </div>","null","LF","learning/Slide138.JPG","This is a bim:","","",""
"html-keyboard-response","421","385979","0.0-7.0-0.58","LF","dn0e1jm7ff","1536","864","0","0","0","5e0cf83bc12a3649f4c9ee92","","null","","","learningBlock2","","","","This is a wug:","null","","","","","",""
"image-keyboard-response","422","386307","0.0-7.0-1.58","LF","dn0e1jm7ff","1536","864","0","0","0","5e0cf83bc12a3649f4c9ee92","","null","","","","","","","learning/Slide139.JPG","null","","","","","",""
"html-keyboard-response","423","387310","0.0-7.0-2.58","LF","dn0e1jm7ff","1536","864","0","0","0","5e0cf83bc12a3649f4c9ee92","","null","","","learningBlock2","","","","<div style=""font-size:60px;""> </div>","null","LF","learning/Slide139.JPG","This is a wug:","","",""
"html-keyboard-response","424","388312","0.0-7.0-0.59","LF","dn0e1jm7ff","1536","864","0","0","0","5e0cf83bc12a3649f4c9ee92","","null","","","learningBlock2","","","","This is a dep:","null","","","","","",""
"image-keyboard-response","425","388640","0.0-7.0-1.59","LF","dn0e1jm7ff","1536","864","0","0","0","5e0cf83bc12a3649f4c9ee92","","null","","","","","","","learning/Slide140.JPG","null","","","","","",""
"html-keyboard-response","426","389642","0.0-7.0-2.59","LF","dn0e1jm7ff","1536","864","0","0","0","5e0cf83bc12a3649f4c9ee92","","null","","","learningBlock2","","","","<div style=""font-size:60px;""> </div>","null","LF","learning/Slide140.JPG","This is a dep:","","",""
"html-keyboard-response","427","390644","0.0-7.0-0.60","LF","dn0e1jm7ff","1536","864","0","0","0","5e0cf83bc12a3649f4c9ee92","","null","","","learningBlock2","","","","This is a tob:","null","","","","","",""
"image-keyboard-response","428","390972","0.0-7.0-1.60","LF","dn0e1jm7ff","1536","864","0","0","0","5e0cf83bc12a3649f4c9ee92","","null","","","","","","","learning/Slide141.JPG","null","","","","","",""
"html-keyboard-response","429","391973","0.0-7.0-2.60","LF","dn0e1jm7ff","1536","864","0","0","0","5e0cf83bc12a3649f4c9ee92","","null","","","learningBlock2","","","","<div style=""font-size:60px;""> </div>","null","LF","learning/Slide141.JPG","This is a tob:","","",""
"html-keyboard-response","430","392975","0.0-7.0-0.61","LF","dn0e1jm7ff","1536","864","0","0","0","5e0cf83bc12a3649f4c9ee92","","null","","","learningBlock2","","","","This is a wug:","null","","","","","",""
"image-keyboard-response","431","393303","0.0-7.0-1.61","LF","dn0e1jm7ff","1536","864","0","0","0","5e0cf83bc12a3649f4c9ee92","","null","","","","","","","learning/Slide142.JPG","null","","","","","",""
"html-keyboard-response","432","394306","0.0-7.0-2.61","LF","dn0e1jm7ff","1536","864","0","0","0","5e0cf83bc12a3649f4c9ee92","","null","","","learningBlock2","","","","<div style=""font-size:60px;""> </div>","null","LF","learning/Slide142.JPG","This is a wug:","","",""
"html-keyboard-response","433","395308","0.0-7.0-0.62","LF","dn0e1jm7ff","1536","864","0","0","0","5e0cf83bc12a3649f4c9ee92","","null","","","learningBlock2","","","","This is a bim:","null","","","","","",""
"image-keyboard-response","434","395636","0.0-7.0-1.62","LF","dn0e1jm7ff","1536","864","0","0","0","5e0cf83bc12a3649f4c9ee92","","null","","","","","","","learning/Slide143.JPG","null","","","","","",""
"html-keyboard-response","435","396637","0.0-7.0-2.62","LF","dn0e1jm7ff","1536","864","0","0","0","5e0cf83bc12a3649f4c9ee92","","null","","","learningBlock2","","","","<div style=""font-size:60px;""> </div>","null","LF","learning/Slide143.JPG","This is a bim:","","",""
"html-keyboard-response","436","397640","0.0-7.0-0.63","LF","dn0e1jm7ff","1536","864","0","0","0","5e0cf83bc12a3649f4c9ee92","","null","","","learningBlock2","","","","This is a dep:","null","","","","","",""
"image-keyboard-response","437","397968","0.0-7.0-1.63","LF","dn0e1jm7ff","1536","864","0","0","0","5e0cf83bc12a3649f4c9ee92","","null","","","","","","","learning/Slide144.JPG","null","","","","","",""
"html-keyboard-response","438","398970","0.0-7.0-2.63","LF","dn0e1jm7ff","1536","864","0","0","0","5e0cf83bc12a3649f4c9ee92","","null","","","learningBlock2","","","","<div style=""font-size:60px;""> </div>","null","LF","learning/Slide144.JPG","This is a dep:","","",""
