"trial_type","trial_index","time_elapsed","internal_node_id","condition","subject","screen_width","screen_height","attention","distraction","conscientious","prolificID","success","rt","url","view_history","test_part","final_height_px","final_width_px","scale_factor","stimulus","key_press","learningType","presentedImage","presentedLabel","button_pressed","response","responses"
"pavlovia","0","57","0.0-0.0","FL","d1c4anqfzp","1366","768","0","1","0","5c5d6b55b7ce2100011fa04e","","","","","","","","","","","","","","","",""
"fullscreen","1","51124","0.0-1.0","FL","d1c4anqfzp","1366","768","0","1","0","5c5d6b55b7ce2100011fa04e","true","","","","","","","","","","","","","","",""
"external-html","2","107525","0.0-2.0-0.0","FL","d1c4anqfzp","1366","768","0","1","0","5c5d6b55b7ce2100011fa04e","","56274","text/information_english.html","","","","","","","","","","","","",""
"external-html","3","122167","0.0-2.0-1.0","FL","d1c4anqfzp","1366","768","0","1","0","5c5d6b55b7ce2100011fa04e","","14602","text/consent_english.html","","","","","","","","","","","","",""
"instructions","4","139802","0.0-3.0","FL","d1c4anqfzp","1366","768","0","1","0","5c5d6b55b7ce2100011fa04e","","NA","","[{""page_index"":0,""viewing_time"":3201},{""page_index"":1,""viewing_time"":14431}]","instructions","","","","","","","","","","",""
"resize","5","184402","0.0-4.0","FL","d1c4anqfzp","1366","768","0","1","0","5c5d6b55b7ce2100011fa04e","","","","","","","333","2.1142857142857143","","","","","","","",""
"image-keyboard-response","6","184594","0.0-5.0-0.0","FL","d1c4anqfzp","1366","768","0","1","0","5c5d6b55b7ce2100011fa04e","","null","","","","","","","learning/Slide1.JPG","null","","","","","",""
"html-keyboard-response","7","185775","0.0-5.0-1.0","FL","d1c4anqfzp","1366","768","0","1","0","5c5d6b55b7ce2100011fa04e","","null","","","learningBlock1","","","","That was a tob.","null","","","","","",""
"html-keyboard-response","8","186795","0.0-5.0-2.0","FL","d1c4anqfzp","1366","768","0","1","0","5c5d6b55b7ce2100011fa04e","","null","","","learningBlock1","","","","<div style=""font-size:60px;""> </div>","null","FL","learning/Slide1.JPG","That was a tob.","","",""
"image-keyboard-response","9","186974","0.0-5.0-0.1","FL","d1c4anqfzp","1366","768","0","1","0","5c5d6b55b7ce2100011fa04e","","null","","","","","","","learning/Slide2.JPG","null","","","","","",""
"html-keyboard-response","10","188135","0.0-5.0-1.1","FL","d1c4anqfzp","1366","768","0","1","0","5c5d6b55b7ce2100011fa04e","","null","","","learningBlock1","","","","That was a wug.","null","","","","","",""
"html-keyboard-response","11","189155","0.0-5.0-2.1","FL","d1c4anqfzp","1366","768","0","1","0","5c5d6b55b7ce2100011fa04e","","null","","","learningBlock1","","","","<div style=""font-size:60px;""> </div>","null","FL","learning/Slide2.JPG","That was a wug.","","",""
"image-keyboard-response","12","189334","0.0-5.0-0.2","FL","d1c4anqfzp","1366","768","0","1","0","5c5d6b55b7ce2100011fa04e","","null","","","","","","","learning/Slide3.JPG","null","","","","","",""
"html-keyboard-response","13","190515","0.0-5.0-1.2","FL","d1c4anqfzp","1366","768","0","1","0","5c5d6b55b7ce2100011fa04e","","null","","","learningBlock1","","","","That was a bim.","null","","","","","",""
"html-keyboard-response","14","191535","0.0-5.0-2.2","FL","d1c4anqfzp","1366","768","0","1","0","5c5d6b55b7ce2100011fa04e","","null","","","learningBlock1","","","","<div style=""font-size:60px;""> </div>","null","FL","learning/Slide3.JPG","That was a bim.","","",""
"image-keyboard-response","15","191715","0.0-5.0-0.3","FL","d1c4anqfzp","1366","768","0","1","0","5c5d6b55b7ce2100011fa04e","","null","","","","","","","learning/Slide4.JPG","null","","","","","",""
"html-keyboard-response","16","192895","0.0-5.0-1.3","FL","d1c4anqfzp","1366","768","0","1","0","5c5d6b55b7ce2100011fa04e","","null","","","learningBlock1","","","","That was a dep.","null","","","","","",""
"html-keyboard-response","17","193914","0.0-5.0-2.3","FL","d1c4anqfzp","1366","768","0","1","0","5c5d6b55b7ce2100011fa04e","","null","","","learningBlock1","","","","<div style=""font-size:60px;""> </div>","null","FL","learning/Slide4.JPG","That was a dep.","","",""
"image-keyboard-response","18","194094","0.0-5.0-0.4","FL","d1c4anqfzp","1366","768","0","1","0","5c5d6b55b7ce2100011fa04e","","null","","","","","","","learning/Slide5.JPG","null","","","","","",""
"html-keyboard-response","19","195274","0.0-5.0-1.4","FL","d1c4anqfzp","1366","768","0","1","0","5c5d6b55b7ce2100011fa04e","","null","","","learningBlock1","","","","That was a wug.","null","","","","","",""
"html-keyboard-response","20","196294","0.0-5.0-2.4","FL","d1c4anqfzp","1366","768","0","1","0","5c5d6b55b7ce2100011fa04e","","null","","","learningBlock1","","","","<div style=""font-size:60px;""> </div>","null","FL","learning/Slide5.JPG","That was a wug.","","",""
"image-keyboard-response","21","196475","0.0-5.0-0.5","FL","d1c4anqfzp","1366","768","0","1","0","5c5d6b55b7ce2100011fa04e","","null","","","","","","","learning/Slide6.JPG","null","","","","","",""
"html-keyboard-response","22","197654","0.0-5.0-1.5","FL","d1c4anqfzp","1366","768","0","1","0","5c5d6b55b7ce2100011fa04e","","null","","","learningBlock1","","","","That was a dep.","null","","","","","",""
"html-keyboard-response","23","198675","0.0-5.0-2.5","FL","d1c4anqfzp","1366","768","0","1","0","5c5d6b55b7ce2100011fa04e","","null","","","learningBlock1","","","","<div style=""font-size:60px;""> </div>","null","FL","learning/Slide6.JPG","That was a dep.","","",""
"image-keyboard-response","24","198874","0.0-5.0-0.6","FL","d1c4anqfzp","1366","768","0","1","0","5c5d6b55b7ce2100011fa04e","","null","","","","","","","learning/Slide7.JPG","null","","","","","",""
"html-keyboard-response","25","200035","0.0-5.0-1.6","FL","d1c4anqfzp","1366","768","0","1","0","5c5d6b55b7ce2100011fa04e","","null","","","learningBlock1","","","","That was a wug.","null","","","","","",""
"html-keyboard-response","26","201054","0.0-5.0-2.6","FL","d1c4anqfzp","1366","768","0","1","0","5c5d6b55b7ce2100011fa04e","","null","","","learningBlock1","","","","<div style=""font-size:60px;""> </div>","null","FL","learning/Slide7.JPG","That was a wug.","","",""
"image-keyboard-response","27","201235","0.0-5.0-0.7","FL","d1c4anqfzp","1366","768","0","1","0","5c5d6b55b7ce2100011fa04e","","null","","","","","","","learning/Slide8.JPG","null","","","","","",""
"html-keyboard-response","28","202414","0.0-5.0-1.7","FL","d1c4anqfzp","1366","768","0","1","0","5c5d6b55b7ce2100011fa04e","","null","","","learningBlock1","","","","That was a bim.","null","","","","","",""
"html-keyboard-response","29","203434","0.0-5.0-2.7","FL","d1c4anqfzp","1366","768","0","1","0","5c5d6b55b7ce2100011fa04e","","null","","","learningBlock1","","","","<div style=""font-size:60px;""> </div>","null","FL","learning/Slide8.JPG","That was a bim.","","",""
"image-keyboard-response","30","203614","0.0-5.0-0.8","FL","d1c4anqfzp","1366","768","0","1","0","5c5d6b55b7ce2100011fa04e","","null","","","","","","","learning/Slide9.JPG","null","","","","","",""
"html-keyboard-response","31","204774","0.0-5.0-1.8","FL","d1c4anqfzp","1366","768","0","1","0","5c5d6b55b7ce2100011fa04e","","null","","","learningBlock1","","","","That was a wug.","null","","","","","",""
"html-keyboard-response","32","205794","0.0-5.0-2.8","FL","d1c4anqfzp","1366","768","0","1","0","5c5d6b55b7ce2100011fa04e","","null","","","learningBlock1","","","","<div style=""font-size:60px;""> </div>","null","FL","learning/Slide9.JPG","That was a wug.","","",""
"image-keyboard-response","33","205974","0.0-5.0-0.9","FL","d1c4anqfzp","1366","768","0","1","0","5c5d6b55b7ce2100011fa04e","","null","","","","","","","learning/Slide10.JPG","null","","","","","",""
"html-keyboard-response","34","207134","0.0-5.0-1.9","FL","d1c4anqfzp","1366","768","0","1","0","5c5d6b55b7ce2100011fa04e","","null","","","learningBlock1","","","","That was a dep.","null","","","","","",""
"html-keyboard-response","35","208155","0.0-5.0-2.9","FL","d1c4anqfzp","1366","768","0","1","0","5c5d6b55b7ce2100011fa04e","","null","","","learningBlock1","","","","<div style=""font-size:60px;""> </div>","null","FL","learning/Slide10.JPG","That was a dep.","","",""
"image-keyboard-response","36","208334","0.0-5.0-0.10","FL","d1c4anqfzp","1366","768","0","1","0","5c5d6b55b7ce2100011fa04e","","null","","","","","","","learning/Slide11.JPG","null","","","","","",""
"html-keyboard-response","37","209514","0.0-5.0-1.10","FL","d1c4anqfzp","1366","768","0","1","0","5c5d6b55b7ce2100011fa04e","","null","","","learningBlock1","","","","That was a tob.","null","","","","","",""
"html-keyboard-response","38","210534","0.0-5.0-2.10","FL","d1c4anqfzp","1366","768","0","1","0","5c5d6b55b7ce2100011fa04e","","null","","","learningBlock1","","","","<div style=""font-size:60px;""> </div>","null","FL","learning/Slide11.JPG","That was a tob.","","",""
"image-keyboard-response","39","210714","0.0-5.0-0.11","FL","d1c4anqfzp","1366","768","0","1","0","5c5d6b55b7ce2100011fa04e","","null","","","","","","","learning/Slide12.JPG","null","","","","","",""
"html-keyboard-response","40","211890","0.0-5.0-1.11","FL","d1c4anqfzp","1366","768","0","1","0","5c5d6b55b7ce2100011fa04e","","null","","","learningBlock1","","","","That was a dep.","null","","","","","",""
"html-keyboard-response","41","212894","0.0-5.0-2.11","FL","d1c4anqfzp","1366","768","0","1","0","5c5d6b55b7ce2100011fa04e","","null","","","learningBlock1","","","","<div style=""font-size:60px;""> </div>","null","FL","learning/Slide12.JPG","That was a dep.","","",""
"image-keyboard-response","42","213074","0.0-5.0-0.12","FL","d1c4anqfzp","1366","768","0","1","0","5c5d6b55b7ce2100011fa04e","","null","","","","","","","learning/Slide13.JPG","null","","","","","",""
"html-keyboard-response","43","214254","0.0-5.0-1.12","FL","d1c4anqfzp","1366","768","0","1","0","5c5d6b55b7ce2100011fa04e","","null","","","learningBlock1","","","","That was a bim.","null","","","","","",""
"html-keyboard-response","44","215274","0.0-5.0-2.12","FL","d1c4anqfzp","1366","768","0","1","0","5c5d6b55b7ce2100011fa04e","","null","","","learningBlock1","","","","<div style=""font-size:60px;""> </div>","null","FL","learning/Slide13.JPG","That was a bim.","","",""
"image-keyboard-response","45","215455","0.0-5.0-0.13","FL","d1c4anqfzp","1366","768","0","1","0","5c5d6b55b7ce2100011fa04e","","null","","","","","","","learning/Slide14.JPG","null","","","","","",""
"html-keyboard-response","46","216615","0.0-5.0-1.13","FL","d1c4anqfzp","1366","768","0","1","0","5c5d6b55b7ce2100011fa04e","","null","","","learningBlock1","","","","That was a wug.","null","","","","","",""
"html-keyboard-response","47","217635","0.0-5.0-2.13","FL","d1c4anqfzp","1366","768","0","1","0","5c5d6b55b7ce2100011fa04e","","null","","","learningBlock1","","","","<div style=""font-size:60px;""> </div>","null","FL","learning/Slide14.JPG","That was a wug.","","",""
"image-keyboard-response","48","217812","0.0-5.0-0.14","FL","d1c4anqfzp","1366","768","0","1","0","5c5d6b55b7ce2100011fa04e","","null","","","","","","","learning/Slide15.JPG","null","","","","","",""
"html-keyboard-response","49","218995","0.0-5.0-1.14","FL","d1c4anqfzp","1366","768","0","1","0","5c5d6b55b7ce2100011fa04e","","null","","","learningBlock1","","","","That was a tob.","null","","","","","",""
"html-keyboard-response","50","220015","0.0-5.0-2.14","FL","d1c4anqfzp","1366","768","0","1","0","5c5d6b55b7ce2100011fa04e","","null","","","learningBlock1","","","","<div style=""font-size:60px;""> </div>","null","FL","learning/Slide15.JPG","That was a tob.","","",""
"image-keyboard-response","51","220194","0.0-5.0-0.15","FL","d1c4anqfzp","1366","768","0","1","0","5c5d6b55b7ce2100011fa04e","","null","","","","","","","learning/Slide16.JPG","null","","","","","",""
"html-keyboard-response","52","221375","0.0-5.0-1.15","FL","d1c4anqfzp","1366","768","0","1","0","5c5d6b55b7ce2100011fa04e","","null","","","learningBlock1","","","","That was a dep.","null","","","","","",""
"html-keyboard-response","53","222395","0.0-5.0-2.15","FL","d1c4anqfzp","1366","768","0","1","0","5c5d6b55b7ce2100011fa04e","","null","","","learningBlock1","","","","<div style=""font-size:60px;""> </div>","null","FL","learning/Slide16.JPG","That was a dep.","","",""
"image-keyboard-response","54","222574","0.0-5.0-0.16","FL","d1c4anqfzp","1366","768","0","1","0","5c5d6b55b7ce2100011fa04e","","null","","","","","","","learning/Slide17.JPG","null","","","","","",""
"html-keyboard-response","55","223754","0.0-5.0-1.16","FL","d1c4anqfzp","1366","768","0","1","0","5c5d6b55b7ce2100011fa04e","","null","","","learningBlock1","","","","That was a bim.","null","","","","","",""
"html-keyboard-response","56","224764","0.0-5.0-2.16","FL","d1c4anqfzp","1366","768","0","1","0","5c5d6b55b7ce2100011fa04e","","null","","","learningBlock1","","","","<div style=""font-size:60px;""> </div>","null","FL","learning/Slide17.JPG","That was a bim.","","",""
"image-keyboard-response","57","224945","0.0-5.0-0.17","FL","d1c4anqfzp","1366","768","0","1","0","5c5d6b55b7ce2100011fa04e","","null","","","","","","","learning/Slide18.JPG","null","","","","","",""
"html-keyboard-response","58","226124","0.0-5.0-1.17","FL","d1c4anqfzp","1366","768","0","1","0","5c5d6b55b7ce2100011fa04e","","null","","","learningBlock1","","","","That was a tob.","null","","","","","",""
"html-keyboard-response","59","227143","0.0-5.0-2.17","FL","d1c4anqfzp","1366","768","0","1","0","5c5d6b55b7ce2100011fa04e","","null","","","learningBlock1","","","","<div style=""font-size:60px;""> </div>","null","FL","learning/Slide18.JPG","That was a tob.","","",""
"image-keyboard-response","60","227324","0.0-5.0-0.18","FL","d1c4anqfzp","1366","768","0","1","0","5c5d6b55b7ce2100011fa04e","","null","","","","","","","learning/Slide19.JPG","null","","","","","",""
"html-keyboard-response","61","228504","0.0-5.0-1.18","FL","d1c4anqfzp","1366","768","0","1","0","5c5d6b55b7ce2100011fa04e","","null","","","learningBlock1","","","","That was a wug.","null","","","","","",""
"html-keyboard-response","62","229525","0.0-5.0-2.18","FL","d1c4anqfzp","1366","768","0","1","0","5c5d6b55b7ce2100011fa04e","","null","","","learningBlock1","","","","<div style=""font-size:60px;""> </div>","null","FL","learning/Slide19.JPG","That was a wug.","","",""
"image-keyboard-response","63","229704","0.0-5.0-0.19","FL","d1c4anqfzp","1366","768","0","1","0","5c5d6b55b7ce2100011fa04e","","null","","","","","","","learning/Slide20.JPG","null","","","","","",""
"html-keyboard-response","64","230864","0.0-5.0-1.19","FL","d1c4anqfzp","1366","768","0","1","0","5c5d6b55b7ce2100011fa04e","","null","","","learningBlock1","","","","That was a bim.","null","","","","","",""
"html-keyboard-response","65","231884","0.0-5.0-2.19","FL","d1c4anqfzp","1366","768","0","1","0","5c5d6b55b7ce2100011fa04e","","null","","","learningBlock1","","","","<div style=""font-size:60px;""> </div>","null","FL","learning/Slide20.JPG","That was a bim.","","",""
"image-keyboard-response","66","232065","0.0-5.0-0.20","FL","d1c4anqfzp","1366","768","0","1","0","5c5d6b55b7ce2100011fa04e","","null","","","","","","","learning/Slide21.JPG","null","","","","","",""
"html-keyboard-response","67","233224","0.0-5.0-1.20","FL","d1c4anqfzp","1366","768","0","1","0","5c5d6b55b7ce2100011fa04e","","null","","","learningBlock1","","","","That was a dep.","null","","","","","",""
"html-keyboard-response","68","234245","0.0-5.0-2.20","FL","d1c4anqfzp","1366","768","0","1","0","5c5d6b55b7ce2100011fa04e","","null","","","learningBlock1","","","","<div style=""font-size:60px;""> </div>","null","FL","learning/Slide21.JPG","That was a dep.","","",""
"image-keyboard-response","69","234425","0.0-5.0-0.21","FL","d1c4anqfzp","1366","768","0","1","0","5c5d6b55b7ce2100011fa04e","","null","","","","","","","learning/Slide22.JPG","null","","","","","",""
"html-keyboard-response","70","235605","0.0-5.0-1.21","FL","d1c4anqfzp","1366","768","0","1","0","5c5d6b55b7ce2100011fa04e","","null","","","learningBlock1","","","","That was a bim.","null","","","","","",""
"html-keyboard-response","71","236625","0.0-5.0-2.21","FL","d1c4anqfzp","1366","768","0","1","0","5c5d6b55b7ce2100011fa04e","","null","","","learningBlock1","","","","<div style=""font-size:60px;""> </div>","null","FL","learning/Slide22.JPG","That was a bim.","","",""
"image-keyboard-response","72","236804","0.0-5.0-0.22","FL","d1c4anqfzp","1366","768","0","1","0","5c5d6b55b7ce2100011fa04e","","null","","","","","","","learning/Slide23.JPG","null","","","","","",""
"html-keyboard-response","73","237984","0.0-5.0-1.22","FL","d1c4anqfzp","1366","768","0","1","0","5c5d6b55b7ce2100011fa04e","","null","","","learningBlock1","","","","That was a tob.","null","","","","","",""
"html-keyboard-response","74","239005","0.0-5.0-2.22","FL","d1c4anqfzp","1366","768","0","1","0","5c5d6b55b7ce2100011fa04e","","null","","","learningBlock1","","","","<div style=""font-size:60px;""> </div>","null","FL","learning/Slide23.JPG","That was a tob.","","",""
"image-keyboard-response","75","239181","0.0-5.0-0.23","FL","d1c4anqfzp","1366","768","0","1","0","5c5d6b55b7ce2100011fa04e","","null","","","","","","","learning/Slide24.JPG","null","","","","","",""
"html-keyboard-response","76","240365","0.0-5.0-1.23","FL","d1c4anqfzp","1366","768","0","1","0","5c5d6b55b7ce2100011fa04e","","null","","","learningBlock1","","","","That was a wug.","null","","","","","",""
"html-keyboard-response","77","241384","0.0-5.0-2.23","FL","d1c4anqfzp","1366","768","0","1","0","5c5d6b55b7ce2100011fa04e","","null","","","learningBlock1","","","","<div style=""font-size:60px;""> </div>","null","FL","learning/Slide24.JPG","That was a wug.","","",""
"image-keyboard-response","78","241565","0.0-5.0-0.24","FL","d1c4anqfzp","1366","768","0","1","0","5c5d6b55b7ce2100011fa04e","","null","","","","","","","learning/Slide25.JPG","null","","","","","",""
"html-keyboard-response","79","242744","0.0-5.0-1.24","FL","d1c4anqfzp","1366","768","0","1","0","5c5d6b55b7ce2100011fa04e","","null","","","learningBlock1","","","","That was a dep.","null","","","","","",""
"html-keyboard-response","80","243764","0.0-5.0-2.24","FL","d1c4anqfzp","1366","768","0","1","0","5c5d6b55b7ce2100011fa04e","","null","","","learningBlock1","","","","<div style=""font-size:60px;""> </div>","null","FL","learning/Slide25.JPG","That was a dep.","","",""
"image-keyboard-response","81","243945","0.0-5.0-0.25","FL","d1c4anqfzp","1366","768","0","1","0","5c5d6b55b7ce2100011fa04e","","null","","","","","","","learning/Slide26.JPG","null","","","","","",""
"html-keyboard-response","82","245105","0.0-5.0-1.25","FL","d1c4anqfzp","1366","768","0","1","0","5c5d6b55b7ce2100011fa04e","","null","","","learningBlock1","","","","That was a wug.","null","","","","","",""
"html-keyboard-response","83","246124","0.0-5.0-2.25","FL","d1c4anqfzp","1366","768","0","1","0","5c5d6b55b7ce2100011fa04e","","null","","","learningBlock1","","","","<div style=""font-size:60px;""> </div>","null","FL","learning/Slide26.JPG","That was a wug.","","",""
"image-keyboard-response","84","246302","0.0-5.0-0.26","FL","d1c4anqfzp","1366","768","0","1","0","5c5d6b55b7ce2100011fa04e","","null","","","","","","","learning/Slide27.JPG","null","","","","","",""
"html-keyboard-response","85","247484","0.0-5.0-1.26","FL","d1c4anqfzp","1366","768","0","1","0","5c5d6b55b7ce2100011fa04e","","null","","","learningBlock1","","","","That was a bim.","null","","","","","",""
"html-keyboard-response","86","248505","0.0-5.0-2.26","FL","d1c4anqfzp","1366","768","0","1","0","5c5d6b55b7ce2100011fa04e","","null","","","learningBlock1","","","","<div style=""font-size:60px;""> </div>","null","FL","learning/Slide27.JPG","That was a bim.","","",""
"image-keyboard-response","87","248685","0.0-5.0-0.27","FL","d1c4anqfzp","1366","768","0","1","0","5c5d6b55b7ce2100011fa04e","","null","","","","","","","learning/Slide28.JPG","null","","","","","",""
"html-keyboard-response","88","249864","0.0-5.0-1.27","FL","d1c4anqfzp","1366","768","0","1","0","5c5d6b55b7ce2100011fa04e","","null","","","learningBlock1","","","","That was a dep.","null","","","","","",""
"html-keyboard-response","89","250884","0.0-5.0-2.27","FL","d1c4anqfzp","1366","768","0","1","0","5c5d6b55b7ce2100011fa04e","","null","","","learningBlock1","","","","<div style=""font-size:60px;""> </div>","null","FL","learning/Slide28.JPG","That was a dep.","","",""
"image-keyboard-response","90","251064","0.0-5.0-0.28","FL","d1c4anqfzp","1366","768","0","1","0","5c5d6b55b7ce2100011fa04e","","null","","","","","","","learning/Slide29.JPG","null","","","","","",""
"html-keyboard-response","91","252244","0.0-5.0-1.28","FL","d1c4anqfzp","1366","768","0","1","0","5c5d6b55b7ce2100011fa04e","","null","","","learningBlock1","","","","That was a tob.","null","","","","","",""
"html-keyboard-response","92","253264","0.0-5.0-2.28","FL","d1c4anqfzp","1366","768","0","1","0","5c5d6b55b7ce2100011fa04e","","null","","","learningBlock1","","","","<div style=""font-size:60px;""> </div>","null","FL","learning/Slide29.JPG","That was a tob.","","",""
"image-keyboard-response","93","253444","0.0-5.0-0.29","FL","d1c4anqfzp","1366","768","0","1","0","5c5d6b55b7ce2100011fa04e","","null","","","","","","","learning/Slide30.JPG","null","","","","","",""
"html-keyboard-response","94","254614","0.0-5.0-1.29","FL","d1c4anqfzp","1366","768","0","1","0","5c5d6b55b7ce2100011fa04e","","null","","","learningBlock1","","","","That was a dep.","null","","","","","",""
"html-keyboard-response","95","255635","0.0-5.0-2.29","FL","d1c4anqfzp","1366","768","0","1","0","5c5d6b55b7ce2100011fa04e","","null","","","learningBlock1","","","","<div style=""font-size:60px;""> </div>","null","FL","learning/Slide30.JPG","That was a dep.","","",""
"image-keyboard-response","96","255814","0.0-5.0-0.30","FL","d1c4anqfzp","1366","768","0","1","0","5c5d6b55b7ce2100011fa04e","","null","","","","","","","learning/Slide31.JPG","null","","","","","",""
"html-keyboard-response","97","256994","0.0-5.0-1.30","FL","d1c4anqfzp","1366","768","0","1","0","5c5d6b55b7ce2100011fa04e","","null","","","learningBlock1","","","","That was a wug.","null","","","","","",""
"html-keyboard-response","98","258004","0.0-5.0-2.30","FL","d1c4anqfzp","1366","768","0","1","0","5c5d6b55b7ce2100011fa04e","","null","","","learningBlock1","","","","<div style=""font-size:60px;""> </div>","null","FL","learning/Slide31.JPG","That was a wug.","","",""
"image-keyboard-response","99","258184","0.0-5.0-0.31","FL","d1c4anqfzp","1366","768","0","1","0","5c5d6b55b7ce2100011fa04e","","null","","","","","","","learning/Slide32.JPG","null","","","","","",""
"html-keyboard-response","100","259364","0.0-5.0-1.31","FL","d1c4anqfzp","1366","768","0","1","0","5c5d6b55b7ce2100011fa04e","","null","","","learningBlock1","","","","That was a tob.","null","","","","","",""
"html-keyboard-response","101","260384","0.0-5.0-2.31","FL","d1c4anqfzp","1366","768","0","1","0","5c5d6b55b7ce2100011fa04e","","null","","","learningBlock1","","","","<div style=""font-size:60px;""> </div>","null","FL","learning/Slide32.JPG","That was a tob.","","",""
"image-keyboard-response","102","260565","0.0-5.0-0.32","FL","d1c4anqfzp","1366","768","0","1","0","5c5d6b55b7ce2100011fa04e","","null","","","","","","","learning/Slide33.JPG","null","","","","","",""
"html-keyboard-response","103","261725","0.0-5.0-1.32","FL","d1c4anqfzp","1366","768","0","1","0","5c5d6b55b7ce2100011fa04e","","null","","","learningBlock1","","","","That was a bim.","null","","","","","",""
"html-keyboard-response","104","262745","0.0-5.0-2.32","FL","d1c4anqfzp","1366","768","0","1","0","5c5d6b55b7ce2100011fa04e","","null","","","learningBlock1","","","","<div style=""font-size:60px;""> </div>","null","FL","learning/Slide33.JPG","That was a bim.","","",""
"image-keyboard-response","105","262924","0.0-5.0-0.33","FL","d1c4anqfzp","1366","768","0","1","0","5c5d6b55b7ce2100011fa04e","","null","","","","","","","learning/Slide34.JPG","null","","","","","",""
"html-keyboard-response","106","264105","0.0-5.0-1.33","FL","d1c4anqfzp","1366","768","0","1","0","5c5d6b55b7ce2100011fa04e","","null","","","learningBlock1","","","","That was a tob.","null","","","","","",""
"html-keyboard-response","107","265123","0.0-5.0-2.33","FL","d1c4anqfzp","1366","768","0","1","0","5c5d6b55b7ce2100011fa04e","","null","","","learningBlock1","","","","<div style=""font-size:60px;""> </div>","null","FL","learning/Slide34.JPG","That was a tob.","","",""
"image-keyboard-response","108","265303","0.0-5.0-0.34","FL","d1c4anqfzp","1366","768","0","1","0","5c5d6b55b7ce2100011fa04e","","null","","","","","","","learning/Slide35.JPG","null","","","","","",""
"html-keyboard-response","109","266465","0.0-5.0-1.34","FL","d1c4anqfzp","1366","768","0","1","0","5c5d6b55b7ce2100011fa04e","","null","","","learningBlock1","","","","That was a bim.","null","","","","","",""
"html-keyboard-response","110","267484","0.0-5.0-2.34","FL","d1c4anqfzp","1366","768","0","1","0","5c5d6b55b7ce2100011fa04e","","null","","","learningBlock1","","","","<div style=""font-size:60px;""> </div>","null","FL","learning/Slide35.JPG","That was a bim.","","",""
"image-keyboard-response","111","267665","0.0-5.0-0.35","FL","d1c4anqfzp","1366","768","0","1","0","5c5d6b55b7ce2100011fa04e","","null","","","","","","","learning/Slide36.JPG","null","","","","","",""
"html-keyboard-response","112","268845","0.0-5.0-1.35","FL","d1c4anqfzp","1366","768","0","1","0","5c5d6b55b7ce2100011fa04e","","null","","","learningBlock1","","","","That was a dep.","null","","","","","",""
"html-keyboard-response","113","269864","0.0-5.0-2.35","FL","d1c4anqfzp","1366","768","0","1","0","5c5d6b55b7ce2100011fa04e","","null","","","learningBlock1","","","","<div style=""font-size:60px;""> </div>","null","FL","learning/Slide36.JPG","That was a dep.","","",""
"image-keyboard-response","114","270044","0.0-5.0-0.36","FL","d1c4anqfzp","1366","768","0","1","0","5c5d6b55b7ce2100011fa04e","","null","","","","","","","learning/Slide37.JPG","null","","","","","",""
"html-keyboard-response","115","271224","0.0-5.0-1.36","FL","d1c4anqfzp","1366","768","0","1","0","5c5d6b55b7ce2100011fa04e","","null","","","learningBlock1","","","","That was a tob.","null","","","","","",""
"html-keyboard-response","116","272244","0.0-5.0-2.36","FL","d1c4anqfzp","1366","768","0","1","0","5c5d6b55b7ce2100011fa04e","","null","","","learningBlock1","","","","<div style=""font-size:60px;""> </div>","null","FL","learning/Slide37.JPG","That was a tob.","","",""
"image-keyboard-response","117","272425","0.0-5.0-0.37","FL","d1c4anqfzp","1366","768","0","1","0","5c5d6b55b7ce2100011fa04e","","null","","","","","","","learning/Slide38.JPG","null","","","","","",""
"html-keyboard-response","118","273604","0.0-5.0-1.37","FL","d1c4anqfzp","1366","768","0","1","0","5c5d6b55b7ce2100011fa04e","","null","","","learningBlock1","","","","That was a wug.","null","","","","","",""
"html-keyboard-response","119","274625","0.0-5.0-2.37","FL","d1c4anqfzp","1366","768","0","1","0","5c5d6b55b7ce2100011fa04e","","null","","","learningBlock1","","","","<div style=""font-size:60px;""> </div>","null","FL","learning/Slide38.JPG","That was a wug.","","",""
"image-keyboard-response","120","274804","0.0-5.0-0.38","FL","d1c4anqfzp","1366","768","0","1","0","5c5d6b55b7ce2100011fa04e","","null","","","","","","","learning/Slide39.JPG","null","","","","","",""
"html-keyboard-response","121","275984","0.0-5.0-1.38","FL","d1c4anqfzp","1366","768","0","1","0","5c5d6b55b7ce2100011fa04e","","null","","","learningBlock1","","","","That was a bim.","null","","","","","",""
"html-keyboard-response","122","277004","0.0-5.0-2.38","FL","d1c4anqfzp","1366","768","0","1","0","5c5d6b55b7ce2100011fa04e","","null","","","learningBlock1","","","","<div style=""font-size:60px;""> </div>","null","FL","learning/Slide39.JPG","That was a bim.","","",""
"image-keyboard-response","123","277204","0.0-5.0-0.39","FL","d1c4anqfzp","1366","768","0","1","0","5c5d6b55b7ce2100011fa04e","","null","","","","","","","learning/Slide40.JPG","null","","","","","",""
"html-keyboard-response","124","278365","0.0-5.0-1.39","FL","d1c4anqfzp","1366","768","0","1","0","5c5d6b55b7ce2100011fa04e","","null","","","learningBlock1","","","","That was a tob.","null","","","","","",""
"html-keyboard-response","125","279385","0.0-5.0-2.39","FL","d1c4anqfzp","1366","768","0","1","0","5c5d6b55b7ce2100011fa04e","","null","","","learningBlock1","","","","<div style=""font-size:60px;""> </div>","null","FL","learning/Slide40.JPG","That was a tob.","","",""
"image-keyboard-response","126","279563","0.0-5.0-0.40","FL","d1c4anqfzp","1366","768","0","1","0","5c5d6b55b7ce2100011fa04e","","null","","","","","","","learning/Slide41.JPG","null","","","","","",""
"html-keyboard-response","127","280745","0.0-5.0-1.40","FL","d1c4anqfzp","1366","768","0","1","0","5c5d6b55b7ce2100011fa04e","","null","","","learningBlock1","","","","That was a bim.","null","","","","","",""
"html-keyboard-response","128","281765","0.0-5.0-2.40","FL","d1c4anqfzp","1366","768","0","1","0","5c5d6b55b7ce2100011fa04e","","null","","","learningBlock1","","","","<div style=""font-size:60px;""> </div>","null","FL","learning/Slide41.JPG","That was a bim.","","",""
"image-keyboard-response","129","281944","0.0-5.0-0.41","FL","d1c4anqfzp","1366","768","0","1","0","5c5d6b55b7ce2100011fa04e","","null","","","","","","","learning/Slide42.JPG","null","","","","","",""
"html-keyboard-response","130","283115","0.0-5.0-1.41","FL","d1c4anqfzp","1366","768","0","1","0","5c5d6b55b7ce2100011fa04e","","null","","","learningBlock1","","","","That was a dep.","null","","","","","",""
"html-keyboard-response","131","284135","0.0-5.0-2.41","FL","d1c4anqfzp","1366","768","0","1","0","5c5d6b55b7ce2100011fa04e","","null","","","learningBlock1","","","","<div style=""font-size:60px;""> </div>","null","FL","learning/Slide42.JPG","That was a dep.","","",""
"image-keyboard-response","132","284314","0.0-5.0-0.42","FL","d1c4anqfzp","1366","768","0","1","0","5c5d6b55b7ce2100011fa04e","","null","","","","","","","learning/Slide43.JPG","null","","","","","",""
"html-keyboard-response","133","285474","0.0-5.0-1.42","FL","d1c4anqfzp","1366","768","0","1","0","5c5d6b55b7ce2100011fa04e","","null","","","learningBlock1","","","","That was a wug.","null","","","","","",""
"html-keyboard-response","134","286494","0.0-5.0-2.42","FL","d1c4anqfzp","1366","768","0","1","0","5c5d6b55b7ce2100011fa04e","","null","","","learningBlock1","","","","<div style=""font-size:60px;""> </div>","null","FL","learning/Slide43.JPG","That was a wug.","","",""
"image-keyboard-response","135","286675","0.0-5.0-0.43","FL","d1c4anqfzp","1366","768","0","1","0","5c5d6b55b7ce2100011fa04e","","null","","","","","","","learning/Slide44.JPG","null","","","","","",""
"html-keyboard-response","136","287835","0.0-5.0-1.43","FL","d1c4anqfzp","1366","768","0","1","0","5c5d6b55b7ce2100011fa04e","","null","","","learningBlock1","","","","That was a bim.","null","","","","","",""
"html-keyboard-response","137","288854","0.0-5.0-2.43","FL","d1c4anqfzp","1366","768","0","1","0","5c5d6b55b7ce2100011fa04e","","null","","","learningBlock1","","","","<div style=""font-size:60px;""> </div>","null","FL","learning/Slide44.JPG","That was a bim.","","",""
"image-keyboard-response","138","289034","0.0-5.0-0.44","FL","d1c4anqfzp","1366","768","0","1","0","5c5d6b55b7ce2100011fa04e","","null","","","","","","","learning/Slide45.JPG","null","","","","","",""
"html-keyboard-response","139","290214","0.0-5.0-1.44","FL","d1c4anqfzp","1366","768","0","1","0","5c5d6b55b7ce2100011fa04e","","null","","","learningBlock1","","","","That was a wug.","null","","","","","",""
"html-keyboard-response","140","291234","0.0-5.0-2.44","FL","d1c4anqfzp","1366","768","0","1","0","5c5d6b55b7ce2100011fa04e","","null","","","learningBlock1","","","","<div style=""font-size:60px;""> </div>","null","FL","learning/Slide45.JPG","That was a wug.","","",""
"image-keyboard-response","141","291414","0.0-5.0-0.45","FL","d1c4anqfzp","1366","768","0","1","0","5c5d6b55b7ce2100011fa04e","","null","","","","","","","learning/Slide46.JPG","null","","","","","",""
"html-keyboard-response","142","292594","0.0-5.0-1.45","FL","d1c4anqfzp","1366","768","0","1","0","5c5d6b55b7ce2100011fa04e","","null","","","learningBlock1","","","","That was a dep.","null","","","","","",""
"html-keyboard-response","143","293614","0.0-5.0-2.45","FL","d1c4anqfzp","1366","768","0","1","0","5c5d6b55b7ce2100011fa04e","","null","","","learningBlock1","","","","<div style=""font-size:60px;""> </div>","null","FL","learning/Slide46.JPG","That was a dep.","","",""
"image-keyboard-response","144","293794","0.0-5.0-0.46","FL","d1c4anqfzp","1366","768","0","1","0","5c5d6b55b7ce2100011fa04e","","null","","","","","","","learning/Slide47.JPG","null","","","","","",""
"html-keyboard-response","145","294954","0.0-5.0-1.46","FL","d1c4anqfzp","1366","768","0","1","0","5c5d6b55b7ce2100011fa04e","","null","","","learningBlock1","","","","That was a tob.","null","","","","","",""
"html-keyboard-response","146","295975","0.0-5.0-2.46","FL","d1c4anqfzp","1366","768","0","1","0","5c5d6b55b7ce2100011fa04e","","null","","","learningBlock1","","","","<div style=""font-size:60px;""> </div>","null","FL","learning/Slide47.JPG","That was a tob.","","",""
"image-keyboard-response","147","296155","0.0-5.0-0.47","FL","d1c4anqfzp","1366","768","0","1","0","5c5d6b55b7ce2100011fa04e","","null","","","","","","","learning/Slide48.JPG","null","","","","","",""
"html-keyboard-response","148","297334","0.0-5.0-1.47","FL","d1c4anqfzp","1366","768","0","1","0","5c5d6b55b7ce2100011fa04e","","null","","","learningBlock1","","","","That was a bim.","null","","","","","",""
"html-keyboard-response","149","298354","0.0-5.0-2.47","FL","d1c4anqfzp","1366","768","0","1","0","5c5d6b55b7ce2100011fa04e","","null","","","learningBlock1","","","","<div style=""font-size:60px;""> </div>","null","FL","learning/Slide48.JPG","That was a bim.","","",""
"image-keyboard-response","150","298534","0.0-5.0-0.48","FL","d1c4anqfzp","1366","768","0","1","0","5c5d6b55b7ce2100011fa04e","","null","","","","","","","learning/Slide49.JPG","null","","","","","",""
"html-keyboard-response","151","299694","0.0-5.0-1.48","FL","d1c4anqfzp","1366","768","0","1","0","5c5d6b55b7ce2100011fa04e","","null","","","learningBlock1","","","","That was a dep.","null","","","","","",""
"html-keyboard-response","152","300715","0.0-5.0-2.48","FL","d1c4anqfzp","1366","768","0","1","0","5c5d6b55b7ce2100011fa04e","","null","","","learningBlock1","","","","<div style=""font-size:60px;""> </div>","null","FL","learning/Slide49.JPG","That was a dep.","","",""
"image-keyboard-response","153","300895","0.0-5.0-0.49","FL","d1c4anqfzp","1366","768","0","1","0","5c5d6b55b7ce2100011fa04e","","null","","","","","","","learning/Slide50.JPG","null","","","","","",""
"html-keyboard-response","154","302074","0.0-5.0-1.49","FL","d1c4anqfzp","1366","768","0","1","0","5c5d6b55b7ce2100011fa04e","","null","","","learningBlock1","","","","That was a tob.","null","","","","","",""
"html-keyboard-response","155","303095","0.0-5.0-2.49","FL","d1c4anqfzp","1366","768","0","1","0","5c5d6b55b7ce2100011fa04e","","null","","","learningBlock1","","","","<div style=""font-size:60px;""> </div>","null","FL","learning/Slide50.JPG","That was a tob.","","",""
"image-keyboard-response","156","303275","0.0-5.0-0.50","FL","d1c4anqfzp","1366","768","0","1","0","5c5d6b55b7ce2100011fa04e","","null","","","","","","","learning/Slide51.JPG","null","","","","","",""
"html-keyboard-response","157","304454","0.0-5.0-1.50","FL","d1c4anqfzp","1366","768","0","1","0","5c5d6b55b7ce2100011fa04e","","null","","","learningBlock1","","","","That was a bim.","null","","","","","",""
"html-keyboard-response","158","305475","0.0-5.0-2.50","FL","d1c4anqfzp","1366","768","0","1","0","5c5d6b55b7ce2100011fa04e","","null","","","learningBlock1","","","","<div style=""font-size:60px;""> </div>","null","FL","learning/Slide51.JPG","That was a bim.","","",""
"image-keyboard-response","159","305655","0.0-5.0-0.51","FL","d1c4anqfzp","1366","768","0","1","0","5c5d6b55b7ce2100011fa04e","","null","","","","","","","learning/Slide52.JPG","null","","","","","",""
"html-keyboard-response","160","306834","0.0-5.0-1.51","FL","d1c4anqfzp","1366","768","0","1","0","5c5d6b55b7ce2100011fa04e","","null","","","learningBlock1","","","","That was a wug.","null","","","","","",""
"html-keyboard-response","161","307854","0.0-5.0-2.51","FL","d1c4anqfzp","1366","768","0","1","0","5c5d6b55b7ce2100011fa04e","","null","","","learningBlock1","","","","<div style=""font-size:60px;""> </div>","null","FL","learning/Slide52.JPG","That was a wug.","","",""
"image-keyboard-response","162","308034","0.0-5.0-0.52","FL","d1c4anqfzp","1366","768","0","1","0","5c5d6b55b7ce2100011fa04e","","null","","","","","","","learning/Slide53.JPG","null","","","","","",""
"html-keyboard-response","163","309194","0.0-5.0-1.52","FL","d1c4anqfzp","1366","768","0","1","0","5c5d6b55b7ce2100011fa04e","","null","","","learningBlock1","","","","That was a tob.","null","","","","","",""
"html-keyboard-response","164","310215","0.0-5.0-2.52","FL","d1c4anqfzp","1366","768","0","1","0","5c5d6b55b7ce2100011fa04e","","null","","","learningBlock1","","","","<div style=""font-size:60px;""> </div>","null","FL","learning/Slide53.JPG","That was a tob.","","",""
"image-keyboard-response","165","310394","0.0-5.0-0.53","FL","d1c4anqfzp","1366","768","0","1","0","5c5d6b55b7ce2100011fa04e","","null","","","","","","","learning/Slide54.JPG","null","","","","","",""
"html-keyboard-response","166","311554","0.0-5.0-1.53","FL","d1c4anqfzp","1366","768","0","1","0","5c5d6b55b7ce2100011fa04e","","null","","","learningBlock1","","","","That was a dep.","null","","","","","",""
"html-keyboard-response","167","312574","0.0-5.0-2.53","FL","d1c4anqfzp","1366","768","0","1","0","5c5d6b55b7ce2100011fa04e","","null","","","learningBlock1","","","","<div style=""font-size:60px;""> </div>","null","FL","learning/Slide54.JPG","That was a dep.","","",""
"image-keyboard-response","168","312754","0.0-5.0-0.54","FL","d1c4anqfzp","1366","768","0","1","0","5c5d6b55b7ce2100011fa04e","","null","","","","","","","learning/Slide55.JPG","null","","","","","",""
"html-keyboard-response","169","313935","0.0-5.0-1.54","FL","d1c4anqfzp","1366","768","0","1","0","5c5d6b55b7ce2100011fa04e","","null","","","learningBlock1","","","","That was a bim.","null","","","","","",""
"html-keyboard-response","170","314954","0.0-5.0-2.54","FL","d1c4anqfzp","1366","768","0","1","0","5c5d6b55b7ce2100011fa04e","","null","","","learningBlock1","","","","<div style=""font-size:60px;""> </div>","null","FL","learning/Slide55.JPG","That was a bim.","","",""
"image-keyboard-response","171","315134","0.0-5.0-0.55","FL","d1c4anqfzp","1366","768","0","1","0","5c5d6b55b7ce2100011fa04e","","null","","","","","","","learning/Slide56.JPG","null","","","","","",""
"html-keyboard-response","172","316294","0.0-5.0-1.55","FL","d1c4anqfzp","1366","768","0","1","0","5c5d6b55b7ce2100011fa04e","","null","","","learningBlock1","","","","That was a tob.","null","","","","","",""
"html-keyboard-response","173","317314","0.0-5.0-2.55","FL","d1c4anqfzp","1366","768","0","1","0","5c5d6b55b7ce2100011fa04e","","null","","","learningBlock1","","","","<div style=""font-size:60px;""> </div>","null","FL","learning/Slide56.JPG","That was a tob.","","",""
"image-keyboard-response","174","317494","0.0-5.0-0.56","FL","d1c4anqfzp","1366","768","0","1","0","5c5d6b55b7ce2100011fa04e","","null","","","","","","","learning/Slide57.JPG","null","","","","","",""
"html-keyboard-response","175","318674","0.0-5.0-1.56","FL","d1c4anqfzp","1366","768","0","1","0","5c5d6b55b7ce2100011fa04e","","null","","","learningBlock1","","","","That was a dep.","null","","","","","",""
"html-keyboard-response","176","319695","0.0-5.0-2.56","FL","d1c4anqfzp","1366","768","0","1","0","5c5d6b55b7ce2100011fa04e","","null","","","learningBlock1","","","","<div style=""font-size:60px;""> </div>","null","FL","learning/Slide57.JPG","That was a dep.","","",""
"image-keyboard-response","177","319875","0.0-5.0-0.57","FL","d1c4anqfzp","1366","768","0","1","0","5c5d6b55b7ce2100011fa04e","","null","","","","","","","learning/Slide58.JPG","null","","","","","",""
"html-keyboard-response","178","321054","0.0-5.0-1.57","FL","d1c4anqfzp","1366","768","0","1","0","5c5d6b55b7ce2100011fa04e","","null","","","learningBlock1","","","","That was a wug.","null","","","","","",""
"html-keyboard-response","179","322075","0.0-5.0-2.57","FL","d1c4anqfzp","1366","768","0","1","0","5c5d6b55b7ce2100011fa04e","","null","","","learningBlock1","","","","<div style=""font-size:60px;""> </div>","null","FL","learning/Slide58.JPG","That was a wug.","","",""
"image-keyboard-response","180","322255","0.0-5.0-0.58","FL","d1c4anqfzp","1366","768","0","1","0","5c5d6b55b7ce2100011fa04e","","null","","","","","","","learning/Slide59.JPG","null","","","","","",""
"html-keyboard-response","181","323435","0.0-5.0-1.58","FL","d1c4anqfzp","1366","768","0","1","0","5c5d6b55b7ce2100011fa04e","","null","","","learningBlock1","","","","That was a dep.","null","","","","","",""
"html-keyboard-response","182","324455","0.0-5.0-2.58","FL","d1c4anqfzp","1366","768","0","1","0","5c5d6b55b7ce2100011fa04e","","null","","","learningBlock1","","","","<div style=""font-size:60px;""> </div>","null","FL","learning/Slide59.JPG","That was a dep.","","",""
"image-keyboard-response","183","324634","0.0-5.0-0.59","FL","d1c4anqfzp","1366","768","0","1","0","5c5d6b55b7ce2100011fa04e","","null","","","","","","","learning/Slide60.JPG","null","","","","","",""
"html-keyboard-response","184","325795","0.0-5.0-1.59","FL","d1c4anqfzp","1366","768","0","1","0","5c5d6b55b7ce2100011fa04e","","null","","","learningBlock1","","","","That was a wug.","null","","","","","",""
"html-keyboard-response","185","326814","0.0-5.0-2.59","FL","d1c4anqfzp","1366","768","0","1","0","5c5d6b55b7ce2100011fa04e","","null","","","learningBlock1","","","","<div style=""font-size:60px;""> </div>","null","FL","learning/Slide60.JPG","That was a wug.","","",""
"image-keyboard-response","186","326995","0.0-5.0-0.60","FL","d1c4anqfzp","1366","768","0","1","0","5c5d6b55b7ce2100011fa04e","","null","","","","","","","learning/Slide61.JPG","null","","","","","",""
"html-keyboard-response","187","328175","0.0-5.0-1.60","FL","d1c4anqfzp","1366","768","0","1","0","5c5d6b55b7ce2100011fa04e","","null","","","learningBlock1","","","","That was a bim.","null","","","","","",""
"html-keyboard-response","188","329195","0.0-5.0-2.60","FL","d1c4anqfzp","1366","768","0","1","0","5c5d6b55b7ce2100011fa04e","","null","","","learningBlock1","","","","<div style=""font-size:60px;""> </div>","null","FL","learning/Slide61.JPG","That was a bim.","","",""
"image-keyboard-response","189","329374","0.0-5.0-0.61","FL","d1c4anqfzp","1366","768","0","1","0","5c5d6b55b7ce2100011fa04e","","null","","","","","","","learning/Slide62.JPG","null","","","","","",""
"html-keyboard-response","190","330545","0.0-5.0-1.61","FL","d1c4anqfzp","1366","768","0","1","0","5c5d6b55b7ce2100011fa04e","","null","","","learningBlock1","","","","That was a dep.","null","","","","","",""
"html-keyboard-response","191","331565","0.0-5.0-2.61","FL","d1c4anqfzp","1366","768","0","1","0","5c5d6b55b7ce2100011fa04e","","null","","","learningBlock1","","","","<div style=""font-size:60px;""> </div>","null","FL","learning/Slide62.JPG","That was a dep.","","",""
"image-keyboard-response","192","331744","0.0-5.0-0.62","FL","d1c4anqfzp","1366","768","0","1","0","5c5d6b55b7ce2100011fa04e","","null","","","","","","","learning/Slide63.JPG","null","","","","","",""
"html-keyboard-response","193","332924","0.0-5.0-1.62","FL","d1c4anqfzp","1366","768","0","1","0","5c5d6b55b7ce2100011fa04e","","null","","","learningBlock1","","","","That was a bim.","null","","","","","",""
"html-keyboard-response","194","333944","0.0-5.0-2.62","FL","d1c4anqfzp","1366","768","0","1","0","5c5d6b55b7ce2100011fa04e","","null","","","learningBlock1","","","","<div style=""font-size:60px;""> </div>","null","FL","learning/Slide63.JPG","That was a bim.","","",""
"image-keyboard-response","195","334124","0.0-5.0-0.63","FL","d1c4anqfzp","1366","768","0","1","0","5c5d6b55b7ce2100011fa04e","","null","","","","","","","learning/Slide64.JPG","null","","","","","",""
"html-keyboard-response","196","335285","0.0-5.0-1.63","FL","d1c4anqfzp","1366","768","0","1","0","5c5d6b55b7ce2100011fa04e","","null","","","learningBlock1","","","","That was a tob.","null","","","","","",""
"html-keyboard-response","197","336305","0.0-5.0-2.63","FL","d1c4anqfzp","1366","768","0","1","0","5c5d6b55b7ce2100011fa04e","","null","","","learningBlock1","","","","<div style=""font-size:60px;""> </div>","null","FL","learning/Slide64.JPG","That was a tob.","","",""
"image-keyboard-response","198","336484","0.0-5.0-0.64","FL","d1c4anqfzp","1366","768","0","1","0","5c5d6b55b7ce2100011fa04e","","null","","","","","","","learning/Slide65.JPG","null","","","","","",""
"html-keyboard-response","199","337665","0.0-5.0-1.64","FL","d1c4anqfzp","1366","768","0","1","0","5c5d6b55b7ce2100011fa04e","","null","","","learningBlock1","","","","That was a wug.","null","","","","","",""
"html-keyboard-response","200","338684","0.0-5.0-2.64","FL","d1c4anqfzp","1366","768","0","1","0","5c5d6b55b7ce2100011fa04e","","null","","","learningBlock1","","","","<div style=""font-size:60px;""> </div>","null","FL","learning/Slide65.JPG","That was a wug.","","",""
"image-keyboard-response","201","338864","0.0-5.0-0.65","FL","d1c4anqfzp","1366","768","0","1","0","5c5d6b55b7ce2100011fa04e","","null","","","","","","","learning/Slide66.JPG","null","","","","","",""
"html-keyboard-response","202","340045","0.0-5.0-1.65","FL","d1c4anqfzp","1366","768","0","1","0","5c5d6b55b7ce2100011fa04e","","null","","","learningBlock1","","","","That was a dep.","null","","","","","",""
"html-keyboard-response","203","341064","0.0-5.0-2.65","FL","d1c4anqfzp","1366","768","0","1","0","5c5d6b55b7ce2100011fa04e","","null","","","learningBlock1","","","","<div style=""font-size:60px;""> </div>","null","FL","learning/Slide66.JPG","That was a dep.","","",""
"image-keyboard-response","204","341244","0.0-5.0-0.66","FL","d1c4anqfzp","1366","768","0","1","0","5c5d6b55b7ce2100011fa04e","","null","","","","","","","learning/Slide67.JPG","null","","","","","",""
"html-keyboard-response","205","342424","0.0-5.0-1.66","FL","d1c4anqfzp","1366","768","0","1","0","5c5d6b55b7ce2100011fa04e","","null","","","learningBlock1","","","","That was a tob.","null","","","","","",""
"html-keyboard-response","206","343445","0.0-5.0-2.66","FL","d1c4anqfzp","1366","768","0","1","0","5c5d6b55b7ce2100011fa04e","","null","","","learningBlock1","","","","<div style=""font-size:60px;""> </div>","null","FL","learning/Slide67.JPG","That was a tob.","","",""
"image-keyboard-response","207","343625","0.0-5.0-0.67","FL","d1c4anqfzp","1366","768","0","1","0","5c5d6b55b7ce2100011fa04e","","null","","","","","","","learning/Slide68.JPG","null","","","","","",""
"html-keyboard-response","208","344784","0.0-5.0-1.67","FL","d1c4anqfzp","1366","768","0","1","0","5c5d6b55b7ce2100011fa04e","","null","","","learningBlock1","","","","That was a wug.","null","","","","","",""
"html-keyboard-response","209","345805","0.0-5.0-2.67","FL","d1c4anqfzp","1366","768","0","1","0","5c5d6b55b7ce2100011fa04e","","null","","","learningBlock1","","","","<div style=""font-size:60px;""> </div>","null","FL","learning/Slide68.JPG","That was a wug.","","",""
"image-keyboard-response","210","345983","0.0-5.0-0.68","FL","d1c4anqfzp","1366","768","0","1","0","5c5d6b55b7ce2100011fa04e","","null","","","","","","","learning/Slide69.JPG","null","","","","","",""
"html-keyboard-response","211","347165","0.0-5.0-1.68","FL","d1c4anqfzp","1366","768","0","1","0","5c5d6b55b7ce2100011fa04e","","null","","","learningBlock1","","","","That was a tob.","null","","","","","",""
"html-keyboard-response","212","348184","0.0-5.0-2.68","FL","d1c4anqfzp","1366","768","0","1","0","5c5d6b55b7ce2100011fa04e","","null","","","learningBlock1","","","","<div style=""font-size:60px;""> </div>","null","FL","learning/Slide69.JPG","That was a tob.","","",""
"image-keyboard-response","213","348364","0.0-5.0-0.69","FL","d1c4anqfzp","1366","768","0","1","0","5c5d6b55b7ce2100011fa04e","","null","","","","","","","learning/Slide70.JPG","null","","","","","",""
"html-keyboard-response","214","349544","0.0-5.0-1.69","FL","d1c4anqfzp","1366","768","0","1","0","5c5d6b55b7ce2100011fa04e","","null","","","learningBlock1","","","","That was a dep.","null","","","","","",""
"html-keyboard-response","215","350564","0.0-5.0-2.69","FL","d1c4anqfzp","1366","768","0","1","0","5c5d6b55b7ce2100011fa04e","","null","","","learningBlock1","","","","<div style=""font-size:60px;""> </div>","null","FL","learning/Slide70.JPG","That was a dep.","","",""
"image-keyboard-response","216","350744","0.0-5.0-0.70","FL","d1c4anqfzp","1366","768","0","1","0","5c5d6b55b7ce2100011fa04e","","null","","","","","","","learning/Slide71.JPG","null","","","","","",""
"html-keyboard-response","217","351924","0.0-5.0-1.70","FL","d1c4anqfzp","1366","768","0","1","0","5c5d6b55b7ce2100011fa04e","","null","","","learningBlock1","","","","That was a wug.","null","","","","","",""
"html-keyboard-response","218","352945","0.0-5.0-2.70","FL","d1c4anqfzp","1366","768","0","1","0","5c5d6b55b7ce2100011fa04e","","null","","","learningBlock1","","","","<div style=""font-size:60px;""> </div>","null","FL","learning/Slide71.JPG","That was a wug.","","",""
"image-keyboard-response","219","353124","0.0-5.0-0.71","FL","d1c4anqfzp","1366","768","0","1","0","5c5d6b55b7ce2100011fa04e","","null","","","","","","","learning/Slide72.JPG","null","","","","","",""
"html-keyboard-response","220","354304","0.0-5.0-1.71","FL","d1c4anqfzp","1366","768","0","1","0","5c5d6b55b7ce2100011fa04e","","null","","","learningBlock1","","","","That was a bim.","null","","","","","",""
"html-keyboard-response","221","355325","0.0-5.0-2.71","FL","d1c4anqfzp","1366","768","0","1","0","5c5d6b55b7ce2100011fa04e","","null","","","learningBlock1","","","","<div style=""font-size:60px;""> </div>","null","FL","learning/Slide72.JPG","That was a bim.","","",""
"image-keyboard-response","222","355504","0.0-5.0-0.72","FL","d1c4anqfzp","1366","768","0","1","0","5c5d6b55b7ce2100011fa04e","","null","","","","","","","learning/Slide73.JPG","null","","","","","",""
"html-keyboard-response","223","356684","0.0-5.0-1.72","FL","d1c4anqfzp","1366","768","0","1","0","5c5d6b55b7ce2100011fa04e","","null","","","learningBlock1","","","","That was a wug.","null","","","","","",""
"html-keyboard-response","224","357704","0.0-5.0-2.72","FL","d1c4anqfzp","1366","768","0","1","0","5c5d6b55b7ce2100011fa04e","","null","","","learningBlock1","","","","<div style=""font-size:60px;""> </div>","null","FL","learning/Slide73.JPG","That was a wug.","","",""
"image-keyboard-response","225","357885","0.0-5.0-0.73","FL","d1c4anqfzp","1366","768","0","1","0","5c5d6b55b7ce2100011fa04e","","null","","","","","","","learning/Slide74.JPG","null","","","","","",""
"html-keyboard-response","226","359064","0.0-5.0-1.73","FL","d1c4anqfzp","1366","768","0","1","0","5c5d6b55b7ce2100011fa04e","","null","","","learningBlock1","","","","That was a dep.","null","","","","","",""
"html-keyboard-response","227","360085","0.0-5.0-2.73","FL","d1c4anqfzp","1366","768","0","1","0","5c5d6b55b7ce2100011fa04e","","null","","","learningBlock1","","","","<div style=""font-size:60px;""> </div>","null","FL","learning/Slide74.JPG","That was a dep.","","",""
"image-keyboard-response","228","360265","0.0-5.0-0.74","FL","d1c4anqfzp","1366","768","0","1","0","5c5d6b55b7ce2100011fa04e","","null","","","","","","","learning/Slide75.JPG","null","","","","","",""
"html-keyboard-response","229","361435","0.0-5.0-1.74","FL","d1c4anqfzp","1366","768","0","1","0","5c5d6b55b7ce2100011fa04e","","null","","","learningBlock1","","","","That was a tob.","null","","","","","",""
"html-keyboard-response","230","362445","0.0-5.0-2.74","FL","d1c4anqfzp","1366","768","0","1","0","5c5d6b55b7ce2100011fa04e","","null","","","learningBlock1","","","","<div style=""font-size:60px;""> </div>","null","FL","learning/Slide75.JPG","That was a tob.","","",""
"image-keyboard-response","231","362624","0.0-5.0-0.75","FL","d1c4anqfzp","1366","768","0","1","0","5c5d6b55b7ce2100011fa04e","","null","","","","","","","learning/Slide76.JPG","null","","","","","",""
"html-keyboard-response","232","363805","0.0-5.0-1.75","FL","d1c4anqfzp","1366","768","0","1","0","5c5d6b55b7ce2100011fa04e","","null","","","learningBlock1","","","","That was a bim.","null","","","","","",""
"html-keyboard-response","233","364824","0.0-5.0-2.75","FL","d1c4anqfzp","1366","768","0","1","0","5c5d6b55b7ce2100011fa04e","","null","","","learningBlock1","","","","<div style=""font-size:60px;""> </div>","null","FL","learning/Slide76.JPG","That was a bim.","","",""
"image-keyboard-response","234","365004","0.0-5.0-0.76","FL","d1c4anqfzp","1366","768","0","1","0","5c5d6b55b7ce2100011fa04e","","null","","","","","","","learning/Slide77.JPG","null","","","","","",""
"html-keyboard-response","235","366185","0.0-5.0-1.76","FL","d1c4anqfzp","1366","768","0","1","0","5c5d6b55b7ce2100011fa04e","","null","","","learningBlock1","","","","That was a tob.","null","","","","","",""
"html-keyboard-response","236","367186","0.0-5.0-2.76","FL","d1c4anqfzp","1366","768","0","1","0","5c5d6b55b7ce2100011fa04e","","null","","","learningBlock1","","","","<div style=""font-size:60px;""> </div>","null","FL","learning/Slide77.JPG","That was a tob.","","",""
"image-keyboard-response","237","367364","0.0-5.0-0.77","FL","d1c4anqfzp","1366","768","0","1","0","5c5d6b55b7ce2100011fa04e","","null","","","","","","","learning/Slide78.JPG","null","","","","","",""
"html-keyboard-response","238","368524","0.0-5.0-1.77","FL","d1c4anqfzp","1366","768","0","1","0","5c5d6b55b7ce2100011fa04e","","null","","","learningBlock1","","","","That was a wug.","null","","","","","",""
"html-keyboard-response","239","369534","0.0-5.0-2.77","FL","d1c4anqfzp","1366","768","0","1","0","5c5d6b55b7ce2100011fa04e","","null","","","learningBlock1","","","","<div style=""font-size:60px;""> </div>","null","FL","learning/Slide78.JPG","That was a wug.","","",""
"image-keyboard-response","240","369714","0.0-5.0-0.78","FL","d1c4anqfzp","1366","768","0","1","0","5c5d6b55b7ce2100011fa04e","","null","","","","","","","learning/Slide79.JPG","null","","","","","",""
"html-keyboard-response","241","370895","0.0-5.0-1.78","FL","d1c4anqfzp","1366","768","0","1","0","5c5d6b55b7ce2100011fa04e","","null","","","learningBlock1","","","","That was a bim.","null","","","","","",""
"html-keyboard-response","242","371914","0.0-5.0-2.78","FL","d1c4anqfzp","1366","768","0","1","0","5c5d6b55b7ce2100011fa04e","","null","","","learningBlock1","","","","<div style=""font-size:60px;""> </div>","null","FL","learning/Slide79.JPG","That was a bim.","","",""
"image-keyboard-response","243","372095","0.0-5.0-0.79","FL","d1c4anqfzp","1366","768","0","1","0","5c5d6b55b7ce2100011fa04e","","null","","","","","","","learning/Slide80.JPG","null","","","","","",""
"html-keyboard-response","244","373275","0.0-5.0-1.79","FL","d1c4anqfzp","1366","768","0","1","0","5c5d6b55b7ce2100011fa04e","","null","","","learningBlock1","","","","That was a tob.","null","","","","","",""
"html-keyboard-response","245","374295","0.0-5.0-2.79","FL","d1c4anqfzp","1366","768","0","1","0","5c5d6b55b7ce2100011fa04e","","null","","","learningBlock1","","","","<div style=""font-size:60px;""> </div>","null","FL","learning/Slide80.JPG","That was a tob.","","",""
"instructions","246","377977","0.0-6.0","FL","d1c4anqfzp","1366","768","0","1","0","5c5d6b55b7ce2100011fa04e","","NA","","[{""page_index"":0,""viewing_time"":3682}]","instructions","","","","","","","","","","",""
"image-keyboard-response","247","378155","0.0-7.0-0.0","FL","d1c4anqfzp","1366","768","0","1","0","5c5d6b55b7ce2100011fa04e","","null","","","","","","","learning/Slide81.JPG","null","","","","","",""
"html-keyboard-response","248","379334","0.0-7.0-1.0","FL","d1c4anqfzp","1366","768","0","1","0","5c5d6b55b7ce2100011fa04e","","null","","","learningBlock2","","","","That was a wug.","null","","","","","",""
"html-keyboard-response","249","380355","0.0-7.0-2.0","FL","d1c4anqfzp","1366","768","0","1","0","5c5d6b55b7ce2100011fa04e","","null","","","learningBlock2","","","","<div style=""font-size:60px;""> </div>","null","FL","learning/Slide81.JPG","That was a wug.","","",""
"image-keyboard-response","250","380535","0.0-7.0-0.1","FL","d1c4anqfzp","1366","768","0","1","0","5c5d6b55b7ce2100011fa04e","","null","","","","","","","learning/Slide82.JPG","null","","","","","",""
"html-keyboard-response","251","381695","0.0-7.0-1.1","FL","d1c4anqfzp","1366","768","0","1","0","5c5d6b55b7ce2100011fa04e","","null","","","learningBlock2","","","","That was a bim.","null","","","","","",""
"html-keyboard-response","252","382714","0.0-7.0-2.1","FL","d1c4anqfzp","1366","768","0","1","0","5c5d6b55b7ce2100011fa04e","","null","","","learningBlock2","","","","<div style=""font-size:60px;""> </div>","null","FL","learning/Slide82.JPG","That was a bim.","","",""
"image-keyboard-response","253","382894","0.0-7.0-0.2","FL","d1c4anqfzp","1366","768","0","1","0","5c5d6b55b7ce2100011fa04e","","null","","","","","","","learning/Slide83.JPG","null","","","","","",""
"html-keyboard-response","254","384075","0.0-7.0-1.2","FL","d1c4anqfzp","1366","768","0","1","0","5c5d6b55b7ce2100011fa04e","","null","","","learningBlock2","","","","That was a wug.","null","","","","","",""
"html-keyboard-response","255","385082","0.0-7.0-2.2","FL","d1c4anqfzp","1366","768","0","1","0","5c5d6b55b7ce2100011fa04e","","null","","","learningBlock2","","","","<div style=""font-size:60px;""> </div>","null","FL","learning/Slide83.JPG","That was a wug.","","",""
"image-keyboard-response","256","385264","0.0-7.0-0.3","FL","d1c4anqfzp","1366","768","0","1","0","5c5d6b55b7ce2100011fa04e","","null","","","","","","","learning/Slide84.JPG","null","","","","","",""
"html-keyboard-response","257","386425","0.0-7.0-1.3","FL","d1c4anqfzp","1366","768","0","1","0","5c5d6b55b7ce2100011fa04e","","null","","","learningBlock2","","","","That was a dep.","null","","","","","",""
"html-keyboard-response","258","387444","0.0-7.0-2.3","FL","d1c4anqfzp","1366","768","0","1","0","5c5d6b55b7ce2100011fa04e","","null","","","learningBlock2","","","","<div style=""font-size:60px;""> </div>","null","FL","learning/Slide84.JPG","That was a dep.","","",""
"image-keyboard-response","259","387624","0.0-7.0-0.4","FL","d1c4anqfzp","1366","768","0","1","0","5c5d6b55b7ce2100011fa04e","","null","","","","","","","learning/Slide85.JPG","null","","","","","",""
"html-keyboard-response","260","388805","0.0-7.0-1.4","FL","d1c4anqfzp","1366","768","0","1","0","5c5d6b55b7ce2100011fa04e","","null","","","learningBlock2","","","","That was a bim.","null","","","","","",""
"html-keyboard-response","261","389824","0.0-7.0-2.4","FL","d1c4anqfzp","1366","768","0","1","0","5c5d6b55b7ce2100011fa04e","","null","","","learningBlock2","","","","<div style=""font-size:60px;""> </div>","null","FL","learning/Slide85.JPG","That was a bim.","","",""
"image-keyboard-response","262","390004","0.0-7.0-0.5","FL","d1c4anqfzp","1366","768","0","1","0","5c5d6b55b7ce2100011fa04e","","null","","","","","","","learning/Slide86.JPG","null","","","","","",""
"html-keyboard-response","263","391184","0.0-7.0-1.5","FL","d1c4anqfzp","1366","768","0","1","0","5c5d6b55b7ce2100011fa04e","","null","","","learningBlock2","","","","That was a tob.","null","","","","","",""
"html-keyboard-response","264","392204","0.0-7.0-2.5","FL","d1c4anqfzp","1366","768","0","1","0","5c5d6b55b7ce2100011fa04e","","null","","","learningBlock2","","","","<div style=""font-size:60px;""> </div>","null","FL","learning/Slide86.JPG","That was a tob.","","",""
"image-keyboard-response","265","392384","0.0-7.0-0.6","FL","d1c4anqfzp","1366","768","0","1","0","5c5d6b55b7ce2100011fa04e","","null","","","","","","","learning/Slide87.JPG","null","","","","","",""
"html-keyboard-response","266","393545","0.0-7.0-1.6","FL","d1c4anqfzp","1366","768","0","1","0","5c5d6b55b7ce2100011fa04e","","null","","","learningBlock2","","","","That was a wug.","null","","","","","",""
"html-keyboard-response","267","394564","0.0-7.0-2.6","FL","d1c4anqfzp","1366","768","0","1","0","5c5d6b55b7ce2100011fa04e","","null","","","learningBlock2","","","","<div style=""font-size:60px;""> </div>","null","FL","learning/Slide87.JPG","That was a wug.","","",""
"image-keyboard-response","268","394744","0.0-7.0-0.7","FL","d1c4anqfzp","1366","768","0","1","0","5c5d6b55b7ce2100011fa04e","","null","","","","","","","learning/Slide88.JPG","null","","","","","",""
"html-keyboard-response","269","395905","0.0-7.0-1.7","FL","d1c4anqfzp","1366","768","0","1","0","5c5d6b55b7ce2100011fa04e","","null","","","learningBlock2","","","","That was a tob.","null","","","","","",""
"html-keyboard-response","270","396924","0.0-7.0-2.7","FL","d1c4anqfzp","1366","768","0","1","0","5c5d6b55b7ce2100011fa04e","","null","","","learningBlock2","","","","<div style=""font-size:60px;""> </div>","null","FL","learning/Slide88.JPG","That was a tob.","","",""
"image-keyboard-response","271","397105","0.0-7.0-0.8","FL","d1c4anqfzp","1366","768","0","1","0","5c5d6b55b7ce2100011fa04e","","null","","","","","","","learning/Slide89.JPG","null","","","","","",""
"html-keyboard-response","272","398285","0.0-7.0-1.8","FL","d1c4anqfzp","1366","768","0","1","0","5c5d6b55b7ce2100011fa04e","","null","","","learningBlock2","","","","That was a bim.","null","","","","","",""
"html-keyboard-response","273","399305","0.0-7.0-2.8","FL","d1c4anqfzp","1366","768","0","1","0","5c5d6b55b7ce2100011fa04e","","null","","","learningBlock2","","","","<div style=""font-size:60px;""> </div>","null","FL","learning/Slide89.JPG","That was a bim.","","",""
"image-keyboard-response","274","399484","0.0-7.0-0.9","FL","d1c4anqfzp","1366","768","0","1","0","5c5d6b55b7ce2100011fa04e","","null","","","","","","","learning/Slide90.JPG","null","","","","","",""
"html-keyboard-response","275","400664","0.0-7.0-1.9","FL","d1c4anqfzp","1366","768","0","1","0","5c5d6b55b7ce2100011fa04e","","null","","","learningBlock2","","","","That was a dep.","null","","","","","",""
"html-keyboard-response","276","401683","0.0-7.0-2.9","FL","d1c4anqfzp","1366","768","0","1","0","5c5d6b55b7ce2100011fa04e","","null","","","learningBlock2","","","","<div style=""font-size:60px;""> </div>","null","FL","learning/Slide90.JPG","That was a dep.","","",""
"image-keyboard-response","277","401864","0.0-7.0-0.10","FL","d1c4anqfzp","1366","768","0","1","0","5c5d6b55b7ce2100011fa04e","","null","","","","","","","learning/Slide91.JPG","null","","","","","",""
"html-keyboard-response","278","403034","0.0-7.0-1.10","FL","d1c4anqfzp","1366","768","0","1","0","5c5d6b55b7ce2100011fa04e","","null","","","learningBlock2","","","","That was a wug.","null","","","","","",""
"html-keyboard-response","279","404054","0.0-7.0-2.10","FL","d1c4anqfzp","1366","768","0","1","0","5c5d6b55b7ce2100011fa04e","","null","","","learningBlock2","","","","<div style=""font-size:60px;""> </div>","null","FL","learning/Slide91.JPG","That was a wug.","","",""
"image-keyboard-response","280","404234","0.0-7.0-0.11","FL","d1c4anqfzp","1366","768","0","1","0","5c5d6b55b7ce2100011fa04e","","null","","","","","","","learning/Slide92.JPG","null","","","","","",""
"html-keyboard-response","281","405415","0.0-7.0-1.11","FL","d1c4anqfzp","1366","768","0","1","0","5c5d6b55b7ce2100011fa04e","","null","","","learningBlock2","","","","That was a tob.","null","","","","","",""
"html-keyboard-response","282","406435","0.0-7.0-2.11","FL","d1c4anqfzp","1366","768","0","1","0","5c5d6b55b7ce2100011fa04e","","null","","","learningBlock2","","","","<div style=""font-size:60px;""> </div>","null","FL","learning/Slide92.JPG","That was a tob.","","",""
"image-keyboard-response","283","406615","0.0-7.0-0.12","FL","d1c4anqfzp","1366","768","0","1","0","5c5d6b55b7ce2100011fa04e","","null","","","","","","","learning/Slide93.JPG","null","","","","","",""
"html-keyboard-response","284","407774","0.0-7.0-1.12","FL","d1c4anqfzp","1366","768","0","1","0","5c5d6b55b7ce2100011fa04e","","null","","","learningBlock2","","","","That was a bim.","null","","","","","",""
"html-keyboard-response","285","408794","0.0-7.0-2.12","FL","d1c4anqfzp","1366","768","0","1","0","5c5d6b55b7ce2100011fa04e","","null","","","learningBlock2","","","","<div style=""font-size:60px;""> </div>","null","FL","learning/Slide93.JPG","That was a bim.","","",""
"image-keyboard-response","286","408975","0.0-7.0-0.13","FL","d1c4anqfzp","1366","768","0","1","0","5c5d6b55b7ce2100011fa04e","","null","","","","","","","learning/Slide94.JPG","null","","","","","",""
"html-keyboard-response","287","410154","0.0-7.0-1.13","FL","d1c4anqfzp","1366","768","0","1","0","5c5d6b55b7ce2100011fa04e","","null","","","learningBlock2","","","","That was a tob.","null","","","","","",""
"html-keyboard-response","288","411175","0.0-7.0-2.13","FL","d1c4anqfzp","1366","768","0","1","0","5c5d6b55b7ce2100011fa04e","","null","","","learningBlock2","","","","<div style=""font-size:60px;""> </div>","null","FL","learning/Slide94.JPG","That was a tob.","","",""
"image-keyboard-response","289","411354","0.0-7.0-0.14","FL","d1c4anqfzp","1366","768","0","1","0","5c5d6b55b7ce2100011fa04e","","null","","","","","","","learning/Slide95.JPG","null","","","","","",""
"html-keyboard-response","290","412535","0.0-7.0-1.14","FL","d1c4anqfzp","1366","768","0","1","0","5c5d6b55b7ce2100011fa04e","","null","","","learningBlock2","","","","That was a wug.","null","","","","","",""
"html-keyboard-response","291","413555","0.0-7.0-2.14","FL","d1c4anqfzp","1366","768","0","1","0","5c5d6b55b7ce2100011fa04e","","null","","","learningBlock2","","","","<div style=""font-size:60px;""> </div>","null","FL","learning/Slide95.JPG","That was a wug.","","",""
"image-keyboard-response","292","413734","0.0-7.0-0.15","FL","d1c4anqfzp","1366","768","0","1","0","5c5d6b55b7ce2100011fa04e","","null","","","","","","","learning/Slide96.JPG","null","","","","","",""
"html-keyboard-response","293","414915","0.0-7.0-1.15","FL","d1c4anqfzp","1366","768","0","1","0","5c5d6b55b7ce2100011fa04e","","null","","","learningBlock2","","","","That was a tob.","null","","","","","",""
"html-keyboard-response","294","415934","0.0-7.0-2.15","FL","d1c4anqfzp","1366","768","0","1","0","5c5d6b55b7ce2100011fa04e","","null","","","learningBlock2","","","","<div style=""font-size:60px;""> </div>","null","FL","learning/Slide96.JPG","That was a tob.","","",""
"image-keyboard-response","295","416115","0.0-7.0-0.16","FL","d1c4anqfzp","1366","768","0","1","0","5c5d6b55b7ce2100011fa04e","","null","","","","","","","learning/Slide97.JPG","null","","","","","",""
"html-keyboard-response","296","417275","0.0-7.0-1.16","FL","d1c4anqfzp","1366","768","0","1","0","5c5d6b55b7ce2100011fa04e","","null","","","learningBlock2","","","","That was a dep.","null","","","","","",""
"html-keyboard-response","297","418295","0.0-7.0-2.16","FL","d1c4anqfzp","1366","768","0","1","0","5c5d6b55b7ce2100011fa04e","","null","","","learningBlock2","","","","<div style=""font-size:60px;""> </div>","null","FL","learning/Slide97.JPG","That was a dep.","","",""
"image-keyboard-response","298","418475","0.0-7.0-0.17","FL","d1c4anqfzp","1366","768","0","1","0","5c5d6b55b7ce2100011fa04e","","null","","","","","","","learning/Slide98.JPG","null","","","","","",""
"html-keyboard-response","299","419655","0.0-7.0-1.17","FL","d1c4anqfzp","1366","768","0","1","0","5c5d6b55b7ce2100011fa04e","","null","","","learningBlock2","","","","That was a bim.","null","","","","","",""
"html-keyboard-response","300","420675","0.0-7.0-2.17","FL","d1c4anqfzp","1366","768","0","1","0","5c5d6b55b7ce2100011fa04e","","null","","","learningBlock2","","","","<div style=""font-size:60px;""> </div>","null","FL","learning/Slide98.JPG","That was a bim.","","",""
"image-keyboard-response","301","420855","0.0-7.0-0.18","FL","d1c4anqfzp","1366","768","0","1","0","5c5d6b55b7ce2100011fa04e","","null","","","","","","","learning/Slide99.JPG","null","","","","","",""
"html-keyboard-response","302","422034","0.0-7.0-1.18","FL","d1c4anqfzp","1366","768","0","1","0","5c5d6b55b7ce2100011fa04e","","null","","","learningBlock2","","","","That was a dep.","null","","","","","",""
"html-keyboard-response","303","423054","0.0-7.0-2.18","FL","d1c4anqfzp","1366","768","0","1","0","5c5d6b55b7ce2100011fa04e","","null","","","learningBlock2","","","","<div style=""font-size:60px;""> </div>","null","FL","learning/Slide99.JPG","That was a dep.","","",""
"image-keyboard-response","304","423234","0.0-7.0-0.19","FL","d1c4anqfzp","1366","768","0","1","0","5c5d6b55b7ce2100011fa04e","","null","","","","","","","learning/Slide100.JPG","null","","","","","",""
"html-keyboard-response","305","424415","0.0-7.0-1.19","FL","d1c4anqfzp","1366","768","0","1","0","5c5d6b55b7ce2100011fa04e","","null","","","learningBlock2","","","","That was a bim.","null","","","","","",""
"html-keyboard-response","306","425435","0.0-7.0-2.19","FL","d1c4anqfzp","1366","768","0","1","0","5c5d6b55b7ce2100011fa04e","","null","","","learningBlock2","","","","<div style=""font-size:60px;""> </div>","null","FL","learning/Slide100.JPG","That was a bim.","","",""
"image-keyboard-response","307","425615","0.0-7.0-0.20","FL","d1c4anqfzp","1366","768","0","1","0","5c5d6b55b7ce2100011fa04e","","null","","","","","","","learning/Slide101.JPG","null","","","","","",""
"html-keyboard-response","308","426793","0.0-7.0-1.20","FL","d1c4anqfzp","1366","768","0","1","0","5c5d6b55b7ce2100011fa04e","","null","","","learningBlock2","","","","That was a tob.","null","","","","","",""
"html-keyboard-response","309","427795","0.0-7.0-2.20","FL","d1c4anqfzp","1366","768","0","1","0","5c5d6b55b7ce2100011fa04e","","null","","","learningBlock2","","","","<div style=""font-size:60px;""> </div>","null","FL","learning/Slide101.JPG","That was a tob.","","",""
"image-keyboard-response","310","427975","0.0-7.0-0.21","FL","d1c4anqfzp","1366","768","0","1","0","5c5d6b55b7ce2100011fa04e","","null","","","","","","","learning/Slide102.JPG","null","","","","","",""
"html-keyboard-response","311","429135","0.0-7.0-1.21","FL","d1c4anqfzp","1366","768","0","1","0","5c5d6b55b7ce2100011fa04e","","null","","","learningBlock2","","","","That was a bim.","null","","","","","",""
"html-keyboard-response","312","430145","0.0-7.0-2.21","FL","d1c4anqfzp","1366","768","0","1","0","5c5d6b55b7ce2100011fa04e","","null","","","learningBlock2","","","","<div style=""font-size:60px;""> </div>","null","FL","learning/Slide102.JPG","That was a bim.","","",""
"image-keyboard-response","313","430325","0.0-7.0-0.22","FL","d1c4anqfzp","1366","768","0","1","0","5c5d6b55b7ce2100011fa04e","","null","","","","","","","learning/Slide103.JPG","null","","","","","",""
"html-keyboard-response","314","431505","0.0-7.0-1.22","FL","d1c4anqfzp","1366","768","0","1","0","5c5d6b55b7ce2100011fa04e","","null","","","learningBlock2","","","","That was a dep.","null","","","","","",""
"html-keyboard-response","315","432524","0.0-7.0-2.22","FL","d1c4anqfzp","1366","768","0","1","0","5c5d6b55b7ce2100011fa04e","","null","","","learningBlock2","","","","<div style=""font-size:60px;""> </div>","null","FL","learning/Slide103.JPG","That was a dep.","","",""
"image-keyboard-response","316","432704","0.0-7.0-0.23","FL","d1c4anqfzp","1366","768","0","1","0","5c5d6b55b7ce2100011fa04e","","null","","","","","","","learning/Slide104.JPG","null","","","","","",""
"html-keyboard-response","317","433884","0.0-7.0-1.23","FL","d1c4anqfzp","1366","768","0","1","0","5c5d6b55b7ce2100011fa04e","","null","","","learningBlock2","","","","That was a tob.","null","","","","","",""
"html-keyboard-response","318","434905","0.0-7.0-2.23","FL","d1c4anqfzp","1366","768","0","1","0","5c5d6b55b7ce2100011fa04e","","null","","","learningBlock2","","","","<div style=""font-size:60px;""> </div>","null","FL","learning/Slide104.JPG","That was a tob.","","",""
"image-keyboard-response","319","435085","0.0-7.0-0.24","FL","d1c4anqfzp","1366","768","0","1","0","5c5d6b55b7ce2100011fa04e","","null","","","","","","","learning/Slide105.JPG","null","","","","","",""
"html-keyboard-response","320","436265","0.0-7.0-1.24","FL","d1c4anqfzp","1366","768","0","1","0","5c5d6b55b7ce2100011fa04e","","null","","","learningBlock2","","","","That was a dep.","null","","","","","",""
"html-keyboard-response","321","437285","0.0-7.0-2.24","FL","d1c4anqfzp","1366","768","0","1","0","5c5d6b55b7ce2100011fa04e","","null","","","learningBlock2","","","","<div style=""font-size:60px;""> </div>","null","FL","learning/Slide105.JPG","That was a dep.","","",""
"image-keyboard-response","322","437465","0.0-7.0-0.25","FL","d1c4anqfzp","1366","768","0","1","0","5c5d6b55b7ce2100011fa04e","","null","","","","","","","learning/Slide106.JPG","null","","","","","",""
"html-keyboard-response","323","438644","0.0-7.0-1.25","FL","d1c4anqfzp","1366","768","0","1","0","5c5d6b55b7ce2100011fa04e","","null","","","learningBlock2","","","","That was a wug.","null","","","","","",""
"html-keyboard-response","324","439661","0.0-7.0-2.25","FL","d1c4anqfzp","1366","768","0","1","0","5c5d6b55b7ce2100011fa04e","","null","","","learningBlock2","","","","<div style=""font-size:60px;""> </div>","null","FL","learning/Slide106.JPG","That was a wug.","","",""
"image-keyboard-response","325","439844","0.0-7.0-0.26","FL","d1c4anqfzp","1366","768","0","1","0","5c5d6b55b7ce2100011fa04e","","null","","","","","","","learning/Slide107.JPG","null","","","","","",""
"html-keyboard-response","326","441005","0.0-7.0-1.26","FL","d1c4anqfzp","1366","768","0","1","0","5c5d6b55b7ce2100011fa04e","","null","","","learningBlock2","","","","That was a bim.","null","","","","","",""
"html-keyboard-response","327","442025","0.0-7.0-2.26","FL","d1c4anqfzp","1366","768","0","1","0","5c5d6b55b7ce2100011fa04e","","null","","","learningBlock2","","","","<div style=""font-size:60px;""> </div>","null","FL","learning/Slide107.JPG","That was a bim.","","",""
"image-keyboard-response","328","442204","0.0-7.0-0.27","FL","d1c4anqfzp","1366","768","0","1","0","5c5d6b55b7ce2100011fa04e","","null","","","","","","","learning/Slide108.JPG","null","","","","","",""
"html-keyboard-response","329","443385","0.0-7.0-1.27","FL","d1c4anqfzp","1366","768","0","1","0","5c5d6b55b7ce2100011fa04e","","null","","","learningBlock2","","","","That was a dep.","null","","","","","",""
"html-keyboard-response","330","444404","0.0-7.0-2.27","FL","d1c4anqfzp","1366","768","0","1","0","5c5d6b55b7ce2100011fa04e","","null","","","learningBlock2","","","","<div style=""font-size:60px;""> </div>","null","FL","learning/Slide108.JPG","That was a dep.","","",""
"image-keyboard-response","331","444585","0.0-7.0-0.28","FL","d1c4anqfzp","1366","768","0","1","0","5c5d6b55b7ce2100011fa04e","","null","","","","","","","learning/Slide109.JPG","null","","","","","",""
"html-keyboard-response","332","445764","0.0-7.0-1.28","FL","d1c4anqfzp","1366","768","0","1","0","5c5d6b55b7ce2100011fa04e","","null","","","learningBlock2","","","","That was a wug.","null","","","","","",""
"html-keyboard-response","333","446785","0.0-7.0-2.28","FL","d1c4anqfzp","1366","768","0","1","0","5c5d6b55b7ce2100011fa04e","","null","","","learningBlock2","","","","<div style=""font-size:60px;""> </div>","null","FL","learning/Slide109.JPG","That was a wug.","","",""
"image-keyboard-response","334","446965","0.0-7.0-0.29","FL","d1c4anqfzp","1366","768","0","1","0","5c5d6b55b7ce2100011fa04e","","null","","","","","","","learning/Slide110.JPG","null","","","","","",""
"html-keyboard-response","335","448144","0.0-7.0-1.29","FL","d1c4anqfzp","1366","768","0","1","0","5c5d6b55b7ce2100011fa04e","","null","","","learningBlock2","","","","That was a bim.","null","","","","","",""
"html-keyboard-response","336","449164","0.0-7.0-2.29","FL","d1c4anqfzp","1366","768","0","1","0","5c5d6b55b7ce2100011fa04e","","null","","","learningBlock2","","","","<div style=""font-size:60px;""> </div>","null","FL","learning/Slide110.JPG","That was a bim.","","",""
"image-keyboard-response","337","449344","0.0-7.0-0.30","FL","d1c4anqfzp","1366","768","0","1","0","5c5d6b55b7ce2100011fa04e","","null","","","","","","","learning/Slide111.JPG","null","","","","","",""
"html-keyboard-response","338","450525","0.0-7.0-1.30","FL","d1c4anqfzp","1366","768","0","1","0","5c5d6b55b7ce2100011fa04e","","null","","","learningBlock2","","","","That was a tob.","null","","","","","",""
"html-keyboard-response","339","451545","0.0-7.0-2.30","FL","d1c4anqfzp","1366","768","0","1","0","5c5d6b55b7ce2100011fa04e","","null","","","learningBlock2","","","","<div style=""font-size:60px;""> </div>","null","FL","learning/Slide111.JPG","That was a tob.","","",""
"image-keyboard-response","340","451725","0.0-7.0-0.31","FL","d1c4anqfzp","1366","768","0","1","0","5c5d6b55b7ce2100011fa04e","","null","","","","","","","learning/Slide112.JPG","null","","","","","",""
"html-keyboard-response","341","452885","0.0-7.0-1.31","FL","d1c4anqfzp","1366","768","0","1","0","5c5d6b55b7ce2100011fa04e","","null","","","learningBlock2","","","","That was a wug.","null","","","","","",""
"html-keyboard-response","342","453903","0.0-7.0-2.31","FL","d1c4anqfzp","1366","768","0","1","0","5c5d6b55b7ce2100011fa04e","","null","","","learningBlock2","","","","<div style=""font-size:60px;""> </div>","null","FL","learning/Slide112.JPG","That was a wug.","","",""
"image-keyboard-response","343","454085","0.0-7.0-0.32","FL","d1c4anqfzp","1366","768","0","1","0","5c5d6b55b7ce2100011fa04e","","null","","","","","","","learning/Slide113.JPG","null","","","","","",""
"html-keyboard-response","344","455264","0.0-7.0-1.32","FL","d1c4anqfzp","1366","768","0","1","0","5c5d6b55b7ce2100011fa04e","","null","","","learningBlock2","","","","That was a tob.","null","","","","","",""
"html-keyboard-response","345","456284","0.0-7.0-2.32","FL","d1c4anqfzp","1366","768","0","1","0","5c5d6b55b7ce2100011fa04e","","null","","","learningBlock2","","","","<div style=""font-size:60px;""> </div>","null","FL","learning/Slide113.JPG","That was a tob.","","",""
"image-keyboard-response","346","456465","0.0-7.0-0.33","FL","d1c4anqfzp","1366","768","0","1","0","5c5d6b55b7ce2100011fa04e","","null","","","","","","","learning/Slide114.JPG","null","","","","","",""
"html-keyboard-response","347","457645","0.0-7.0-1.33","FL","d1c4anqfzp","1366","768","0","1","0","5c5d6b55b7ce2100011fa04e","","null","","","learningBlock2","","","","That was a wug.","null","","","","","",""
"html-keyboard-response","348","458665","0.0-7.0-2.33","FL","d1c4anqfzp","1366","768","0","1","0","5c5d6b55b7ce2100011fa04e","","null","","","learningBlock2","","","","<div style=""font-size:60px;""> </div>","null","FL","learning/Slide114.JPG","That was a wug.","","",""
"image-keyboard-response","349","458845","0.0-7.0-0.34","FL","d1c4anqfzp","1366","768","0","1","0","5c5d6b55b7ce2100011fa04e","","null","","","","","","","learning/Slide115.JPG","null","","","","","",""
"html-keyboard-response","350","460005","0.0-7.0-1.34","FL","d1c4anqfzp","1366","768","0","1","0","5c5d6b55b7ce2100011fa04e","","null","","","learningBlock2","","","","That was a bim.","null","","","","","",""
"html-keyboard-response","351","461024","0.0-7.0-2.34","FL","d1c4anqfzp","1366","768","0","1","0","5c5d6b55b7ce2100011fa04e","","null","","","learningBlock2","","","","<div style=""font-size:60px;""> </div>","null","FL","learning/Slide115.JPG","That was a bim.","","",""
"image-keyboard-response","352","461204","0.0-7.0-0.35","FL","d1c4anqfzp","1366","768","0","1","0","5c5d6b55b7ce2100011fa04e","","null","","","","","","","learning/Slide116.JPG","null","","","","","",""
"html-keyboard-response","353","462384","0.0-7.0-1.35","FL","d1c4anqfzp","1366","768","0","1","0","5c5d6b55b7ce2100011fa04e","","null","","","learningBlock2","","","","That was a dep.","null","","","","","",""
"html-keyboard-response","354","463395","0.0-7.0-2.35","FL","d1c4anqfzp","1366","768","0","1","0","5c5d6b55b7ce2100011fa04e","","null","","","learningBlock2","","","","<div style=""font-size:60px;""> </div>","null","FL","learning/Slide116.JPG","That was a dep.","","",""
"image-keyboard-response","355","463574","0.0-7.0-0.36","FL","d1c4anqfzp","1366","768","0","1","0","5c5d6b55b7ce2100011fa04e","","null","","","","","","","learning/Slide117.JPG","null","","","","","",""
"html-keyboard-response","356","464754","0.0-7.0-1.36","FL","d1c4anqfzp","1366","768","0","1","0","5c5d6b55b7ce2100011fa04e","","null","","","learningBlock2","","","","That was a tob.","null","","","","","",""
"html-keyboard-response","357","465774","0.0-7.0-2.36","FL","d1c4anqfzp","1366","768","0","1","0","5c5d6b55b7ce2100011fa04e","","null","","","learningBlock2","","","","<div style=""font-size:60px;""> </div>","null","FL","learning/Slide117.JPG","That was a tob.","","",""
"image-keyboard-response","358","465954","0.0-7.0-0.37","FL","d1c4anqfzp","1366","768","0","1","0","5c5d6b55b7ce2100011fa04e","","null","","","","","","","learning/Slide118.JPG","null","","","","","",""
"html-keyboard-response","359","467124","0.0-7.0-1.37","FL","d1c4anqfzp","1366","768","0","1","0","5c5d6b55b7ce2100011fa04e","","null","","","learningBlock2","","","","That was a dep.","null","","","","","",""
"html-keyboard-response","360","468144","0.0-7.0-2.37","FL","d1c4anqfzp","1366","768","0","1","0","5c5d6b55b7ce2100011fa04e","","null","","","learningBlock2","","","","<div style=""font-size:60px;""> </div>","null","FL","learning/Slide118.JPG","That was a dep.","","",""
"image-keyboard-response","361","468325","0.0-7.0-0.38","FL","d1c4anqfzp","1366","768","0","1","0","5c5d6b55b7ce2100011fa04e","","null","","","","","","","learning/Slide119.JPG","null","","","","","",""
"html-keyboard-response","362","469505","0.0-7.0-1.38","FL","d1c4anqfzp","1366","768","0","1","0","5c5d6b55b7ce2100011fa04e","","null","","","learningBlock2","","","","That was a wug.","null","","","","","",""
"html-keyboard-response","363","470524","0.0-7.0-2.38","FL","d1c4anqfzp","1366","768","0","1","0","5c5d6b55b7ce2100011fa04e","","null","","","learningBlock2","","","","<div style=""font-size:60px;""> </div>","null","FL","learning/Slide119.JPG","That was a wug.","","",""
"image-keyboard-response","364","470704","0.0-7.0-0.39","FL","d1c4anqfzp","1366","768","0","1","0","5c5d6b55b7ce2100011fa04e","","null","","","","","","","learning/Slide120.JPG","null","","","","","",""
"html-keyboard-response","365","471885","0.0-7.0-1.39","FL","d1c4anqfzp","1366","768","0","1","0","5c5d6b55b7ce2100011fa04e","","null","","","learningBlock2","","","","That was a dep.","null","","","","","",""
"html-keyboard-response","366","472905","0.0-7.0-2.39","FL","d1c4anqfzp","1366","768","0","1","0","5c5d6b55b7ce2100011fa04e","","null","","","learningBlock2","","","","<div style=""font-size:60px;""> </div>","null","FL","learning/Slide120.JPG","That was a dep.","","",""
"image-keyboard-response","367","473085","0.0-7.0-0.40","FL","d1c4anqfzp","1366","768","0","1","0","5c5d6b55b7ce2100011fa04e","","null","","","","","","","learning/Slide121.JPG","null","","","","","",""
"html-keyboard-response","368","474265","0.0-7.0-1.40","FL","d1c4anqfzp","1366","768","0","1","0","5c5d6b55b7ce2100011fa04e","","null","","","learningBlock2","","","","That was a bim.","null","","","","","",""
"html-keyboard-response","369","475285","0.0-7.0-2.40","FL","d1c4anqfzp","1366","768","0","1","0","5c5d6b55b7ce2100011fa04e","","null","","","learningBlock2","","","","<div style=""font-size:60px;""> </div>","null","FL","learning/Slide121.JPG","That was a bim.","","",""
"image-keyboard-response","370","475465","0.0-7.0-0.41","FL","d1c4anqfzp","1366","768","0","1","0","5c5d6b55b7ce2100011fa04e","","null","","","","","","","learning/Slide122.JPG","null","","","","","",""
"html-keyboard-response","371","476644","0.0-7.0-1.41","FL","d1c4anqfzp","1366","768","0","1","0","5c5d6b55b7ce2100011fa04e","","null","","","learningBlock2","","","","That was a wug.","null","","","","","",""
"html-keyboard-response","372","477665","0.0-7.0-2.41","FL","d1c4anqfzp","1366","768","0","1","0","5c5d6b55b7ce2100011fa04e","","null","","","learningBlock2","","","","<div style=""font-size:60px;""> </div>","null","FL","learning/Slide122.JPG","That was a wug.","","",""
"image-keyboard-response","373","477845","0.0-7.0-0.42","FL","d1c4anqfzp","1366","768","0","1","0","5c5d6b55b7ce2100011fa04e","","null","","","","","","","learning/Slide123.JPG","null","","","","","",""
"html-keyboard-response","374","479025","0.0-7.0-1.42","FL","d1c4anqfzp","1366","768","0","1","0","5c5d6b55b7ce2100011fa04e","","null","","","learningBlock2","","","","That was a bim.","null","","","","","",""
"html-keyboard-response","375","480045","0.0-7.0-2.42","FL","d1c4anqfzp","1366","768","0","1","0","5c5d6b55b7ce2100011fa04e","","null","","","learningBlock2","","","","<div style=""font-size:60px;""> </div>","null","FL","learning/Slide123.JPG","That was a bim.","","",""
"image-keyboard-response","376","480225","0.0-7.0-0.43","FL","d1c4anqfzp","1366","768","0","1","0","5c5d6b55b7ce2100011fa04e","","null","","","","","","","learning/Slide124.JPG","null","","","","","",""
"html-keyboard-response","377","481405","0.0-7.0-1.43","FL","d1c4anqfzp","1366","768","0","1","0","5c5d6b55b7ce2100011fa04e","","null","","","learningBlock2","","","","That was a tob.","null","","","","","",""
"html-keyboard-response","378","482425","0.0-7.0-2.43","FL","d1c4anqfzp","1366","768","0","1","0","5c5d6b55b7ce2100011fa04e","","null","","","learningBlock2","","","","<div style=""font-size:60px;""> </div>","null","FL","learning/Slide124.JPG","That was a tob.","","",""
"image-keyboard-response","379","482605","0.0-7.0-0.44","FL","d1c4anqfzp","1366","768","0","1","0","5c5d6b55b7ce2100011fa04e","","null","","","","","","","learning/Slide125.JPG","null","","","","","",""
"html-keyboard-response","380","483765","0.0-7.0-1.44","FL","d1c4anqfzp","1366","768","0","1","0","5c5d6b55b7ce2100011fa04e","","null","","","learningBlock2","","","","That was a bim.","null","","","","","",""
"html-keyboard-response","381","484785","0.0-7.0-2.44","FL","d1c4anqfzp","1366","768","0","1","0","5c5d6b55b7ce2100011fa04e","","null","","","learningBlock2","","","","<div style=""font-size:60px;""> </div>","null","FL","learning/Slide125.JPG","That was a bim.","","",""
"image-keyboard-response","382","484965","0.0-7.0-0.45","FL","d1c4anqfzp","1366","768","0","1","0","5c5d6b55b7ce2100011fa04e","","null","","","","","","","learning/Slide126.JPG","null","","","","","",""
"html-keyboard-response","383","486144","0.0-7.0-1.45","FL","d1c4anqfzp","1366","768","0","1","0","5c5d6b55b7ce2100011fa04e","","null","","","learningBlock2","","","","That was a tob.","null","","","","","",""
"html-keyboard-response","384","487165","0.0-7.0-2.45","FL","d1c4anqfzp","1366","768","0","1","0","5c5d6b55b7ce2100011fa04e","","null","","","learningBlock2","","","","<div style=""font-size:60px;""> </div>","null","FL","learning/Slide126.JPG","That was a tob.","","",""
"image-keyboard-response","385","487345","0.0-7.0-0.46","FL","d1c4anqfzp","1366","768","0","1","0","5c5d6b55b7ce2100011fa04e","","null","","","","","","","learning/Slide127.JPG","null","","","","","",""
"html-keyboard-response","386","488505","0.0-7.0-1.46","FL","d1c4anqfzp","1366","768","0","1","0","5c5d6b55b7ce2100011fa04e","","null","","","learningBlock2","","","","That was a dep.","null","","","","","",""
"html-keyboard-response","387","489524","0.0-7.0-2.46","FL","d1c4anqfzp","1366","768","0","1","0","5c5d6b55b7ce2100011fa04e","","null","","","learningBlock2","","","","<div style=""font-size:60px;""> </div>","null","FL","learning/Slide127.JPG","That was a dep.","","",""
"image-keyboard-response","388","489704","0.0-7.0-0.47","FL","d1c4anqfzp","1366","768","0","1","0","5c5d6b55b7ce2100011fa04e","","null","","","","","","","learning/Slide128.JPG","null","","","","","",""
"html-keyboard-response","389","490865","0.0-7.0-1.47","FL","d1c4anqfzp","1366","768","0","1","0","5c5d6b55b7ce2100011fa04e","","null","","","learningBlock2","","","","That was a wug.","null","","","","","",""
"html-keyboard-response","390","491884","0.0-7.0-2.47","FL","d1c4anqfzp","1366","768","0","1","0","5c5d6b55b7ce2100011fa04e","","null","","","learningBlock2","","","","<div style=""font-size:60px;""> </div>","null","FL","learning/Slide128.JPG","That was a wug.","","",""
"image-keyboard-response","391","492064","0.0-7.0-0.48","FL","d1c4anqfzp","1366","768","0","1","0","5c5d6b55b7ce2100011fa04e","","null","","","","","","","learning/Slide129.JPG","null","","","","","",""
"html-keyboard-response","392","493244","0.0-7.0-1.48","FL","d1c4anqfzp","1366","768","0","1","0","5c5d6b55b7ce2100011fa04e","","null","","","learningBlock2","","","","That was a tob.","null","","","","","",""
"html-keyboard-response","393","494264","0.0-7.0-2.48","FL","d1c4anqfzp","1366","768","0","1","0","5c5d6b55b7ce2100011fa04e","","null","","","learningBlock2","","","","<div style=""font-size:60px;""> </div>","null","FL","learning/Slide129.JPG","That was a tob.","","",""
"image-keyboard-response","394","494444","0.0-7.0-0.49","FL","d1c4anqfzp","1366","768","0","1","0","5c5d6b55b7ce2100011fa04e","","null","","","","","","","learning/Slide130.JPG","null","","","","","",""
"html-keyboard-response","395","495622","0.0-7.0-1.49","FL","d1c4anqfzp","1366","768","0","1","0","5c5d6b55b7ce2100011fa04e","","null","","","learningBlock2","","","","That was a wug.","null","","","","","",""
"html-keyboard-response","396","496624","0.0-7.0-2.49","FL","d1c4anqfzp","1366","768","0","1","0","5c5d6b55b7ce2100011fa04e","","null","","","learningBlock2","","","","<div style=""font-size:60px;""> </div>","null","FL","learning/Slide130.JPG","That was a wug.","","",""
"image-keyboard-response","397","496804","0.0-7.0-0.50","FL","d1c4anqfzp","1366","768","0","1","0","5c5d6b55b7ce2100011fa04e","","null","","","","","","","learning/Slide131.JPG","null","","","","","",""
"html-keyboard-response","398","497985","0.0-7.0-1.50","FL","d1c4anqfzp","1366","768","0","1","0","5c5d6b55b7ce2100011fa04e","","null","","","learningBlock2","","","","That was a bim.","null","","","","","",""
"html-keyboard-response","399","499005","0.0-7.0-2.50","FL","d1c4anqfzp","1366","768","0","1","0","5c5d6b55b7ce2100011fa04e","","null","","","learningBlock2","","","","<div style=""font-size:60px;""> </div>","null","FL","learning/Slide131.JPG","That was a bim.","","",""
"image-keyboard-response","400","499185","0.0-7.0-0.51","FL","d1c4anqfzp","1366","768","0","1","0","5c5d6b55b7ce2100011fa04e","","null","","","","","","","learning/Slide132.JPG","null","","","","","",""
"html-keyboard-response","401","500365","0.0-7.0-1.51","FL","d1c4anqfzp","1366","768","0","1","0","5c5d6b55b7ce2100011fa04e","","null","","","learningBlock2","","","","That was a dep.","null","","","","","",""
"html-keyboard-response","402","501385","0.0-7.0-2.51","FL","d1c4anqfzp","1366","768","0","1","0","5c5d6b55b7ce2100011fa04e","","null","","","learningBlock2","","","","<div style=""font-size:60px;""> </div>","null","FL","learning/Slide132.JPG","That was a dep.","","",""
"image-keyboard-response","403","501564","0.0-7.0-0.52","FL","d1c4anqfzp","1366","768","0","1","0","5c5d6b55b7ce2100011fa04e","","null","","","","","","","learning/Slide133.JPG","null","","","","","",""
"html-keyboard-response","404","502724","0.0-7.0-1.52","FL","d1c4anqfzp","1366","768","0","1","0","5c5d6b55b7ce2100011fa04e","","null","","","learningBlock2","","","","That was a tob.","null","","","","","",""
"html-keyboard-response","405","503741","0.0-7.0-2.52","FL","d1c4anqfzp","1366","768","0","1","0","5c5d6b55b7ce2100011fa04e","","null","","","learningBlock2","","","","<div style=""font-size:60px;""> </div>","null","FL","learning/Slide133.JPG","That was a tob.","","",""
"image-keyboard-response","406","503925","0.0-7.0-0.53","FL","d1c4anqfzp","1366","768","0","1","0","5c5d6b55b7ce2100011fa04e","","null","","","","","","","learning/Slide134.JPG","null","","","","","",""
"html-keyboard-response","407","505105","0.0-7.0-1.53","FL","d1c4anqfzp","1366","768","0","1","0","5c5d6b55b7ce2100011fa04e","","null","","","learningBlock2","","","","That was a dep.","null","","","","","",""
"html-keyboard-response","408","506125","0.0-7.0-2.53","FL","d1c4anqfzp","1366","768","0","1","0","5c5d6b55b7ce2100011fa04e","","null","","","learningBlock2","","","","<div style=""font-size:60px;""> </div>","null","FL","learning/Slide134.JPG","That was a dep.","","",""
"image-keyboard-response","409","506304","0.0-7.0-0.54","FL","d1c4anqfzp","1366","768","0","1","0","5c5d6b55b7ce2100011fa04e","","null","","","","","","","learning/Slide135.JPG","null","","","","","",""
"html-keyboard-response","410","507465","0.0-7.0-1.54","FL","d1c4anqfzp","1366","768","0","1","0","5c5d6b55b7ce2100011fa04e","","null","","","learningBlock2","","","","That was a tob.","null","","","","","",""
"html-keyboard-response","411","508484","0.0-7.0-2.54","FL","d1c4anqfzp","1366","768","0","1","0","5c5d6b55b7ce2100011fa04e","","null","","","learningBlock2","","","","<div style=""font-size:60px;""> </div>","null","FL","learning/Slide135.JPG","That was a tob.","","",""
"image-keyboard-response","412","508664","0.0-7.0-0.55","FL","d1c4anqfzp","1366","768","0","1","0","5c5d6b55b7ce2100011fa04e","","null","","","","","","","learning/Slide136.JPG","null","","","","","",""
"html-keyboard-response","413","509844","0.0-7.0-1.55","FL","d1c4anqfzp","1366","768","0","1","0","5c5d6b55b7ce2100011fa04e","","null","","","learningBlock2","","","","That was a wug.","null","","","","","",""
"html-keyboard-response","414","510865","0.0-7.0-2.55","FL","d1c4anqfzp","1366","768","0","1","0","5c5d6b55b7ce2100011fa04e","","null","","","learningBlock2","","","","<div style=""font-size:60px;""> </div>","null","FL","learning/Slide136.JPG","That was a wug.","","",""
"image-keyboard-response","415","511044","0.0-7.0-0.56","FL","d1c4anqfzp","1366","768","0","1","0","5c5d6b55b7ce2100011fa04e","","null","","","","","","","learning/Slide137.JPG","null","","","","","",""
"html-keyboard-response","416","512204","0.0-7.0-1.56","FL","d1c4anqfzp","1366","768","0","1","0","5c5d6b55b7ce2100011fa04e","","null","","","learningBlock2","","","","That was a tob.","null","","","","","",""
"html-keyboard-response","417","513225","0.0-7.0-2.56","FL","d1c4anqfzp","1366","768","0","1","0","5c5d6b55b7ce2100011fa04e","","null","","","learningBlock2","","","","<div style=""font-size:60px;""> </div>","null","FL","learning/Slide137.JPG","That was a tob.","","",""
"image-keyboard-response","418","513405","0.0-7.0-0.57","FL","d1c4anqfzp","1366","768","0","1","0","5c5d6b55b7ce2100011fa04e","","null","","","","","","","learning/Slide138.JPG","null","","","","","",""
"html-keyboard-response","419","514584","0.0-7.0-1.57","FL","d1c4anqfzp","1366","768","0","1","0","5c5d6b55b7ce2100011fa04e","","null","","","learningBlock2","","","","That was a bim.","null","","","","","",""
"html-keyboard-response","420","515605","0.0-7.0-2.57","FL","d1c4anqfzp","1366","768","0","1","0","5c5d6b55b7ce2100011fa04e","","null","","","learningBlock2","","","","<div style=""font-size:60px;""> </div>","null","FL","learning/Slide138.JPG","That was a bim.","","",""
"image-keyboard-response","421","515785","0.0-7.0-0.58","FL","d1c4anqfzp","1366","768","0","1","0","5c5d6b55b7ce2100011fa04e","","null","","","","","","","learning/Slide139.JPG","null","","","","","",""
"html-keyboard-response","422","516944","0.0-7.0-1.58","FL","d1c4anqfzp","1366","768","0","1","0","5c5d6b55b7ce2100011fa04e","","null","","","learningBlock2","","","","That was a wug.","null","","","","","",""
"html-keyboard-response","423","517965","0.0-7.0-2.58","FL","d1c4anqfzp","1366","768","0","1","0","5c5d6b55b7ce2100011fa04e","","null","","","learningBlock2","","","","<div style=""font-size:60px;""> </div>","null","FL","learning/Slide139.JPG","That was a wug.","","",""
"image-keyboard-response","424","518145","0.0-7.0-0.59","FL","d1c4anqfzp","1366","768","0","1","0","5c5d6b55b7ce2100011fa04e","","null","","","","","","","learning/Slide140.JPG","null","","","","","",""
"html-keyboard-response","425","519325","0.0-7.0-1.59","FL","d1c4anqfzp","1366","768","0","1","0","5c5d6b55b7ce2100011fa04e","","null","","","learningBlock2","","","","That was a dep.","null","","","","","",""
"html-keyboard-response","426","520345","0.0-7.0-2.59","FL","d1c4anqfzp","1366","768","0","1","0","5c5d6b55b7ce2100011fa04e","","null","","","learningBlock2","","","","<div style=""font-size:60px;""> </div>","null","FL","learning/Slide140.JPG","That was a dep.","","",""
"image-keyboard-response","427","520524","0.0-7.0-0.60","FL","d1c4anqfzp","1366","768","0","1","0","5c5d6b55b7ce2100011fa04e","","null","","","","","","","learning/Slide141.JPG","null","","","","","",""
"html-keyboard-response","428","521705","0.0-7.0-1.60","FL","d1c4anqfzp","1366","768","0","1","0","5c5d6b55b7ce2100011fa04e","","null","","","learningBlock2","","","","That was a tob.","null","","","","","",""
"html-keyboard-response","429","522725","0.0-7.0-2.60","FL","d1c4anqfzp","1366","768","0","1","0","5c5d6b55b7ce2100011fa04e","","null","","","learningBlock2","","","","<div style=""font-size:60px;""> </div>","null","FL","learning/Slide141.JPG","That was a tob.","","",""
"image-keyboard-response","430","522905","0.0-7.0-0.61","FL","d1c4anqfzp","1366","768","0","1","0","5c5d6b55b7ce2100011fa04e","","null","","","","","","","learning/Slide142.JPG","null","","","","","",""
"html-keyboard-response","431","524085","0.0-7.0-1.61","FL","d1c4anqfzp","1366","768","0","1","0","5c5d6b55b7ce2100011fa04e","","null","","","learningBlock2","","","","That was a wug.","null","","","","","",""
"html-keyboard-response","432","525105","0.0-7.0-2.61","FL","d1c4anqfzp","1366","768","0","1","0","5c5d6b55b7ce2100011fa04e","","null","","","learningBlock2","","","","<div style=""font-size:60px;""> </div>","null","FL","learning/Slide142.JPG","That was a wug.","","",""
"image-keyboard-response","433","525284","0.0-7.0-0.62","FL","d1c4anqfzp","1366","768","0","1","0","5c5d6b55b7ce2100011fa04e","","null","","","","","","","learning/Slide143.JPG","null","","","","","",""
"html-keyboard-response","434","526465","0.0-7.0-1.62","FL","d1c4anqfzp","1366","768","0","1","0","5c5d6b55b7ce2100011fa04e","","null","","","learningBlock2","","","","That was a bim.","null","","","","","",""
"html-keyboard-response","435","527485","0.0-7.0-2.62","FL","d1c4anqfzp","1366","768","0","1","0","5c5d6b55b7ce2100011fa04e","","null","","","learningBlock2","","","","<div style=""font-size:60px;""> </div>","null","FL","learning/Slide143.JPG","That was a bim.","","",""
"image-keyboard-response","436","527665","0.0-7.0-0.63","FL","d1c4anqfzp","1366","768","0","1","0","5c5d6b55b7ce2100011fa04e","","null","","","","","","","learning/Slide144.JPG","null","","","","","",""
"html-keyboard-response","437","528825","0.0-7.0-1.63","FL","d1c4anqfzp","1366","768","0","1","0","5c5d6b55b7ce2100011fa04e","","null","","","learningBlock2","","","","That was a dep.","null","","","","","",""
