"trial_type","trial_index","time_elapsed","internal_node_id","condition","subject","screen_width","screen_height","attention","distraction","conscientious","prolificID","success","rt","url","view_history","test_part","final_height_px","final_width_px","scale_factor","stimulus","key_press","learningType","presentedImage","presentedLabel","button_pressed","response","responses"
"pavlovia","0","10","0.0-0.0","LF","z4xhznw88z","1920","1080","0","1","0","5fae68d5b74c182cacbe5d6a","","","","","","","","","","","","","","","",""
"fullscreen","1","43500","0.0-1.0","LF","z4xhznw88z","1920","1080","0","1","0","5fae68d5b74c182cacbe5d6a","true","","","","","","","","","","","","","","",""
"external-html","2","91271","0.0-2.0-0.0","LF","z4xhznw88z","1920","1080","0","1","0","5fae68d5b74c182cacbe5d6a","","47736.51500000051","text/information_english.html","","","","","","","","","","","","",""
"external-html","3","113308","0.0-2.0-1.0","LF","z4xhznw88z","1920","1080","0","1","0","5fae68d5b74c182cacbe5d6a","","22004.730000000563","text/consent_english.html","","","","","","","","","","","","",""
"instructions","4","133541","0.0-3.0","LF","z4xhznw88z","1920","1080","0","1","0","5fae68d5b74c182cacbe5d6a","","NA","","[{""page_index"":0,""viewing_time"":4156.374999998661},{""page_index"":1,""viewing_time"":16073.760000002949}]","instructions","","","","","","","","","","",""
"resize","5","201670","0.0-4.0","LF","z4xhznw88z","1920","1080","0","1","0","5fae68d5b74c182cacbe5d6a","","","","","","","316","2.0063492063492063","","","","","","","",""
"html-keyboard-response","6","202674","0.0-5.0-0.0","LF","z4xhznw88z","1920","1080","0","1","0","5fae68d5b74c182cacbe5d6a","","null","","","learningBlock1","","","","This is a tob:","null","","","","","",""
"image-keyboard-response","7","203005","0.0-5.0-1.0","LF","z4xhznw88z","1920","1080","0","1","0","5fae68d5b74c182cacbe5d6a","","null","","","","","","","learning/Slide1.JPG","null","","","","","",""
"html-keyboard-response","8","204020","0.0-5.0-2.0","LF","z4xhznw88z","1920","1080","0","1","0","5fae68d5b74c182cacbe5d6a","","null","","","learningBlock1","","","","<div style=""font-size:60px;""> </div>","null","LF","learning/Slide1.JPG","This is a tob:","","",""
"html-keyboard-response","9","205024","0.0-5.0-0.1","LF","z4xhznw88z","1920","1080","0","1","0","5fae68d5b74c182cacbe5d6a","","null","","","learningBlock1","","","","This is a wug:","null","","","","","",""
"image-keyboard-response","10","205367","0.0-5.0-1.1","LF","z4xhznw88z","1920","1080","0","1","0","5fae68d5b74c182cacbe5d6a","","null","","","","","","","learning/Slide2.JPG","null","","","","","",""
"html-keyboard-response","11","206370","0.0-5.0-2.1","LF","z4xhznw88z","1920","1080","0","1","0","5fae68d5b74c182cacbe5d6a","","null","","","learningBlock1","","","","<div style=""font-size:60px;""> </div>","null","LF","learning/Slide2.JPG","This is a wug:","","",""
"html-keyboard-response","12","207371","0.0-5.0-0.2","LF","z4xhznw88z","1920","1080","0","1","0","5fae68d5b74c182cacbe5d6a","","null","","","learningBlock1","","","","This is a bim:","null","","","","","",""
"image-keyboard-response","13","207698","0.0-5.0-1.2","LF","z4xhznw88z","1920","1080","0","1","0","5fae68d5b74c182cacbe5d6a","","null","","","","","","","learning/Slide3.JPG","null","","","","","",""
"html-keyboard-response","14","208704","0.0-5.0-2.2","LF","z4xhznw88z","1920","1080","0","1","0","5fae68d5b74c182cacbe5d6a","","null","","","learningBlock1","","","","<div style=""font-size:60px;""> </div>","null","LF","learning/Slide3.JPG","This is a bim:","","",""
"html-keyboard-response","15","209714","0.0-5.0-0.3","LF","z4xhznw88z","1920","1080","0","1","0","5fae68d5b74c182cacbe5d6a","","null","","","learningBlock1","","","","This is a dep:","null","","","","","",""
"image-keyboard-response","16","210074","0.0-5.0-1.3","LF","z4xhznw88z","1920","1080","0","1","0","5fae68d5b74c182cacbe5d6a","","null","","","","","","","learning/Slide4.JPG","null","","","","","",""
"html-keyboard-response","17","211086","0.0-5.0-2.3","LF","z4xhznw88z","1920","1080","0","1","0","5fae68d5b74c182cacbe5d6a","","null","","","learningBlock1","","","","<div style=""font-size:60px;""> </div>","null","LF","learning/Slide4.JPG","This is a dep:","","",""
"html-keyboard-response","18","212094","0.0-5.0-0.4","LF","z4xhznw88z","1920","1080","0","1","0","5fae68d5b74c182cacbe5d6a","","null","","","learningBlock1","","","","This is a wug:","null","","","","","",""
"image-keyboard-response","19","212430","0.0-5.0-1.4","LF","z4xhznw88z","1920","1080","0","1","0","5fae68d5b74c182cacbe5d6a","","null","","","","","","","learning/Slide5.JPG","null","","","","","",""
"html-keyboard-response","20","213439","0.0-5.0-2.4","LF","z4xhznw88z","1920","1080","0","1","0","5fae68d5b74c182cacbe5d6a","","null","","","learningBlock1","","","","<div style=""font-size:60px;""> </div>","null","LF","learning/Slide5.JPG","This is a wug:","","",""
"html-keyboard-response","21","214456","0.0-5.0-0.5","LF","z4xhznw88z","1920","1080","0","1","0","5fae68d5b74c182cacbe5d6a","","null","","","learningBlock1","","","","This is a dep:","null","","","","","",""
"image-keyboard-response","22","214794","0.0-5.0-1.5","LF","z4xhznw88z","1920","1080","0","1","0","5fae68d5b74c182cacbe5d6a","","null","","","","","","","learning/Slide6.JPG","null","","","","","",""
"html-keyboard-response","23","215807","0.0-5.0-2.5","LF","z4xhznw88z","1920","1080","0","1","0","5fae68d5b74c182cacbe5d6a","","null","","","learningBlock1","","","","<div style=""font-size:60px;""> </div>","null","LF","learning/Slide6.JPG","This is a dep:","","",""
"html-keyboard-response","24","216814","0.0-5.0-0.6","LF","z4xhznw88z","1920","1080","0","1","0","5fae68d5b74c182cacbe5d6a","","null","","","learningBlock1","","","","This is a wug:","null","","","","","",""
"image-keyboard-response","25","217154","0.0-5.0-1.6","LF","z4xhznw88z","1920","1080","0","1","0","5fae68d5b74c182cacbe5d6a","","null","","","","","","","learning/Slide7.JPG","null","","","","","",""
"html-keyboard-response","26","218164","0.0-5.0-2.6","LF","z4xhznw88z","1920","1080","0","1","0","5fae68d5b74c182cacbe5d6a","","null","","","learningBlock1","","","","<div style=""font-size:60px;""> </div>","null","LF","learning/Slide7.JPG","This is a wug:","","",""
"html-keyboard-response","27","219174","0.0-5.0-0.7","LF","z4xhznw88z","1920","1080","0","1","0","5fae68d5b74c182cacbe5d6a","","null","","","learningBlock1","","","","This is a bim:","null","","","","","",""
"image-keyboard-response","28","219519","0.0-5.0-1.7","LF","z4xhznw88z","1920","1080","0","1","0","5fae68d5b74c182cacbe5d6a","","null","","","","","","","learning/Slide8.JPG","null","","","","","",""
"html-keyboard-response","29","220532","0.0-5.0-2.7","LF","z4xhznw88z","1920","1080","0","1","0","5fae68d5b74c182cacbe5d6a","","null","","","learningBlock1","","","","<div style=""font-size:60px;""> </div>","null","LF","learning/Slide8.JPG","This is a bim:","","",""
"html-keyboard-response","30","221537","0.0-5.0-0.8","LF","z4xhznw88z","1920","1080","0","1","0","5fae68d5b74c182cacbe5d6a","","null","","","learningBlock1","","","","This is a wug:","null","","","","","",""
"image-keyboard-response","31","221877","0.0-5.0-1.8","LF","z4xhznw88z","1920","1080","0","1","0","5fae68d5b74c182cacbe5d6a","","null","","","","","","","learning/Slide9.JPG","null","","","","","",""
"html-keyboard-response","32","222879","0.0-5.0-2.8","LF","z4xhznw88z","1920","1080","0","1","0","5fae68d5b74c182cacbe5d6a","","null","","","learningBlock1","","","","<div style=""font-size:60px;""> </div>","null","LF","learning/Slide9.JPG","This is a wug:","","",""
"html-keyboard-response","33","223881","0.0-5.0-0.9","LF","z4xhznw88z","1920","1080","0","1","0","5fae68d5b74c182cacbe5d6a","","null","","","learningBlock1","","","","This is a dep:","null","","","","","",""
"image-keyboard-response","34","224228","0.0-5.0-1.9","LF","z4xhznw88z","1920","1080","0","1","0","5fae68d5b74c182cacbe5d6a","","null","","","","","","","learning/Slide10.JPG","null","","","","","",""
"html-keyboard-response","35","225233","0.0-5.0-2.9","LF","z4xhznw88z","1920","1080","0","1","0","5fae68d5b74c182cacbe5d6a","","null","","","learningBlock1","","","","<div style=""font-size:60px;""> </div>","null","LF","learning/Slide10.JPG","This is a dep:","","",""
"html-keyboard-response","36","226235","0.0-5.0-0.10","LF","z4xhznw88z","1920","1080","0","1","0","5fae68d5b74c182cacbe5d6a","","null","","","learningBlock1","","","","This is a tob:","null","","","","","",""
"image-keyboard-response","37","226577","0.0-5.0-1.10","LF","z4xhznw88z","1920","1080","0","1","0","5fae68d5b74c182cacbe5d6a","","null","","","","","","","learning/Slide11.JPG","null","","","","","",""
"html-keyboard-response","38","227586","0.0-5.0-2.10","LF","z4xhznw88z","1920","1080","0","1","0","5fae68d5b74c182cacbe5d6a","","null","","","learningBlock1","","","","<div style=""font-size:60px;""> </div>","null","LF","learning/Slide11.JPG","This is a tob:","","",""
"html-keyboard-response","39","228596","0.0-5.0-0.11","LF","z4xhznw88z","1920","1080","0","1","0","5fae68d5b74c182cacbe5d6a","","null","","","learningBlock1","","","","This is a dep:","null","","","","","",""
"image-keyboard-response","40","228923","0.0-5.0-1.11","LF","z4xhznw88z","1920","1080","0","1","0","5fae68d5b74c182cacbe5d6a","","null","","","","","","","learning/Slide12.JPG","null","","","","","",""
"html-keyboard-response","41","229938","0.0-5.0-2.11","LF","z4xhznw88z","1920","1080","0","1","0","5fae68d5b74c182cacbe5d6a","","null","","","learningBlock1","","","","<div style=""font-size:60px;""> </div>","null","LF","learning/Slide12.JPG","This is a dep:","","",""
"html-keyboard-response","42","230954","0.0-5.0-0.12","LF","z4xhznw88z","1920","1080","0","1","0","5fae68d5b74c182cacbe5d6a","","null","","","learningBlock1","","","","This is a bim:","null","","","","","",""
"image-keyboard-response","43","231288","0.0-5.0-1.12","LF","z4xhznw88z","1920","1080","0","1","0","5fae68d5b74c182cacbe5d6a","","null","","","","","","","learning/Slide13.JPG","null","","","","","",""
"html-keyboard-response","44","232298","0.0-5.0-2.12","LF","z4xhznw88z","1920","1080","0","1","0","5fae68d5b74c182cacbe5d6a","","null","","","learningBlock1","","","","<div style=""font-size:60px;""> </div>","null","LF","learning/Slide13.JPG","This is a bim:","","",""
"html-keyboard-response","45","233303","0.0-5.0-0.13","LF","z4xhznw88z","1920","1080","0","1","0","5fae68d5b74c182cacbe5d6a","","null","","","learningBlock1","","","","This is a wug:","null","","","","","",""
"image-keyboard-response","46","233647","0.0-5.0-1.13","LF","z4xhznw88z","1920","1080","0","1","0","5fae68d5b74c182cacbe5d6a","","null","","","","","","","learning/Slide14.JPG","null","","","","","",""
"html-keyboard-response","47","234649","0.0-5.0-2.13","LF","z4xhznw88z","1920","1080","0","1","0","5fae68d5b74c182cacbe5d6a","","null","","","learningBlock1","","","","<div style=""font-size:60px;""> </div>","null","LF","learning/Slide14.JPG","This is a wug:","","",""
"html-keyboard-response","48","235662","0.0-5.0-0.14","LF","z4xhznw88z","1920","1080","0","1","0","5fae68d5b74c182cacbe5d6a","","null","","","learningBlock1","","","","This is a tob:","null","","","","","",""
"image-keyboard-response","49","235993","0.0-5.0-1.14","LF","z4xhznw88z","1920","1080","0","1","0","5fae68d5b74c182cacbe5d6a","","null","","","","","","","learning/Slide15.JPG","null","","","","","",""
"html-keyboard-response","50","237006","0.0-5.0-2.14","LF","z4xhznw88z","1920","1080","0","1","0","5fae68d5b74c182cacbe5d6a","","null","","","learningBlock1","","","","<div style=""font-size:60px;""> </div>","null","LF","learning/Slide15.JPG","This is a tob:","","",""
"html-keyboard-response","51","238016","0.0-5.0-0.15","LF","z4xhznw88z","1920","1080","0","1","0","5fae68d5b74c182cacbe5d6a","","null","","","learningBlock1","","","","This is a dep:","null","","","","","",""
"image-keyboard-response","52","238368","0.0-5.0-1.15","LF","z4xhznw88z","1920","1080","0","1","0","5fae68d5b74c182cacbe5d6a","","null","","","","","","","learning/Slide16.JPG","null","","","","","",""
"html-keyboard-response","53","239383","0.0-5.0-2.15","LF","z4xhznw88z","1920","1080","0","1","0","5fae68d5b74c182cacbe5d6a","","null","","","learningBlock1","","","","<div style=""font-size:60px;""> </div>","null","LF","learning/Slide16.JPG","This is a dep:","","",""
"html-keyboard-response","54","240390","0.0-5.0-0.16","LF","z4xhznw88z","1920","1080","0","1","0","5fae68d5b74c182cacbe5d6a","","null","","","learningBlock1","","","","This is a bim:","null","","","","","",""
"image-keyboard-response","55","240722","0.0-5.0-1.16","LF","z4xhznw88z","1920","1080","0","1","0","5fae68d5b74c182cacbe5d6a","","null","","","","","","","learning/Slide17.JPG","null","","","","","",""
"html-keyboard-response","56","241729","0.0-5.0-2.16","LF","z4xhznw88z","1920","1080","0","1","0","5fae68d5b74c182cacbe5d6a","","null","","","learningBlock1","","","","<div style=""font-size:60px;""> </div>","null","LF","learning/Slide17.JPG","This is a bim:","","",""
"html-keyboard-response","57","242732","0.0-5.0-0.17","LF","z4xhznw88z","1920","1080","0","1","0","5fae68d5b74c182cacbe5d6a","","null","","","learningBlock1","","","","This is a tob:","null","","","","","",""
"image-keyboard-response","58","243068","0.0-5.0-1.17","LF","z4xhznw88z","1920","1080","0","1","0","5fae68d5b74c182cacbe5d6a","","null","","","","","","","learning/Slide18.JPG","null","","","","","",""
"html-keyboard-response","59","244078","0.0-5.0-2.17","LF","z4xhznw88z","1920","1080","0","1","0","5fae68d5b74c182cacbe5d6a","","null","","","learningBlock1","","","","<div style=""font-size:60px;""> </div>","null","LF","learning/Slide18.JPG","This is a tob:","","",""
"html-keyboard-response","60","245081","0.0-5.0-0.18","LF","z4xhznw88z","1920","1080","0","1","0","5fae68d5b74c182cacbe5d6a","","null","","","learningBlock1","","","","This is a wug:","null","","","","","",""
"image-keyboard-response","61","245415","0.0-5.0-1.18","LF","z4xhznw88z","1920","1080","0","1","0","5fae68d5b74c182cacbe5d6a","","null","","","","","","","learning/Slide19.JPG","null","","","","","",""
"html-keyboard-response","62","246429","0.0-5.0-2.18","LF","z4xhznw88z","1920","1080","0","1","0","5fae68d5b74c182cacbe5d6a","","null","","","learningBlock1","","","","<div style=""font-size:60px;""> </div>","null","LF","learning/Slide19.JPG","This is a wug:","","",""
"html-keyboard-response","63","247433","0.0-5.0-0.19","LF","z4xhznw88z","1920","1080","0","1","0","5fae68d5b74c182cacbe5d6a","","null","","","learningBlock1","","","","This is a bim:","null","","","","","",""
"image-keyboard-response","64","247775","0.0-5.0-1.19","LF","z4xhznw88z","1920","1080","0","1","0","5fae68d5b74c182cacbe5d6a","","null","","","","","","","learning/Slide20.JPG","null","","","","","",""
"html-keyboard-response","65","248791","0.0-5.0-2.19","LF","z4xhznw88z","1920","1080","0","1","0","5fae68d5b74c182cacbe5d6a","","null","","","learningBlock1","","","","<div style=""font-size:60px;""> </div>","null","LF","learning/Slide20.JPG","This is a bim:","","",""
"html-keyboard-response","66","249793","0.0-5.0-0.20","LF","z4xhznw88z","1920","1080","0","1","0","5fae68d5b74c182cacbe5d6a","","null","","","learningBlock1","","","","This is a dep:","null","","","","","",""
"image-keyboard-response","67","250140","0.0-5.0-1.20","LF","z4xhznw88z","1920","1080","0","1","0","5fae68d5b74c182cacbe5d6a","","null","","","","","","","learning/Slide21.JPG","null","","","","","",""
"html-keyboard-response","68","251141","0.0-5.0-2.20","LF","z4xhznw88z","1920","1080","0","1","0","5fae68d5b74c182cacbe5d6a","","null","","","learningBlock1","","","","<div style=""font-size:60px;""> </div>","null","LF","learning/Slide21.JPG","This is a dep:","","",""
"html-keyboard-response","69","252155","0.0-5.0-0.21","LF","z4xhznw88z","1920","1080","0","1","0","5fae68d5b74c182cacbe5d6a","","null","","","learningBlock1","","","","This is a bim:","null","","","","","",""
"image-keyboard-response","70","252497","0.0-5.0-1.21","LF","z4xhznw88z","1920","1080","0","1","0","5fae68d5b74c182cacbe5d6a","","null","","","","","","","learning/Slide22.JPG","null","","","","","",""
"html-keyboard-response","71","253507","0.0-5.0-2.21","LF","z4xhznw88z","1920","1080","0","1","0","5fae68d5b74c182cacbe5d6a","","null","","","learningBlock1","","","","<div style=""font-size:60px;""> </div>","null","LF","learning/Slide22.JPG","This is a bim:","","",""
"html-keyboard-response","72","254514","0.0-5.0-0.22","LF","z4xhznw88z","1920","1080","0","1","0","5fae68d5b74c182cacbe5d6a","","null","","","learningBlock1","","","","This is a tob:","null","","","","","",""
"image-keyboard-response","73","254861","0.0-5.0-1.22","LF","z4xhznw88z","1920","1080","0","1","0","5fae68d5b74c182cacbe5d6a","","null","","","","","","","learning/Slide23.JPG","null","","","","","",""
"html-keyboard-response","74","255866","0.0-5.0-2.22","LF","z4xhznw88z","1920","1080","0","1","0","5fae68d5b74c182cacbe5d6a","","null","","","learningBlock1","","","","<div style=""font-size:60px;""> </div>","null","LF","learning/Slide23.JPG","This is a tob:","","",""
"html-keyboard-response","75","256873","0.0-5.0-0.23","LF","z4xhznw88z","1920","1080","0","1","0","5fae68d5b74c182cacbe5d6a","","null","","","learningBlock1","","","","This is a wug:","null","","","","","",""
"image-keyboard-response","76","257213","0.0-5.0-1.23","LF","z4xhznw88z","1920","1080","0","1","0","5fae68d5b74c182cacbe5d6a","","null","","","","","","","learning/Slide24.JPG","null","","","","","",""
"html-keyboard-response","77","258221","0.0-5.0-2.23","LF","z4xhznw88z","1920","1080","0","1","0","5fae68d5b74c182cacbe5d6a","","null","","","learningBlock1","","","","<div style=""font-size:60px;""> </div>","null","LF","learning/Slide24.JPG","This is a wug:","","",""
"html-keyboard-response","78","259226","0.0-5.0-0.24","LF","z4xhznw88z","1920","1080","0","1","0","5fae68d5b74c182cacbe5d6a","","null","","","learningBlock1","","","","This is a dep:","null","","","","","",""
"image-keyboard-response","79","259553","0.0-5.0-1.24","LF","z4xhznw88z","1920","1080","0","1","0","5fae68d5b74c182cacbe5d6a","","null","","","","","","","learning/Slide25.JPG","null","","","","","",""
"html-keyboard-response","80","260555","0.0-5.0-2.24","LF","z4xhznw88z","1920","1080","0","1","0","5fae68d5b74c182cacbe5d6a","","null","","","learningBlock1","","","","<div style=""font-size:60px;""> </div>","null","LF","learning/Slide25.JPG","This is a dep:","","",""
"html-keyboard-response","81","261570","0.0-5.0-0.25","LF","z4xhznw88z","1920","1080","0","1","0","5fae68d5b74c182cacbe5d6a","","null","","","learningBlock1","","","","This is a wug:","null","","","","","",""
"image-keyboard-response","82","261901","0.0-5.0-1.25","LF","z4xhznw88z","1920","1080","0","1","0","5fae68d5b74c182cacbe5d6a","","null","","","","","","","learning/Slide26.JPG","null","","","","","",""
"html-keyboard-response","83","262916","0.0-5.0-2.25","LF","z4xhznw88z","1920","1080","0","1","0","5fae68d5b74c182cacbe5d6a","","null","","","learningBlock1","","","","<div style=""font-size:60px;""> </div>","null","LF","learning/Slide26.JPG","This is a wug:","","",""
"html-keyboard-response","84","263919","0.0-5.0-0.26","LF","z4xhznw88z","1920","1080","0","1","0","5fae68d5b74c182cacbe5d6a","","null","","","learningBlock1","","","","This is a bim:","null","","","","","",""
"image-keyboard-response","85","264245","0.0-5.0-1.26","LF","z4xhznw88z","1920","1080","0","1","0","5fae68d5b74c182cacbe5d6a","","null","","","","","","","learning/Slide27.JPG","null","","","","","",""
"html-keyboard-response","86","265251","0.0-5.0-2.26","LF","z4xhznw88z","1920","1080","0","1","0","5fae68d5b74c182cacbe5d6a","","null","","","learningBlock1","","","","<div style=""font-size:60px;""> </div>","null","LF","learning/Slide27.JPG","This is a bim:","","",""
"html-keyboard-response","87","266259","0.0-5.0-0.27","LF","z4xhznw88z","1920","1080","0","1","0","5fae68d5b74c182cacbe5d6a","","null","","","learningBlock1","","","","This is a dep:","null","","","","","",""
"image-keyboard-response","88","266589","0.0-5.0-1.27","LF","z4xhznw88z","1920","1080","0","1","0","5fae68d5b74c182cacbe5d6a","","null","","","","","","","learning/Slide28.JPG","null","","","","","",""
"html-keyboard-response","89","267597","0.0-5.0-2.27","LF","z4xhznw88z","1920","1080","0","1","0","5fae68d5b74c182cacbe5d6a","","null","","","learningBlock1","","","","<div style=""font-size:60px;""> </div>","null","LF","learning/Slide28.JPG","This is a dep:","","",""
"html-keyboard-response","90","268603","0.0-5.0-0.28","LF","z4xhznw88z","1920","1080","0","1","0","5fae68d5b74c182cacbe5d6a","","null","","","learningBlock1","","","","This is a tob:","null","","","","","",""
"image-keyboard-response","91","268942","0.0-5.0-1.28","LF","z4xhznw88z","1920","1080","0","1","0","5fae68d5b74c182cacbe5d6a","","null","","","","","","","learning/Slide29.JPG","null","","","","","",""
"html-keyboard-response","92","269949","0.0-5.0-2.28","LF","z4xhznw88z","1920","1080","0","1","0","5fae68d5b74c182cacbe5d6a","","null","","","learningBlock1","","","","<div style=""font-size:60px;""> </div>","null","LF","learning/Slide29.JPG","This is a tob:","","",""
"html-keyboard-response","93","270957","0.0-5.0-0.29","LF","z4xhznw88z","1920","1080","0","1","0","5fae68d5b74c182cacbe5d6a","","null","","","learningBlock1","","","","This is a dep:","null","","","","","",""
"image-keyboard-response","94","271286","0.0-5.0-1.29","LF","z4xhznw88z","1920","1080","0","1","0","5fae68d5b74c182cacbe5d6a","","null","","","","","","","learning/Slide30.JPG","null","","","","","",""
"html-keyboard-response","95","272298","0.0-5.0-2.29","LF","z4xhznw88z","1920","1080","0","1","0","5fae68d5b74c182cacbe5d6a","","null","","","learningBlock1","","","","<div style=""font-size:60px;""> </div>","null","LF","learning/Slide30.JPG","This is a dep:","","",""
"html-keyboard-response","96","273303","0.0-5.0-0.30","LF","z4xhznw88z","1920","1080","0","1","0","5fae68d5b74c182cacbe5d6a","","null","","","learningBlock1","","","","This is a wug:","null","","","","","",""
"image-keyboard-response","97","273631","0.0-5.0-1.30","LF","z4xhznw88z","1920","1080","0","1","0","5fae68d5b74c182cacbe5d6a","","null","","","","","","","learning/Slide31.JPG","null","","","","","",""
"html-keyboard-response","98","274638","0.0-5.0-2.30","LF","z4xhznw88z","1920","1080","0","1","0","5fae68d5b74c182cacbe5d6a","","null","","","learningBlock1","","","","<div style=""font-size:60px;""> </div>","null","LF","learning/Slide31.JPG","This is a wug:","","",""
"html-keyboard-response","99","275653","0.0-5.0-0.31","LF","z4xhznw88z","1920","1080","0","1","0","5fae68d5b74c182cacbe5d6a","","null","","","learningBlock1","","","","This is a tob:","null","","","","","",""
"image-keyboard-response","100","275989","0.0-5.0-1.31","LF","z4xhznw88z","1920","1080","0","1","0","5fae68d5b74c182cacbe5d6a","","null","","","","","","","learning/Slide32.JPG","null","","","","","",""
"html-keyboard-response","101","277000","0.0-5.0-2.31","LF","z4xhznw88z","1920","1080","0","1","0","5fae68d5b74c182cacbe5d6a","","null","","","learningBlock1","","","","<div style=""font-size:60px;""> </div>","null","LF","learning/Slide32.JPG","This is a tob:","","",""
"html-keyboard-response","102","278013","0.0-5.0-0.32","LF","z4xhznw88z","1920","1080","0","1","0","5fae68d5b74c182cacbe5d6a","","null","","","learningBlock1","","","","This is a bim:","null","","","","","",""
"image-keyboard-response","103","278348","0.0-5.0-1.32","LF","z4xhznw88z","1920","1080","0","1","0","5fae68d5b74c182cacbe5d6a","","null","","","","","","","learning/Slide33.JPG","null","","","","","",""
"html-keyboard-response","104","279363","0.0-5.0-2.32","LF","z4xhznw88z","1920","1080","0","1","0","5fae68d5b74c182cacbe5d6a","","null","","","learningBlock1","","","","<div style=""font-size:60px;""> </div>","null","LF","learning/Slide33.JPG","This is a bim:","","",""
"html-keyboard-response","105","280365","0.0-5.0-0.33","LF","z4xhznw88z","1920","1080","0","1","0","5fae68d5b74c182cacbe5d6a","","null","","","learningBlock1","","","","This is a tob:","null","","","","","",""
"image-keyboard-response","106","280692","0.0-5.0-1.33","LF","z4xhznw88z","1920","1080","0","1","0","5fae68d5b74c182cacbe5d6a","","null","","","","","","","learning/Slide34.JPG","null","","","","","",""
"html-keyboard-response","107","281697","0.0-5.0-2.33","LF","z4xhznw88z","1920","1080","0","1","0","5fae68d5b74c182cacbe5d6a","","null","","","learningBlock1","","","","<div style=""font-size:60px;""> </div>","null","LF","learning/Slide34.JPG","This is a tob:","","",""
"html-keyboard-response","108","282710","0.0-5.0-0.34","LF","z4xhznw88z","1920","1080","0","1","0","5fae68d5b74c182cacbe5d6a","","null","","","learningBlock1","","","","This is a bim:","null","","","","","",""
"image-keyboard-response","109","283052","0.0-5.0-1.34","LF","z4xhznw88z","1920","1080","0","1","0","5fae68d5b74c182cacbe5d6a","","null","","","","","","","learning/Slide35.JPG","null","","","","","",""
"html-keyboard-response","110","284056","0.0-5.0-2.34","LF","z4xhznw88z","1920","1080","0","1","0","5fae68d5b74c182cacbe5d6a","","null","","","learningBlock1","","","","<div style=""font-size:60px;""> </div>","null","LF","learning/Slide35.JPG","This is a bim:","","",""
"html-keyboard-response","111","285062","0.0-5.0-0.35","LF","z4xhznw88z","1920","1080","0","1","0","5fae68d5b74c182cacbe5d6a","","null","","","learningBlock1","","","","This is a dep:","null","","","","","",""
"image-keyboard-response","112","285404","0.0-5.0-1.35","LF","z4xhznw88z","1920","1080","0","1","0","5fae68d5b74c182cacbe5d6a","","null","","","","","","","learning/Slide36.JPG","null","","","","","",""
"html-keyboard-response","113","286409","0.0-5.0-2.35","LF","z4xhznw88z","1920","1080","0","1","0","5fae68d5b74c182cacbe5d6a","","null","","","learningBlock1","","","","<div style=""font-size:60px;""> </div>","null","LF","learning/Slide36.JPG","This is a dep:","","",""
"html-keyboard-response","114","287422","0.0-5.0-0.36","LF","z4xhznw88z","1920","1080","0","1","0","5fae68d5b74c182cacbe5d6a","","null","","","learningBlock1","","","","This is a tob:","null","","","","","",""
"image-keyboard-response","115","287755","0.0-5.0-1.36","LF","z4xhznw88z","1920","1080","0","1","0","5fae68d5b74c182cacbe5d6a","","null","","","","","","","learning/Slide37.JPG","null","","","","","",""
"html-keyboard-response","116","288756","0.0-5.0-2.36","LF","z4xhznw88z","1920","1080","0","1","0","5fae68d5b74c182cacbe5d6a","","null","","","learningBlock1","","","","<div style=""font-size:60px;""> </div>","null","LF","learning/Slide37.JPG","This is a tob:","","",""
"html-keyboard-response","117","289757","0.0-5.0-0.37","LF","z4xhznw88z","1920","1080","0","1","0","5fae68d5b74c182cacbe5d6a","","null","","","learningBlock1","","","","This is a wug:","null","","","","","",""
"image-keyboard-response","118","290085","0.0-5.0-1.37","LF","z4xhznw88z","1920","1080","0","1","0","5fae68d5b74c182cacbe5d6a","","null","","","","","","","learning/Slide38.JPG","null","","","","","",""
"html-keyboard-response","119","291092","0.0-5.0-2.37","LF","z4xhznw88z","1920","1080","0","1","0","5fae68d5b74c182cacbe5d6a","","null","","","learningBlock1","","","","<div style=""font-size:60px;""> </div>","null","LF","learning/Slide38.JPG","This is a wug:","","",""
"html-keyboard-response","120","292108","0.0-5.0-0.38","LF","z4xhznw88z","1920","1080","0","1","0","5fae68d5b74c182cacbe5d6a","","null","","","learningBlock1","","","","This is a bim:","null","","","","","",""
"image-keyboard-response","121","292444","0.0-5.0-1.38","LF","z4xhznw88z","1920","1080","0","1","0","5fae68d5b74c182cacbe5d6a","","null","","","","","","","learning/Slide39.JPG","null","","","","","",""
"html-keyboard-response","122","293445","0.0-5.0-2.38","LF","z4xhznw88z","1920","1080","0","1","0","5fae68d5b74c182cacbe5d6a","","null","","","learningBlock1","","","","<div style=""font-size:60px;""> </div>","null","LF","learning/Slide39.JPG","This is a bim:","","",""
"html-keyboard-response","123","294461","0.0-5.0-0.39","LF","z4xhznw88z","1920","1080","0","1","0","5fae68d5b74c182cacbe5d6a","","null","","","learningBlock1","","","","This is a tob:","null","","","","","",""
"image-keyboard-response","124","294788","0.0-5.0-1.39","LF","z4xhznw88z","1920","1080","0","1","0","5fae68d5b74c182cacbe5d6a","","null","","","","","","","learning/Slide40.JPG","null","","","","","",""
"html-keyboard-response","125","295795","0.0-5.0-2.39","LF","z4xhznw88z","1920","1080","0","1","0","5fae68d5b74c182cacbe5d6a","","null","","","learningBlock1","","","","<div style=""font-size:60px;""> </div>","null","LF","learning/Slide40.JPG","This is a tob:","","",""
"html-keyboard-response","126","296805","0.0-5.0-0.40","LF","z4xhznw88z","1920","1080","0","1","0","5fae68d5b74c182cacbe5d6a","","null","","","learningBlock1","","","","This is a bim:","null","","","","","",""
"image-keyboard-response","127","297148","0.0-5.0-1.40","LF","z4xhznw88z","1920","1080","0","1","0","5fae68d5b74c182cacbe5d6a","","null","","","","","","","learning/Slide41.JPG","null","","","","","",""
"html-keyboard-response","128","298159","0.0-5.0-2.40","LF","z4xhznw88z","1920","1080","0","1","0","5fae68d5b74c182cacbe5d6a","","null","","","learningBlock1","","","","<div style=""font-size:60px;""> </div>","null","LF","learning/Slide41.JPG","This is a bim:","","",""
"html-keyboard-response","129","299172","0.0-5.0-0.41","LF","z4xhznw88z","1920","1080","0","1","0","5fae68d5b74c182cacbe5d6a","","null","","","learningBlock1","","","","This is a dep:","null","","","","","",""
"image-keyboard-response","130","299511","0.0-5.0-1.41","LF","z4xhznw88z","1920","1080","0","1","0","5fae68d5b74c182cacbe5d6a","","null","","","","","","","learning/Slide42.JPG","null","","","","","",""
"html-keyboard-response","131","300520","0.0-5.0-2.41","LF","z4xhznw88z","1920","1080","0","1","0","5fae68d5b74c182cacbe5d6a","","null","","","learningBlock1","","","","<div style=""font-size:60px;""> </div>","null","LF","learning/Slide42.JPG","This is a dep:","","",""
"html-keyboard-response","132","301521","0.0-5.0-0.42","LF","z4xhznw88z","1920","1080","0","1","0","5fae68d5b74c182cacbe5d6a","","null","","","learningBlock1","","","","This is a wug:","null","","","","","",""
"image-keyboard-response","133","301853","0.0-5.0-1.42","LF","z4xhznw88z","1920","1080","0","1","0","5fae68d5b74c182cacbe5d6a","","null","","","","","","","learning/Slide43.JPG","null","","","","","",""
"html-keyboard-response","134","302869","0.0-5.0-2.42","LF","z4xhznw88z","1920","1080","0","1","0","5fae68d5b74c182cacbe5d6a","","null","","","learningBlock1","","","","<div style=""font-size:60px;""> </div>","null","LF","learning/Slide43.JPG","This is a wug:","","",""
"html-keyboard-response","135","303882","0.0-5.0-0.43","LF","z4xhznw88z","1920","1080","0","1","0","5fae68d5b74c182cacbe5d6a","","null","","","learningBlock1","","","","This is a bim:","null","","","","","",""
"image-keyboard-response","136","304215","0.0-5.0-1.43","LF","z4xhznw88z","1920","1080","0","1","0","5fae68d5b74c182cacbe5d6a","","null","","","","","","","learning/Slide44.JPG","null","","","","","",""
"html-keyboard-response","137","305217","0.0-5.0-2.43","LF","z4xhznw88z","1920","1080","0","1","0","5fae68d5b74c182cacbe5d6a","","null","","","learningBlock1","","","","<div style=""font-size:60px;""> </div>","null","LF","learning/Slide44.JPG","This is a bim:","","",""
"html-keyboard-response","138","306227","0.0-5.0-0.44","LF","z4xhznw88z","1920","1080","0","1","0","5fae68d5b74c182cacbe5d6a","","null","","","learningBlock1","","","","This is a wug:","null","","","","","",""
"image-keyboard-response","139","306559","0.0-5.0-1.44","LF","z4xhznw88z","1920","1080","0","1","0","5fae68d5b74c182cacbe5d6a","","null","","","","","","","learning/Slide45.JPG","null","","","","","",""
"html-keyboard-response","140","307571","0.0-5.0-2.44","LF","z4xhznw88z","1920","1080","0","1","0","5fae68d5b74c182cacbe5d6a","","null","","","learningBlock1","","","","<div style=""font-size:60px;""> </div>","null","LF","learning/Slide45.JPG","This is a wug:","","",""
"html-keyboard-response","141","308580","0.0-5.0-0.45","LF","z4xhznw88z","1920","1080","0","1","0","5fae68d5b74c182cacbe5d6a","","null","","","learningBlock1","","","","This is a dep:","null","","","","","",""
"image-keyboard-response","142","308925","0.0-5.0-1.45","LF","z4xhznw88z","1920","1080","0","1","0","5fae68d5b74c182cacbe5d6a","","null","","","","","","","learning/Slide46.JPG","null","","","","","",""
"html-keyboard-response","143","309931","0.0-5.0-2.45","LF","z4xhznw88z","1920","1080","0","1","0","5fae68d5b74c182cacbe5d6a","","null","","","learningBlock1","","","","<div style=""font-size:60px;""> </div>","null","LF","learning/Slide46.JPG","This is a dep:","","",""
"html-keyboard-response","144","310940","0.0-5.0-0.46","LF","z4xhznw88z","1920","1080","0","1","0","5fae68d5b74c182cacbe5d6a","","null","","","learningBlock1","","","","This is a tob:","null","","","","","",""
"image-keyboard-response","145","311271","0.0-5.0-1.46","LF","z4xhznw88z","1920","1080","0","1","0","5fae68d5b74c182cacbe5d6a","","null","","","","","","","learning/Slide47.JPG","null","","","","","",""
"html-keyboard-response","146","312281","0.0-5.0-2.46","LF","z4xhznw88z","1920","1080","0","1","0","5fae68d5b74c182cacbe5d6a","","null","","","learningBlock1","","","","<div style=""font-size:60px;""> </div>","null","LF","learning/Slide47.JPG","This is a tob:","","",""
"html-keyboard-response","147","313295","0.0-5.0-0.47","LF","z4xhznw88z","1920","1080","0","1","0","5fae68d5b74c182cacbe5d6a","","null","","","learningBlock1","","","","This is a bim:","null","","","","","",""
"image-keyboard-response","148","313624","0.0-5.0-1.47","LF","z4xhznw88z","1920","1080","0","1","0","5fae68d5b74c182cacbe5d6a","","null","","","","","","","learning/Slide48.JPG","null","","","","","",""
"html-keyboard-response","149","314627","0.0-5.0-2.47","LF","z4xhznw88z","1920","1080","0","1","0","5fae68d5b74c182cacbe5d6a","","null","","","learningBlock1","","","","<div style=""font-size:60px;""> </div>","null","LF","learning/Slide48.JPG","This is a bim:","","",""
"html-keyboard-response","150","315630","0.0-5.0-0.48","LF","z4xhznw88z","1920","1080","0","1","0","5fae68d5b74c182cacbe5d6a","","null","","","learningBlock1","","","","This is a dep:","null","","","","","",""
"image-keyboard-response","151","315957","0.0-5.0-1.48","LF","z4xhznw88z","1920","1080","0","1","0","5fae68d5b74c182cacbe5d6a","","null","","","","","","","learning/Slide49.JPG","null","","","","","",""
"html-keyboard-response","152","316962","0.0-5.0-2.48","LF","z4xhznw88z","1920","1080","0","1","0","5fae68d5b74c182cacbe5d6a","","null","","","learningBlock1","","","","<div style=""font-size:60px;""> </div>","null","LF","learning/Slide49.JPG","This is a dep:","","",""
"html-keyboard-response","153","317973","0.0-5.0-0.49","LF","z4xhznw88z","1920","1080","0","1","0","5fae68d5b74c182cacbe5d6a","","null","","","learningBlock1","","","","This is a tob:","null","","","","","",""
"image-keyboard-response","154","318317","0.0-5.0-1.49","LF","z4xhznw88z","1920","1080","0","1","0","5fae68d5b74c182cacbe5d6a","","null","","","","","","","learning/Slide50.JPG","null","","","","","",""
"html-keyboard-response","155","319326","0.0-5.0-2.49","LF","z4xhznw88z","1920","1080","0","1","0","5fae68d5b74c182cacbe5d6a","","null","","","learningBlock1","","","","<div style=""font-size:60px;""> </div>","null","LF","learning/Slide50.JPG","This is a tob:","","",""
"html-keyboard-response","156","320344","0.0-5.0-0.50","LF","z4xhznw88z","1920","1080","0","1","0","5fae68d5b74c182cacbe5d6a","","null","","","learningBlock1","","","","This is a bim:","null","","","","","",""
"image-keyboard-response","157","320681","0.0-5.0-1.50","LF","z4xhznw88z","1920","1080","0","1","0","5fae68d5b74c182cacbe5d6a","","null","","","","","","","learning/Slide51.JPG","null","","","","","",""
"html-keyboard-response","158","321694","0.0-5.0-2.50","LF","z4xhznw88z","1920","1080","0","1","0","5fae68d5b74c182cacbe5d6a","","null","","","learningBlock1","","","","<div style=""font-size:60px;""> </div>","null","LF","learning/Slide51.JPG","This is a bim:","","",""
"html-keyboard-response","159","322707","0.0-5.0-0.51","LF","z4xhznw88z","1920","1080","0","1","0","5fae68d5b74c182cacbe5d6a","","null","","","learningBlock1","","","","This is a wug:","null","","","","","",""
"image-keyboard-response","160","323053","0.0-5.0-1.51","LF","z4xhznw88z","1920","1080","0","1","0","5fae68d5b74c182cacbe5d6a","","null","","","","","","","learning/Slide52.JPG","null","","","","","",""
"html-keyboard-response","161","324058","0.0-5.0-2.51","LF","z4xhznw88z","1920","1080","0","1","0","5fae68d5b74c182cacbe5d6a","","null","","","learningBlock1","","","","<div style=""font-size:60px;""> </div>","null","LF","learning/Slide52.JPG","This is a wug:","","",""
"html-keyboard-response","162","325071","0.0-5.0-0.52","LF","z4xhznw88z","1920","1080","0","1","0","5fae68d5b74c182cacbe5d6a","","null","","","learningBlock1","","","","This is a tob:","null","","","","","",""
"image-keyboard-response","163","325406","0.0-5.0-1.52","LF","z4xhznw88z","1920","1080","0","1","0","5fae68d5b74c182cacbe5d6a","","null","","","","","","","learning/Slide53.JPG","null","","","","","",""
"html-keyboard-response","164","326410","0.0-5.0-2.52","LF","z4xhznw88z","1920","1080","0","1","0","5fae68d5b74c182cacbe5d6a","","null","","","learningBlock1","","","","<div style=""font-size:60px;""> </div>","null","LF","learning/Slide53.JPG","This is a tob:","","",""
"html-keyboard-response","165","327421","0.0-5.0-0.53","LF","z4xhznw88z","1920","1080","0","1","0","5fae68d5b74c182cacbe5d6a","","null","","","learningBlock1","","","","This is a dep:","null","","","","","",""
"image-keyboard-response","166","327748","0.0-5.0-1.53","LF","z4xhznw88z","1920","1080","0","1","0","5fae68d5b74c182cacbe5d6a","","null","","","","","","","learning/Slide54.JPG","null","","","","","",""
"html-keyboard-response","167","328752","0.0-5.0-2.53","LF","z4xhznw88z","1920","1080","0","1","0","5fae68d5b74c182cacbe5d6a","","null","","","learningBlock1","","","","<div style=""font-size:60px;""> </div>","null","LF","learning/Slide54.JPG","This is a dep:","","",""
"html-keyboard-response","168","329756","0.0-5.0-0.54","LF","z4xhznw88z","1920","1080","0","1","0","5fae68d5b74c182cacbe5d6a","","null","","","learningBlock1","","","","This is a bim:","null","","","","","",""
"image-keyboard-response","169","330094","0.0-5.0-1.54","LF","z4xhznw88z","1920","1080","0","1","0","5fae68d5b74c182cacbe5d6a","","null","","","","","","","learning/Slide55.JPG","null","","","","","",""
"html-keyboard-response","170","331101","0.0-5.0-2.54","LF","z4xhznw88z","1920","1080","0","1","0","5fae68d5b74c182cacbe5d6a","","null","","","learningBlock1","","","","<div style=""font-size:60px;""> </div>","null","LF","learning/Slide55.JPG","This is a bim:","","",""
"html-keyboard-response","171","332109","0.0-5.0-0.55","LF","z4xhznw88z","1920","1080","0","1","0","5fae68d5b74c182cacbe5d6a","","null","","","learningBlock1","","","","This is a tob:","null","","","","","",""
"image-keyboard-response","172","332440","0.0-5.0-1.55","LF","z4xhznw88z","1920","1080","0","1","0","5fae68d5b74c182cacbe5d6a","","null","","","","","","","learning/Slide56.JPG","null","","","","","",""
"html-keyboard-response","173","333451","0.0-5.0-2.55","LF","z4xhznw88z","1920","1080","0","1","0","5fae68d5b74c182cacbe5d6a","","null","","","learningBlock1","","","","<div style=""font-size:60px;""> </div>","null","LF","learning/Slide56.JPG","This is a tob:","","",""
"html-keyboard-response","174","334454","0.0-5.0-0.56","LF","z4xhznw88z","1920","1080","0","1","0","5fae68d5b74c182cacbe5d6a","","null","","","learningBlock1","","","","This is a dep:","null","","","","","",""
"image-keyboard-response","175","334782","0.0-5.0-1.56","LF","z4xhznw88z","1920","1080","0","1","0","5fae68d5b74c182cacbe5d6a","","null","","","","","","","learning/Slide57.JPG","null","","","","","",""
"html-keyboard-response","176","335798","0.0-5.0-2.56","LF","z4xhznw88z","1920","1080","0","1","0","5fae68d5b74c182cacbe5d6a","","null","","","learningBlock1","","","","<div style=""font-size:60px;""> </div>","null","LF","learning/Slide57.JPG","This is a dep:","","",""
"html-keyboard-response","177","336804","0.0-5.0-0.57","LF","z4xhznw88z","1920","1080","0","1","0","5fae68d5b74c182cacbe5d6a","","null","","","learningBlock1","","","","This is a wug:","null","","","","","",""
"image-keyboard-response","178","337149","0.0-5.0-1.57","LF","z4xhznw88z","1920","1080","0","1","0","5fae68d5b74c182cacbe5d6a","","null","","","","","","","learning/Slide58.JPG","null","","","","","",""
"html-keyboard-response","179","338151","0.0-5.0-2.57","LF","z4xhznw88z","1920","1080","0","1","0","5fae68d5b74c182cacbe5d6a","","null","","","learningBlock1","","","","<div style=""font-size:60px;""> </div>","null","LF","learning/Slide58.JPG","This is a wug:","","",""
"html-keyboard-response","180","339163","0.0-5.0-0.58","LF","z4xhznw88z","1920","1080","0","1","0","5fae68d5b74c182cacbe5d6a","","null","","","learningBlock1","","","","This is a dep:","null","","","","","",""
"image-keyboard-response","181","339497","0.0-5.0-1.58","LF","z4xhznw88z","1920","1080","0","1","0","5fae68d5b74c182cacbe5d6a","","null","","","","","","","learning/Slide59.JPG","null","","","","","",""
"html-keyboard-response","182","340510","0.0-5.0-2.58","LF","z4xhznw88z","1920","1080","0","1","0","5fae68d5b74c182cacbe5d6a","","null","","","learningBlock1","","","","<div style=""font-size:60px;""> </div>","null","LF","learning/Slide59.JPG","This is a dep:","","",""
"html-keyboard-response","183","341524","0.0-5.0-0.59","LF","z4xhznw88z","1920","1080","0","1","0","5fae68d5b74c182cacbe5d6a","","null","","","learningBlock1","","","","This is a wug:","null","","","","","",""
"image-keyboard-response","184","341860","0.0-5.0-1.59","LF","z4xhznw88z","1920","1080","0","1","0","5fae68d5b74c182cacbe5d6a","","null","","","","","","","learning/Slide60.JPG","null","","","","","",""
"html-keyboard-response","185","342862","0.0-5.0-2.59","LF","z4xhznw88z","1920","1080","0","1","0","5fae68d5b74c182cacbe5d6a","","null","","","learningBlock1","","","","<div style=""font-size:60px;""> </div>","null","LF","learning/Slide60.JPG","This is a wug:","","",""
"html-keyboard-response","186","343867","0.0-5.0-0.60","LF","z4xhznw88z","1920","1080","0","1","0","5fae68d5b74c182cacbe5d6a","","null","","","learningBlock1","","","","This is a bim:","null","","","","","",""
"image-keyboard-response","187","344209","0.0-5.0-1.60","LF","z4xhznw88z","1920","1080","0","1","0","5fae68d5b74c182cacbe5d6a","","null","","","","","","","learning/Slide61.JPG","null","","","","","",""
"html-keyboard-response","188","345215","0.0-5.0-2.60","LF","z4xhznw88z","1920","1080","0","1","0","5fae68d5b74c182cacbe5d6a","","null","","","learningBlock1","","","","<div style=""font-size:60px;""> </div>","null","LF","learning/Slide61.JPG","This is a bim:","","",""
"html-keyboard-response","189","346223","0.0-5.0-0.61","LF","z4xhznw88z","1920","1080","0","1","0","5fae68d5b74c182cacbe5d6a","","null","","","learningBlock1","","","","This is a dep:","null","","","","","",""
"image-keyboard-response","190","346556","0.0-5.0-1.61","LF","z4xhznw88z","1920","1080","0","1","0","5fae68d5b74c182cacbe5d6a","","null","","","","","","","learning/Slide62.JPG","null","","","","","",""
"html-keyboard-response","191","347569","0.0-5.0-2.61","LF","z4xhznw88z","1920","1080","0","1","0","5fae68d5b74c182cacbe5d6a","","null","","","learningBlock1","","","","<div style=""font-size:60px;""> </div>","null","LF","learning/Slide62.JPG","This is a dep:","","",""
"html-keyboard-response","192","348580","0.0-5.0-0.62","LF","z4xhznw88z","1920","1080","0","1","0","5fae68d5b74c182cacbe5d6a","","null","","","learningBlock1","","","","This is a bim:","null","","","","","",""
"image-keyboard-response","193","348909","0.0-5.0-1.62","LF","z4xhznw88z","1920","1080","0","1","0","5fae68d5b74c182cacbe5d6a","","null","","","","","","","learning/Slide63.JPG","null","","","","","",""
"html-keyboard-response","194","349917","0.0-5.0-2.62","LF","z4xhznw88z","1920","1080","0","1","0","5fae68d5b74c182cacbe5d6a","","null","","","learningBlock1","","","","<div style=""font-size:60px;""> </div>","null","LF","learning/Slide63.JPG","This is a bim:","","",""
"html-keyboard-response","195","350929","0.0-5.0-0.63","LF","z4xhznw88z","1920","1080","0","1","0","5fae68d5b74c182cacbe5d6a","","null","","","learningBlock1","","","","This is a tob:","null","","","","","",""
"image-keyboard-response","196","351256","0.0-5.0-1.63","LF","z4xhznw88z","1920","1080","0","1","0","5fae68d5b74c182cacbe5d6a","","null","","","","","","","learning/Slide64.JPG","null","","","","","",""
"html-keyboard-response","197","352261","0.0-5.0-2.63","LF","z4xhznw88z","1920","1080","0","1","0","5fae68d5b74c182cacbe5d6a","","null","","","learningBlock1","","","","<div style=""font-size:60px;""> </div>","null","LF","learning/Slide64.JPG","This is a tob:","","",""
"html-keyboard-response","198","353275","0.0-5.0-0.64","LF","z4xhznw88z","1920","1080","0","1","0","5fae68d5b74c182cacbe5d6a","","null","","","learningBlock1","","","","This is a wug:","null","","","","","",""
"image-keyboard-response","199","353602","0.0-5.0-1.64","LF","z4xhznw88z","1920","1080","0","1","0","5fae68d5b74c182cacbe5d6a","","null","","","","","","","learning/Slide65.JPG","null","","","","","",""
"html-keyboard-response","200","354616","0.0-5.0-2.64","LF","z4xhznw88z","1920","1080","0","1","0","5fae68d5b74c182cacbe5d6a","","null","","","learningBlock1","","","","<div style=""font-size:60px;""> </div>","null","LF","learning/Slide65.JPG","This is a wug:","","",""
"html-keyboard-response","201","355622","0.0-5.0-0.65","LF","z4xhznw88z","1920","1080","0","1","0","5fae68d5b74c182cacbe5d6a","","null","","","learningBlock1","","","","This is a dep:","null","","","","","",""
"image-keyboard-response","202","355966","0.0-5.0-1.65","LF","z4xhznw88z","1920","1080","0","1","0","5fae68d5b74c182cacbe5d6a","","null","","","","","","","learning/Slide66.JPG","null","","","","","",""
"html-keyboard-response","203","356972","0.0-5.0-2.65","LF","z4xhznw88z","1920","1080","0","1","0","5fae68d5b74c182cacbe5d6a","","null","","","learningBlock1","","","","<div style=""font-size:60px;""> </div>","null","LF","learning/Slide66.JPG","This is a dep:","","",""
"html-keyboard-response","204","357976","0.0-5.0-0.66","LF","z4xhznw88z","1920","1080","0","1","0","5fae68d5b74c182cacbe5d6a","","null","","","learningBlock1","","","","This is a tob:","null","","","","","",""
"image-keyboard-response","205","358317","0.0-5.0-1.66","LF","z4xhznw88z","1920","1080","0","1","0","5fae68d5b74c182cacbe5d6a","","null","","","","","","","learning/Slide67.JPG","null","","","","","",""
"html-keyboard-response","206","359323","0.0-5.0-2.66","LF","z4xhznw88z","1920","1080","0","1","0","5fae68d5b74c182cacbe5d6a","","null","","","learningBlock1","","","","<div style=""font-size:60px;""> </div>","null","LF","learning/Slide67.JPG","This is a tob:","","",""
"html-keyboard-response","207","360338","0.0-5.0-0.67","LF","z4xhznw88z","1920","1080","0","1","0","5fae68d5b74c182cacbe5d6a","","null","","","learningBlock1","","","","This is a wug:","null","","","","","",""
"image-keyboard-response","208","360680","0.0-5.0-1.67","LF","z4xhznw88z","1920","1080","0","1","0","5fae68d5b74c182cacbe5d6a","","null","","","","","","","learning/Slide68.JPG","null","","","","","",""
"html-keyboard-response","209","361696","0.0-5.0-2.67","LF","z4xhznw88z","1920","1080","0","1","0","5fae68d5b74c182cacbe5d6a","","null","","","learningBlock1","","","","<div style=""font-size:60px;""> </div>","null","LF","learning/Slide68.JPG","This is a wug:","","",""
"html-keyboard-response","210","362706","0.0-5.0-0.68","LF","z4xhznw88z","1920","1080","0","1","0","5fae68d5b74c182cacbe5d6a","","null","","","learningBlock1","","","","This is a tob:","null","","","","","",""
"image-keyboard-response","211","363038","0.0-5.0-1.68","LF","z4xhznw88z","1920","1080","0","1","0","5fae68d5b74c182cacbe5d6a","","null","","","","","","","learning/Slide69.JPG","null","","","","","",""
"html-keyboard-response","212","364044","0.0-5.0-2.68","LF","z4xhznw88z","1920","1080","0","1","0","5fae68d5b74c182cacbe5d6a","","null","","","learningBlock1","","","","<div style=""font-size:60px;""> </div>","null","LF","learning/Slide69.JPG","This is a tob:","","",""
"html-keyboard-response","213","365046","0.0-5.0-0.69","LF","z4xhznw88z","1920","1080","0","1","0","5fae68d5b74c182cacbe5d6a","","null","","","learningBlock1","","","","This is a dep:","null","","","","","",""
"image-keyboard-response","214","365390","0.0-5.0-1.69","LF","z4xhznw88z","1920","1080","0","1","0","5fae68d5b74c182cacbe5d6a","","null","","","","","","","learning/Slide70.JPG","null","","","","","",""
"html-keyboard-response","215","366395","0.0-5.0-2.69","LF","z4xhznw88z","1920","1080","0","1","0","5fae68d5b74c182cacbe5d6a","","null","","","learningBlock1","","","","<div style=""font-size:60px;""> </div>","null","LF","learning/Slide70.JPG","This is a dep:","","",""
"html-keyboard-response","216","367402","0.0-5.0-0.70","LF","z4xhznw88z","1920","1080","0","1","0","5fae68d5b74c182cacbe5d6a","","null","","","learningBlock1","","","","This is a wug:","null","","","","","",""
"image-keyboard-response","217","367747","0.0-5.0-1.70","LF","z4xhznw88z","1920","1080","0","1","0","5fae68d5b74c182cacbe5d6a","","null","","","","","","","learning/Slide71.JPG","null","","","","","",""
"html-keyboard-response","218","368763","0.0-5.0-2.70","LF","z4xhznw88z","1920","1080","0","1","0","5fae68d5b74c182cacbe5d6a","","null","","","learningBlock1","","","","<div style=""font-size:60px;""> </div>","null","LF","learning/Slide71.JPG","This is a wug:","","",""
"html-keyboard-response","219","369782","0.0-5.0-0.71","LF","z4xhznw88z","1920","1080","0","1","0","5fae68d5b74c182cacbe5d6a","","null","","","learningBlock1","","","","This is a bim:","null","","","","","",""
"image-keyboard-response","220","370128","0.0-5.0-1.71","LF","z4xhznw88z","1920","1080","0","1","0","5fae68d5b74c182cacbe5d6a","","null","","","","","","","learning/Slide72.JPG","null","","","","","",""
"html-keyboard-response","221","371132","0.0-5.0-2.71","LF","z4xhznw88z","1920","1080","0","1","0","5fae68d5b74c182cacbe5d6a","","null","","","learningBlock1","","","","<div style=""font-size:60px;""> </div>","null","LF","learning/Slide72.JPG","This is a bim:","","",""
"html-keyboard-response","222","372146","0.0-5.0-0.72","LF","z4xhznw88z","1920","1080","0","1","0","5fae68d5b74c182cacbe5d6a","","null","","","learningBlock1","","","","This is a wug:","null","","","","","",""
"image-keyboard-response","223","372479","0.0-5.0-1.72","LF","z4xhznw88z","1920","1080","0","1","0","5fae68d5b74c182cacbe5d6a","","null","","","","","","","learning/Slide73.JPG","null","","","","","",""
"html-keyboard-response","224","373492","0.0-5.0-2.72","LF","z4xhznw88z","1920","1080","0","1","0","5fae68d5b74c182cacbe5d6a","","null","","","learningBlock1","","","","<div style=""font-size:60px;""> </div>","null","LF","learning/Slide73.JPG","This is a wug:","","",""
"html-keyboard-response","225","374504","0.0-5.0-0.73","LF","z4xhznw88z","1920","1080","0","1","0","5fae68d5b74c182cacbe5d6a","","null","","","learningBlock1","","","","This is a dep:","null","","","","","",""
"image-keyboard-response","226","374848","0.0-5.0-1.73","LF","z4xhznw88z","1920","1080","0","1","0","5fae68d5b74c182cacbe5d6a","","null","","","","","","","learning/Slide74.JPG","null","","","","","",""
"html-keyboard-response","227","375851","0.0-5.0-2.73","LF","z4xhznw88z","1920","1080","0","1","0","5fae68d5b74c182cacbe5d6a","","null","","","learningBlock1","","","","<div style=""font-size:60px;""> </div>","null","LF","learning/Slide74.JPG","This is a dep:","","",""
"html-keyboard-response","228","376861","0.0-5.0-0.74","LF","z4xhznw88z","1920","1080","0","1","0","5fae68d5b74c182cacbe5d6a","","null","","","learningBlock1","","","","This is a tob:","null","","","","","",""
"image-keyboard-response","229","377201","0.0-5.0-1.74","LF","z4xhznw88z","1920","1080","0","1","0","5fae68d5b74c182cacbe5d6a","","null","","","","","","","learning/Slide75.JPG","null","","","","","",""
"html-keyboard-response","230","378210","0.0-5.0-2.74","LF","z4xhznw88z","1920","1080","0","1","0","5fae68d5b74c182cacbe5d6a","","null","","","learningBlock1","","","","<div style=""font-size:60px;""> </div>","null","LF","learning/Slide75.JPG","This is a tob:","","",""
"html-keyboard-response","231","379220","0.0-5.0-0.75","LF","z4xhznw88z","1920","1080","0","1","0","5fae68d5b74c182cacbe5d6a","","null","","","learningBlock1","","","","This is a bim:","null","","","","","",""
"image-keyboard-response","232","379547","0.0-5.0-1.75","LF","z4xhznw88z","1920","1080","0","1","0","5fae68d5b74c182cacbe5d6a","","null","","","","","","","learning/Slide76.JPG","null","","","","","",""
"html-keyboard-response","233","380560","0.0-5.0-2.75","LF","z4xhznw88z","1920","1080","0","1","0","5fae68d5b74c182cacbe5d6a","","null","","","learningBlock1","","","","<div style=""font-size:60px;""> </div>","null","LF","learning/Slide76.JPG","This is a bim:","","",""
"html-keyboard-response","234","381569","0.0-5.0-0.76","LF","z4xhznw88z","1920","1080","0","1","0","5fae68d5b74c182cacbe5d6a","","null","","","learningBlock1","","","","This is a tob:","null","","","","","",""
"image-keyboard-response","235","381905","0.0-5.0-1.76","LF","z4xhznw88z","1920","1080","0","1","0","5fae68d5b74c182cacbe5d6a","","null","","","","","","","learning/Slide77.JPG","null","","","","","",""
"html-keyboard-response","236","382919","0.0-5.0-2.76","LF","z4xhznw88z","1920","1080","0","1","0","5fae68d5b74c182cacbe5d6a","","null","","","learningBlock1","","","","<div style=""font-size:60px;""> </div>","null","LF","learning/Slide77.JPG","This is a tob:","","",""
"html-keyboard-response","237","383924","0.0-5.0-0.77","LF","z4xhznw88z","1920","1080","0","1","0","5fae68d5b74c182cacbe5d6a","","null","","","learningBlock1","","","","This is a wug:","null","","","","","",""
"image-keyboard-response","238","384257","0.0-5.0-1.77","LF","z4xhznw88z","1920","1080","0","1","0","5fae68d5b74c182cacbe5d6a","","null","","","","","","","learning/Slide78.JPG","null","","","","","",""
"html-keyboard-response","239","385259","0.0-5.0-2.77","LF","z4xhznw88z","1920","1080","0","1","0","5fae68d5b74c182cacbe5d6a","","null","","","learningBlock1","","","","<div style=""font-size:60px;""> </div>","null","LF","learning/Slide78.JPG","This is a wug:","","",""
"html-keyboard-response","240","386271","0.0-5.0-0.78","LF","z4xhznw88z","1920","1080","0","1","0","5fae68d5b74c182cacbe5d6a","","null","","","learningBlock1","","","","This is a bim:","null","","","","","",""
"image-keyboard-response","241","386598","0.0-5.0-1.78","LF","z4xhznw88z","1920","1080","0","1","0","5fae68d5b74c182cacbe5d6a","","null","","","","","","","learning/Slide79.JPG","null","","","","","",""
"html-keyboard-response","242","387604","0.0-5.0-2.78","LF","z4xhznw88z","1920","1080","0","1","0","5fae68d5b74c182cacbe5d6a","","null","","","learningBlock1","","","","<div style=""font-size:60px;""> </div>","null","LF","learning/Slide79.JPG","This is a bim:","","",""
"html-keyboard-response","243","388609","0.0-5.0-0.79","LF","z4xhznw88z","1920","1080","0","1","0","5fae68d5b74c182cacbe5d6a","","null","","","learningBlock1","","","","This is a tob:","null","","","","","",""
"image-keyboard-response","244","388944","0.0-5.0-1.79","LF","z4xhznw88z","1920","1080","0","1","0","5fae68d5b74c182cacbe5d6a","","null","","","","","","","learning/Slide80.JPG","null","","","","","",""
"html-keyboard-response","245","389957","0.0-5.0-2.79","LF","z4xhznw88z","1920","1080","0","1","0","5fae68d5b74c182cacbe5d6a","","null","","","learningBlock1","","","","<div style=""font-size:60px;""> </div>","null","LF","learning/Slide80.JPG","This is a tob:","","",""
"instructions","246","393346","0.0-6.0","LF","z4xhznw88z","1920","1080","0","1","0","5fae68d5b74c182cacbe5d6a","","NA","","[{""page_index"":0,""viewing_time"":3388.4650000000256}]","instructions","","","","","","","","","","",""
"html-keyboard-response","247","394352","0.0-7.0-0.0","LF","z4xhznw88z","1920","1080","0","1","0","5fae68d5b74c182cacbe5d6a","","null","","","learningBlock2","","","","This is a wug:","null","","","","","",""
"image-keyboard-response","248","394678","0.0-7.0-1.0","LF","z4xhznw88z","1920","1080","0","1","0","5fae68d5b74c182cacbe5d6a","","null","","","","","","","learning/Slide81.JPG","null","","","","","",""
"html-keyboard-response","249","395695","0.0-7.0-2.0","LF","z4xhznw88z","1920","1080","0","1","0","5fae68d5b74c182cacbe5d6a","","null","","","learningBlock2","","","","<div style=""font-size:60px;""> </div>","null","LF","learning/Slide81.JPG","This is a wug:","","",""
"html-keyboard-response","250","396697","0.0-7.0-0.1","LF","z4xhznw88z","1920","1080","0","1","0","5fae68d5b74c182cacbe5d6a","","null","","","learningBlock2","","","","This is a bim:","null","","","","","",""
"image-keyboard-response","251","397034","0.0-7.0-1.1","LF","z4xhznw88z","1920","1080","0","1","0","5fae68d5b74c182cacbe5d6a","","null","","","","","","","learning/Slide82.JPG","null","","","","","",""
"html-keyboard-response","252","398048","0.0-7.0-2.1","LF","z4xhznw88z","1920","1080","0","1","0","5fae68d5b74c182cacbe5d6a","","null","","","learningBlock2","","","","<div style=""font-size:60px;""> </div>","null","LF","learning/Slide82.JPG","This is a bim:","","",""
"html-keyboard-response","253","399062","0.0-7.0-0.2","LF","z4xhznw88z","1920","1080","0","1","0","5fae68d5b74c182cacbe5d6a","","null","","","learningBlock2","","","","This is a wug:","null","","","","","",""
"image-keyboard-response","254","399406","0.0-7.0-1.2","LF","z4xhznw88z","1920","1080","0","1","0","5fae68d5b74c182cacbe5d6a","","null","","","","","","","learning/Slide83.JPG","null","","","","","",""
"html-keyboard-response","255","400415","0.0-7.0-2.2","LF","z4xhznw88z","1920","1080","0","1","0","5fae68d5b74c182cacbe5d6a","","null","","","learningBlock2","","","","<div style=""font-size:60px;""> </div>","null","LF","learning/Slide83.JPG","This is a wug:","","",""
"html-keyboard-response","256","401429","0.0-7.0-0.3","LF","z4xhznw88z","1920","1080","0","1","0","5fae68d5b74c182cacbe5d6a","","null","","","learningBlock2","","","","This is a dep:","null","","","","","",""
"image-keyboard-response","257","401759","0.0-7.0-1.3","LF","z4xhznw88z","1920","1080","0","1","0","5fae68d5b74c182cacbe5d6a","","null","","","","","","","learning/Slide84.JPG","null","","","","","",""
"html-keyboard-response","258","402776","0.0-7.0-2.3","LF","z4xhznw88z","1920","1080","0","1","0","5fae68d5b74c182cacbe5d6a","","null","","","learningBlock2","","","","<div style=""font-size:60px;""> </div>","null","LF","learning/Slide84.JPG","This is a dep:","","",""
"html-keyboard-response","259","403779","0.0-7.0-0.4","LF","z4xhznw88z","1920","1080","0","1","0","5fae68d5b74c182cacbe5d6a","","null","","","learningBlock2","","","","This is a bim:","null","","","","","",""
"image-keyboard-response","260","404124","0.0-7.0-1.4","LF","z4xhznw88z","1920","1080","0","1","0","5fae68d5b74c182cacbe5d6a","","null","","","","","","","learning/Slide85.JPG","null","","","","","",""
"html-keyboard-response","261","405128","0.0-7.0-2.4","LF","z4xhznw88z","1920","1080","0","1","0","5fae68d5b74c182cacbe5d6a","","null","","","learningBlock2","","","","<div style=""font-size:60px;""> </div>","null","LF","learning/Slide85.JPG","This is a bim:","","",""
"html-keyboard-response","262","406131","0.0-7.0-0.5","LF","z4xhznw88z","1920","1080","0","1","0","5fae68d5b74c182cacbe5d6a","","null","","","learningBlock2","","","","This is a tob:","null","","","","","",""
"image-keyboard-response","263","406475","0.0-7.0-1.5","LF","z4xhznw88z","1920","1080","0","1","0","5fae68d5b74c182cacbe5d6a","","null","","","","","","","learning/Slide86.JPG","null","","","","","",""
"html-keyboard-response","264","407489","0.0-7.0-2.5","LF","z4xhznw88z","1920","1080","0","1","0","5fae68d5b74c182cacbe5d6a","","null","","","learningBlock2","","","","<div style=""font-size:60px;""> </div>","null","LF","learning/Slide86.JPG","This is a tob:","","",""
"html-keyboard-response","265","408497","0.0-7.0-0.6","LF","z4xhznw88z","1920","1080","0","1","0","5fae68d5b74c182cacbe5d6a","","null","","","learningBlock2","","","","This is a wug:","null","","","","","",""
"image-keyboard-response","266","408828","0.0-7.0-1.6","LF","z4xhznw88z","1920","1080","0","1","0","5fae68d5b74c182cacbe5d6a","","null","","","","","","","learning/Slide87.JPG","null","","","","","",""
"html-keyboard-response","267","409829","0.0-7.0-2.6","LF","z4xhznw88z","1920","1080","0","1","0","5fae68d5b74c182cacbe5d6a","","null","","","learningBlock2","","","","<div style=""font-size:60px;""> </div>","null","LF","learning/Slide87.JPG","This is a wug:","","",""
"html-keyboard-response","268","410831","0.0-7.0-0.7","LF","z4xhznw88z","1920","1080","0","1","0","5fae68d5b74c182cacbe5d6a","","null","","","learningBlock2","","","","This is a tob:","null","","","","","",""
"image-keyboard-response","269","411157","0.0-7.0-1.7","LF","z4xhznw88z","1920","1080","0","1","0","5fae68d5b74c182cacbe5d6a","","null","","","","","","","learning/Slide88.JPG","null","","","","","",""
"html-keyboard-response","270","412159","0.0-7.0-2.7","LF","z4xhznw88z","1920","1080","0","1","0","5fae68d5b74c182cacbe5d6a","","null","","","learningBlock2","","","","<div style=""font-size:60px;""> </div>","null","LF","learning/Slide88.JPG","This is a tob:","","",""
"html-keyboard-response","271","413160","0.0-7.0-0.8","LF","z4xhznw88z","1920","1080","0","1","0","5fae68d5b74c182cacbe5d6a","","null","","","learningBlock2","","","","This is a bim:","null","","","","","",""
"image-keyboard-response","272","413498","0.0-7.0-1.8","LF","z4xhznw88z","1920","1080","0","1","0","5fae68d5b74c182cacbe5d6a","","null","","","","","","","learning/Slide89.JPG","null","","","","","",""
"html-keyboard-response","273","414507","0.0-7.0-2.8","LF","z4xhznw88z","1920","1080","0","1","0","5fae68d5b74c182cacbe5d6a","","null","","","learningBlock2","","","","<div style=""font-size:60px;""> </div>","null","LF","learning/Slide89.JPG","This is a bim:","","",""
"html-keyboard-response","274","415512","0.0-7.0-0.9","LF","z4xhznw88z","1920","1080","0","1","0","5fae68d5b74c182cacbe5d6a","","null","","","learningBlock2","","","","This is a dep:","null","","","","","",""
"image-keyboard-response","275","415839","0.0-7.0-1.9","LF","z4xhznw88z","1920","1080","0","1","0","5fae68d5b74c182cacbe5d6a","","null","","","","","","","learning/Slide90.JPG","null","","","","","",""
"html-keyboard-response","276","416854","0.0-7.0-2.9","LF","z4xhznw88z","1920","1080","0","1","0","5fae68d5b74c182cacbe5d6a","","null","","","learningBlock2","","","","<div style=""font-size:60px;""> </div>","null","LF","learning/Slide90.JPG","This is a dep:","","",""
"html-keyboard-response","277","417865","0.0-7.0-0.10","LF","z4xhznw88z","1920","1080","0","1","0","5fae68d5b74c182cacbe5d6a","","null","","","learningBlock2","","","","This is a wug:","null","","","","","",""
"image-keyboard-response","278","418203","0.0-7.0-1.10","LF","z4xhznw88z","1920","1080","0","1","0","5fae68d5b74c182cacbe5d6a","","null","","","","","","","learning/Slide91.JPG","null","","","","","",""
"html-keyboard-response","279","419204","0.0-7.0-2.10","LF","z4xhznw88z","1920","1080","0","1","0","5fae68d5b74c182cacbe5d6a","","null","","","learningBlock2","","","","<div style=""font-size:60px;""> </div>","null","LF","learning/Slide91.JPG","This is a wug:","","",""
"html-keyboard-response","280","420213","0.0-7.0-0.11","LF","z4xhznw88z","1920","1080","0","1","0","5fae68d5b74c182cacbe5d6a","","null","","","learningBlock2","","","","This is a tob:","null","","","","","",""
"image-keyboard-response","281","420552","0.0-7.0-1.11","LF","z4xhznw88z","1920","1080","0","1","0","5fae68d5b74c182cacbe5d6a","","null","","","","","","","learning/Slide92.JPG","null","","","","","",""
"html-keyboard-response","282","421555","0.0-7.0-2.11","LF","z4xhznw88z","1920","1080","0","1","0","5fae68d5b74c182cacbe5d6a","","null","","","learningBlock2","","","","<div style=""font-size:60px;""> </div>","null","LF","learning/Slide92.JPG","This is a tob:","","",""
"html-keyboard-response","283","422571","0.0-7.0-0.12","LF","z4xhznw88z","1920","1080","0","1","0","5fae68d5b74c182cacbe5d6a","","null","","","learningBlock2","","","","This is a bim:","null","","","","","",""
"image-keyboard-response","284","422907","0.0-7.0-1.12","LF","z4xhznw88z","1920","1080","0","1","0","5fae68d5b74c182cacbe5d6a","","null","","","","","","","learning/Slide93.JPG","null","","","","","",""
"html-keyboard-response","285","423918","0.0-7.0-2.12","LF","z4xhznw88z","1920","1080","0","1","0","5fae68d5b74c182cacbe5d6a","","null","","","learningBlock2","","","","<div style=""font-size:60px;""> </div>","null","LF","learning/Slide93.JPG","This is a bim:","","",""
"html-keyboard-response","286","424929","0.0-7.0-0.13","LF","z4xhznw88z","1920","1080","0","1","0","5fae68d5b74c182cacbe5d6a","","null","","","learningBlock2","","","","This is a tob:","null","","","","","",""
"image-keyboard-response","287","425277","0.0-7.0-1.13","LF","z4xhznw88z","1920","1080","0","1","0","5fae68d5b74c182cacbe5d6a","","null","","","","","","","learning/Slide94.JPG","null","","","","","",""
"html-keyboard-response","288","426281","0.0-7.0-2.13","LF","z4xhznw88z","1920","1080","0","1","0","5fae68d5b74c182cacbe5d6a","","null","","","learningBlock2","","","","<div style=""font-size:60px;""> </div>","null","LF","learning/Slide94.JPG","This is a tob:","","",""
"html-keyboard-response","289","427288","0.0-7.0-0.14","LF","z4xhznw88z","1920","1080","0","1","0","5fae68d5b74c182cacbe5d6a","","null","","","learningBlock2","","","","This is a wug:","null","","","","","",""
"image-keyboard-response","290","427614","0.0-7.0-1.14","LF","z4xhznw88z","1920","1080","0","1","0","5fae68d5b74c182cacbe5d6a","","null","","","","","","","learning/Slide95.JPG","null","","","","","",""
"html-keyboard-response","291","428621","0.0-7.0-2.14","LF","z4xhznw88z","1920","1080","0","1","0","5fae68d5b74c182cacbe5d6a","","null","","","learningBlock2","","","","<div style=""font-size:60px;""> </div>","null","LF","learning/Slide95.JPG","This is a wug:","","",""
"html-keyboard-response","292","429633","0.0-7.0-0.15","LF","z4xhznw88z","1920","1080","0","1","0","5fae68d5b74c182cacbe5d6a","","null","","","learningBlock2","","","","This is a tob:","null","","","","","",""
"image-keyboard-response","293","429980","0.0-7.0-1.15","LF","z4xhznw88z","1920","1080","0","1","0","5fae68d5b74c182cacbe5d6a","","null","","","","","","","learning/Slide96.JPG","null","","","","","",""
"html-keyboard-response","294","430987","0.0-7.0-2.15","LF","z4xhznw88z","1920","1080","0","1","0","5fae68d5b74c182cacbe5d6a","","null","","","learningBlock2","","","","<div style=""font-size:60px;""> </div>","null","LF","learning/Slide96.JPG","This is a tob:","","",""
"html-keyboard-response","295","431999","0.0-7.0-0.16","LF","z4xhznw88z","1920","1080","0","1","0","5fae68d5b74c182cacbe5d6a","","null","","","learningBlock2","","","","This is a dep:","null","","","","","",""
"image-keyboard-response","296","432333","0.0-7.0-1.16","LF","z4xhznw88z","1920","1080","0","1","0","5fae68d5b74c182cacbe5d6a","","null","","","","","","","learning/Slide97.JPG","null","","","","","",""
"html-keyboard-response","297","433345","0.0-7.0-2.16","LF","z4xhznw88z","1920","1080","0","1","0","5fae68d5b74c182cacbe5d6a","","null","","","learningBlock2","","","","<div style=""font-size:60px;""> </div>","null","LF","learning/Slide97.JPG","This is a dep:","","",""
"html-keyboard-response","298","434354","0.0-7.0-0.17","LF","z4xhznw88z","1920","1080","0","1","0","5fae68d5b74c182cacbe5d6a","","null","","","learningBlock2","","","","This is a bim:","null","","","","","",""
"image-keyboard-response","299","434686","0.0-7.0-1.17","LF","z4xhznw88z","1920","1080","0","1","0","5fae68d5b74c182cacbe5d6a","","null","","","","","","","learning/Slide98.JPG","null","","","","","",""
"html-keyboard-response","300","435689","0.0-7.0-2.17","LF","z4xhznw88z","1920","1080","0","1","0","5fae68d5b74c182cacbe5d6a","","null","","","learningBlock2","","","","<div style=""font-size:60px;""> </div>","null","LF","learning/Slide98.JPG","This is a bim:","","",""
"html-keyboard-response","301","436694","0.0-7.0-0.18","LF","z4xhznw88z","1920","1080","0","1","0","5fae68d5b74c182cacbe5d6a","","null","","","learningBlock2","","","","This is a dep:","null","","","","","",""
"image-keyboard-response","302","437036","0.0-7.0-1.18","LF","z4xhznw88z","1920","1080","0","1","0","5fae68d5b74c182cacbe5d6a","","null","","","","","","","learning/Slide99.JPG","null","","","","","",""
"html-keyboard-response","303","438040","0.0-7.0-2.18","LF","z4xhznw88z","1920","1080","0","1","0","5fae68d5b74c182cacbe5d6a","","null","","","learningBlock2","","","","<div style=""font-size:60px;""> </div>","null","LF","learning/Slide99.JPG","This is a dep:","","",""
"html-keyboard-response","304","439046","0.0-7.0-0.19","LF","z4xhznw88z","1920","1080","0","1","0","5fae68d5b74c182cacbe5d6a","","null","","","learningBlock2","","","","This is a bim:","null","","","","","",""
"image-keyboard-response","305","439391","0.0-7.0-1.19","LF","z4xhznw88z","1920","1080","0","1","0","5fae68d5b74c182cacbe5d6a","","null","","","","","","","learning/Slide100.JPG","null","","","","","",""
"html-keyboard-response","306","440404","0.0-7.0-2.19","LF","z4xhznw88z","1920","1080","0","1","0","5fae68d5b74c182cacbe5d6a","","null","","","learningBlock2","","","","<div style=""font-size:60px;""> </div>","null","LF","learning/Slide100.JPG","This is a bim:","","",""
"html-keyboard-response","307","441413","0.0-7.0-0.20","LF","z4xhznw88z","1920","1080","0","1","0","5fae68d5b74c182cacbe5d6a","","null","","","learningBlock2","","","","This is a tob:","null","","","","","",""
"image-keyboard-response","308","441756","0.0-7.0-1.20","LF","z4xhznw88z","1920","1080","0","1","0","5fae68d5b74c182cacbe5d6a","","null","","","","","","","learning/Slide101.JPG","null","","","","","",""
"html-keyboard-response","309","442774","0.0-7.0-2.20","LF","z4xhznw88z","1920","1080","0","1","0","5fae68d5b74c182cacbe5d6a","","null","","","learningBlock2","","","","<div style=""font-size:60px;""> </div>","null","LF","learning/Slide101.JPG","This is a tob:","","",""
"html-keyboard-response","310","443778","0.0-7.0-0.21","LF","z4xhznw88z","1920","1080","0","1","0","5fae68d5b74c182cacbe5d6a","","null","","","learningBlock2","","","","This is a bim:","null","","","","","",""
"image-keyboard-response","311","444125","0.0-7.0-1.21","LF","z4xhznw88z","1920","1080","0","1","0","5fae68d5b74c182cacbe5d6a","","null","","","","","","","learning/Slide102.JPG","null","","","","","",""
"html-keyboard-response","312","445136","0.0-7.0-2.21","LF","z4xhznw88z","1920","1080","0","1","0","5fae68d5b74c182cacbe5d6a","","null","","","learningBlock2","","","","<div style=""font-size:60px;""> </div>","null","LF","learning/Slide102.JPG","This is a bim:","","",""
"html-keyboard-response","313","446148","0.0-7.0-0.22","LF","z4xhznw88z","1920","1080","0","1","0","5fae68d5b74c182cacbe5d6a","","null","","","learningBlock2","","","","This is a dep:","null","","","","","",""
"image-keyboard-response","314","446490","0.0-7.0-1.22","LF","z4xhznw88z","1920","1080","0","1","0","5fae68d5b74c182cacbe5d6a","","null","","","","","","","learning/Slide103.JPG","null","","","","","",""
"html-keyboard-response","315","447504","0.0-7.0-2.22","LF","z4xhznw88z","1920","1080","0","1","0","5fae68d5b74c182cacbe5d6a","","null","","","learningBlock2","","","","<div style=""font-size:60px;""> </div>","null","LF","learning/Slide103.JPG","This is a dep:","","",""
"html-keyboard-response","316","448518","0.0-7.0-0.23","LF","z4xhznw88z","1920","1080","0","1","0","5fae68d5b74c182cacbe5d6a","","null","","","learningBlock2","","","","This is a tob:","null","","","","","",""
"image-keyboard-response","317","448864","0.0-7.0-1.23","LF","z4xhznw88z","1920","1080","0","1","0","5fae68d5b74c182cacbe5d6a","","null","","","","","","","learning/Slide104.JPG","null","","","","","",""
"html-keyboard-response","318","449868","0.0-7.0-2.23","LF","z4xhznw88z","1920","1080","0","1","0","5fae68d5b74c182cacbe5d6a","","null","","","learningBlock2","","","","<div style=""font-size:60px;""> </div>","null","LF","learning/Slide104.JPG","This is a tob:","","",""
"html-keyboard-response","319","450870","0.0-7.0-0.24","LF","z4xhznw88z","1920","1080","0","1","0","5fae68d5b74c182cacbe5d6a","","null","","","learningBlock2","","","","This is a dep:","null","","","","","",""
"image-keyboard-response","320","451200","0.0-7.0-1.24","LF","z4xhznw88z","1920","1080","0","1","0","5fae68d5b74c182cacbe5d6a","","null","","","","","","","learning/Slide105.JPG","null","","","","","",""
"html-keyboard-response","321","452214","0.0-7.0-2.24","LF","z4xhznw88z","1920","1080","0","1","0","5fae68d5b74c182cacbe5d6a","","null","","","learningBlock2","","","","<div style=""font-size:60px;""> </div>","null","LF","learning/Slide105.JPG","This is a dep:","","",""
"html-keyboard-response","322","453218","0.0-7.0-0.25","LF","z4xhznw88z","1920","1080","0","1","0","5fae68d5b74c182cacbe5d6a","","null","","","learningBlock2","","","","This is a wug:","null","","","","","",""
"image-keyboard-response","323","453545","0.0-7.0-1.25","LF","z4xhznw88z","1920","1080","0","1","0","5fae68d5b74c182cacbe5d6a","","null","","","","","","","learning/Slide106.JPG","null","","","","","",""
"html-keyboard-response","324","454552","0.0-7.0-2.25","LF","z4xhznw88z","1920","1080","0","1","0","5fae68d5b74c182cacbe5d6a","","null","","","learningBlock2","","","","<div style=""font-size:60px;""> </div>","null","LF","learning/Slide106.JPG","This is a wug:","","",""
"html-keyboard-response","325","455562","0.0-7.0-0.26","LF","z4xhznw88z","1920","1080","0","1","0","5fae68d5b74c182cacbe5d6a","","null","","","learningBlock2","","","","This is a bim:","null","","","","","",""
"image-keyboard-response","326","455896","0.0-7.0-1.26","LF","z4xhznw88z","1920","1080","0","1","0","5fae68d5b74c182cacbe5d6a","","null","","","","","","","learning/Slide107.JPG","null","","","","","",""
"html-keyboard-response","327","456899","0.0-7.0-2.26","LF","z4xhznw88z","1920","1080","0","1","0","5fae68d5b74c182cacbe5d6a","","null","","","learningBlock2","","","","<div style=""font-size:60px;""> </div>","null","LF","learning/Slide107.JPG","This is a bim:","","",""
"html-keyboard-response","328","457914","0.0-7.0-0.27","LF","z4xhznw88z","1920","1080","0","1","0","5fae68d5b74c182cacbe5d6a","","null","","","learningBlock2","","","","This is a dep:","null","","","","","",""
"image-keyboard-response","329","458270","0.0-7.0-1.27","LF","z4xhznw88z","1920","1080","0","1","0","5fae68d5b74c182cacbe5d6a","","null","","","","","","","learning/Slide108.JPG","null","","","","","",""
"html-keyboard-response","330","459276","0.0-7.0-2.27","LF","z4xhznw88z","1920","1080","0","1","0","5fae68d5b74c182cacbe5d6a","","null","","","learningBlock2","","","","<div style=""font-size:60px;""> </div>","null","LF","learning/Slide108.JPG","This is a dep:","","",""
"html-keyboard-response","331","460280","0.0-7.0-0.28","LF","z4xhznw88z","1920","1080","0","1","0","5fae68d5b74c182cacbe5d6a","","null","","","learningBlock2","","","","This is a wug:","null","","","","","",""
"image-keyboard-response","332","460607","0.0-7.0-1.28","LF","z4xhznw88z","1920","1080","0","1","0","5fae68d5b74c182cacbe5d6a","","null","","","","","","","learning/Slide109.JPG","null","","","","","",""
"html-keyboard-response","333","461623","0.0-7.0-2.28","LF","z4xhznw88z","1920","1080","0","1","0","5fae68d5b74c182cacbe5d6a","","null","","","learningBlock2","","","","<div style=""font-size:60px;""> </div>","null","LF","learning/Slide109.JPG","This is a wug:","","",""
"html-keyboard-response","334","462625","0.0-7.0-0.29","LF","z4xhznw88z","1920","1080","0","1","0","5fae68d5b74c182cacbe5d6a","","null","","","learningBlock2","","","","This is a bim:","null","","","","","",""
"image-keyboard-response","335","462975","0.0-7.0-1.29","LF","z4xhznw88z","1920","1080","0","1","0","5fae68d5b74c182cacbe5d6a","","null","","","","","","","learning/Slide110.JPG","null","","","","","",""
"html-keyboard-response","336","463983","0.0-7.0-2.29","LF","z4xhznw88z","1920","1080","0","1","0","5fae68d5b74c182cacbe5d6a","","null","","","learningBlock2","","","","<div style=""font-size:60px;""> </div>","null","LF","learning/Slide110.JPG","This is a bim:","","",""
"html-keyboard-response","337","464996","0.0-7.0-0.30","LF","z4xhznw88z","1920","1080","0","1","0","5fae68d5b74c182cacbe5d6a","","null","","","learningBlock2","","","","This is a tob:","null","","","","","",""
"image-keyboard-response","338","465328","0.0-7.0-1.30","LF","z4xhznw88z","1920","1080","0","1","0","5fae68d5b74c182cacbe5d6a","","null","","","","","","","learning/Slide111.JPG","null","","","","","",""
"html-keyboard-response","339","466345","0.0-7.0-2.30","LF","z4xhznw88z","1920","1080","0","1","0","5fae68d5b74c182cacbe5d6a","","null","","","learningBlock2","","","","<div style=""font-size:60px;""> </div>","null","LF","learning/Slide111.JPG","This is a tob:","","",""
"html-keyboard-response","340","467358","0.0-7.0-0.31","LF","z4xhznw88z","1920","1080","0","1","0","5fae68d5b74c182cacbe5d6a","","null","","","learningBlock2","","","","This is a wug:","null","","","","","",""
"image-keyboard-response","341","467691","0.0-7.0-1.31","LF","z4xhznw88z","1920","1080","0","1","0","5fae68d5b74c182cacbe5d6a","","null","","","","","","","learning/Slide112.JPG","null","","","","","",""
"html-keyboard-response","342","468706","0.0-7.0-2.31","LF","z4xhznw88z","1920","1080","0","1","0","5fae68d5b74c182cacbe5d6a","","null","","","learningBlock2","","","","<div style=""font-size:60px;""> </div>","null","LF","learning/Slide112.JPG","This is a wug:","","",""
"html-keyboard-response","343","469724","0.0-7.0-0.32","LF","z4xhznw88z","1920","1080","0","1","0","5fae68d5b74c182cacbe5d6a","","null","","","learningBlock2","","","","This is a tob:","null","","","","","",""
"image-keyboard-response","344","470064","0.0-7.0-1.32","LF","z4xhznw88z","1920","1080","0","1","0","5fae68d5b74c182cacbe5d6a","","null","","","","","","","learning/Slide113.JPG","null","","","","","",""
"html-keyboard-response","345","471072","0.0-7.0-2.32","LF","z4xhznw88z","1920","1080","0","1","0","5fae68d5b74c182cacbe5d6a","","null","","","learningBlock2","","","","<div style=""font-size:60px;""> </div>","null","LF","learning/Slide113.JPG","This is a tob:","","",""
"html-keyboard-response","346","472076","0.0-7.0-0.33","LF","z4xhznw88z","1920","1080","0","1","0","5fae68d5b74c182cacbe5d6a","","null","","","learningBlock2","","","","This is a wug:","null","","","","","",""
"image-keyboard-response","347","472402","0.0-7.0-1.33","LF","z4xhznw88z","1920","1080","0","1","0","5fae68d5b74c182cacbe5d6a","","null","","","","","","","learning/Slide114.JPG","null","","","","","",""
"html-keyboard-response","348","473404","0.0-7.0-2.33","LF","z4xhznw88z","1920","1080","0","1","0","5fae68d5b74c182cacbe5d6a","","null","","","learningBlock2","","","","<div style=""font-size:60px;""> </div>","null","LF","learning/Slide114.JPG","This is a wug:","","",""
"html-keyboard-response","349","474410","0.0-7.0-0.34","LF","z4xhznw88z","1920","1080","0","1","0","5fae68d5b74c182cacbe5d6a","","null","","","learningBlock2","","","","This is a bim:","null","","","","","",""
"image-keyboard-response","350","474745","0.0-7.0-1.34","LF","z4xhznw88z","1920","1080","0","1","0","5fae68d5b74c182cacbe5d6a","","null","","","","","","","learning/Slide115.JPG","null","","","","","",""
"html-keyboard-response","351","475755","0.0-7.0-2.34","LF","z4xhznw88z","1920","1080","0","1","0","5fae68d5b74c182cacbe5d6a","","null","","","learningBlock2","","","","<div style=""font-size:60px;""> </div>","null","LF","learning/Slide115.JPG","This is a bim:","","",""
"html-keyboard-response","352","476756","0.0-7.0-0.35","LF","z4xhznw88z","1920","1080","0","1","0","5fae68d5b74c182cacbe5d6a","","null","","","learningBlock2","","","","This is a dep:","null","","","","","",""
"image-keyboard-response","353","477103","0.0-7.0-1.35","LF","z4xhznw88z","1920","1080","0","1","0","5fae68d5b74c182cacbe5d6a","","null","","","","","","","learning/Slide116.JPG","null","","","","","",""
"html-keyboard-response","354","478110","0.0-7.0-2.35","LF","z4xhznw88z","1920","1080","0","1","0","5fae68d5b74c182cacbe5d6a","","null","","","learningBlock2","","","","<div style=""font-size:60px;""> </div>","null","LF","learning/Slide116.JPG","This is a dep:","","",""
"html-keyboard-response","355","479117","0.0-7.0-0.36","LF","z4xhznw88z","1920","1080","0","1","0","5fae68d5b74c182cacbe5d6a","","null","","","learningBlock2","","","","This is a tob:","null","","","","","",""
"image-keyboard-response","356","479455","0.0-7.0-1.36","LF","z4xhznw88z","1920","1080","0","1","0","5fae68d5b74c182cacbe5d6a","","null","","","","","","","learning/Slide117.JPG","null","","","","","",""
"html-keyboard-response","357","480469","0.0-7.0-2.36","LF","z4xhznw88z","1920","1080","0","1","0","5fae68d5b74c182cacbe5d6a","","null","","","learningBlock2","","","","<div style=""font-size:60px;""> </div>","null","LF","learning/Slide117.JPG","This is a tob:","","",""
"html-keyboard-response","358","481480","0.0-7.0-0.37","LF","z4xhznw88z","1920","1080","0","1","0","5fae68d5b74c182cacbe5d6a","","null","","","learningBlock2","","","","This is a dep:","null","","","","","",""
"image-keyboard-response","359","481813","0.0-7.0-1.37","LF","z4xhznw88z","1920","1080","0","1","0","5fae68d5b74c182cacbe5d6a","","null","","","","","","","learning/Slide118.JPG","null","","","","","",""
"html-keyboard-response","360","482825","0.0-7.0-2.37","LF","z4xhznw88z","1920","1080","0","1","0","5fae68d5b74c182cacbe5d6a","","null","","","learningBlock2","","","","<div style=""font-size:60px;""> </div>","null","LF","learning/Slide118.JPG","This is a dep:","","",""
"html-keyboard-response","361","483833","0.0-7.0-0.38","LF","z4xhznw88z","1920","1080","0","1","0","5fae68d5b74c182cacbe5d6a","","null","","","learningBlock2","","","","This is a wug:","null","","","","","",""
"image-keyboard-response","362","484177","0.0-7.0-1.38","LF","z4xhznw88z","1920","1080","0","1","0","5fae68d5b74c182cacbe5d6a","","null","","","","","","","learning/Slide119.JPG","null","","","","","",""
"html-keyboard-response","363","485190","0.0-7.0-2.38","LF","z4xhznw88z","1920","1080","0","1","0","5fae68d5b74c182cacbe5d6a","","null","","","learningBlock2","","","","<div style=""font-size:60px;""> </div>","null","LF","learning/Slide119.JPG","This is a wug:","","",""
"html-keyboard-response","364","486198","0.0-7.0-0.39","LF","z4xhznw88z","1920","1080","0","1","0","5fae68d5b74c182cacbe5d6a","","null","","","learningBlock2","","","","This is a dep:","null","","","","","",""
"image-keyboard-response","365","486540","0.0-7.0-1.39","LF","z4xhznw88z","1920","1080","0","1","0","5fae68d5b74c182cacbe5d6a","","null","","","","","","","learning/Slide120.JPG","null","","","","","",""
"html-keyboard-response","366","487542","0.0-7.0-2.39","LF","z4xhznw88z","1920","1080","0","1","0","5fae68d5b74c182cacbe5d6a","","null","","","learningBlock2","","","","<div style=""font-size:60px;""> </div>","null","LF","learning/Slide120.JPG","This is a dep:","","",""
"html-keyboard-response","367","488550","0.0-7.0-0.40","LF","z4xhznw88z","1920","1080","0","1","0","5fae68d5b74c182cacbe5d6a","","null","","","learningBlock2","","","","This is a bim:","null","","","","","",""
"image-keyboard-response","368","488891","0.0-7.0-1.40","LF","z4xhznw88z","1920","1080","0","1","0","5fae68d5b74c182cacbe5d6a","","null","","","","","","","learning/Slide121.JPG","null","","","","","",""
"html-keyboard-response","369","489894","0.0-7.0-2.40","LF","z4xhznw88z","1920","1080","0","1","0","5fae68d5b74c182cacbe5d6a","","null","","","learningBlock2","","","","<div style=""font-size:60px;""> </div>","null","LF","learning/Slide121.JPG","This is a bim:","","",""
"html-keyboard-response","370","490905","0.0-7.0-0.41","LF","z4xhznw88z","1920","1080","0","1","0","5fae68d5b74c182cacbe5d6a","","null","","","learningBlock2","","","","This is a wug:","null","","","","","",""
"image-keyboard-response","371","491236","0.0-7.0-1.41","LF","z4xhznw88z","1920","1080","0","1","0","5fae68d5b74c182cacbe5d6a","","null","","","","","","","learning/Slide122.JPG","null","","","","","",""
"html-keyboard-response","372","492251","0.0-7.0-2.41","LF","z4xhznw88z","1920","1080","0","1","0","5fae68d5b74c182cacbe5d6a","","null","","","learningBlock2","","","","<div style=""font-size:60px;""> </div>","null","LF","learning/Slide122.JPG","This is a wug:","","",""
"html-keyboard-response","373","493258","0.0-7.0-0.42","LF","z4xhznw88z","1920","1080","0","1","0","5fae68d5b74c182cacbe5d6a","","null","","","learningBlock2","","","","This is a bim:","null","","","","","",""
"image-keyboard-response","374","493595","0.0-7.0-1.42","LF","z4xhznw88z","1920","1080","0","1","0","5fae68d5b74c182cacbe5d6a","","null","","","","","","","learning/Slide123.JPG","null","","","","","",""
"html-keyboard-response","375","494600","0.0-7.0-2.42","LF","z4xhznw88z","1920","1080","0","1","0","5fae68d5b74c182cacbe5d6a","","null","","","learningBlock2","","","","<div style=""font-size:60px;""> </div>","null","LF","learning/Slide123.JPG","This is a bim:","","",""
"html-keyboard-response","376","495602","0.0-7.0-0.43","LF","z4xhznw88z","1920","1080","0","1","0","5fae68d5b74c182cacbe5d6a","","null","","","learningBlock2","","","","This is a tob:","null","","","","","",""
"image-keyboard-response","377","495952","0.0-7.0-1.43","LF","z4xhznw88z","1920","1080","0","1","0","5fae68d5b74c182cacbe5d6a","","null","","","","","","","learning/Slide124.JPG","null","","","","","",""
"html-keyboard-response","378","496968","0.0-7.0-2.43","LF","z4xhznw88z","1920","1080","0","1","0","5fae68d5b74c182cacbe5d6a","","null","","","learningBlock2","","","","<div style=""font-size:60px;""> </div>","null","LF","learning/Slide124.JPG","This is a tob:","","",""
"html-keyboard-response","379","497976","0.0-7.0-0.44","LF","z4xhznw88z","1920","1080","0","1","0","5fae68d5b74c182cacbe5d6a","","null","","","learningBlock2","","","","This is a bim:","null","","","","","",""
"image-keyboard-response","380","498322","0.0-7.0-1.44","LF","z4xhznw88z","1920","1080","0","1","0","5fae68d5b74c182cacbe5d6a","","null","","","","","","","learning/Slide125.JPG","null","","","","","",""
"html-keyboard-response","381","499326","0.0-7.0-2.44","LF","z4xhznw88z","1920","1080","0","1","0","5fae68d5b74c182cacbe5d6a","","null","","","learningBlock2","","","","<div style=""font-size:60px;""> </div>","null","LF","learning/Slide125.JPG","This is a bim:","","",""
"html-keyboard-response","382","500337","0.0-7.0-0.45","LF","z4xhznw88z","1920","1080","0","1","0","5fae68d5b74c182cacbe5d6a","","null","","","learningBlock2","","","","This is a tob:","null","","","","","",""
"image-keyboard-response","383","500665","0.0-7.0-1.45","LF","z4xhznw88z","1920","1080","0","1","0","5fae68d5b74c182cacbe5d6a","","null","","","","","","","learning/Slide126.JPG","null","","","","","",""
"html-keyboard-response","384","501678","0.0-7.0-2.45","LF","z4xhznw88z","1920","1080","0","1","0","5fae68d5b74c182cacbe5d6a","","null","","","learningBlock2","","","","<div style=""font-size:60px;""> </div>","null","LF","learning/Slide126.JPG","This is a tob:","","",""
"html-keyboard-response","385","502690","0.0-7.0-0.46","LF","z4xhznw88z","1920","1080","0","1","0","5fae68d5b74c182cacbe5d6a","","null","","","learningBlock2","","","","This is a dep:","null","","","","","",""
"image-keyboard-response","386","503026","0.0-7.0-1.46","LF","z4xhznw88z","1920","1080","0","1","0","5fae68d5b74c182cacbe5d6a","","null","","","","","","","learning/Slide127.JPG","null","","","","","",""
"html-keyboard-response","387","504039","0.0-7.0-2.46","LF","z4xhznw88z","1920","1080","0","1","0","5fae68d5b74c182cacbe5d6a","","null","","","learningBlock2","","","","<div style=""font-size:60px;""> </div>","null","LF","learning/Slide127.JPG","This is a dep:","","",""
"html-keyboard-response","388","505053","0.0-7.0-0.47","LF","z4xhznw88z","1920","1080","0","1","0","5fae68d5b74c182cacbe5d6a","","null","","","learningBlock2","","","","This is a wug:","null","","","","","",""
"image-keyboard-response","389","505396","0.0-7.0-1.47","LF","z4xhznw88z","1920","1080","0","1","0","5fae68d5b74c182cacbe5d6a","","null","","","","","","","learning/Slide128.JPG","null","","","","","",""
"html-keyboard-response","390","506402","0.0-7.0-2.47","LF","z4xhznw88z","1920","1080","0","1","0","5fae68d5b74c182cacbe5d6a","","null","","","learningBlock2","","","","<div style=""font-size:60px;""> </div>","null","LF","learning/Slide128.JPG","This is a wug:","","",""
"html-keyboard-response","391","507416","0.0-7.0-0.48","LF","z4xhznw88z","1920","1080","0","1","0","5fae68d5b74c182cacbe5d6a","","null","","","learningBlock2","","","","This is a tob:","null","","","","","",""
"image-keyboard-response","392","507743","0.0-7.0-1.48","LF","z4xhznw88z","1920","1080","0","1","0","5fae68d5b74c182cacbe5d6a","","null","","","","","","","learning/Slide129.JPG","null","","","","","",""
"html-keyboard-response","393","508747","0.0-7.0-2.48","LF","z4xhznw88z","1920","1080","0","1","0","5fae68d5b74c182cacbe5d6a","","null","","","learningBlock2","","","","<div style=""font-size:60px;""> </div>","null","LF","learning/Slide129.JPG","This is a tob:","","",""
"html-keyboard-response","394","509751","0.0-7.0-0.49","LF","z4xhznw88z","1920","1080","0","1","0","5fae68d5b74c182cacbe5d6a","","null","","","learningBlock2","","","","This is a wug:","null","","","","","",""
"image-keyboard-response","395","510082","0.0-7.0-1.49","LF","z4xhznw88z","1920","1080","0","1","0","5fae68d5b74c182cacbe5d6a","","null","","","","","","","learning/Slide130.JPG","null","","","","","",""
"html-keyboard-response","396","511086","0.0-7.0-2.49","LF","z4xhznw88z","1920","1080","0","1","0","5fae68d5b74c182cacbe5d6a","","null","","","learningBlock2","","","","<div style=""font-size:60px;""> </div>","null","LF","learning/Slide130.JPG","This is a wug:","","",""
"html-keyboard-response","397","512100","0.0-7.0-0.50","LF","z4xhznw88z","1920","1080","0","1","0","5fae68d5b74c182cacbe5d6a","","null","","","learningBlock2","","","","This is a bim:","null","","","","","",""
"image-keyboard-response","398","512429","0.0-7.0-1.50","LF","z4xhznw88z","1920","1080","0","1","0","5fae68d5b74c182cacbe5d6a","","null","","","","","","","learning/Slide131.JPG","null","","","","","",""
"html-keyboard-response","399","513432","0.0-7.0-2.50","LF","z4xhznw88z","1920","1080","0","1","0","5fae68d5b74c182cacbe5d6a","","null","","","learningBlock2","","","","<div style=""font-size:60px;""> </div>","null","LF","learning/Slide131.JPG","This is a bim:","","",""
"html-keyboard-response","400","514444","0.0-7.0-0.51","LF","z4xhznw88z","1920","1080","0","1","0","5fae68d5b74c182cacbe5d6a","","null","","","learningBlock2","","","","This is a dep:","null","","","","","",""
"image-keyboard-response","401","514791","0.0-7.0-1.51","LF","z4xhznw88z","1920","1080","0","1","0","5fae68d5b74c182cacbe5d6a","","null","","","","","","","learning/Slide132.JPG","null","","","","","",""
"html-keyboard-response","402","515796","0.0-7.0-2.51","LF","z4xhznw88z","1920","1080","0","1","0","5fae68d5b74c182cacbe5d6a","","null","","","learningBlock2","","","","<div style=""font-size:60px;""> </div>","null","LF","learning/Slide132.JPG","This is a dep:","","",""
"html-keyboard-response","403","516798","0.0-7.0-0.52","LF","z4xhznw88z","1920","1080","0","1","0","5fae68d5b74c182cacbe5d6a","","null","","","learningBlock2","","","","This is a tob:","null","","","","","",""
"image-keyboard-response","404","517140","0.0-7.0-1.52","LF","z4xhznw88z","1920","1080","0","1","0","5fae68d5b74c182cacbe5d6a","","null","","","","","","","learning/Slide133.JPG","null","","","","","",""
"html-keyboard-response","405","518151","0.0-7.0-2.52","LF","z4xhznw88z","1920","1080","0","1","0","5fae68d5b74c182cacbe5d6a","","null","","","learningBlock2","","","","<div style=""font-size:60px;""> </div>","null","LF","learning/Slide133.JPG","This is a tob:","","",""
"html-keyboard-response","406","519162","0.0-7.0-0.53","LF","z4xhznw88z","1920","1080","0","1","0","5fae68d5b74c182cacbe5d6a","","null","","","learningBlock2","","","","This is a dep:","null","","","","","",""
"image-keyboard-response","407","519502","0.0-7.0-1.53","LF","z4xhznw88z","1920","1080","0","1","0","5fae68d5b74c182cacbe5d6a","","null","","","","","","","learning/Slide134.JPG","null","","","","","",""
"html-keyboard-response","408","520512","0.0-7.0-2.53","LF","z4xhznw88z","1920","1080","0","1","0","5fae68d5b74c182cacbe5d6a","","null","","","learningBlock2","","","","<div style=""font-size:60px;""> </div>","null","LF","learning/Slide134.JPG","This is a dep:","","",""
"html-keyboard-response","409","521525","0.0-7.0-0.54","LF","z4xhznw88z","1920","1080","0","1","0","5fae68d5b74c182cacbe5d6a","","null","","","learningBlock2","","","","This is a tob:","null","","","","","",""
"image-keyboard-response","410","521861","0.0-7.0-1.54","LF","z4xhznw88z","1920","1080","0","1","0","5fae68d5b74c182cacbe5d6a","","null","","","","","","","learning/Slide135.JPG","null","","","","","",""
"html-keyboard-response","411","522872","0.0-7.0-2.54","LF","z4xhznw88z","1920","1080","0","1","0","5fae68d5b74c182cacbe5d6a","","null","","","learningBlock2","","","","<div style=""font-size:60px;""> </div>","null","LF","learning/Slide135.JPG","This is a tob:","","",""
"html-keyboard-response","412","523876","0.0-7.0-0.55","LF","z4xhznw88z","1920","1080","0","1","0","5fae68d5b74c182cacbe5d6a","","null","","","learningBlock2","","","","This is a wug:","null","","","","","",""
"image-keyboard-response","413","524211","0.0-7.0-1.55","LF","z4xhznw88z","1920","1080","0","1","0","5fae68d5b74c182cacbe5d6a","","null","","","","","","","learning/Slide136.JPG","null","","","","","",""
"html-keyboard-response","414","525223","0.0-7.0-2.55","LF","z4xhznw88z","1920","1080","0","1","0","5fae68d5b74c182cacbe5d6a","","null","","","learningBlock2","","","","<div style=""font-size:60px;""> </div>","null","LF","learning/Slide136.JPG","This is a wug:","","",""
"html-keyboard-response","415","526233","0.0-7.0-0.56","LF","z4xhznw88z","1920","1080","0","1","0","5fae68d5b74c182cacbe5d6a","","null","","","learningBlock2","","","","This is a tob:","null","","","","","",""
"image-keyboard-response","416","526566","0.0-7.0-1.56","LF","z4xhznw88z","1920","1080","0","1","0","5fae68d5b74c182cacbe5d6a","","null","","","","","","","learning/Slide137.JPG","null","","","","","",""
"html-keyboard-response","417","527579","0.0-7.0-2.56","LF","z4xhznw88z","1920","1080","0","1","0","5fae68d5b74c182cacbe5d6a","","null","","","learningBlock2","","","","<div style=""font-size:60px;""> </div>","null","LF","learning/Slide137.JPG","This is a tob:","","",""
"html-keyboard-response","418","528585","0.0-7.0-0.57","LF","z4xhznw88z","1920","1080","0","1","0","5fae68d5b74c182cacbe5d6a","","null","","","learningBlock2","","","","This is a bim:","null","","","","","",""
"image-keyboard-response","419","528932","0.0-7.0-1.57","LF","z4xhznw88z","1920","1080","0","1","0","5fae68d5b74c182cacbe5d6a","","null","","","","","","","learning/Slide138.JPG","null","","","","","",""
"html-keyboard-response","420","529934","0.0-7.0-2.57","LF","z4xhznw88z","1920","1080","0","1","0","5fae68d5b74c182cacbe5d6a","","null","","","learningBlock2","","","","<div style=""font-size:60px;""> </div>","null","LF","learning/Slide138.JPG","This is a bim:","","",""
"html-keyboard-response","421","530941","0.0-7.0-0.58","LF","z4xhznw88z","1920","1080","0","1","0","5fae68d5b74c182cacbe5d6a","","null","","","learningBlock2","","","","This is a wug:","null","","","","","",""
"image-keyboard-response","422","531273","0.0-7.0-1.58","LF","z4xhznw88z","1920","1080","0","1","0","5fae68d5b74c182cacbe5d6a","","null","","","","","","","learning/Slide139.JPG","null","","","","","",""
"html-keyboard-response","423","532274","0.0-7.0-2.58","LF","z4xhznw88z","1920","1080","0","1","0","5fae68d5b74c182cacbe5d6a","","null","","","learningBlock2","","","","<div style=""font-size:60px;""> </div>","null","LF","learning/Slide139.JPG","This is a wug:","","",""
"html-keyboard-response","424","533289","0.0-7.0-0.59","LF","z4xhznw88z","1920","1080","0","1","0","5fae68d5b74c182cacbe5d6a","","null","","","learningBlock2","","","","This is a dep:","null","","","","","",""
"image-keyboard-response","425","533616","0.0-7.0-1.59","LF","z4xhznw88z","1920","1080","0","1","0","5fae68d5b74c182cacbe5d6a","","null","","","","","","","learning/Slide140.JPG","null","","","","","",""
"html-keyboard-response","426","534617","0.0-7.0-2.59","LF","z4xhznw88z","1920","1080","0","1","0","5fae68d5b74c182cacbe5d6a","","null","","","learningBlock2","","","","<div style=""font-size:60px;""> </div>","null","LF","learning/Slide140.JPG","This is a dep:","","",""
"html-keyboard-response","427","535632","0.0-7.0-0.60","LF","z4xhznw88z","1920","1080","0","1","0","5fae68d5b74c182cacbe5d6a","","null","","","learningBlock2","","","","This is a tob:","null","","","","","",""
"image-keyboard-response","428","535967","0.0-7.0-1.60","LF","z4xhznw88z","1920","1080","0","1","0","5fae68d5b74c182cacbe5d6a","","null","","","","","","","learning/Slide141.JPG","null","","","","","",""
"html-keyboard-response","429","536983","0.0-7.0-2.60","LF","z4xhznw88z","1920","1080","0","1","0","5fae68d5b74c182cacbe5d6a","","null","","","learningBlock2","","","","<div style=""font-size:60px;""> </div>","null","LF","learning/Slide141.JPG","This is a tob:","","",""
"html-keyboard-response","430","537986","0.0-7.0-0.61","LF","z4xhznw88z","1920","1080","0","1","0","5fae68d5b74c182cacbe5d6a","","null","","","learningBlock2","","","","This is a wug:","null","","","","","",""
"image-keyboard-response","431","538323","0.0-7.0-1.61","LF","z4xhznw88z","1920","1080","0","1","0","5fae68d5b74c182cacbe5d6a","","null","","","","","","","learning/Slide142.JPG","null","","","","","",""
"html-keyboard-response","432","539330","0.0-7.0-2.61","LF","z4xhznw88z","1920","1080","0","1","0","5fae68d5b74c182cacbe5d6a","","null","","","learningBlock2","","","","<div style=""font-size:60px;""> </div>","null","LF","learning/Slide142.JPG","This is a wug:","","",""
"html-keyboard-response","433","540343","0.0-7.0-0.62","LF","z4xhznw88z","1920","1080","0","1","0","5fae68d5b74c182cacbe5d6a","","null","","","learningBlock2","","","","This is a bim:","null","","","","","",""
"image-keyboard-response","434","540683","0.0-7.0-1.62","LF","z4xhznw88z","1920","1080","0","1","0","5fae68d5b74c182cacbe5d6a","","null","","","","","","","learning/Slide143.JPG","null","","","","","",""
"html-keyboard-response","435","541702","0.0-7.0-2.62","LF","z4xhznw88z","1920","1080","0","1","0","5fae68d5b74c182cacbe5d6a","","null","","","learningBlock2","","","","<div style=""font-size:60px;""> </div>","null","LF","learning/Slide143.JPG","This is a bim:","","",""
