"trial_type","trial_index","time_elapsed","internal_node_id","condition","subject","screen_width","screen_height","attention","distraction","conscientious","prolificID","success","rt","url","view_history","test_part","final_height_px","final_width_px","scale_factor","stimulus","key_press","learningType","presentedImage","presentedLabel","button_pressed","response","responses"
"pavlovia","0","30","0.0-0.0","LF","f9gvt2ubve","1536","864","0","1","0","5f529cd9e0a90c58773ec3fe","","","","","","","","","","","","","","","",""
"fullscreen","1","28264","0.0-1.0","LF","f9gvt2ubve","1536","864","0","1","0","5f529cd9e0a90c58773ec3fe","true","","","","","","","","","","","","","","",""
"external-html","2","170542","0.0-2.0-0.0","LF","f9gvt2ubve","1536","864","0","1","0","5f529cd9e0a90c58773ec3fe","","141850","text/information_english.html","","","","","","","","","","","","",""
"external-html","3","185840","0.0-2.0-1.0","LF","f9gvt2ubve","1536","864","0","1","0","5f529cd9e0a90c58773ec3fe","","14901","text/consent_english.html","","","","","","","","","","","","",""
"instructions","4","294419","0.0-3.0","LF","f9gvt2ubve","1536","864","0","1","0","5f529cd9e0a90c58773ec3fe","","NA","","[{""page_index"":0,""viewing_time"":92109},{""page_index"":1,""viewing_time"":16468}]","instructions","","","","","","","","","","",""
"resize","5","420282","0.0-4.0","LF","f9gvt2ubve","1536","864","0","1","0","5f529cd9e0a90c58773ec3fe","","","","","","","392","2.488888888888889","","","","","","","",""
"html-keyboard-response","6","421288","0.0-5.0-0.0","LF","f9gvt2ubve","1536","864","0","1","0","5f529cd9e0a90c58773ec3fe","","null","","","learningBlock1","","","","This is a tob:","null","","","","","",""
"image-keyboard-response","7","421638","0.0-5.0-1.0","LF","f9gvt2ubve","1536","864","0","1","0","5f529cd9e0a90c58773ec3fe","","null","","","","","","","learning/Slide1.JPG","null","","","","","",""
"html-keyboard-response","8","422658","0.0-5.0-2.0","LF","f9gvt2ubve","1536","864","0","1","0","5f529cd9e0a90c58773ec3fe","","null","","","learningBlock1","","","","<div style=""font-size:60px;""> </div>","null","LF","learning/Slide1.JPG","This is a tob:","","",""
"html-keyboard-response","9","423678","0.0-5.0-0.1","LF","f9gvt2ubve","1536","864","0","1","0","5f529cd9e0a90c58773ec3fe","","null","","","learningBlock1","","","","This is a wug:","null","","","","","",""
"image-keyboard-response","10","424028","0.0-5.0-1.1","LF","f9gvt2ubve","1536","864","0","1","0","5f529cd9e0a90c58773ec3fe","","null","","","","","","","learning/Slide2.JPG","null","","","","","",""
"html-keyboard-response","11","425038","0.0-5.0-2.1","LF","f9gvt2ubve","1536","864","0","1","0","5f529cd9e0a90c58773ec3fe","","null","","","learningBlock1","","","","<div style=""font-size:60px;""> </div>","null","LF","learning/Slide2.JPG","This is a wug:","","",""
"html-keyboard-response","12","426048","0.0-5.0-0.2","LF","f9gvt2ubve","1536","864","0","1","0","5f529cd9e0a90c58773ec3fe","","null","","","learningBlock1","","","","This is a bim:","null","","","","","",""
"image-keyboard-response","13","426392","0.0-5.0-1.2","LF","f9gvt2ubve","1536","864","0","1","0","5f529cd9e0a90c58773ec3fe","","null","","","","","","","learning/Slide3.JPG","null","","","","","",""
"html-keyboard-response","14","427408","0.0-5.0-2.2","LF","f9gvt2ubve","1536","864","0","1","0","5f529cd9e0a90c58773ec3fe","","null","","","learningBlock1","","","","<div style=""font-size:60px;""> </div>","null","LF","learning/Slide3.JPG","This is a bim:","","",""
"html-keyboard-response","15","428427","0.0-5.0-0.3","LF","f9gvt2ubve","1536","864","0","1","0","5f529cd9e0a90c58773ec3fe","","null","","","learningBlock1","","","","This is a dep:","null","","","","","",""
"image-keyboard-response","16","428787","0.0-5.0-1.3","LF","f9gvt2ubve","1536","864","0","1","0","5f529cd9e0a90c58773ec3fe","","null","","","","","","","learning/Slide4.JPG","null","","","","","",""
"html-keyboard-response","17","429808","0.0-5.0-2.3","LF","f9gvt2ubve","1536","864","0","1","0","5f529cd9e0a90c58773ec3fe","","null","","","learningBlock1","","","","<div style=""font-size:60px;""> </div>","null","LF","learning/Slide4.JPG","This is a dep:","","",""
"html-keyboard-response","18","430817","0.0-5.0-0.4","LF","f9gvt2ubve","1536","864","0","1","0","5f529cd9e0a90c58773ec3fe","","null","","","learningBlock1","","","","This is a wug:","null","","","","","",""
"image-keyboard-response","19","431158","0.0-5.0-1.4","LF","f9gvt2ubve","1536","864","0","1","0","5f529cd9e0a90c58773ec3fe","","null","","","","","","","learning/Slide5.JPG","null","","","","","",""
"html-keyboard-response","20","432167","0.0-5.0-2.4","LF","f9gvt2ubve","1536","864","0","1","0","5f529cd9e0a90c58773ec3fe","","null","","","learningBlock1","","","","<div style=""font-size:60px;""> </div>","null","LF","learning/Slide5.JPG","This is a wug:","","",""
"html-keyboard-response","21","433177","0.0-5.0-0.5","LF","f9gvt2ubve","1536","864","0","1","0","5f529cd9e0a90c58773ec3fe","","null","","","learningBlock1","","","","This is a dep:","null","","","","","",""
"image-keyboard-response","22","433517","0.0-5.0-1.5","LF","f9gvt2ubve","1536","864","0","1","0","5f529cd9e0a90c58773ec3fe","","null","","","","","","","learning/Slide6.JPG","null","","","","","",""
"html-keyboard-response","23","434537","0.0-5.0-2.5","LF","f9gvt2ubve","1536","864","0","1","0","5f529cd9e0a90c58773ec3fe","","null","","","learningBlock1","","","","<div style=""font-size:60px;""> </div>","null","LF","learning/Slide6.JPG","This is a dep:","","",""
"html-keyboard-response","24","435547","0.0-5.0-0.6","LF","f9gvt2ubve","1536","864","0","1","0","5f529cd9e0a90c58773ec3fe","","null","","","learningBlock1","","","","This is a wug:","null","","","","","",""
"image-keyboard-response","25","435877","0.0-5.0-1.6","LF","f9gvt2ubve","1536","864","0","1","0","5f529cd9e0a90c58773ec3fe","","null","","","","","","","learning/Slide7.JPG","null","","","","","",""
"html-keyboard-response","26","436897","0.0-5.0-2.6","LF","f9gvt2ubve","1536","864","0","1","0","5f529cd9e0a90c58773ec3fe","","null","","","learningBlock1","","","","<div style=""font-size:60px;""> </div>","null","LF","learning/Slide7.JPG","This is a wug:","","",""
"html-keyboard-response","27","437908","0.0-5.0-0.7","LF","f9gvt2ubve","1536","864","0","1","0","5f529cd9e0a90c58773ec3fe","","null","","","learningBlock1","","","","This is a bim:","null","","","","","",""
"image-keyboard-response","28","438248","0.0-5.0-1.7","LF","f9gvt2ubve","1536","864","0","1","0","5f529cd9e0a90c58773ec3fe","","null","","","","","","","learning/Slide8.JPG","null","","","","","",""
"html-keyboard-response","29","439268","0.0-5.0-2.7","LF","f9gvt2ubve","1536","864","0","1","0","5f529cd9e0a90c58773ec3fe","","null","","","learningBlock1","","","","<div style=""font-size:60px;""> </div>","null","LF","learning/Slide8.JPG","This is a bim:","","",""
"html-keyboard-response","30","440276","0.0-5.0-0.8","LF","f9gvt2ubve","1536","864","0","1","0","5f529cd9e0a90c58773ec3fe","","null","","","learningBlock1","","","","This is a wug:","null","","","","","",""
"image-keyboard-response","31","440608","0.0-5.0-1.8","LF","f9gvt2ubve","1536","864","0","1","0","5f529cd9e0a90c58773ec3fe","","null","","","","","","","learning/Slide9.JPG","null","","","","","",""
"html-keyboard-response","32","441627","0.0-5.0-2.8","LF","f9gvt2ubve","1536","864","0","1","0","5f529cd9e0a90c58773ec3fe","","null","","","learningBlock1","","","","<div style=""font-size:60px;""> </div>","null","LF","learning/Slide9.JPG","This is a wug:","","",""
"html-keyboard-response","33","442648","0.0-5.0-0.9","LF","f9gvt2ubve","1536","864","0","1","0","5f529cd9e0a90c58773ec3fe","","null","","","learningBlock1","","","","This is a dep:","null","","","","","",""
"image-keyboard-response","34","442988","0.0-5.0-1.9","LF","f9gvt2ubve","1536","864","0","1","0","5f529cd9e0a90c58773ec3fe","","null","","","","","","","learning/Slide10.JPG","null","","","","","",""
"html-keyboard-response","35","443998","0.0-5.0-2.9","LF","f9gvt2ubve","1536","864","0","1","0","5f529cd9e0a90c58773ec3fe","","null","","","learningBlock1","","","","<div style=""font-size:60px;""> </div>","null","LF","learning/Slide10.JPG","This is a dep:","","",""
"html-keyboard-response","36","445017","0.0-5.0-0.10","LF","f9gvt2ubve","1536","864","0","1","0","5f529cd9e0a90c58773ec3fe","","null","","","learningBlock1","","","","This is a tob:","null","","","","","",""
"image-keyboard-response","37","445368","0.0-5.0-1.10","LF","f9gvt2ubve","1536","864","0","1","0","5f529cd9e0a90c58773ec3fe","","null","","","","","","","learning/Slide11.JPG","null","","","","","",""
"html-keyboard-response","38","446387","0.0-5.0-2.10","LF","f9gvt2ubve","1536","864","0","1","0","5f529cd9e0a90c58773ec3fe","","null","","","learningBlock1","","","","<div style=""font-size:60px;""> </div>","null","LF","learning/Slide11.JPG","This is a tob:","","",""
"html-keyboard-response","39","447392","0.0-5.0-0.11","LF","f9gvt2ubve","1536","864","0","1","0","5f529cd9e0a90c58773ec3fe","","null","","","learningBlock1","","","","This is a dep:","null","","","","","",""
"image-keyboard-response","40","447727","0.0-5.0-1.11","LF","f9gvt2ubve","1536","864","0","1","0","5f529cd9e0a90c58773ec3fe","","null","","","","","","","learning/Slide12.JPG","null","","","","","",""
"html-keyboard-response","41","448747","0.0-5.0-2.11","LF","f9gvt2ubve","1536","864","0","1","0","5f529cd9e0a90c58773ec3fe","","null","","","learningBlock1","","","","<div style=""font-size:60px;""> </div>","null","LF","learning/Slide12.JPG","This is a dep:","","",""
"html-keyboard-response","42","449758","0.0-5.0-0.12","LF","f9gvt2ubve","1536","864","0","1","0","5f529cd9e0a90c58773ec3fe","","null","","","learningBlock1","","","","This is a bim:","null","","","","","",""
"image-keyboard-response","43","450097","0.0-5.0-1.12","LF","f9gvt2ubve","1536","864","0","1","0","5f529cd9e0a90c58773ec3fe","","null","","","","","","","learning/Slide13.JPG","null","","","","","",""
"html-keyboard-response","44","451117","0.0-5.0-2.12","LF","f9gvt2ubve","1536","864","0","1","0","5f529cd9e0a90c58773ec3fe","","null","","","learningBlock1","","","","<div style=""font-size:60px;""> </div>","null","LF","learning/Slide13.JPG","This is a bim:","","",""
"html-keyboard-response","45","452138","0.0-5.0-0.13","LF","f9gvt2ubve","1536","864","0","1","0","5f529cd9e0a90c58773ec3fe","","null","","","learningBlock1","","","","This is a wug:","null","","","","","",""
"image-keyboard-response","46","452477","0.0-5.0-1.13","LF","f9gvt2ubve","1536","864","0","1","0","5f529cd9e0a90c58773ec3fe","","null","","","","","","","learning/Slide14.JPG","null","","","","","",""
"html-keyboard-response","47","453493","0.0-5.0-2.13","LF","f9gvt2ubve","1536","864","0","1","0","5f529cd9e0a90c58773ec3fe","","null","","","learningBlock1","","","","<div style=""font-size:60px;""> </div>","null","LF","learning/Slide14.JPG","This is a wug:","","",""
"html-keyboard-response","48","454517","0.0-5.0-0.14","LF","f9gvt2ubve","1536","864","0","1","0","5f529cd9e0a90c58773ec3fe","","null","","","learningBlock1","","","","This is a tob:","null","","","","","",""
"image-keyboard-response","49","454858","0.0-5.0-1.14","LF","f9gvt2ubve","1536","864","0","1","0","5f529cd9e0a90c58773ec3fe","","null","","","","","","","learning/Slide15.JPG","null","","","","","",""
"html-keyboard-response","50","455867","0.0-5.0-2.14","LF","f9gvt2ubve","1536","864","0","1","0","5f529cd9e0a90c58773ec3fe","","null","","","learningBlock1","","","","<div style=""font-size:60px;""> </div>","null","LF","learning/Slide15.JPG","This is a tob:","","",""
"html-keyboard-response","51","456877","0.0-5.0-0.15","LF","f9gvt2ubve","1536","864","0","1","0","5f529cd9e0a90c58773ec3fe","","null","","","learningBlock1","","","","This is a dep:","null","","","","","",""
"image-keyboard-response","52","457228","0.0-5.0-1.15","LF","f9gvt2ubve","1536","864","0","1","0","5f529cd9e0a90c58773ec3fe","","null","","","","","","","learning/Slide16.JPG","null","","","","","",""
"html-keyboard-response","53","458247","0.0-5.0-2.15","LF","f9gvt2ubve","1536","864","0","1","0","5f529cd9e0a90c58773ec3fe","","null","","","learningBlock1","","","","<div style=""font-size:60px;""> </div>","null","LF","learning/Slide16.JPG","This is a dep:","","",""
"html-keyboard-response","54","459267","0.0-5.0-0.16","LF","f9gvt2ubve","1536","864","0","1","0","5f529cd9e0a90c58773ec3fe","","null","","","learningBlock1","","","","This is a bim:","null","","","","","",""
"image-keyboard-response","55","459618","0.0-5.0-1.16","LF","f9gvt2ubve","1536","864","0","1","0","5f529cd9e0a90c58773ec3fe","","null","","","","","","","learning/Slide17.JPG","null","","","","","",""
"html-keyboard-response","56","460627","0.0-5.0-2.16","LF","f9gvt2ubve","1536","864","0","1","0","5f529cd9e0a90c58773ec3fe","","null","","","learningBlock1","","","","<div style=""font-size:60px;""> </div>","null","LF","learning/Slide17.JPG","This is a bim:","","",""
"html-keyboard-response","57","461638","0.0-5.0-0.17","LF","f9gvt2ubve","1536","864","0","1","0","5f529cd9e0a90c58773ec3fe","","null","","","learningBlock1","","","","This is a tob:","null","","","","","",""
"image-keyboard-response","58","461988","0.0-5.0-1.17","LF","f9gvt2ubve","1536","864","0","1","0","5f529cd9e0a90c58773ec3fe","","null","","","","","","","learning/Slide18.JPG","null","","","","","",""
"html-keyboard-response","59","463008","0.0-5.0-2.17","LF","f9gvt2ubve","1536","864","0","1","0","5f529cd9e0a90c58773ec3fe","","null","","","learningBlock1","","","","<div style=""font-size:60px;""> </div>","null","LF","learning/Slide18.JPG","This is a tob:","","",""
"html-keyboard-response","60","464028","0.0-5.0-0.18","LF","f9gvt2ubve","1536","864","0","1","0","5f529cd9e0a90c58773ec3fe","","null","","","learningBlock1","","","","This is a wug:","null","","","","","",""
"image-keyboard-response","61","464367","0.0-5.0-1.18","LF","f9gvt2ubve","1536","864","0","1","0","5f529cd9e0a90c58773ec3fe","","null","","","","","","","learning/Slide19.JPG","null","","","","","",""
"html-keyboard-response","62","465377","0.0-5.0-2.18","LF","f9gvt2ubve","1536","864","0","1","0","5f529cd9e0a90c58773ec3fe","","null","","","learningBlock1","","","","<div style=""font-size:60px;""> </div>","null","LF","learning/Slide19.JPG","This is a wug:","","",""
"html-keyboard-response","63","466383","0.0-5.0-0.19","LF","f9gvt2ubve","1536","864","0","1","0","5f529cd9e0a90c58773ec3fe","","null","","","learningBlock1","","","","This is a bim:","null","","","","","",""
"image-keyboard-response","64","466738","0.0-5.0-1.19","LF","f9gvt2ubve","1536","864","0","1","0","5f529cd9e0a90c58773ec3fe","","null","","","","","","","learning/Slide20.JPG","null","","","","","",""
"html-keyboard-response","65","467758","0.0-5.0-2.19","LF","f9gvt2ubve","1536","864","0","1","0","5f529cd9e0a90c58773ec3fe","","null","","","learningBlock1","","","","<div style=""font-size:60px;""> </div>","null","LF","learning/Slide20.JPG","This is a bim:","","",""
"html-keyboard-response","66","468777","0.0-5.0-0.20","LF","f9gvt2ubve","1536","864","0","1","0","5f529cd9e0a90c58773ec3fe","","null","","","learningBlock1","","","","This is a dep:","null","","","","","",""
"image-keyboard-response","67","469117","0.0-5.0-1.20","LF","f9gvt2ubve","1536","864","0","1","0","5f529cd9e0a90c58773ec3fe","","null","","","","","","","learning/Slide21.JPG","null","","","","","",""
"html-keyboard-response","68","470137","0.0-5.0-2.20","LF","f9gvt2ubve","1536","864","0","1","0","5f529cd9e0a90c58773ec3fe","","null","","","learningBlock1","","","","<div style=""font-size:60px;""> </div>","null","LF","learning/Slide21.JPG","This is a dep:","","",""
"html-keyboard-response","69","471147","0.0-5.0-0.21","LF","f9gvt2ubve","1536","864","0","1","0","5f529cd9e0a90c58773ec3fe","","null","","","learningBlock1","","","","This is a bim:","null","","","","","",""
"image-keyboard-response","70","471508","0.0-5.0-1.21","LF","f9gvt2ubve","1536","864","0","1","0","5f529cd9e0a90c58773ec3fe","","null","","","","","","","learning/Slide22.JPG","null","","","","","",""
"html-keyboard-response","71","472528","0.0-5.0-2.21","LF","f9gvt2ubve","1536","864","0","1","0","5f529cd9e0a90c58773ec3fe","","null","","","learningBlock1","","","","<div style=""font-size:60px;""> </div>","null","LF","learning/Slide22.JPG","This is a bim:","","",""
"html-keyboard-response","72","473534","0.0-5.0-0.22","LF","f9gvt2ubve","1536","864","0","1","0","5f529cd9e0a90c58773ec3fe","","null","","","learningBlock1","","","","This is a tob:","null","","","","","",""
"image-keyboard-response","73","473877","0.0-5.0-1.22","LF","f9gvt2ubve","1536","864","0","1","0","5f529cd9e0a90c58773ec3fe","","null","","","","","","","learning/Slide23.JPG","null","","","","","",""
"html-keyboard-response","74","474887","0.0-5.0-2.22","LF","f9gvt2ubve","1536","864","0","1","0","5f529cd9e0a90c58773ec3fe","","null","","","learningBlock1","","","","<div style=""font-size:60px;""> </div>","null","LF","learning/Slide23.JPG","This is a tob:","","",""
"html-keyboard-response","75","475898","0.0-5.0-0.23","LF","f9gvt2ubve","1536","864","0","1","0","5f529cd9e0a90c58773ec3fe","","null","","","learningBlock1","","","","This is a wug:","null","","","","","",""
"image-keyboard-response","76","476238","0.0-5.0-1.23","LF","f9gvt2ubve","1536","864","0","1","0","5f529cd9e0a90c58773ec3fe","","null","","","","","","","learning/Slide24.JPG","null","","","","","",""
"html-keyboard-response","77","477247","0.0-5.0-2.23","LF","f9gvt2ubve","1536","864","0","1","0","5f529cd9e0a90c58773ec3fe","","null","","","learningBlock1","","","","<div style=""font-size:60px;""> </div>","null","LF","learning/Slide24.JPG","This is a wug:","","",""
"html-keyboard-response","78","478256","0.0-5.0-0.24","LF","f9gvt2ubve","1536","864","0","1","0","5f529cd9e0a90c58773ec3fe","","null","","","learningBlock1","","","","This is a dep:","null","","","","","",""
"image-keyboard-response","79","478598","0.0-5.0-1.24","LF","f9gvt2ubve","1536","864","0","1","0","5f529cd9e0a90c58773ec3fe","","null","","","","","","","learning/Slide25.JPG","null","","","","","",""
"html-keyboard-response","80","479607","0.0-5.0-2.24","LF","f9gvt2ubve","1536","864","0","1","0","5f529cd9e0a90c58773ec3fe","","null","","","learningBlock1","","","","<div style=""font-size:60px;""> </div>","null","LF","learning/Slide25.JPG","This is a dep:","","",""
"html-keyboard-response","81","480627","0.0-5.0-0.25","LF","f9gvt2ubve","1536","864","0","1","0","5f529cd9e0a90c58773ec3fe","","null","","","learningBlock1","","","","This is a wug:","null","","","","","",""
"image-keyboard-response","82","480967","0.0-5.0-1.25","LF","f9gvt2ubve","1536","864","0","1","0","5f529cd9e0a90c58773ec3fe","","null","","","","","","","learning/Slide26.JPG","null","","","","","",""
"html-keyboard-response","83","481988","0.0-5.0-2.25","LF","f9gvt2ubve","1536","864","0","1","0","5f529cd9e0a90c58773ec3fe","","null","","","learningBlock1","","","","<div style=""font-size:60px;""> </div>","null","LF","learning/Slide26.JPG","This is a wug:","","",""
"html-keyboard-response","84","483006","0.0-5.0-0.26","LF","f9gvt2ubve","1536","864","0","1","0","5f529cd9e0a90c58773ec3fe","","null","","","learningBlock1","","","","This is a bim:","null","","","","","",""
"image-keyboard-response","85","483347","0.0-5.0-1.26","LF","f9gvt2ubve","1536","864","0","1","0","5f529cd9e0a90c58773ec3fe","","null","","","","","","","learning/Slide27.JPG","null","","","","","",""
"html-keyboard-response","86","484358","0.0-5.0-2.26","LF","f9gvt2ubve","1536","864","0","1","0","5f529cd9e0a90c58773ec3fe","","null","","","learningBlock1","","","","<div style=""font-size:60px;""> </div>","null","LF","learning/Slide27.JPG","This is a bim:","","",""
"html-keyboard-response","87","485378","0.0-5.0-0.27","LF","f9gvt2ubve","1536","864","0","1","0","5f529cd9e0a90c58773ec3fe","","null","","","learningBlock1","","","","This is a dep:","null","","","","","",""
"image-keyboard-response","88","485717","0.0-5.0-1.27","LF","f9gvt2ubve","1536","864","0","1","0","5f529cd9e0a90c58773ec3fe","","null","","","","","","","learning/Slide28.JPG","null","","","","","",""
"html-keyboard-response","89","486737","0.0-5.0-2.27","LF","f9gvt2ubve","1536","864","0","1","0","5f529cd9e0a90c58773ec3fe","","null","","","learningBlock1","","","","<div style=""font-size:60px;""> </div>","null","LF","learning/Slide28.JPG","This is a dep:","","",""
"html-keyboard-response","90","487757","0.0-5.0-0.28","LF","f9gvt2ubve","1536","864","0","1","0","5f529cd9e0a90c58773ec3fe","","null","","","learningBlock1","","","","This is a tob:","null","","","","","",""
"image-keyboard-response","91","488108","0.0-5.0-1.28","LF","f9gvt2ubve","1536","864","0","1","0","5f529cd9e0a90c58773ec3fe","","null","","","","","","","learning/Slide29.JPG","null","","","","","",""
"html-keyboard-response","92","489123","0.0-5.0-2.28","LF","f9gvt2ubve","1536","864","0","1","0","5f529cd9e0a90c58773ec3fe","","null","","","learningBlock1","","","","<div style=""font-size:60px;""> </div>","null","LF","learning/Slide29.JPG","This is a tob:","","",""
"html-keyboard-response","93","490137","0.0-5.0-0.29","LF","f9gvt2ubve","1536","864","0","1","0","5f529cd9e0a90c58773ec3fe","","null","","","learningBlock1","","","","This is a dep:","null","","","","","",""
"image-keyboard-response","94","490478","0.0-5.0-1.29","LF","f9gvt2ubve","1536","864","0","1","0","5f529cd9e0a90c58773ec3fe","","null","","","","","","","learning/Slide30.JPG","null","","","","","",""
"html-keyboard-response","95","491498","0.0-5.0-2.29","LF","f9gvt2ubve","1536","864","0","1","0","5f529cd9e0a90c58773ec3fe","","null","","","learningBlock1","","","","<div style=""font-size:60px;""> </div>","null","LF","learning/Slide30.JPG","This is a dep:","","",""
"html-keyboard-response","96","492517","0.0-5.0-0.30","LF","f9gvt2ubve","1536","864","0","1","0","5f529cd9e0a90c58773ec3fe","","null","","","learningBlock1","","","","This is a wug:","null","","","","","",""
"image-keyboard-response","97","492867","0.0-5.0-1.30","LF","f9gvt2ubve","1536","864","0","1","0","5f529cd9e0a90c58773ec3fe","","null","","","","","","","learning/Slide31.JPG","null","","","","","",""
"html-keyboard-response","98","493881","0.0-5.0-2.30","LF","f9gvt2ubve","1536","864","0","1","0","5f529cd9e0a90c58773ec3fe","","null","","","learningBlock1","","","","<div style=""font-size:60px;""> </div>","null","LF","learning/Slide31.JPG","This is a wug:","","",""
"html-keyboard-response","99","494888","0.0-5.0-0.31","LF","f9gvt2ubve","1536","864","0","1","0","5f529cd9e0a90c58773ec3fe","","null","","","learningBlock1","","","","This is a tob:","null","","","","","",""
"image-keyboard-response","100","495228","0.0-5.0-1.31","LF","f9gvt2ubve","1536","864","0","1","0","5f529cd9e0a90c58773ec3fe","","null","","","","","","","learning/Slide32.JPG","null","","","","","",""
"html-keyboard-response","101","496248","0.0-5.0-2.31","LF","f9gvt2ubve","1536","864","0","1","0","5f529cd9e0a90c58773ec3fe","","null","","","learningBlock1","","","","<div style=""font-size:60px;""> </div>","null","LF","learning/Slide32.JPG","This is a tob:","","",""
"html-keyboard-response","102","497258","0.0-5.0-0.32","LF","f9gvt2ubve","1536","864","0","1","0","5f529cd9e0a90c58773ec3fe","","null","","","learningBlock1","","","","This is a bim:","null","","","","","",""
"image-keyboard-response","103","497607","0.0-5.0-1.32","LF","f9gvt2ubve","1536","864","0","1","0","5f529cd9e0a90c58773ec3fe","","null","","","","","","","learning/Slide33.JPG","null","","","","","",""
"html-keyboard-response","104","498617","0.0-5.0-2.32","LF","f9gvt2ubve","1536","864","0","1","0","5f529cd9e0a90c58773ec3fe","","null","","","learningBlock1","","","","<div style=""font-size:60px;""> </div>","null","LF","learning/Slide33.JPG","This is a bim:","","",""
"html-keyboard-response","105","499627","0.0-5.0-0.33","LF","f9gvt2ubve","1536","864","0","1","0","5f529cd9e0a90c58773ec3fe","","null","","","learningBlock1","","","","This is a tob:","null","","","","","",""
"image-keyboard-response","106","499967","0.0-5.0-1.33","LF","f9gvt2ubve","1536","864","0","1","0","5f529cd9e0a90c58773ec3fe","","null","","","","","","","learning/Slide34.JPG","null","","","","","",""
"html-keyboard-response","107","500987","0.0-5.0-2.33","LF","f9gvt2ubve","1536","864","0","1","0","5f529cd9e0a90c58773ec3fe","","null","","","learningBlock1","","","","<div style=""font-size:60px;""> </div>","null","LF","learning/Slide34.JPG","This is a tob:","","",""
"html-keyboard-response","108","501998","0.0-5.0-0.34","LF","f9gvt2ubve","1536","864","0","1","0","5f529cd9e0a90c58773ec3fe","","null","","","learningBlock1","","","","This is a bim:","null","","","","","",""
"image-keyboard-response","109","502337","0.0-5.0-1.34","LF","f9gvt2ubve","1536","864","0","1","0","5f529cd9e0a90c58773ec3fe","","null","","","","","","","learning/Slide35.JPG","null","","","","","",""
"html-keyboard-response","110","503347","0.0-5.0-2.34","LF","f9gvt2ubve","1536","864","0","1","0","5f529cd9e0a90c58773ec3fe","","null","","","learningBlock1","","","","<div style=""font-size:60px;""> </div>","null","LF","learning/Slide35.JPG","This is a bim:","","",""
"html-keyboard-response","111","504363","0.0-5.0-0.35","LF","f9gvt2ubve","1536","864","0","1","0","5f529cd9e0a90c58773ec3fe","","null","","","learningBlock1","","","","This is a dep:","null","","","","","",""
"image-keyboard-response","112","504697","0.0-5.0-1.35","LF","f9gvt2ubve","1536","864","0","1","0","5f529cd9e0a90c58773ec3fe","","null","","","","","","","learning/Slide36.JPG","null","","","","","",""
"html-keyboard-response","113","505717","0.0-5.0-2.35","LF","f9gvt2ubve","1536","864","0","1","0","5f529cd9e0a90c58773ec3fe","","null","","","learningBlock1","","","","<div style=""font-size:60px;""> </div>","null","LF","learning/Slide36.JPG","This is a dep:","","",""
"html-keyboard-response","114","506738","0.0-5.0-0.36","LF","f9gvt2ubve","1536","864","0","1","0","5f529cd9e0a90c58773ec3fe","","null","","","learningBlock1","","","","This is a tob:","null","","","","","",""
"image-keyboard-response","115","507077","0.0-5.0-1.36","LF","f9gvt2ubve","1536","864","0","1","0","5f529cd9e0a90c58773ec3fe","","null","","","","","","","learning/Slide37.JPG","null","","","","","",""
"html-keyboard-response","116","508083","0.0-5.0-2.36","LF","f9gvt2ubve","1536","864","0","1","0","5f529cd9e0a90c58773ec3fe","","null","","","learningBlock1","","","","<div style=""font-size:60px;""> </div>","null","LF","learning/Slide37.JPG","This is a tob:","","",""
"html-keyboard-response","117","509097","0.0-5.0-0.37","LF","f9gvt2ubve","1536","864","0","1","0","5f529cd9e0a90c58773ec3fe","","null","","","learningBlock1","","","","This is a wug:","null","","","","","",""
"image-keyboard-response","118","509457","0.0-5.0-1.37","LF","f9gvt2ubve","1536","864","0","1","0","5f529cd9e0a90c58773ec3fe","","null","","","","","","","learning/Slide38.JPG","null","","","","","",""
"html-keyboard-response","119","510477","0.0-5.0-2.37","LF","f9gvt2ubve","1536","864","0","1","0","5f529cd9e0a90c58773ec3fe","","null","","","learningBlock1","","","","<div style=""font-size:60px;""> </div>","null","LF","learning/Slide38.JPG","This is a wug:","","",""
"html-keyboard-response","120","511487","0.0-5.0-0.38","LF","f9gvt2ubve","1536","864","0","1","0","5f529cd9e0a90c58773ec3fe","","null","","","learningBlock1","","","","This is a bim:","null","","","","","",""
"image-keyboard-response","121","511838","0.0-5.0-1.38","LF","f9gvt2ubve","1536","864","0","1","0","5f529cd9e0a90c58773ec3fe","","null","","","","","","","learning/Slide39.JPG","null","","","","","",""
"html-keyboard-response","122","512857","0.0-5.0-2.38","LF","f9gvt2ubve","1536","864","0","1","0","5f529cd9e0a90c58773ec3fe","","null","","","learningBlock1","","","","<div style=""font-size:60px;""> </div>","null","LF","learning/Slide39.JPG","This is a bim:","","",""
"html-keyboard-response","123","513878","0.0-5.0-0.39","LF","f9gvt2ubve","1536","864","0","1","0","5f529cd9e0a90c58773ec3fe","","null","","","learningBlock1","","","","This is a tob:","null","","","","","",""
"image-keyboard-response","124","514227","0.0-5.0-1.39","LF","f9gvt2ubve","1536","864","0","1","0","5f529cd9e0a90c58773ec3fe","","null","","","","","","","learning/Slide40.JPG","null","","","","","",""
"html-keyboard-response","125","515247","0.0-5.0-2.39","LF","f9gvt2ubve","1536","864","0","1","0","5f529cd9e0a90c58773ec3fe","","null","","","learningBlock1","","","","<div style=""font-size:60px;""> </div>","null","LF","learning/Slide40.JPG","This is a tob:","","",""
"html-keyboard-response","126","516267","0.0-5.0-0.40","LF","f9gvt2ubve","1536","864","0","1","0","5f529cd9e0a90c58773ec3fe","","null","","","learningBlock1","","","","This is a bim:","null","","","","","",""
"image-keyboard-response","127","516607","0.0-5.0-1.40","LF","f9gvt2ubve","1536","864","0","1","0","5f529cd9e0a90c58773ec3fe","","null","","","","","","","learning/Slide41.JPG","null","","","","","",""
"html-keyboard-response","128","517617","0.0-5.0-2.40","LF","f9gvt2ubve","1536","864","0","1","0","5f529cd9e0a90c58773ec3fe","","null","","","learningBlock1","","","","<div style=""font-size:60px;""> </div>","null","LF","learning/Slide41.JPG","This is a bim:","","",""
"html-keyboard-response","129","518627","0.0-5.0-0.41","LF","f9gvt2ubve","1536","864","0","1","0","5f529cd9e0a90c58773ec3fe","","null","","","learningBlock1","","","","This is a dep:","null","","","","","",""
"image-keyboard-response","130","518967","0.0-5.0-1.41","LF","f9gvt2ubve","1536","864","0","1","0","5f529cd9e0a90c58773ec3fe","","null","","","","","","","learning/Slide42.JPG","null","","","","","",""
"html-keyboard-response","131","519977","0.0-5.0-2.41","LF","f9gvt2ubve","1536","864","0","1","0","5f529cd9e0a90c58773ec3fe","","null","","","learningBlock1","","","","<div style=""font-size:60px;""> </div>","null","LF","learning/Slide42.JPG","This is a dep:","","",""
"html-keyboard-response","132","520987","0.0-5.0-0.42","LF","f9gvt2ubve","1536","864","0","1","0","5f529cd9e0a90c58773ec3fe","","null","","","learningBlock1","","","","This is a wug:","null","","","","","",""
"image-keyboard-response","133","521347","0.0-5.0-1.42","LF","f9gvt2ubve","1536","864","0","1","0","5f529cd9e0a90c58773ec3fe","","null","","","","","","","learning/Slide43.JPG","null","","","","","",""
"html-keyboard-response","134","522358","0.0-5.0-2.42","LF","f9gvt2ubve","1536","864","0","1","0","5f529cd9e0a90c58773ec3fe","","null","","","learningBlock1","","","","<div style=""font-size:60px;""> </div>","null","LF","learning/Slide43.JPG","This is a wug:","","",""
"html-keyboard-response","135","523367","0.0-5.0-0.43","LF","f9gvt2ubve","1536","864","0","1","0","5f529cd9e0a90c58773ec3fe","","null","","","learningBlock1","","","","This is a bim:","null","","","","","",""
"image-keyboard-response","136","523708","0.0-5.0-1.43","LF","f9gvt2ubve","1536","864","0","1","0","5f529cd9e0a90c58773ec3fe","","null","","","","","","","learning/Slide44.JPG","null","","","","","",""
"html-keyboard-response","137","524728","0.0-5.0-2.43","LF","f9gvt2ubve","1536","864","0","1","0","5f529cd9e0a90c58773ec3fe","","null","","","learningBlock1","","","","<div style=""font-size:60px;""> </div>","null","LF","learning/Slide44.JPG","This is a bim:","","",""
"html-keyboard-response","138","525748","0.0-5.0-0.44","LF","f9gvt2ubve","1536","864","0","1","0","5f529cd9e0a90c58773ec3fe","","null","","","learningBlock1","","","","This is a wug:","null","","","","","",""
"image-keyboard-response","139","526098","0.0-5.0-1.44","LF","f9gvt2ubve","1536","864","0","1","0","5f529cd9e0a90c58773ec3fe","","null","","","","","","","learning/Slide45.JPG","null","","","","","",""
"html-keyboard-response","140","527118","0.0-5.0-2.44","LF","f9gvt2ubve","1536","864","0","1","0","5f529cd9e0a90c58773ec3fe","","null","","","learningBlock1","","","","<div style=""font-size:60px;""> </div>","null","LF","learning/Slide45.JPG","This is a wug:","","",""
"html-keyboard-response","141","528138","0.0-5.0-0.45","LF","f9gvt2ubve","1536","864","0","1","0","5f529cd9e0a90c58773ec3fe","","null","","","learningBlock1","","","","This is a dep:","null","","","","","",""
"image-keyboard-response","142","528477","0.0-5.0-1.45","LF","f9gvt2ubve","1536","864","0","1","0","5f529cd9e0a90c58773ec3fe","","null","","","","","","","learning/Slide46.JPG","null","","","","","",""
"html-keyboard-response","143","529498","0.0-5.0-2.45","LF","f9gvt2ubve","1536","864","0","1","0","5f529cd9e0a90c58773ec3fe","","null","","","learningBlock1","","","","<div style=""font-size:60px;""> </div>","null","LF","learning/Slide46.JPG","This is a dep:","","",""
"html-keyboard-response","144","530517","0.0-5.0-0.46","LF","f9gvt2ubve","1536","864","0","1","0","5f529cd9e0a90c58773ec3fe","","null","","","learningBlock1","","","","This is a tob:","null","","","","","",""
"image-keyboard-response","145","530867","0.0-5.0-1.46","LF","f9gvt2ubve","1536","864","0","1","0","5f529cd9e0a90c58773ec3fe","","null","","","","","","","learning/Slide47.JPG","null","","","","","",""
"html-keyboard-response","146","531877","0.0-5.0-2.46","LF","f9gvt2ubve","1536","864","0","1","0","5f529cd9e0a90c58773ec3fe","","null","","","learningBlock1","","","","<div style=""font-size:60px;""> </div>","null","LF","learning/Slide47.JPG","This is a tob:","","",""
"html-keyboard-response","147","532888","0.0-5.0-0.47","LF","f9gvt2ubve","1536","864","0","1","0","5f529cd9e0a90c58773ec3fe","","null","","","learningBlock1","","","","This is a bim:","null","","","","","",""
"image-keyboard-response","148","533242","0.0-5.0-1.47","LF","f9gvt2ubve","1536","864","0","1","0","5f529cd9e0a90c58773ec3fe","","null","","","","","","","learning/Slide48.JPG","null","","","","","",""
"html-keyboard-response","149","534248","0.0-5.0-2.47","LF","f9gvt2ubve","1536","864","0","1","0","5f529cd9e0a90c58773ec3fe","","null","","","learningBlock1","","","","<div style=""font-size:60px;""> </div>","null","LF","learning/Slide48.JPG","This is a bim:","","",""
"html-keyboard-response","150","535257","0.0-5.0-0.48","LF","f9gvt2ubve","1536","864","0","1","0","5f529cd9e0a90c58773ec3fe","","null","","","learningBlock1","","","","This is a dep:","null","","","","","",""
"image-keyboard-response","151","535597","0.0-5.0-1.48","LF","f9gvt2ubve","1536","864","0","1","0","5f529cd9e0a90c58773ec3fe","","null","","","","","","","learning/Slide49.JPG","null","","","","","",""
"html-keyboard-response","152","536617","0.0-5.0-2.48","LF","f9gvt2ubve","1536","864","0","1","0","5f529cd9e0a90c58773ec3fe","","null","","","learningBlock1","","","","<div style=""font-size:60px;""> </div>","null","LF","learning/Slide49.JPG","This is a dep:","","",""
"html-keyboard-response","153","537627","0.0-5.0-0.49","LF","f9gvt2ubve","1536","864","0","1","0","5f529cd9e0a90c58773ec3fe","","null","","","learningBlock1","","","","This is a tob:","null","","","","","",""
"image-keyboard-response","154","537967","0.0-5.0-1.49","LF","f9gvt2ubve","1536","864","0","1","0","5f529cd9e0a90c58773ec3fe","","null","","","","","","","learning/Slide50.JPG","null","","","","","",""
"html-keyboard-response","155","538988","0.0-5.0-2.49","LF","f9gvt2ubve","1536","864","0","1","0","5f529cd9e0a90c58773ec3fe","","null","","","learningBlock1","","","","<div style=""font-size:60px;""> </div>","null","LF","learning/Slide50.JPG","This is a tob:","","",""
"html-keyboard-response","156","539994","0.0-5.0-0.50","LF","f9gvt2ubve","1536","864","0","1","0","5f529cd9e0a90c58773ec3fe","","null","","","learningBlock1","","","","This is a bim:","null","","","","","",""
"image-keyboard-response","157","540337","0.0-5.0-1.50","LF","f9gvt2ubve","1536","864","0","1","0","5f529cd9e0a90c58773ec3fe","","null","","","","","","","learning/Slide51.JPG","null","","","","","",""
"html-keyboard-response","158","541357","0.0-5.0-2.50","LF","f9gvt2ubve","1536","864","0","1","0","5f529cd9e0a90c58773ec3fe","","null","","","learningBlock1","","","","<div style=""font-size:60px;""> </div>","null","LF","learning/Slide51.JPG","This is a bim:","","",""
"html-keyboard-response","159","542366","0.0-5.0-0.51","LF","f9gvt2ubve","1536","864","0","1","0","5f529cd9e0a90c58773ec3fe","","null","","","learningBlock1","","","","This is a wug:","null","","","","","",""
"image-keyboard-response","160","542708","0.0-5.0-1.51","LF","f9gvt2ubve","1536","864","0","1","0","5f529cd9e0a90c58773ec3fe","","null","","","","","","","learning/Slide52.JPG","null","","","","","",""
"html-keyboard-response","161","543728","0.0-5.0-2.51","LF","f9gvt2ubve","1536","864","0","1","0","5f529cd9e0a90c58773ec3fe","","null","","","learningBlock1","","","","<div style=""font-size:60px;""> </div>","null","LF","learning/Slide52.JPG","This is a wug:","","",""
"html-keyboard-response","162","544737","0.0-5.0-0.52","LF","f9gvt2ubve","1536","864","0","1","0","5f529cd9e0a90c58773ec3fe","","null","","","learningBlock1","","","","This is a tob:","null","","","","","",""
"image-keyboard-response","163","545077","0.0-5.0-1.52","LF","f9gvt2ubve","1536","864","0","1","0","5f529cd9e0a90c58773ec3fe","","null","","","","","","","learning/Slide53.JPG","null","","","","","",""
"html-keyboard-response","164","546097","0.0-5.0-2.52","LF","f9gvt2ubve","1536","864","0","1","0","5f529cd9e0a90c58773ec3fe","","null","","","learningBlock1","","","","<div style=""font-size:60px;""> </div>","null","LF","learning/Slide53.JPG","This is a tob:","","",""
"html-keyboard-response","165","547107","0.0-5.0-0.53","LF","f9gvt2ubve","1536","864","0","1","0","5f529cd9e0a90c58773ec3fe","","null","","","learningBlock1","","","","This is a dep:","null","","","","","",""
"image-keyboard-response","166","547458","0.0-5.0-1.53","LF","f9gvt2ubve","1536","864","0","1","0","5f529cd9e0a90c58773ec3fe","","null","","","","","","","learning/Slide54.JPG","null","","","","","",""
"html-keyboard-response","167","548477","0.0-5.0-2.53","LF","f9gvt2ubve","1536","864","0","1","0","5f529cd9e0a90c58773ec3fe","","null","","","learningBlock1","","","","<div style=""font-size:60px;""> </div>","null","LF","learning/Slide54.JPG","This is a dep:","","",""
"html-keyboard-response","168","549498","0.0-5.0-0.54","LF","f9gvt2ubve","1536","864","0","1","0","5f529cd9e0a90c58773ec3fe","","null","","","learningBlock1","","","","This is a bim:","null","","","","","",""
"image-keyboard-response","169","549837","0.0-5.0-1.54","LF","f9gvt2ubve","1536","864","0","1","0","5f529cd9e0a90c58773ec3fe","","null","","","","","","","learning/Slide55.JPG","null","","","","","",""
"html-keyboard-response","170","550847","0.0-5.0-2.54","LF","f9gvt2ubve","1536","864","0","1","0","5f529cd9e0a90c58773ec3fe","","null","","","learningBlock1","","","","<div style=""font-size:60px;""> </div>","null","LF","learning/Slide55.JPG","This is a bim:","","",""
"html-keyboard-response","171","551857","0.0-5.0-0.55","LF","f9gvt2ubve","1536","864","0","1","0","5f529cd9e0a90c58773ec3fe","","null","","","learningBlock1","","","","This is a tob:","null","","","","","",""
"image-keyboard-response","172","552217","0.0-5.0-1.55","LF","f9gvt2ubve","1536","864","0","1","0","5f529cd9e0a90c58773ec3fe","","null","","","","","","","learning/Slide56.JPG","null","","","","","",""
"html-keyboard-response","173","553228","0.0-5.0-2.55","LF","f9gvt2ubve","1536","864","0","1","0","5f529cd9e0a90c58773ec3fe","","null","","","learningBlock1","","","","<div style=""font-size:60px;""> </div>","null","LF","learning/Slide56.JPG","This is a tob:","","",""
"html-keyboard-response","174","554247","0.0-5.0-0.56","LF","f9gvt2ubve","1536","864","0","1","0","5f529cd9e0a90c58773ec3fe","","null","","","learningBlock1","","","","This is a dep:","null","","","","","",""
"image-keyboard-response","175","554597","0.0-5.0-1.56","LF","f9gvt2ubve","1536","864","0","1","0","5f529cd9e0a90c58773ec3fe","","null","","","","","","","learning/Slide57.JPG","null","","","","","",""
"html-keyboard-response","176","555617","0.0-5.0-2.56","LF","f9gvt2ubve","1536","864","0","1","0","5f529cd9e0a90c58773ec3fe","","null","","","learningBlock1","","","","<div style=""font-size:60px;""> </div>","null","LF","learning/Slide57.JPG","This is a dep:","","",""
"html-keyboard-response","177","556627","0.0-5.0-0.57","LF","f9gvt2ubve","1536","864","0","1","0","5f529cd9e0a90c58773ec3fe","","null","","","learningBlock1","","","","This is a wug:","null","","","","","",""
"image-keyboard-response","178","556977","0.0-5.0-1.57","LF","f9gvt2ubve","1536","864","0","1","0","5f529cd9e0a90c58773ec3fe","","null","","","","","","","learning/Slide58.JPG","null","","","","","",""
"html-keyboard-response","179","557998","0.0-5.0-2.57","LF","f9gvt2ubve","1536","864","0","1","0","5f529cd9e0a90c58773ec3fe","","null","","","learningBlock1","","","","<div style=""font-size:60px;""> </div>","null","LF","learning/Slide58.JPG","This is a wug:","","",""
"html-keyboard-response","180","559017","0.0-5.0-0.58","LF","f9gvt2ubve","1536","864","0","1","0","5f529cd9e0a90c58773ec3fe","","null","","","learningBlock1","","","","This is a dep:","null","","","","","",""
"image-keyboard-response","181","559357","0.0-5.0-1.58","LF","f9gvt2ubve","1536","864","0","1","0","5f529cd9e0a90c58773ec3fe","","null","","","","","","","learning/Slide59.JPG","null","","","","","",""
"html-keyboard-response","182","560367","0.0-5.0-2.58","LF","f9gvt2ubve","1536","864","0","1","0","5f529cd9e0a90c58773ec3fe","","null","","","learningBlock1","","","","<div style=""font-size:60px;""> </div>","null","LF","learning/Slide59.JPG","This is a dep:","","",""
"html-keyboard-response","183","561387","0.0-5.0-0.59","LF","f9gvt2ubve","1536","864","0","1","0","5f529cd9e0a90c58773ec3fe","","null","","","learningBlock1","","","","This is a wug:","null","","","","","",""
"image-keyboard-response","184","561728","0.0-5.0-1.59","LF","f9gvt2ubve","1536","864","0","1","0","5f529cd9e0a90c58773ec3fe","","null","","","","","","","learning/Slide60.JPG","null","","","","","",""
"html-keyboard-response","185","562737","0.0-5.0-2.59","LF","f9gvt2ubve","1536","864","0","1","0","5f529cd9e0a90c58773ec3fe","","null","","","learningBlock1","","","","<div style=""font-size:60px;""> </div>","null","LF","learning/Slide60.JPG","This is a wug:","","",""
"html-keyboard-response","186","563748","0.0-5.0-0.60","LF","f9gvt2ubve","1536","864","0","1","0","5f529cd9e0a90c58773ec3fe","","null","","","learningBlock1","","","","This is a bim:","null","","","","","",""
"image-keyboard-response","187","564097","0.0-5.0-1.60","LF","f9gvt2ubve","1536","864","0","1","0","5f529cd9e0a90c58773ec3fe","","null","","","","","","","learning/Slide61.JPG","null","","","","","",""
"html-keyboard-response","188","565118","0.0-5.0-2.60","LF","f9gvt2ubve","1536","864","0","1","0","5f529cd9e0a90c58773ec3fe","","null","","","learningBlock1","","","","<div style=""font-size:60px;""> </div>","null","LF","learning/Slide61.JPG","This is a bim:","","",""
"html-keyboard-response","189","566137","0.0-5.0-0.61","LF","f9gvt2ubve","1536","864","0","1","0","5f529cd9e0a90c58773ec3fe","","null","","","learningBlock1","","","","This is a dep:","null","","","","","",""
"image-keyboard-response","190","566477","0.0-5.0-1.61","LF","f9gvt2ubve","1536","864","0","1","0","5f529cd9e0a90c58773ec3fe","","null","","","","","","","learning/Slide62.JPG","null","","","","","",""
"html-keyboard-response","191","567488","0.0-5.0-2.61","LF","f9gvt2ubve","1536","864","0","1","0","5f529cd9e0a90c58773ec3fe","","null","","","learningBlock1","","","","<div style=""font-size:60px;""> </div>","null","LF","learning/Slide62.JPG","This is a dep:","","",""
"html-keyboard-response","192","568507","0.0-5.0-0.62","LF","f9gvt2ubve","1536","864","0","1","0","5f529cd9e0a90c58773ec3fe","","null","","","learningBlock1","","","","This is a bim:","null","","","","","",""
"image-keyboard-response","193","568847","0.0-5.0-1.62","LF","f9gvt2ubve","1536","864","0","1","0","5f529cd9e0a90c58773ec3fe","","null","","","","","","","learning/Slide63.JPG","null","","","","","",""
"html-keyboard-response","194","569867","0.0-5.0-2.62","LF","f9gvt2ubve","1536","864","0","1","0","5f529cd9e0a90c58773ec3fe","","null","","","learningBlock1","","","","<div style=""font-size:60px;""> </div>","null","LF","learning/Slide63.JPG","This is a bim:","","",""
"html-keyboard-response","195","570877","0.0-5.0-0.63","LF","f9gvt2ubve","1536","864","0","1","0","5f529cd9e0a90c58773ec3fe","","null","","","learningBlock1","","","","This is a tob:","null","","","","","",""
"image-keyboard-response","196","571227","0.0-5.0-1.63","LF","f9gvt2ubve","1536","864","0","1","0","5f529cd9e0a90c58773ec3fe","","null","","","","","","","learning/Slide64.JPG","null","","","","","",""
"html-keyboard-response","197","572232","0.0-5.0-2.63","LF","f9gvt2ubve","1536","864","0","1","0","5f529cd9e0a90c58773ec3fe","","null","","","learningBlock1","","","","<div style=""font-size:60px;""> </div>","null","LF","learning/Slide64.JPG","This is a tob:","","",""
"html-keyboard-response","198","573237","0.0-5.0-0.64","LF","f9gvt2ubve","1536","864","0","1","0","5f529cd9e0a90c58773ec3fe","","null","","","learningBlock1","","","","This is a wug:","null","","","","","",""
"image-keyboard-response","199","573572","0.0-5.0-1.64","LF","f9gvt2ubve","1536","864","0","1","0","5f529cd9e0a90c58773ec3fe","","null","","","","","","","learning/Slide65.JPG","null","","","","","",""
"html-keyboard-response","200","574587","0.0-5.0-2.64","LF","f9gvt2ubve","1536","864","0","1","0","5f529cd9e0a90c58773ec3fe","","null","","","learningBlock1","","","","<div style=""font-size:60px;""> </div>","null","LF","learning/Slide65.JPG","This is a wug:","","",""
"html-keyboard-response","201","575598","0.0-5.0-0.65","LF","f9gvt2ubve","1536","864","0","1","0","5f529cd9e0a90c58773ec3fe","","null","","","learningBlock1","","","","This is a dep:","null","","","","","",""
"image-keyboard-response","202","575937","0.0-5.0-1.65","LF","f9gvt2ubve","1536","864","0","1","0","5f529cd9e0a90c58773ec3fe","","null","","","","","","","learning/Slide66.JPG","null","","","","","",""
"html-keyboard-response","203","576947","0.0-5.0-2.65","LF","f9gvt2ubve","1536","864","0","1","0","5f529cd9e0a90c58773ec3fe","","null","","","learningBlock1","","","","<div style=""font-size:60px;""> </div>","null","LF","learning/Slide66.JPG","This is a dep:","","",""
"html-keyboard-response","204","577967","0.0-5.0-0.66","LF","f9gvt2ubve","1536","864","0","1","0","5f529cd9e0a90c58773ec3fe","","null","","","learningBlock1","","","","This is a tob:","null","","","","","",""
"image-keyboard-response","205","578317","0.0-5.0-1.66","LF","f9gvt2ubve","1536","864","0","1","0","5f529cd9e0a90c58773ec3fe","","null","","","","","","","learning/Slide67.JPG","null","","","","","",""
"html-keyboard-response","206","579337","0.0-5.0-2.66","LF","f9gvt2ubve","1536","864","0","1","0","5f529cd9e0a90c58773ec3fe","","null","","","learningBlock1","","","","<div style=""font-size:60px;""> </div>","null","LF","learning/Slide67.JPG","This is a tob:","","",""
"html-keyboard-response","207","580357","0.0-5.0-0.67","LF","f9gvt2ubve","1536","864","0","1","0","5f529cd9e0a90c58773ec3fe","","null","","","learningBlock1","","","","This is a wug:","null","","","","","",""
"image-keyboard-response","208","580697","0.0-5.0-1.67","LF","f9gvt2ubve","1536","864","0","1","0","5f529cd9e0a90c58773ec3fe","","null","","","","","","","learning/Slide68.JPG","null","","","","","",""
"html-keyboard-response","209","581717","0.0-5.0-2.67","LF","f9gvt2ubve","1536","864","0","1","0","5f529cd9e0a90c58773ec3fe","","null","","","learningBlock1","","","","<div style=""font-size:60px;""> </div>","null","LF","learning/Slide68.JPG","This is a wug:","","",""
"html-keyboard-response","210","582727","0.0-5.0-0.68","LF","f9gvt2ubve","1536","864","0","1","0","5f529cd9e0a90c58773ec3fe","","null","","","learningBlock1","","","","This is a tob:","null","","","","","",""
"image-keyboard-response","211","583087","0.0-5.0-1.68","LF","f9gvt2ubve","1536","864","0","1","0","5f529cd9e0a90c58773ec3fe","","null","","","","","","","learning/Slide69.JPG","null","","","","","",""
"html-keyboard-response","212","584098","0.0-5.0-2.68","LF","f9gvt2ubve","1536","864","0","1","0","5f529cd9e0a90c58773ec3fe","","null","","","learningBlock1","","","","<div style=""font-size:60px;""> </div>","null","LF","learning/Slide69.JPG","This is a tob:","","",""
"html-keyboard-response","213","585117","0.0-5.0-0.69","LF","f9gvt2ubve","1536","864","0","1","0","5f529cd9e0a90c58773ec3fe","","null","","","learningBlock1","","","","This is a dep:","null","","","","","",""
"image-keyboard-response","214","585467","0.0-5.0-1.69","LF","f9gvt2ubve","1536","864","0","1","0","5f529cd9e0a90c58773ec3fe","","null","","","","","","","learning/Slide70.JPG","null","","","","","",""
"html-keyboard-response","215","586477","0.0-5.0-2.69","LF","f9gvt2ubve","1536","864","0","1","0","5f529cd9e0a90c58773ec3fe","","null","","","learningBlock1","","","","<div style=""font-size:60px;""> </div>","null","LF","learning/Slide70.JPG","This is a dep:","","",""
"html-keyboard-response","216","587494","0.0-5.0-0.70","LF","f9gvt2ubve","1536","864","0","1","0","5f529cd9e0a90c58773ec3fe","","null","","","learningBlock1","","","","This is a wug:","null","","","","","",""
"image-keyboard-response","217","587837","0.0-5.0-1.70","LF","f9gvt2ubve","1536","864","0","1","0","5f529cd9e0a90c58773ec3fe","","null","","","","","","","learning/Slide71.JPG","null","","","","","",""
"html-keyboard-response","218","588857","0.0-5.0-2.70","LF","f9gvt2ubve","1536","864","0","1","0","5f529cd9e0a90c58773ec3fe","","null","","","learningBlock1","","","","<div style=""font-size:60px;""> </div>","null","LF","learning/Slide71.JPG","This is a wug:","","",""
"html-keyboard-response","219","589877","0.0-5.0-0.71","LF","f9gvt2ubve","1536","864","0","1","0","5f529cd9e0a90c58773ec3fe","","null","","","learningBlock1","","","","This is a bim:","null","","","","","",""
"image-keyboard-response","220","590226","0.0-5.0-1.71","LF","f9gvt2ubve","1536","864","0","1","0","5f529cd9e0a90c58773ec3fe","","null","","","","","","","learning/Slide72.JPG","null","","","","","",""
"html-keyboard-response","221","591240","0.0-5.0-2.71","LF","f9gvt2ubve","1536","864","0","1","0","5f529cd9e0a90c58773ec3fe","","null","","","learningBlock1","","","","<div style=""font-size:60px;""> </div>","null","LF","learning/Slide72.JPG","This is a bim:","","",""
"html-keyboard-response","222","592247","0.0-5.0-0.72","LF","f9gvt2ubve","1536","864","0","1","0","5f529cd9e0a90c58773ec3fe","","null","","","learningBlock1","","","","This is a wug:","null","","","","","",""
"image-keyboard-response","223","592587","0.0-5.0-1.72","LF","f9gvt2ubve","1536","864","0","1","0","5f529cd9e0a90c58773ec3fe","","null","","","","","","","learning/Slide73.JPG","null","","","","","",""
"html-keyboard-response","224","593607","0.0-5.0-2.72","LF","f9gvt2ubve","1536","864","0","1","0","5f529cd9e0a90c58773ec3fe","","null","","","learningBlock1","","","","<div style=""font-size:60px;""> </div>","null","LF","learning/Slide73.JPG","This is a wug:","","",""
"html-keyboard-response","225","594627","0.0-5.0-0.73","LF","f9gvt2ubve","1536","864","0","1","0","5f529cd9e0a90c58773ec3fe","","null","","","learningBlock1","","","","This is a dep:","null","","","","","",""
"image-keyboard-response","226","594967","0.0-5.0-1.73","LF","f9gvt2ubve","1536","864","0","1","0","5f529cd9e0a90c58773ec3fe","","null","","","","","","","learning/Slide74.JPG","null","","","","","",""
"html-keyboard-response","227","595978","0.0-5.0-2.73","LF","f9gvt2ubve","1536","864","0","1","0","5f529cd9e0a90c58773ec3fe","","null","","","learningBlock1","","","","<div style=""font-size:60px;""> </div>","null","LF","learning/Slide74.JPG","This is a dep:","","",""
"html-keyboard-response","228","596987","0.0-5.0-0.74","LF","f9gvt2ubve","1536","864","0","1","0","5f529cd9e0a90c58773ec3fe","","null","","","learningBlock1","","","","This is a tob:","null","","","","","",""
"image-keyboard-response","229","597327","0.0-5.0-1.74","LF","f9gvt2ubve","1536","864","0","1","0","5f529cd9e0a90c58773ec3fe","","null","","","","","","","learning/Slide75.JPG","null","","","","","",""
"html-keyboard-response","230","598337","0.0-5.0-2.74","LF","f9gvt2ubve","1536","864","0","1","0","5f529cd9e0a90c58773ec3fe","","null","","","learningBlock1","","","","<div style=""font-size:60px;""> </div>","null","LF","learning/Slide75.JPG","This is a tob:","","",""
"html-keyboard-response","231","599357","0.0-5.0-0.75","LF","f9gvt2ubve","1536","864","0","1","0","5f529cd9e0a90c58773ec3fe","","null","","","learningBlock1","","","","This is a bim:","null","","","","","",""
"image-keyboard-response","232","599697","0.0-5.0-1.75","LF","f9gvt2ubve","1536","864","0","1","0","5f529cd9e0a90c58773ec3fe","","null","","","","","","","learning/Slide76.JPG","null","","","","","",""
"html-keyboard-response","233","600717","0.0-5.0-2.75","LF","f9gvt2ubve","1536","864","0","1","0","5f529cd9e0a90c58773ec3fe","","null","","","learningBlock1","","","","<div style=""font-size:60px;""> </div>","null","LF","learning/Slide76.JPG","This is a bim:","","",""
"html-keyboard-response","234","601727","0.0-5.0-0.76","LF","f9gvt2ubve","1536","864","0","1","0","5f529cd9e0a90c58773ec3fe","","null","","","learningBlock1","","","","This is a tob:","null","","","","","",""
"image-keyboard-response","235","602067","0.0-5.0-1.76","LF","f9gvt2ubve","1536","864","0","1","0","5f529cd9e0a90c58773ec3fe","","null","","","","","","","learning/Slide77.JPG","null","","","","","",""
"html-keyboard-response","236","603077","0.0-5.0-2.76","LF","f9gvt2ubve","1536","864","0","1","0","5f529cd9e0a90c58773ec3fe","","null","","","learningBlock1","","","","<div style=""font-size:60px;""> </div>","null","LF","learning/Slide77.JPG","This is a tob:","","",""
"html-keyboard-response","237","604087","0.0-5.0-0.77","LF","f9gvt2ubve","1536","864","0","1","0","5f529cd9e0a90c58773ec3fe","","null","","","learningBlock1","","","","This is a wug:","null","","","","","",""
"image-keyboard-response","238","604426","0.0-5.0-1.77","LF","f9gvt2ubve","1536","864","0","1","0","5f529cd9e0a90c58773ec3fe","","null","","","","","","","learning/Slide78.JPG","null","","","","","",""
"html-keyboard-response","239","605437","0.0-5.0-2.77","LF","f9gvt2ubve","1536","864","0","1","0","5f529cd9e0a90c58773ec3fe","","null","","","learningBlock1","","","","<div style=""font-size:60px;""> </div>","null","LF","learning/Slide78.JPG","This is a wug:","","",""
"html-keyboard-response","240","606457","0.0-5.0-0.78","LF","f9gvt2ubve","1536","864","0","1","0","5f529cd9e0a90c58773ec3fe","","null","","","learningBlock1","","","","This is a bim:","null","","","","","",""
"image-keyboard-response","241","606801","0.0-5.0-1.78","LF","f9gvt2ubve","1536","864","0","1","0","5f529cd9e0a90c58773ec3fe","","null","","","","","","","learning/Slide79.JPG","null","","","","","",""
"html-keyboard-response","242","607813","0.0-5.0-2.78","LF","f9gvt2ubve","1536","864","0","1","0","5f529cd9e0a90c58773ec3fe","","null","","","learningBlock1","","","","<div style=""font-size:60px;""> </div>","null","LF","learning/Slide79.JPG","This is a bim:","","",""
"html-keyboard-response","243","608814","0.0-5.0-0.79","LF","f9gvt2ubve","1536","864","0","1","0","5f529cd9e0a90c58773ec3fe","","null","","","learningBlock1","","","","This is a tob:","null","","","","","",""
"image-keyboard-response","244","609157","0.0-5.0-1.79","LF","f9gvt2ubve","1536","864","0","1","0","5f529cd9e0a90c58773ec3fe","","null","","","","","","","learning/Slide80.JPG","null","","","","","",""
"html-keyboard-response","245","610167","0.0-5.0-2.79","LF","f9gvt2ubve","1536","864","0","1","0","5f529cd9e0a90c58773ec3fe","","null","","","learningBlock1","","","","<div style=""font-size:60px;""> </div>","null","LF","learning/Slide80.JPG","This is a tob:","","",""
"instructions","246","616898","0.0-6.0","LF","f9gvt2ubve","1536","864","0","1","0","5f529cd9e0a90c58773ec3fe","","NA","","[{""page_index"":0,""viewing_time"":6730}]","instructions","","","","","","","","","","",""
"html-keyboard-response","247","617917","0.0-7.0-0.0","LF","f9gvt2ubve","1536","864","0","1","0","5f529cd9e0a90c58773ec3fe","","null","","","learningBlock2","","","","This is a wug:","null","","","","","",""
"image-keyboard-response","248","618257","0.0-7.0-1.0","LF","f9gvt2ubve","1536","864","0","1","0","5f529cd9e0a90c58773ec3fe","","null","","","","","","","learning/Slide81.JPG","null","","","","","",""
"html-keyboard-response","249","619277","0.0-7.0-2.0","LF","f9gvt2ubve","1536","864","0","1","0","5f529cd9e0a90c58773ec3fe","","null","","","learningBlock2","","","","<div style=""font-size:60px;""> </div>","null","LF","learning/Slide81.JPG","This is a wug:","","",""
"html-keyboard-response","250","620297","0.0-7.0-0.1","LF","f9gvt2ubve","1536","864","0","1","0","5f529cd9e0a90c58773ec3fe","","null","","","learningBlock2","","","","This is a bim:","null","","","","","",""
"image-keyboard-response","251","620647","0.0-7.0-1.1","LF","f9gvt2ubve","1536","864","0","1","0","5f529cd9e0a90c58773ec3fe","","null","","","","","","","learning/Slide82.JPG","null","","","","","",""
"html-keyboard-response","252","621657","0.0-7.0-2.1","LF","f9gvt2ubve","1536","864","0","1","0","5f529cd9e0a90c58773ec3fe","","null","","","learningBlock2","","","","<div style=""font-size:60px;""> </div>","null","LF","learning/Slide82.JPG","This is a bim:","","",""
"html-keyboard-response","253","622662","0.0-7.0-0.2","LF","f9gvt2ubve","1536","864","0","1","0","5f529cd9e0a90c58773ec3fe","","null","","","learningBlock2","","","","This is a wug:","null","","","","","",""
"image-keyboard-response","254","623006","0.0-7.0-1.2","LF","f9gvt2ubve","1536","864","0","1","0","5f529cd9e0a90c58773ec3fe","","null","","","","","","","learning/Slide83.JPG","null","","","","","",""
"html-keyboard-response","255","624027","0.0-7.0-2.2","LF","f9gvt2ubve","1536","864","0","1","0","5f529cd9e0a90c58773ec3fe","","null","","","learningBlock2","","","","<div style=""font-size:60px;""> </div>","null","LF","learning/Slide83.JPG","This is a wug:","","",""
"html-keyboard-response","256","625037","0.0-7.0-0.3","LF","f9gvt2ubve","1536","864","0","1","0","5f529cd9e0a90c58773ec3fe","","null","","","learningBlock2","","","","This is a dep:","null","","","","","",""
"image-keyboard-response","257","625387","0.0-7.0-1.3","LF","f9gvt2ubve","1536","864","0","1","0","5f529cd9e0a90c58773ec3fe","","null","","","","","","","learning/Slide84.JPG","null","","","","","",""
"html-keyboard-response","258","626394","0.0-7.0-2.3","LF","f9gvt2ubve","1536","864","0","1","0","5f529cd9e0a90c58773ec3fe","","null","","","learningBlock2","","","","<div style=""font-size:60px;""> </div>","null","LF","learning/Slide84.JPG","This is a dep:","","",""
"html-keyboard-response","259","627397","0.0-7.0-0.4","LF","f9gvt2ubve","1536","864","0","1","0","5f529cd9e0a90c58773ec3fe","","null","","","learningBlock2","","","","This is a bim:","null","","","","","",""
"image-keyboard-response","260","627737","0.0-7.0-1.4","LF","f9gvt2ubve","1536","864","0","1","0","5f529cd9e0a90c58773ec3fe","","null","","","","","","","learning/Slide85.JPG","null","","","","","",""
"html-keyboard-response","261","628747","0.0-7.0-2.4","LF","f9gvt2ubve","1536","864","0","1","0","5f529cd9e0a90c58773ec3fe","","null","","","learningBlock2","","","","<div style=""font-size:60px;""> </div>","null","LF","learning/Slide85.JPG","This is a bim:","","",""
"html-keyboard-response","262","629767","0.0-7.0-0.5","LF","f9gvt2ubve","1536","864","0","1","0","5f529cd9e0a90c58773ec3fe","","null","","","learningBlock2","","","","This is a tob:","null","","","","","",""
"image-keyboard-response","263","630097","0.0-7.0-1.5","LF","f9gvt2ubve","1536","864","0","1","0","5f529cd9e0a90c58773ec3fe","","null","","","","","","","learning/Slide86.JPG","null","","","","","",""
"html-keyboard-response","264","631107","0.0-7.0-2.5","LF","f9gvt2ubve","1536","864","0","1","0","5f529cd9e0a90c58773ec3fe","","null","","","learningBlock2","","","","<div style=""font-size:60px;""> </div>","null","LF","learning/Slide86.JPG","This is a tob:","","",""
"html-keyboard-response","265","632127","0.0-7.0-0.6","LF","f9gvt2ubve","1536","864","0","1","0","5f529cd9e0a90c58773ec3fe","","null","","","learningBlock2","","","","This is a wug:","null","","","","","",""
"image-keyboard-response","266","632470","0.0-7.0-1.6","LF","f9gvt2ubve","1536","864","0","1","0","5f529cd9e0a90c58773ec3fe","","null","","","","","","","learning/Slide87.JPG","null","","","","","",""
"html-keyboard-response","267","633487","0.0-7.0-2.6","LF","f9gvt2ubve","1536","864","0","1","0","5f529cd9e0a90c58773ec3fe","","null","","","learningBlock2","","","","<div style=""font-size:60px;""> </div>","null","LF","learning/Slide87.JPG","This is a wug:","","",""
"html-keyboard-response","268","634507","0.0-7.0-0.7","LF","f9gvt2ubve","1536","864","0","1","0","5f529cd9e0a90c58773ec3fe","","null","","","learningBlock2","","","","This is a tob:","null","","","","","",""
"image-keyboard-response","269","634847","0.0-7.0-1.7","LF","f9gvt2ubve","1536","864","0","1","0","5f529cd9e0a90c58773ec3fe","","null","","","","","","","learning/Slide88.JPG","null","","","","","",""
"html-keyboard-response","270","635868","0.0-7.0-2.7","LF","f9gvt2ubve","1536","864","0","1","0","5f529cd9e0a90c58773ec3fe","","null","","","learningBlock2","","","","<div style=""font-size:60px;""> </div>","null","LF","learning/Slide88.JPG","This is a tob:","","",""
"html-keyboard-response","271","636877","0.0-7.0-0.8","LF","f9gvt2ubve","1536","864","0","1","0","5f529cd9e0a90c58773ec3fe","","null","","","learningBlock2","","","","This is a bim:","null","","","","","",""
"image-keyboard-response","272","637217","0.0-7.0-1.8","LF","f9gvt2ubve","1536","864","0","1","0","5f529cd9e0a90c58773ec3fe","","null","","","","","","","learning/Slide89.JPG","null","","","","","",""
"html-keyboard-response","273","638237","0.0-7.0-2.8","LF","f9gvt2ubve","1536","864","0","1","0","5f529cd9e0a90c58773ec3fe","","null","","","learningBlock2","","","","<div style=""font-size:60px;""> </div>","null","LF","learning/Slide89.JPG","This is a bim:","","",""
"html-keyboard-response","274","639256","0.0-7.0-0.9","LF","f9gvt2ubve","1536","864","0","1","0","5f529cd9e0a90c58773ec3fe","","null","","","learningBlock2","","","","This is a dep:","null","","","","","",""
"image-keyboard-response","275","639607","0.0-7.0-1.9","LF","f9gvt2ubve","1536","864","0","1","0","5f529cd9e0a90c58773ec3fe","","null","","","","","","","learning/Slide90.JPG","null","","","","","",""
"html-keyboard-response","276","640617","0.0-7.0-2.9","LF","f9gvt2ubve","1536","864","0","1","0","5f529cd9e0a90c58773ec3fe","","null","","","learningBlock2","","","","<div style=""font-size:60px;""> </div>","null","LF","learning/Slide90.JPG","This is a dep:","","",""
"html-keyboard-response","277","641628","0.0-7.0-0.10","LF","f9gvt2ubve","1536","864","0","1","0","5f529cd9e0a90c58773ec3fe","","null","","","learningBlock2","","","","This is a wug:","null","","","","","",""
"image-keyboard-response","278","641967","0.0-7.0-1.10","LF","f9gvt2ubve","1536","864","0","1","0","5f529cd9e0a90c58773ec3fe","","null","","","","","","","learning/Slide91.JPG","null","","","","","",""
"html-keyboard-response","279","642977","0.0-7.0-2.10","LF","f9gvt2ubve","1536","864","0","1","0","5f529cd9e0a90c58773ec3fe","","null","","","learningBlock2","","","","<div style=""font-size:60px;""> </div>","null","LF","learning/Slide91.JPG","This is a wug:","","",""
"html-keyboard-response","280","643987","0.0-7.0-0.11","LF","f9gvt2ubve","1536","864","0","1","0","5f529cd9e0a90c58773ec3fe","","null","","","learningBlock2","","","","This is a tob:","null","","","","","",""
"image-keyboard-response","281","644327","0.0-7.0-1.11","LF","f9gvt2ubve","1536","864","0","1","0","5f529cd9e0a90c58773ec3fe","","null","","","","","","","learning/Slide92.JPG","null","","","","","",""
"html-keyboard-response","282","645337","0.0-7.0-2.11","LF","f9gvt2ubve","1536","864","0","1","0","5f529cd9e0a90c58773ec3fe","","null","","","learningBlock2","","","","<div style=""font-size:60px;""> </div>","null","LF","learning/Slide92.JPG","This is a tob:","","",""
"html-keyboard-response","283","646347","0.0-7.0-0.12","LF","f9gvt2ubve","1536","864","0","1","0","5f529cd9e0a90c58773ec3fe","","null","","","learningBlock2","","","","This is a bim:","null","","","","","",""
"image-keyboard-response","284","646697","0.0-7.0-1.12","LF","f9gvt2ubve","1536","864","0","1","0","5f529cd9e0a90c58773ec3fe","","null","","","","","","","learning/Slide93.JPG","null","","","","","",""
"html-keyboard-response","285","647706","0.0-7.0-2.12","LF","f9gvt2ubve","1536","864","0","1","0","5f529cd9e0a90c58773ec3fe","","null","","","learningBlock2","","","","<div style=""font-size:60px;""> </div>","null","LF","learning/Slide93.JPG","This is a bim:","","",""
"html-keyboard-response","286","648726","0.0-7.0-0.13","LF","f9gvt2ubve","1536","864","0","1","0","5f529cd9e0a90c58773ec3fe","","null","","","learningBlock2","","","","This is a tob:","null","","","","","",""
"image-keyboard-response","287","649067","0.0-7.0-1.13","LF","f9gvt2ubve","1536","864","0","1","0","5f529cd9e0a90c58773ec3fe","","null","","","","","","","learning/Slide94.JPG","null","","","","","",""
"html-keyboard-response","288","650087","0.0-7.0-2.13","LF","f9gvt2ubve","1536","864","0","1","0","5f529cd9e0a90c58773ec3fe","","null","","","learningBlock2","","","","<div style=""font-size:60px;""> </div>","null","LF","learning/Slide94.JPG","This is a tob:","","",""
"html-keyboard-response","289","651107","0.0-7.0-0.14","LF","f9gvt2ubve","1536","864","0","1","0","5f529cd9e0a90c58773ec3fe","","null","","","learningBlock2","","","","This is a wug:","null","","","","","",""
"image-keyboard-response","290","651447","0.0-7.0-1.14","LF","f9gvt2ubve","1536","864","0","1","0","5f529cd9e0a90c58773ec3fe","","null","","","","","","","learning/Slide95.JPG","null","","","","","",""
"html-keyboard-response","291","652467","0.0-7.0-2.14","LF","f9gvt2ubve","1536","864","0","1","0","5f529cd9e0a90c58773ec3fe","","null","","","learningBlock2","","","","<div style=""font-size:60px;""> </div>","null","LF","learning/Slide95.JPG","This is a wug:","","",""
"html-keyboard-response","292","653471","0.0-7.0-0.15","LF","f9gvt2ubve","1536","864","0","1","0","5f529cd9e0a90c58773ec3fe","","null","","","learningBlock2","","","","This is a tob:","null","","","","","",""
"image-keyboard-response","293","653817","0.0-7.0-1.15","LF","f9gvt2ubve","1536","864","0","1","0","5f529cd9e0a90c58773ec3fe","","null","","","","","","","learning/Slide96.JPG","null","","","","","",""
"html-keyboard-response","294","654837","0.0-7.0-2.15","LF","f9gvt2ubve","1536","864","0","1","0","5f529cd9e0a90c58773ec3fe","","null","","","learningBlock2","","","","<div style=""font-size:60px;""> </div>","null","LF","learning/Slide96.JPG","This is a tob:","","",""
"html-keyboard-response","295","655855","0.0-7.0-0.16","LF","f9gvt2ubve","1536","864","0","1","0","5f529cd9e0a90c58773ec3fe","","null","","","learningBlock2","","","","This is a dep:","null","","","","","",""
"image-keyboard-response","296","656188","0.0-7.0-1.16","LF","f9gvt2ubve","1536","864","0","1","0","5f529cd9e0a90c58773ec3fe","","null","","","","","","","learning/Slide97.JPG","null","","","","","",""
"html-keyboard-response","297","657207","0.0-7.0-2.16","LF","f9gvt2ubve","1536","864","0","1","0","5f529cd9e0a90c58773ec3fe","","null","","","learningBlock2","","","","<div style=""font-size:60px;""> </div>","null","LF","learning/Slide97.JPG","This is a dep:","","",""
"html-keyboard-response","298","658227","0.0-7.0-0.17","LF","f9gvt2ubve","1536","864","0","1","0","5f529cd9e0a90c58773ec3fe","","null","","","learningBlock2","","","","This is a bim:","null","","","","","",""
"image-keyboard-response","299","658567","0.0-7.0-1.17","LF","f9gvt2ubve","1536","864","0","1","0","5f529cd9e0a90c58773ec3fe","","null","","","","","","","learning/Slide98.JPG","null","","","","","",""
"html-keyboard-response","300","659587","0.0-7.0-2.17","LF","f9gvt2ubve","1536","864","0","1","0","5f529cd9e0a90c58773ec3fe","","null","","","learningBlock2","","","","<div style=""font-size:60px;""> </div>","null","LF","learning/Slide98.JPG","This is a bim:","","",""
"html-keyboard-response","301","660597","0.0-7.0-0.18","LF","f9gvt2ubve","1536","864","0","1","0","5f529cd9e0a90c58773ec3fe","","null","","","learningBlock2","","","","This is a dep:","null","","","","","",""
"image-keyboard-response","302","660937","0.0-7.0-1.18","LF","f9gvt2ubve","1536","864","0","1","0","5f529cd9e0a90c58773ec3fe","","null","","","","","","","learning/Slide99.JPG","null","","","","","",""
"html-keyboard-response","303","661947","0.0-7.0-2.18","LF","f9gvt2ubve","1536","864","0","1","0","5f529cd9e0a90c58773ec3fe","","null","","","learningBlock2","","","","<div style=""font-size:60px;""> </div>","null","LF","learning/Slide99.JPG","This is a dep:","","",""
"html-keyboard-response","304","662967","0.0-7.0-0.19","LF","f9gvt2ubve","1536","864","0","1","0","5f529cd9e0a90c58773ec3fe","","null","","","learningBlock2","","","","This is a bim:","null","","","","","",""
"image-keyboard-response","305","663327","0.0-7.0-1.19","LF","f9gvt2ubve","1536","864","0","1","0","5f529cd9e0a90c58773ec3fe","","null","","","","","","","learning/Slide100.JPG","null","","","","","",""
"html-keyboard-response","306","664347","0.0-7.0-2.19","LF","f9gvt2ubve","1536","864","0","1","0","5f529cd9e0a90c58773ec3fe","","null","","","learningBlock2","","","","<div style=""font-size:60px;""> </div>","null","LF","learning/Slide100.JPG","This is a bim:","","",""
"html-keyboard-response","307","665357","0.0-7.0-0.20","LF","f9gvt2ubve","1536","864","0","1","0","5f529cd9e0a90c58773ec3fe","","null","","","learningBlock2","","","","This is a tob:","null","","","","","",""
"image-keyboard-response","308","665697","0.0-7.0-1.20","LF","f9gvt2ubve","1536","864","0","1","0","5f529cd9e0a90c58773ec3fe","","null","","","","","","","learning/Slide101.JPG","null","","","","","",""
"html-keyboard-response","309","666707","0.0-7.0-2.20","LF","f9gvt2ubve","1536","864","0","1","0","5f529cd9e0a90c58773ec3fe","","null","","","learningBlock2","","","","<div style=""font-size:60px;""> </div>","null","LF","learning/Slide101.JPG","This is a tob:","","",""
"html-keyboard-response","310","667717","0.0-7.0-0.21","LF","f9gvt2ubve","1536","864","0","1","0","5f529cd9e0a90c58773ec3fe","","null","","","learningBlock2","","","","This is a bim:","null","","","","","",""
"image-keyboard-response","311","668057","0.0-7.0-1.21","LF","f9gvt2ubve","1536","864","0","1","0","5f529cd9e0a90c58773ec3fe","","null","","","","","","","learning/Slide102.JPG","null","","","","","",""
"html-keyboard-response","312","669066","0.0-7.0-2.21","LF","f9gvt2ubve","1536","864","0","1","0","5f529cd9e0a90c58773ec3fe","","null","","","learningBlock2","","","","<div style=""font-size:60px;""> </div>","null","LF","learning/Slide102.JPG","This is a bim:","","",""
"html-keyboard-response","313","670087","0.0-7.0-0.22","LF","f9gvt2ubve","1536","864","0","1","0","5f529cd9e0a90c58773ec3fe","","null","","","learningBlock2","","","","This is a dep:","null","","","","","",""
"image-keyboard-response","314","670447","0.0-7.0-1.22","LF","f9gvt2ubve","1536","864","0","1","0","5f529cd9e0a90c58773ec3fe","","null","","","","","","","learning/Slide103.JPG","null","","","","","",""
"html-keyboard-response","315","671467","0.0-7.0-2.22","LF","f9gvt2ubve","1536","864","0","1","0","5f529cd9e0a90c58773ec3fe","","null","","","learningBlock2","","","","<div style=""font-size:60px;""> </div>","null","LF","learning/Slide103.JPG","This is a dep:","","",""
"html-keyboard-response","316","672477","0.0-7.0-0.23","LF","f9gvt2ubve","1536","864","0","1","0","5f529cd9e0a90c58773ec3fe","","null","","","learningBlock2","","","","This is a tob:","null","","","","","",""
"image-keyboard-response","317","672817","0.0-7.0-1.23","LF","f9gvt2ubve","1536","864","0","1","0","5f529cd9e0a90c58773ec3fe","","null","","","","","","","learning/Slide104.JPG","null","","","","","",""
"html-keyboard-response","318","673823","0.0-7.0-2.23","LF","f9gvt2ubve","1536","864","0","1","0","5f529cd9e0a90c58773ec3fe","","null","","","learningBlock2","","","","<div style=""font-size:60px;""> </div>","null","LF","learning/Slide104.JPG","This is a tob:","","",""
"html-keyboard-response","319","674824","0.0-7.0-0.24","LF","f9gvt2ubve","1536","864","0","1","0","5f529cd9e0a90c58773ec3fe","","null","","","learningBlock2","","","","This is a dep:","null","","","","","",""
"image-keyboard-response","320","675167","0.0-7.0-1.24","LF","f9gvt2ubve","1536","864","0","1","0","5f529cd9e0a90c58773ec3fe","","null","","","","","","","learning/Slide105.JPG","null","","","","","",""
"html-keyboard-response","321","676186","0.0-7.0-2.24","LF","f9gvt2ubve","1536","864","0","1","0","5f529cd9e0a90c58773ec3fe","","null","","","learningBlock2","","","","<div style=""font-size:60px;""> </div>","null","LF","learning/Slide105.JPG","This is a dep:","","",""
"html-keyboard-response","322","677206","0.0-7.0-0.25","LF","f9gvt2ubve","1536","864","0","1","0","5f529cd9e0a90c58773ec3fe","","null","","","learningBlock2","","","","This is a wug:","null","","","","","",""
"image-keyboard-response","323","677546","0.0-7.0-1.25","LF","f9gvt2ubve","1536","864","0","1","0","5f529cd9e0a90c58773ec3fe","","null","","","","","","","learning/Slide106.JPG","null","","","","","",""
"html-keyboard-response","324","678567","0.0-7.0-2.25","LF","f9gvt2ubve","1536","864","0","1","0","5f529cd9e0a90c58773ec3fe","","null","","","learningBlock2","","","","<div style=""font-size:60px;""> </div>","null","LF","learning/Slide106.JPG","This is a wug:","","",""
"html-keyboard-response","325","679577","0.0-7.0-0.26","LF","f9gvt2ubve","1536","864","0","1","0","5f529cd9e0a90c58773ec3fe","","null","","","learningBlock2","","","","This is a bim:","null","","","","","",""
"image-keyboard-response","326","679927","0.0-7.0-1.26","LF","f9gvt2ubve","1536","864","0","1","0","5f529cd9e0a90c58773ec3fe","","null","","","","","","","learning/Slide107.JPG","null","","","","","",""
"html-keyboard-response","327","680937","0.0-7.0-2.26","LF","f9gvt2ubve","1536","864","0","1","0","5f529cd9e0a90c58773ec3fe","","null","","","learningBlock2","","","","<div style=""font-size:60px;""> </div>","null","LF","learning/Slide107.JPG","This is a bim:","","",""
"html-keyboard-response","328","681957","0.0-7.0-0.27","LF","f9gvt2ubve","1536","864","0","1","0","5f529cd9e0a90c58773ec3fe","","null","","","learningBlock2","","","","This is a dep:","null","","","","","",""
"image-keyboard-response","329","682297","0.0-7.0-1.27","LF","f9gvt2ubve","1536","864","0","1","0","5f529cd9e0a90c58773ec3fe","","null","","","","","","","learning/Slide108.JPG","null","","","","","",""
"html-keyboard-response","330","683307","0.0-7.0-2.27","LF","f9gvt2ubve","1536","864","0","1","0","5f529cd9e0a90c58773ec3fe","","null","","","learningBlock2","","","","<div style=""font-size:60px;""> </div>","null","LF","learning/Slide108.JPG","This is a dep:","","",""
"html-keyboard-response","331","684327","0.0-7.0-0.28","LF","f9gvt2ubve","1536","864","0","1","0","5f529cd9e0a90c58773ec3fe","","null","","","learningBlock2","","","","This is a wug:","null","","","","","",""
"image-keyboard-response","332","684667","0.0-7.0-1.28","LF","f9gvt2ubve","1536","864","0","1","0","5f529cd9e0a90c58773ec3fe","","null","","","","","","","learning/Slide109.JPG","null","","","","","",""
"html-keyboard-response","333","685683","0.0-7.0-2.28","LF","f9gvt2ubve","1536","864","0","1","0","5f529cd9e0a90c58773ec3fe","","null","","","learningBlock2","","","","<div style=""font-size:60px;""> </div>","null","LF","learning/Slide109.JPG","This is a wug:","","",""
"html-keyboard-response","334","686707","0.0-7.0-0.29","LF","f9gvt2ubve","1536","864","0","1","0","5f529cd9e0a90c58773ec3fe","","null","","","learningBlock2","","","","This is a bim:","null","","","","","",""
"image-keyboard-response","335","687046","0.0-7.0-1.29","LF","f9gvt2ubve","1536","864","0","1","0","5f529cd9e0a90c58773ec3fe","","null","","","","","","","learning/Slide110.JPG","null","","","","","",""
"html-keyboard-response","336","688067","0.0-7.0-2.29","LF","f9gvt2ubve","1536","864","0","1","0","5f529cd9e0a90c58773ec3fe","","null","","","learningBlock2","","","","<div style=""font-size:60px;""> </div>","null","LF","learning/Slide110.JPG","This is a bim:","","",""
"html-keyboard-response","337","689076","0.0-7.0-0.30","LF","f9gvt2ubve","1536","864","0","1","0","5f529cd9e0a90c58773ec3fe","","null","","","learningBlock2","","","","This is a tob:","null","","","","","",""
"image-keyboard-response","338","689417","0.0-7.0-1.30","LF","f9gvt2ubve","1536","864","0","1","0","5f529cd9e0a90c58773ec3fe","","null","","","","","","","learning/Slide111.JPG","null","","","","","",""
"html-keyboard-response","339","690436","0.0-7.0-2.30","LF","f9gvt2ubve","1536","864","0","1","0","5f529cd9e0a90c58773ec3fe","","null","","","learningBlock2","","","","<div style=""font-size:60px;""> </div>","null","LF","learning/Slide111.JPG","This is a tob:","","",""
"html-keyboard-response","340","691447","0.0-7.0-0.31","LF","f9gvt2ubve","1536","864","0","1","0","5f529cd9e0a90c58773ec3fe","","null","","","learningBlock2","","","","This is a wug:","null","","","","","",""
"image-keyboard-response","341","691787","0.0-7.0-1.31","LF","f9gvt2ubve","1536","864","0","1","0","5f529cd9e0a90c58773ec3fe","","null","","","","","","","learning/Slide112.JPG","null","","","","","",""
"html-keyboard-response","342","692807","0.0-7.0-2.31","LF","f9gvt2ubve","1536","864","0","1","0","5f529cd9e0a90c58773ec3fe","","null","","","learningBlock2","","","","<div style=""font-size:60px;""> </div>","null","LF","learning/Slide112.JPG","This is a wug:","","",""
"html-keyboard-response","343","693817","0.0-7.0-0.32","LF","f9gvt2ubve","1536","864","0","1","0","5f529cd9e0a90c58773ec3fe","","null","","","learningBlock2","","","","This is a tob:","null","","","","","",""
"image-keyboard-response","344","694156","0.0-7.0-1.32","LF","f9gvt2ubve","1536","864","0","1","0","5f529cd9e0a90c58773ec3fe","","null","","","","","","","learning/Slide113.JPG","null","","","","","",""
"html-keyboard-response","345","695167","0.0-7.0-2.32","LF","f9gvt2ubve","1536","864","0","1","0","5f529cd9e0a90c58773ec3fe","","null","","","learningBlock2","","","","<div style=""font-size:60px;""> </div>","null","LF","learning/Slide113.JPG","This is a tob:","","",""
"html-keyboard-response","346","696177","0.0-7.0-0.33","LF","f9gvt2ubve","1536","864","0","1","0","5f529cd9e0a90c58773ec3fe","","null","","","learningBlock2","","","","This is a wug:","null","","","","","",""
"image-keyboard-response","347","696517","0.0-7.0-1.33","LF","f9gvt2ubve","1536","864","0","1","0","5f529cd9e0a90c58773ec3fe","","null","","","","","","","learning/Slide114.JPG","null","","","","","",""
"html-keyboard-response","348","697537","0.0-7.0-2.33","LF","f9gvt2ubve","1536","864","0","1","0","5f529cd9e0a90c58773ec3fe","","null","","","learningBlock2","","","","<div style=""font-size:60px;""> </div>","null","LF","learning/Slide114.JPG","This is a wug:","","",""
"html-keyboard-response","349","698547","0.0-7.0-0.34","LF","f9gvt2ubve","1536","864","0","1","0","5f529cd9e0a90c58773ec3fe","","null","","","learningBlock2","","","","This is a bim:","null","","","","","",""
"image-keyboard-response","350","698886","0.0-7.0-1.34","LF","f9gvt2ubve","1536","864","0","1","0","5f529cd9e0a90c58773ec3fe","","null","","","","","","","learning/Slide115.JPG","null","","","","","",""
"html-keyboard-response","351","699896","0.0-7.0-2.34","LF","f9gvt2ubve","1536","864","0","1","0","5f529cd9e0a90c58773ec3fe","","null","","","learningBlock2","","","","<div style=""font-size:60px;""> </div>","null","LF","learning/Slide115.JPG","This is a bim:","","",""
"html-keyboard-response","352","700906","0.0-7.0-0.35","LF","f9gvt2ubve","1536","864","0","1","0","5f529cd9e0a90c58773ec3fe","","null","","","learningBlock2","","","","This is a dep:","null","","","","","",""
"image-keyboard-response","353","701247","0.0-7.0-1.35","LF","f9gvt2ubve","1536","864","0","1","0","5f529cd9e0a90c58773ec3fe","","null","","","","","","","learning/Slide116.JPG","null","","","","","",""
"html-keyboard-response","354","702257","0.0-7.0-2.35","LF","f9gvt2ubve","1536","864","0","1","0","5f529cd9e0a90c58773ec3fe","","null","","","learningBlock2","","","","<div style=""font-size:60px;""> </div>","null","LF","learning/Slide116.JPG","This is a dep:","","",""
"html-keyboard-response","355","703267","0.0-7.0-0.36","LF","f9gvt2ubve","1536","864","0","1","0","5f529cd9e0a90c58773ec3fe","","null","","","learningBlock2","","","","This is a tob:","null","","","","","",""
"image-keyboard-response","356","703607","0.0-7.0-1.36","LF","f9gvt2ubve","1536","864","0","1","0","5f529cd9e0a90c58773ec3fe","","null","","","","","","","learning/Slide117.JPG","null","","","","","",""
"html-keyboard-response","357","704626","0.0-7.0-2.36","LF","f9gvt2ubve","1536","864","0","1","0","5f529cd9e0a90c58773ec3fe","","null","","","learningBlock2","","","","<div style=""font-size:60px;""> </div>","null","LF","learning/Slide117.JPG","This is a tob:","","",""
"html-keyboard-response","358","705647","0.0-7.0-0.37","LF","f9gvt2ubve","1536","864","0","1","0","5f529cd9e0a90c58773ec3fe","","null","","","learningBlock2","","","","This is a dep:","null","","","","","",""
"image-keyboard-response","359","705987","0.0-7.0-1.37","LF","f9gvt2ubve","1536","864","0","1","0","5f529cd9e0a90c58773ec3fe","","null","","","","","","","learning/Slide118.JPG","null","","","","","",""
"html-keyboard-response","360","706996","0.0-7.0-2.37","LF","f9gvt2ubve","1536","864","0","1","0","5f529cd9e0a90c58773ec3fe","","null","","","learningBlock2","","","","<div style=""font-size:60px;""> </div>","null","LF","learning/Slide118.JPG","This is a dep:","","",""
"html-keyboard-response","361","708007","0.0-7.0-0.38","LF","f9gvt2ubve","1536","864","0","1","0","5f529cd9e0a90c58773ec3fe","","null","","","learningBlock2","","","","This is a wug:","null","","","","","",""
"image-keyboard-response","362","708347","0.0-7.0-1.38","LF","f9gvt2ubve","1536","864","0","1","0","5f529cd9e0a90c58773ec3fe","","null","","","","","","","learning/Slide119.JPG","null","","","","","",""
"html-keyboard-response","363","709352","0.0-7.0-2.38","LF","f9gvt2ubve","1536","864","0","1","0","5f529cd9e0a90c58773ec3fe","","null","","","learningBlock2","","","","<div style=""font-size:60px;""> </div>","null","LF","learning/Slide119.JPG","This is a wug:","","",""
"html-keyboard-response","364","710366","0.0-7.0-0.39","LF","f9gvt2ubve","1536","864","0","1","0","5f529cd9e0a90c58773ec3fe","","null","","","learningBlock2","","","","This is a dep:","null","","","","","",""
"image-keyboard-response","365","710706","0.0-7.0-1.39","LF","f9gvt2ubve","1536","864","0","1","0","5f529cd9e0a90c58773ec3fe","","null","","","","","","","learning/Slide120.JPG","null","","","","","",""
"html-keyboard-response","366","711727","0.0-7.0-2.39","LF","f9gvt2ubve","1536","864","0","1","0","5f529cd9e0a90c58773ec3fe","","null","","","learningBlock2","","","","<div style=""font-size:60px;""> </div>","null","LF","learning/Slide120.JPG","This is a dep:","","",""
"html-keyboard-response","367","712736","0.0-7.0-0.40","LF","f9gvt2ubve","1536","864","0","1","0","5f529cd9e0a90c58773ec3fe","","null","","","learningBlock2","","","","This is a bim:","null","","","","","",""
"image-keyboard-response","368","713097","0.0-7.0-1.40","LF","f9gvt2ubve","1536","864","0","1","0","5f529cd9e0a90c58773ec3fe","","null","","","","","","","learning/Slide121.JPG","null","","","","","",""
"html-keyboard-response","369","714107","0.0-7.0-2.40","LF","f9gvt2ubve","1536","864","0","1","0","5f529cd9e0a90c58773ec3fe","","null","","","learningBlock2","","","","<div style=""font-size:60px;""> </div>","null","LF","learning/Slide121.JPG","This is a bim:","","",""
"html-keyboard-response","370","715126","0.0-7.0-0.41","LF","f9gvt2ubve","1536","864","0","1","0","5f529cd9e0a90c58773ec3fe","","null","","","learningBlock2","","","","This is a wug:","null","","","","","",""
"image-keyboard-response","371","715467","0.0-7.0-1.41","LF","f9gvt2ubve","1536","864","0","1","0","5f529cd9e0a90c58773ec3fe","","null","","","","","","","learning/Slide122.JPG","null","","","","","",""
"html-keyboard-response","372","716487","0.0-7.0-2.41","LF","f9gvt2ubve","1536","864","0","1","0","5f529cd9e0a90c58773ec3fe","","null","","","learningBlock2","","","","<div style=""font-size:60px;""> </div>","null","LF","learning/Slide122.JPG","This is a wug:","","",""
"html-keyboard-response","373","717506","0.0-7.0-0.42","LF","f9gvt2ubve","1536","864","0","1","0","5f529cd9e0a90c58773ec3fe","","null","","","learningBlock2","","","","This is a bim:","null","","","","","",""
"image-keyboard-response","374","717846","0.0-7.0-1.42","LF","f9gvt2ubve","1536","864","0","1","0","5f529cd9e0a90c58773ec3fe","","null","","","","","","","learning/Slide123.JPG","null","","","","","",""
"html-keyboard-response","375","718857","0.0-7.0-2.42","LF","f9gvt2ubve","1536","864","0","1","0","5f529cd9e0a90c58773ec3fe","","null","","","learningBlock2","","","","<div style=""font-size:60px;""> </div>","null","LF","learning/Slide123.JPG","This is a bim:","","",""
"html-keyboard-response","376","719867","0.0-7.0-0.43","LF","f9gvt2ubve","1536","864","0","1","0","5f529cd9e0a90c58773ec3fe","","null","","","learningBlock2","","","","This is a tob:","null","","","","","",""
"image-keyboard-response","377","720207","0.0-7.0-1.43","LF","f9gvt2ubve","1536","864","0","1","0","5f529cd9e0a90c58773ec3fe","","null","","","","","","","learning/Slide124.JPG","null","","","","","",""
"html-keyboard-response","378","721222","0.0-7.0-2.43","LF","f9gvt2ubve","1536","864","0","1","0","5f529cd9e0a90c58773ec3fe","","null","","","learningBlock2","","","","<div style=""font-size:60px;""> </div>","null","LF","learning/Slide124.JPG","This is a tob:","","",""
"html-keyboard-response","379","722227","0.0-7.0-0.44","LF","f9gvt2ubve","1536","864","0","1","0","5f529cd9e0a90c58773ec3fe","","null","","","learningBlock2","","","","This is a bim:","null","","","","","",""
"image-keyboard-response","380","722587","0.0-7.0-1.44","LF","f9gvt2ubve","1536","864","0","1","0","5f529cd9e0a90c58773ec3fe","","null","","","","","","","learning/Slide125.JPG","null","","","","","",""
"html-keyboard-response","381","723606","0.0-7.0-2.44","LF","f9gvt2ubve","1536","864","0","1","0","5f529cd9e0a90c58773ec3fe","","null","","","learningBlock2","","","","<div style=""font-size:60px;""> </div>","null","LF","learning/Slide125.JPG","This is a bim:","","",""
"html-keyboard-response","382","724627","0.0-7.0-0.45","LF","f9gvt2ubve","1536","864","0","1","0","5f529cd9e0a90c58773ec3fe","","null","","","learningBlock2","","","","This is a tob:","null","","","","","",""
"image-keyboard-response","383","724966","0.0-7.0-1.45","LF","f9gvt2ubve","1536","864","0","1","0","5f529cd9e0a90c58773ec3fe","","null","","","","","","","learning/Slide126.JPG","null","","","","","",""
"html-keyboard-response","384","725987","0.0-7.0-2.45","LF","f9gvt2ubve","1536","864","0","1","0","5f529cd9e0a90c58773ec3fe","","null","","","learningBlock2","","","","<div style=""font-size:60px;""> </div>","null","LF","learning/Slide126.JPG","This is a tob:","","",""
"html-keyboard-response","385","727007","0.0-7.0-0.46","LF","f9gvt2ubve","1536","864","0","1","0","5f529cd9e0a90c58773ec3fe","","null","","","learningBlock2","","","","This is a dep:","null","","","","","",""
"image-keyboard-response","386","727347","0.0-7.0-1.46","LF","f9gvt2ubve","1536","864","0","1","0","5f529cd9e0a90c58773ec3fe","","null","","","","","","","learning/Slide127.JPG","null","","","","","",""
"html-keyboard-response","387","728356","0.0-7.0-2.46","LF","f9gvt2ubve","1536","864","0","1","0","5f529cd9e0a90c58773ec3fe","","null","","","learningBlock2","","","","<div style=""font-size:60px;""> </div>","null","LF","learning/Slide127.JPG","This is a dep:","","",""
"html-keyboard-response","388","729364","0.0-7.0-0.47","LF","f9gvt2ubve","1536","864","0","1","0","5f529cd9e0a90c58773ec3fe","","null","","","learningBlock2","","","","This is a wug:","null","","","","","",""
"image-keyboard-response","389","729694","0.0-7.0-1.47","LF","f9gvt2ubve","1536","864","0","1","0","5f529cd9e0a90c58773ec3fe","","null","","","","","","","learning/Slide128.JPG","null","","","","","",""
"html-keyboard-response","390","730697","0.0-7.0-2.47","LF","f9gvt2ubve","1536","864","0","1","0","5f529cd9e0a90c58773ec3fe","","null","","","learningBlock2","","","","<div style=""font-size:60px;""> </div>","null","LF","learning/Slide128.JPG","This is a wug:","","",""
"html-keyboard-response","391","731706","0.0-7.0-0.48","LF","f9gvt2ubve","1536","864","0","1","0","5f529cd9e0a90c58773ec3fe","","null","","","learningBlock2","","","","This is a tob:","null","","","","","",""
"image-keyboard-response","392","732047","0.0-7.0-1.48","LF","f9gvt2ubve","1536","864","0","1","0","5f529cd9e0a90c58773ec3fe","","null","","","","","","","learning/Slide129.JPG","null","","","","","",""
"html-keyboard-response","393","733067","0.0-7.0-2.48","LF","f9gvt2ubve","1536","864","0","1","0","5f529cd9e0a90c58773ec3fe","","null","","","learningBlock2","","","","<div style=""font-size:60px;""> </div>","null","LF","learning/Slide129.JPG","This is a tob:","","",""
"html-keyboard-response","394","734077","0.0-7.0-0.49","LF","f9gvt2ubve","1536","864","0","1","0","5f529cd9e0a90c58773ec3fe","","null","","","learningBlock2","","","","This is a wug:","null","","","","","",""
"image-keyboard-response","395","734427","0.0-7.0-1.49","LF","f9gvt2ubve","1536","864","0","1","0","5f529cd9e0a90c58773ec3fe","","null","","","","","","","learning/Slide130.JPG","null","","","","","",""
"html-keyboard-response","396","735437","0.0-7.0-2.49","LF","f9gvt2ubve","1536","864","0","1","0","5f529cd9e0a90c58773ec3fe","","null","","","learningBlock2","","","","<div style=""font-size:60px;""> </div>","null","LF","learning/Slide130.JPG","This is a wug:","","",""
"html-keyboard-response","397","736456","0.0-7.0-0.50","LF","f9gvt2ubve","1536","864","0","1","0","5f529cd9e0a90c58773ec3fe","","null","","","learningBlock2","","","","This is a bim:","null","","","","","",""
"image-keyboard-response","398","736796","0.0-7.0-1.50","LF","f9gvt2ubve","1536","864","0","1","0","5f529cd9e0a90c58773ec3fe","","null","","","","","","","learning/Slide131.JPG","null","","","","","",""
"html-keyboard-response","399","737816","0.0-7.0-2.50","LF","f9gvt2ubve","1536","864","0","1","0","5f529cd9e0a90c58773ec3fe","","null","","","learningBlock2","","","","<div style=""font-size:60px;""> </div>","null","LF","learning/Slide131.JPG","This is a bim:","","",""
"html-keyboard-response","400","738826","0.0-7.0-0.51","LF","f9gvt2ubve","1536","864","0","1","0","5f529cd9e0a90c58773ec3fe","","null","","","learningBlock2","","","","This is a dep:","null","","","","","",""
"image-keyboard-response","401","739176","0.0-7.0-1.51","LF","f9gvt2ubve","1536","864","0","1","0","5f529cd9e0a90c58773ec3fe","","null","","","","","","","learning/Slide132.JPG","null","","","","","",""
"html-keyboard-response","402","740196","0.0-7.0-2.51","LF","f9gvt2ubve","1536","864","0","1","0","5f529cd9e0a90c58773ec3fe","","null","","","learningBlock2","","","","<div style=""font-size:60px;""> </div>","null","LF","learning/Slide132.JPG","This is a dep:","","",""
"html-keyboard-response","403","741217","0.0-7.0-0.52","LF","f9gvt2ubve","1536","864","0","1","0","5f529cd9e0a90c58773ec3fe","","null","","","learningBlock2","","","","This is a tob:","null","","","","","",""
"image-keyboard-response","404","741557","0.0-7.0-1.52","LF","f9gvt2ubve","1536","864","0","1","0","5f529cd9e0a90c58773ec3fe","","null","","","","","","","learning/Slide133.JPG","null","","","","","",""
"html-keyboard-response","405","742567","0.0-7.0-2.52","LF","f9gvt2ubve","1536","864","0","1","0","5f529cd9e0a90c58773ec3fe","","null","","","learningBlock2","","","","<div style=""font-size:60px;""> </div>","null","LF","learning/Slide133.JPG","This is a tob:","","",""
"html-keyboard-response","406","743577","0.0-7.0-0.53","LF","f9gvt2ubve","1536","864","0","1","0","5f529cd9e0a90c58773ec3fe","","null","","","learningBlock2","","","","This is a dep:","null","","","","","",""
"image-keyboard-response","407","743917","0.0-7.0-1.53","LF","f9gvt2ubve","1536","864","0","1","0","5f529cd9e0a90c58773ec3fe","","null","","","","","","","learning/Slide134.JPG","null","","","","","",""
"html-keyboard-response","408","744927","0.0-7.0-2.53","LF","f9gvt2ubve","1536","864","0","1","0","5f529cd9e0a90c58773ec3fe","","null","","","learningBlock2","","","","<div style=""font-size:60px;""> </div>","null","LF","learning/Slide134.JPG","This is a dep:","","",""
"html-keyboard-response","409","745946","0.0-7.0-0.54","LF","f9gvt2ubve","1536","864","0","1","0","5f529cd9e0a90c58773ec3fe","","null","","","learningBlock2","","","","This is a tob:","null","","","","","",""
"image-keyboard-response","410","746286","0.0-7.0-1.54","LF","f9gvt2ubve","1536","864","0","1","0","5f529cd9e0a90c58773ec3fe","","null","","","","","","","learning/Slide135.JPG","null","","","","","",""
"html-keyboard-response","411","747297","0.0-7.0-2.54","LF","f9gvt2ubve","1536","864","0","1","0","5f529cd9e0a90c58773ec3fe","","null","","","learningBlock2","","","","<div style=""font-size:60px;""> </div>","null","LF","learning/Slide135.JPG","This is a tob:","","",""
"html-keyboard-response","412","748307","0.0-7.0-0.55","LF","f9gvt2ubve","1536","864","0","1","0","5f529cd9e0a90c58773ec3fe","","null","","","learningBlock2","","","","This is a wug:","null","","","","","",""
"image-keyboard-response","413","748657","0.0-7.0-1.55","LF","f9gvt2ubve","1536","864","0","1","0","5f529cd9e0a90c58773ec3fe","","null","","","","","","","learning/Slide136.JPG","null","","","","","",""
"html-keyboard-response","414","749677","0.0-7.0-2.55","LF","f9gvt2ubve","1536","864","0","1","0","5f529cd9e0a90c58773ec3fe","","null","","","learningBlock2","","","","<div style=""font-size:60px;""> </div>","null","LF","learning/Slide136.JPG","This is a wug:","","",""
"html-keyboard-response","415","750692","0.0-7.0-0.56","LF","f9gvt2ubve","1536","864","0","1","0","5f529cd9e0a90c58773ec3fe","","null","","","learningBlock2","","","","This is a tob:","null","","","","","",""
"image-keyboard-response","416","751037","0.0-7.0-1.56","LF","f9gvt2ubve","1536","864","0","1","0","5f529cd9e0a90c58773ec3fe","","null","","","","","","","learning/Slide137.JPG","null","","","","","",""
"html-keyboard-response","417","752056","0.0-7.0-2.56","LF","f9gvt2ubve","1536","864","0","1","0","5f529cd9e0a90c58773ec3fe","","null","","","learningBlock2","","","","<div style=""font-size:60px;""> </div>","null","LF","learning/Slide137.JPG","This is a tob:","","",""
"html-keyboard-response","418","753057","0.0-7.0-0.57","LF","f9gvt2ubve","1536","864","0","1","0","5f529cd9e0a90c58773ec3fe","","null","","","learningBlock2","","","","This is a bim:","null","","","","","",""
"image-keyboard-response","419","753397","0.0-7.0-1.57","LF","f9gvt2ubve","1536","864","0","1","0","5f529cd9e0a90c58773ec3fe","","null","","","","","","","learning/Slide138.JPG","null","","","","","",""
"html-keyboard-response","420","754406","0.0-7.0-2.57","LF","f9gvt2ubve","1536","864","0","1","0","5f529cd9e0a90c58773ec3fe","","null","","","learningBlock2","","","","<div style=""font-size:60px;""> </div>","null","LF","learning/Slide138.JPG","This is a bim:","","",""
"html-keyboard-response","421","755417","0.0-7.0-0.58","LF","f9gvt2ubve","1536","864","0","1","0","5f529cd9e0a90c58773ec3fe","","null","","","learningBlock2","","","","This is a wug:","null","","","","","",""
"image-keyboard-response","422","755766","0.0-7.0-1.58","LF","f9gvt2ubve","1536","864","0","1","0","5f529cd9e0a90c58773ec3fe","","null","","","","","","","learning/Slide139.JPG","null","","","","","",""
"html-keyboard-response","423","756777","0.0-7.0-2.58","LF","f9gvt2ubve","1536","864","0","1","0","5f529cd9e0a90c58773ec3fe","","null","","","learningBlock2","","","","<div style=""font-size:60px;""> </div>","null","LF","learning/Slide139.JPG","This is a wug:","","",""
"html-keyboard-response","424","757797","0.0-7.0-0.59","LF","f9gvt2ubve","1536","864","0","1","0","5f529cd9e0a90c58773ec3fe","","null","","","learningBlock2","","","","This is a dep:","null","","","","","",""
"image-keyboard-response","425","758166","0.0-7.0-1.59","LF","f9gvt2ubve","1536","864","0","1","0","5f529cd9e0a90c58773ec3fe","","null","","","","","","","learning/Slide140.JPG","null","","","","","",""
"html-keyboard-response","426","759186","0.0-7.0-2.59","LF","f9gvt2ubve","1536","864","0","1","0","5f529cd9e0a90c58773ec3fe","","null","","","learningBlock2","","","","<div style=""font-size:60px;""> </div>","null","LF","learning/Slide140.JPG","This is a dep:","","",""
"html-keyboard-response","427","760206","0.0-7.0-0.60","LF","f9gvt2ubve","1536","864","0","1","0","5f529cd9e0a90c58773ec3fe","","null","","","learningBlock2","","","","This is a tob:","null","","","","","",""
"image-keyboard-response","428","760546","0.0-7.0-1.60","LF","f9gvt2ubve","1536","864","0","1","0","5f529cd9e0a90c58773ec3fe","","null","","","","","","","learning/Slide141.JPG","null","","","","","",""
"html-keyboard-response","429","761567","0.0-7.0-2.60","LF","f9gvt2ubve","1536","864","0","1","0","5f529cd9e0a90c58773ec3fe","","null","","","learningBlock2","","","","<div style=""font-size:60px;""> </div>","null","LF","learning/Slide141.JPG","This is a tob:","","",""
"html-keyboard-response","430","762576","0.0-7.0-0.61","LF","f9gvt2ubve","1536","864","0","1","0","5f529cd9e0a90c58773ec3fe","","null","","","learningBlock2","","","","This is a wug:","null","","","","","",""
"image-keyboard-response","431","762936","0.0-7.0-1.61","LF","f9gvt2ubve","1536","864","0","1","0","5f529cd9e0a90c58773ec3fe","","null","","","","","","","learning/Slide142.JPG","null","","","","","",""
"html-keyboard-response","432","763947","0.0-7.0-2.61","LF","f9gvt2ubve","1536","864","0","1","0","5f529cd9e0a90c58773ec3fe","","null","","","learningBlock2","","","","<div style=""font-size:60px;""> </div>","null","LF","learning/Slide142.JPG","This is a wug:","","",""
"html-keyboard-response","433","764957","0.0-7.0-0.62","LF","f9gvt2ubve","1536","864","0","1","0","5f529cd9e0a90c58773ec3fe","","null","","","learningBlock2","","","","This is a bim:","null","","","","","",""
"image-keyboard-response","434","765296","0.0-7.0-1.62","LF","f9gvt2ubve","1536","864","0","1","0","5f529cd9e0a90c58773ec3fe","","null","","","","","","","learning/Slide143.JPG","null","","","","","",""
"html-keyboard-response","435","766317","0.0-7.0-2.62","LF","f9gvt2ubve","1536","864","0","1","0","5f529cd9e0a90c58773ec3fe","","null","","","learningBlock2","","","","<div style=""font-size:60px;""> </div>","null","LF","learning/Slide143.JPG","This is a bim:","","",""
"html-keyboard-response","436","767336","0.0-7.0-0.63","LF","f9gvt2ubve","1536","864","0","1","0","5f529cd9e0a90c58773ec3fe","","null","","","learningBlock2","","","","This is a dep:","null","","","","","",""
"image-keyboard-response","437","767696","0.0-7.0-1.63","LF","f9gvt2ubve","1536","864","0","1","0","5f529cd9e0a90c58773ec3fe","","null","","","","","","","learning/Slide144.JPG","null","","","","","",""
"html-keyboard-response","438","768707","0.0-7.0-2.63","LF","f9gvt2ubve","1536","864","0","1","0","5f529cd9e0a90c58773ec3fe","","null","","","learningBlock2","","","","<div style=""font-size:60px;""> </div>","null","LF","learning/Slide144.JPG","This is a dep:","","",""
