"trial_type","trial_index","time_elapsed","internal_node_id","condition","subject","screen_width","screen_height","attention","distraction","conscientious","prolificID","success","rt","url","view_history","test_part","final_height_px","final_width_px","scale_factor","stimulus","key_press","learningType","presentedImage","presentedLabel","button_pressed","response","responses"
"pavlovia","0","172","0.0-0.0","FL","psp3bt1vuy","1920","1080","0","1","0","5933d3c4ed2e9a0001d37ab4","","","","","","","","","","","","","","","",""
"fullscreen","1","9802","0.0-1.0","FL","psp3bt1vuy","1920","1080","0","1","0","5933d3c4ed2e9a0001d37ab4","true","","","","","","","","","","","","","","",""
"external-html","2","20568","0.0-2.0-0.0","FL","psp3bt1vuy","1920","1080","0","1","0","5933d3c4ed2e9a0001d37ab4","","10616.999999969266","text/information_english.html","","","","","","","","","","","","",""
"external-html","3","26727","0.0-2.0-1.0","FL","psp3bt1vuy","1920","1080","0","1","0","5933d3c4ed2e9a0001d37ab4","","6117.000000085682","text/consent_english.html","","","","","","","","","","","","",""
"instructions","4","35844","0.0-3.0","FL","psp3bt1vuy","1920","1080","0","1","0","5933d3c4ed2e9a0001d37ab4","","NA","","[{""page_index"":0,""viewing_time"":1498.0000000214204},{""page_index"":1,""viewing_time"":7615.999999921769}]","instructions","","","","","","","","","","",""
"resize","5","54039","0.0-4.0","FL","psp3bt1vuy","1920","1080","0","1","0","5933d3c4ed2e9a0001d37ab4","","","","","","","362","2.2984126984126982","","","","","","","",""
"image-keyboard-response","6","54215","0.0-5.0-0.0","FL","psp3bt1vuy","1920","1080","0","1","0","5933d3c4ed2e9a0001d37ab4","","null","","","","","","","learning/Slide1.JPG","null","","","","","",""
"html-keyboard-response","7","55365","0.0-5.0-1.0","FL","psp3bt1vuy","1920","1080","0","1","0","5933d3c4ed2e9a0001d37ab4","","null","","","learningBlock1","","","","That was a tob.","null","","","","","",""
"html-keyboard-response","8","56366","0.0-5.0-2.0","FL","psp3bt1vuy","1920","1080","0","1","0","5933d3c4ed2e9a0001d37ab4","","null","","","learningBlock1","","","","<div style=""font-size:60px;""> </div>","null","FL","learning/Slide1.JPG","That was a tob.","","",""
"image-keyboard-response","9","56542","0.0-5.0-0.1","FL","psp3bt1vuy","1920","1080","0","1","0","5933d3c4ed2e9a0001d37ab4","","null","","","","","","","learning/Slide2.JPG","null","","","","","",""
"html-keyboard-response","10","57693","0.0-5.0-1.1","FL","psp3bt1vuy","1920","1080","0","1","0","5933d3c4ed2e9a0001d37ab4","","null","","","learningBlock1","","","","That was a wug.","null","","","","","",""
"html-keyboard-response","11","58693","0.0-5.0-2.1","FL","psp3bt1vuy","1920","1080","0","1","0","5933d3c4ed2e9a0001d37ab4","","null","","","learningBlock1","","","","<div style=""font-size:60px;""> </div>","null","FL","learning/Slide2.JPG","That was a wug.","","",""
"image-keyboard-response","12","58870","0.0-5.0-0.2","FL","psp3bt1vuy","1920","1080","0","1","0","5933d3c4ed2e9a0001d37ab4","","null","","","","","","","learning/Slide3.JPG","null","","","","","",""
"html-keyboard-response","13","60020","0.0-5.0-1.2","FL","psp3bt1vuy","1920","1080","0","1","0","5933d3c4ed2e9a0001d37ab4","","null","","","learningBlock1","","","","That was a bim.","null","","","","","",""
"html-keyboard-response","14","61020","0.0-5.0-2.2","FL","psp3bt1vuy","1920","1080","0","1","0","5933d3c4ed2e9a0001d37ab4","","null","","","learningBlock1","","","","<div style=""font-size:60px;""> </div>","null","FL","learning/Slide3.JPG","That was a bim.","","",""
"image-keyboard-response","15","61196","0.0-5.0-0.3","FL","psp3bt1vuy","1920","1080","0","1","0","5933d3c4ed2e9a0001d37ab4","","null","","","","","","","learning/Slide4.JPG","null","","","","","",""
"html-keyboard-response","16","62346","0.0-5.0-1.3","FL","psp3bt1vuy","1920","1080","0","1","0","5933d3c4ed2e9a0001d37ab4","","null","","","learningBlock1","","","","That was a dep.","null","","","","","",""
"html-keyboard-response","17","63346","0.0-5.0-2.3","FL","psp3bt1vuy","1920","1080","0","1","0","5933d3c4ed2e9a0001d37ab4","","null","","","learningBlock1","","","","<div style=""font-size:60px;""> </div>","null","FL","learning/Slide4.JPG","That was a dep.","","",""
"image-keyboard-response","18","63522","0.0-5.0-0.4","FL","psp3bt1vuy","1920","1080","0","1","0","5933d3c4ed2e9a0001d37ab4","","null","","","","","","","learning/Slide5.JPG","null","","","","","",""
"html-keyboard-response","19","64672","0.0-5.0-1.4","FL","psp3bt1vuy","1920","1080","0","1","0","5933d3c4ed2e9a0001d37ab4","","null","","","learningBlock1","","","","That was a wug.","null","","","","","",""
"html-keyboard-response","20","65672","0.0-5.0-2.4","FL","psp3bt1vuy","1920","1080","0","1","0","5933d3c4ed2e9a0001d37ab4","","null","","","learningBlock1","","","","<div style=""font-size:60px;""> </div>","null","FL","learning/Slide5.JPG","That was a wug.","","",""
"image-keyboard-response","21","65848","0.0-5.0-0.5","FL","psp3bt1vuy","1920","1080","0","1","0","5933d3c4ed2e9a0001d37ab4","","null","","","","","","","learning/Slide6.JPG","null","","","","","",""
"html-keyboard-response","22","66998","0.0-5.0-1.5","FL","psp3bt1vuy","1920","1080","0","1","0","5933d3c4ed2e9a0001d37ab4","","null","","","learningBlock1","","","","That was a dep.","null","","","","","",""
"html-keyboard-response","23","67998","0.0-5.0-2.5","FL","psp3bt1vuy","1920","1080","0","1","0","5933d3c4ed2e9a0001d37ab4","","null","","","learningBlock1","","","","<div style=""font-size:60px;""> </div>","null","FL","learning/Slide6.JPG","That was a dep.","","",""
"image-keyboard-response","24","68174","0.0-5.0-0.6","FL","psp3bt1vuy","1920","1080","0","1","0","5933d3c4ed2e9a0001d37ab4","","null","","","","","","","learning/Slide7.JPG","null","","","","","",""
"html-keyboard-response","25","69324","0.0-5.0-1.6","FL","psp3bt1vuy","1920","1080","0","1","0","5933d3c4ed2e9a0001d37ab4","","null","","","learningBlock1","","","","That was a wug.","null","","","","","",""
"html-keyboard-response","26","70325","0.0-5.0-2.6","FL","psp3bt1vuy","1920","1080","0","1","0","5933d3c4ed2e9a0001d37ab4","","null","","","learningBlock1","","","","<div style=""font-size:60px;""> </div>","null","FL","learning/Slide7.JPG","That was a wug.","","",""
"image-keyboard-response","27","70501","0.0-5.0-0.7","FL","psp3bt1vuy","1920","1080","0","1","0","5933d3c4ed2e9a0001d37ab4","","null","","","","","","","learning/Slide8.JPG","null","","","","","",""
"html-keyboard-response","28","71651","0.0-5.0-1.7","FL","psp3bt1vuy","1920","1080","0","1","0","5933d3c4ed2e9a0001d37ab4","","null","","","learningBlock1","","","","That was a bim.","null","","","","","",""
"html-keyboard-response","29","72652","0.0-5.0-2.7","FL","psp3bt1vuy","1920","1080","0","1","0","5933d3c4ed2e9a0001d37ab4","","null","","","learningBlock1","","","","<div style=""font-size:60px;""> </div>","null","FL","learning/Slide8.JPG","That was a bim.","","",""
"image-keyboard-response","30","72829","0.0-5.0-0.8","FL","psp3bt1vuy","1920","1080","0","1","0","5933d3c4ed2e9a0001d37ab4","","null","","","","","","","learning/Slide9.JPG","null","","","","","",""
"html-keyboard-response","31","73980","0.0-5.0-1.8","FL","psp3bt1vuy","1920","1080","0","1","0","5933d3c4ed2e9a0001d37ab4","","null","","","learningBlock1","","","","That was a wug.","null","","","","","",""
"html-keyboard-response","32","74981","0.0-5.0-2.8","FL","psp3bt1vuy","1920","1080","0","1","0","5933d3c4ed2e9a0001d37ab4","","null","","","learningBlock1","","","","<div style=""font-size:60px;""> </div>","null","FL","learning/Slide9.JPG","That was a wug.","","",""
"image-keyboard-response","33","75161","0.0-5.0-0.9","FL","psp3bt1vuy","1920","1080","0","1","0","5933d3c4ed2e9a0001d37ab4","","null","","","","","","","learning/Slide10.JPG","null","","","","","",""
"html-keyboard-response","34","76312","0.0-5.0-1.9","FL","psp3bt1vuy","1920","1080","0","1","0","5933d3c4ed2e9a0001d37ab4","","null","","","learningBlock1","","","","That was a dep.","null","","","","","",""
"html-keyboard-response","35","77313","0.0-5.0-2.9","FL","psp3bt1vuy","1920","1080","0","1","0","5933d3c4ed2e9a0001d37ab4","","null","","","learningBlock1","","","","<div style=""font-size:60px;""> </div>","null","FL","learning/Slide10.JPG","That was a dep.","","",""
"image-keyboard-response","36","77489","0.0-5.0-0.10","FL","psp3bt1vuy","1920","1080","0","1","0","5933d3c4ed2e9a0001d37ab4","","null","","","","","","","learning/Slide11.JPG","null","","","","","",""
"html-keyboard-response","37","78639","0.0-5.0-1.10","FL","psp3bt1vuy","1920","1080","0","1","0","5933d3c4ed2e9a0001d37ab4","","null","","","learningBlock1","","","","That was a tob.","null","","","","","",""
"html-keyboard-response","38","79639","0.0-5.0-2.10","FL","psp3bt1vuy","1920","1080","0","1","0","5933d3c4ed2e9a0001d37ab4","","null","","","learningBlock1","","","","<div style=""font-size:60px;""> </div>","null","FL","learning/Slide11.JPG","That was a tob.","","",""
"image-keyboard-response","39","79815","0.0-5.0-0.11","FL","psp3bt1vuy","1920","1080","0","1","0","5933d3c4ed2e9a0001d37ab4","","null","","","","","","","learning/Slide12.JPG","null","","","","","",""
"html-keyboard-response","40","80965","0.0-5.0-1.11","FL","psp3bt1vuy","1920","1080","0","1","0","5933d3c4ed2e9a0001d37ab4","","null","","","learningBlock1","","","","That was a dep.","null","","","","","",""
"html-keyboard-response","41","81967","0.0-5.0-2.11","FL","psp3bt1vuy","1920","1080","0","1","0","5933d3c4ed2e9a0001d37ab4","","null","","","learningBlock1","","","","<div style=""font-size:60px;""> </div>","null","FL","learning/Slide12.JPG","That was a dep.","","",""
"image-keyboard-response","42","82142","0.0-5.0-0.12","FL","psp3bt1vuy","1920","1080","0","1","0","5933d3c4ed2e9a0001d37ab4","","null","","","","","","","learning/Slide13.JPG","null","","","","","",""
"html-keyboard-response","43","83292","0.0-5.0-1.12","FL","psp3bt1vuy","1920","1080","0","1","0","5933d3c4ed2e9a0001d37ab4","","null","","","learningBlock1","","","","That was a bim.","null","","","","","",""
"html-keyboard-response","44","84293","0.0-5.0-2.12","FL","psp3bt1vuy","1920","1080","0","1","0","5933d3c4ed2e9a0001d37ab4","","null","","","learningBlock1","","","","<div style=""font-size:60px;""> </div>","null","FL","learning/Slide13.JPG","That was a bim.","","",""
"image-keyboard-response","45","84469","0.0-5.0-0.13","FL","psp3bt1vuy","1920","1080","0","1","0","5933d3c4ed2e9a0001d37ab4","","null","","","","","","","learning/Slide14.JPG","null","","","","","",""
"html-keyboard-response","46","85619","0.0-5.0-1.13","FL","psp3bt1vuy","1920","1080","0","1","0","5933d3c4ed2e9a0001d37ab4","","null","","","learningBlock1","","","","That was a wug.","null","","","","","",""
"html-keyboard-response","47","86619","0.0-5.0-2.13","FL","psp3bt1vuy","1920","1080","0","1","0","5933d3c4ed2e9a0001d37ab4","","null","","","learningBlock1","","","","<div style=""font-size:60px;""> </div>","null","FL","learning/Slide14.JPG","That was a wug.","","",""
"image-keyboard-response","48","86795","0.0-5.0-0.14","FL","psp3bt1vuy","1920","1080","0","1","0","5933d3c4ed2e9a0001d37ab4","","null","","","","","","","learning/Slide15.JPG","null","","","","","",""
"html-keyboard-response","49","87945","0.0-5.0-1.14","FL","psp3bt1vuy","1920","1080","0","1","0","5933d3c4ed2e9a0001d37ab4","","null","","","learningBlock1","","","","That was a tob.","null","","","","","",""
"html-keyboard-response","50","88945","0.0-5.0-2.14","FL","psp3bt1vuy","1920","1080","0","1","0","5933d3c4ed2e9a0001d37ab4","","null","","","learningBlock1","","","","<div style=""font-size:60px;""> </div>","null","FL","learning/Slide15.JPG","That was a tob.","","",""
"image-keyboard-response","51","89122","0.0-5.0-0.15","FL","psp3bt1vuy","1920","1080","0","1","0","5933d3c4ed2e9a0001d37ab4","","null","","","","","","","learning/Slide16.JPG","null","","","","","",""
"html-keyboard-response","52","90273","0.0-5.0-1.15","FL","psp3bt1vuy","1920","1080","0","1","0","5933d3c4ed2e9a0001d37ab4","","null","","","learningBlock1","","","","That was a dep.","null","","","","","",""
"html-keyboard-response","53","91274","0.0-5.0-2.15","FL","psp3bt1vuy","1920","1080","0","1","0","5933d3c4ed2e9a0001d37ab4","","null","","","learningBlock1","","","","<div style=""font-size:60px;""> </div>","null","FL","learning/Slide16.JPG","That was a dep.","","",""
"image-keyboard-response","54","91451","0.0-5.0-0.16","FL","psp3bt1vuy","1920","1080","0","1","0","5933d3c4ed2e9a0001d37ab4","","null","","","","","","","learning/Slide17.JPG","null","","","","","",""
"html-keyboard-response","55","92601","0.0-5.0-1.16","FL","psp3bt1vuy","1920","1080","0","1","0","5933d3c4ed2e9a0001d37ab4","","null","","","learningBlock1","","","","That was a bim.","null","","","","","",""
"html-keyboard-response","56","93602","0.0-5.0-2.16","FL","psp3bt1vuy","1920","1080","0","1","0","5933d3c4ed2e9a0001d37ab4","","null","","","learningBlock1","","","","<div style=""font-size:60px;""> </div>","null","FL","learning/Slide17.JPG","That was a bim.","","",""
"image-keyboard-response","57","93778","0.0-5.0-0.17","FL","psp3bt1vuy","1920","1080","0","1","0","5933d3c4ed2e9a0001d37ab4","","null","","","","","","","learning/Slide18.JPG","null","","","","","",""
"html-keyboard-response","58","94929","0.0-5.0-1.17","FL","psp3bt1vuy","1920","1080","0","1","0","5933d3c4ed2e9a0001d37ab4","","null","","","learningBlock1","","","","That was a tob.","null","","","","","",""
"html-keyboard-response","59","95929","0.0-5.0-2.17","FL","psp3bt1vuy","1920","1080","0","1","0","5933d3c4ed2e9a0001d37ab4","","null","","","learningBlock1","","","","<div style=""font-size:60px;""> </div>","null","FL","learning/Slide18.JPG","That was a tob.","","",""
"image-keyboard-response","60","96105","0.0-5.0-0.18","FL","psp3bt1vuy","1920","1080","0","1","0","5933d3c4ed2e9a0001d37ab4","","null","","","","","","","learning/Slide19.JPG","null","","","","","",""
"html-keyboard-response","61","97257","0.0-5.0-1.18","FL","psp3bt1vuy","1920","1080","0","1","0","5933d3c4ed2e9a0001d37ab4","","null","","","learningBlock1","","","","That was a wug.","null","","","","","",""
"html-keyboard-response","62","98259","0.0-5.0-2.18","FL","psp3bt1vuy","1920","1080","0","1","0","5933d3c4ed2e9a0001d37ab4","","null","","","learningBlock1","","","","<div style=""font-size:60px;""> </div>","null","FL","learning/Slide19.JPG","That was a wug.","","",""
"image-keyboard-response","63","98435","0.0-5.0-0.19","FL","psp3bt1vuy","1920","1080","0","1","0","5933d3c4ed2e9a0001d37ab4","","null","","","","","","","learning/Slide20.JPG","null","","","","","",""
"html-keyboard-response","64","99587","0.0-5.0-1.19","FL","psp3bt1vuy","1920","1080","0","1","0","5933d3c4ed2e9a0001d37ab4","","null","","","learningBlock1","","","","That was a bim.","null","","","","","",""
"html-keyboard-response","65","100588","0.0-5.0-2.19","FL","psp3bt1vuy","1920","1080","0","1","0","5933d3c4ed2e9a0001d37ab4","","null","","","learningBlock1","","","","<div style=""font-size:60px;""> </div>","null","FL","learning/Slide20.JPG","That was a bim.","","",""
"image-keyboard-response","66","100764","0.0-5.0-0.20","FL","psp3bt1vuy","1920","1080","0","1","0","5933d3c4ed2e9a0001d37ab4","","null","","","","","","","learning/Slide21.JPG","null","","","","","",""
"html-keyboard-response","67","101915","0.0-5.0-1.20","FL","psp3bt1vuy","1920","1080","0","1","0","5933d3c4ed2e9a0001d37ab4","","null","","","learningBlock1","","","","That was a dep.","null","","","","","",""
"html-keyboard-response","68","102915","0.0-5.0-2.20","FL","psp3bt1vuy","1920","1080","0","1","0","5933d3c4ed2e9a0001d37ab4","","null","","","learningBlock1","","","","<div style=""font-size:60px;""> </div>","null","FL","learning/Slide21.JPG","That was a dep.","","",""
"image-keyboard-response","69","103093","0.0-5.0-0.21","FL","psp3bt1vuy","1920","1080","0","1","0","5933d3c4ed2e9a0001d37ab4","","null","","","","","","","learning/Slide22.JPG","null","","","","","",""
"html-keyboard-response","70","104245","0.0-5.0-1.21","FL","psp3bt1vuy","1920","1080","0","1","0","5933d3c4ed2e9a0001d37ab4","","null","","","learningBlock1","","","","That was a bim.","null","","","","","",""
"html-keyboard-response","71","105246","0.0-5.0-2.21","FL","psp3bt1vuy","1920","1080","0","1","0","5933d3c4ed2e9a0001d37ab4","","null","","","learningBlock1","","","","<div style=""font-size:60px;""> </div>","null","FL","learning/Slide22.JPG","That was a bim.","","",""
"image-keyboard-response","72","105422","0.0-5.0-0.22","FL","psp3bt1vuy","1920","1080","0","1","0","5933d3c4ed2e9a0001d37ab4","","null","","","","","","","learning/Slide23.JPG","null","","","","","",""
"html-keyboard-response","73","106573","0.0-5.0-1.22","FL","psp3bt1vuy","1920","1080","0","1","0","5933d3c4ed2e9a0001d37ab4","","null","","","learningBlock1","","","","That was a tob.","null","","","","","",""
"html-keyboard-response","74","107575","0.0-5.0-2.22","FL","psp3bt1vuy","1920","1080","0","1","0","5933d3c4ed2e9a0001d37ab4","","null","","","learningBlock1","","","","<div style=""font-size:60px;""> </div>","null","FL","learning/Slide23.JPG","That was a tob.","","",""
"image-keyboard-response","75","107750","0.0-5.0-0.23","FL","psp3bt1vuy","1920","1080","0","1","0","5933d3c4ed2e9a0001d37ab4","","null","","","","","","","learning/Slide24.JPG","null","","","","","",""
"html-keyboard-response","76","108900","0.0-5.0-1.23","FL","psp3bt1vuy","1920","1080","0","1","0","5933d3c4ed2e9a0001d37ab4","","null","","","learningBlock1","","","","That was a wug.","null","","","","","",""
"html-keyboard-response","77","109900","0.0-5.0-2.23","FL","psp3bt1vuy","1920","1080","0","1","0","5933d3c4ed2e9a0001d37ab4","","null","","","learningBlock1","","","","<div style=""font-size:60px;""> </div>","null","FL","learning/Slide24.JPG","That was a wug.","","",""
"image-keyboard-response","78","110076","0.0-5.0-0.24","FL","psp3bt1vuy","1920","1080","0","1","0","5933d3c4ed2e9a0001d37ab4","","null","","","","","","","learning/Slide25.JPG","null","","","","","",""
"html-keyboard-response","79","111227","0.0-5.0-1.24","FL","psp3bt1vuy","1920","1080","0","1","0","5933d3c4ed2e9a0001d37ab4","","null","","","learningBlock1","","","","That was a dep.","null","","","","","",""
"html-keyboard-response","80","112227","0.0-5.0-2.24","FL","psp3bt1vuy","1920","1080","0","1","0","5933d3c4ed2e9a0001d37ab4","","null","","","learningBlock1","","","","<div style=""font-size:60px;""> </div>","null","FL","learning/Slide25.JPG","That was a dep.","","",""
"image-keyboard-response","81","112412","0.0-5.0-0.25","FL","psp3bt1vuy","1920","1080","0","1","0","5933d3c4ed2e9a0001d37ab4","","null","","","","","","","learning/Slide26.JPG","null","","","","","",""
"html-keyboard-response","82","113568","0.0-5.0-1.25","FL","psp3bt1vuy","1920","1080","0","1","0","5933d3c4ed2e9a0001d37ab4","","null","","","learningBlock1","","","","That was a wug.","null","","","","","",""
"html-keyboard-response","83","114568","0.0-5.0-2.25","FL","psp3bt1vuy","1920","1080","0","1","0","5933d3c4ed2e9a0001d37ab4","","null","","","learningBlock1","","","","<div style=""font-size:60px;""> </div>","null","FL","learning/Slide26.JPG","That was a wug.","","",""
"image-keyboard-response","84","114745","0.0-5.0-0.26","FL","psp3bt1vuy","1920","1080","0","1","0","5933d3c4ed2e9a0001d37ab4","","null","","","","","","","learning/Slide27.JPG","null","","","","","",""
"html-keyboard-response","85","115896","0.0-5.0-1.26","FL","psp3bt1vuy","1920","1080","0","1","0","5933d3c4ed2e9a0001d37ab4","","null","","","learningBlock1","","","","That was a bim.","null","","","","","",""
"html-keyboard-response","86","116896","0.0-5.0-2.26","FL","psp3bt1vuy","1920","1080","0","1","0","5933d3c4ed2e9a0001d37ab4","","null","","","learningBlock1","","","","<div style=""font-size:60px;""> </div>","null","FL","learning/Slide27.JPG","That was a bim.","","",""
"image-keyboard-response","87","117072","0.0-5.0-0.27","FL","psp3bt1vuy","1920","1080","0","1","0","5933d3c4ed2e9a0001d37ab4","","null","","","","","","","learning/Slide28.JPG","null","","","","","",""
"html-keyboard-response","88","118222","0.0-5.0-1.27","FL","psp3bt1vuy","1920","1080","0","1","0","5933d3c4ed2e9a0001d37ab4","","null","","","learningBlock1","","","","That was a dep.","null","","","","","",""
"html-keyboard-response","89","119222","0.0-5.0-2.27","FL","psp3bt1vuy","1920","1080","0","1","0","5933d3c4ed2e9a0001d37ab4","","null","","","learningBlock1","","","","<div style=""font-size:60px;""> </div>","null","FL","learning/Slide28.JPG","That was a dep.","","",""
"image-keyboard-response","90","119398","0.0-5.0-0.28","FL","psp3bt1vuy","1920","1080","0","1","0","5933d3c4ed2e9a0001d37ab4","","null","","","","","","","learning/Slide29.JPG","null","","","","","",""
"html-keyboard-response","91","120549","0.0-5.0-1.28","FL","psp3bt1vuy","1920","1080","0","1","0","5933d3c4ed2e9a0001d37ab4","","null","","","learningBlock1","","","","That was a tob.","null","","","","","",""
"html-keyboard-response","92","121550","0.0-5.0-2.28","FL","psp3bt1vuy","1920","1080","0","1","0","5933d3c4ed2e9a0001d37ab4","","null","","","learningBlock1","","","","<div style=""font-size:60px;""> </div>","null","FL","learning/Slide29.JPG","That was a tob.","","",""
"image-keyboard-response","93","121726","0.0-5.0-0.29","FL","psp3bt1vuy","1920","1080","0","1","0","5933d3c4ed2e9a0001d37ab4","","null","","","","","","","learning/Slide30.JPG","null","","","","","",""
"html-keyboard-response","94","122877","0.0-5.0-1.29","FL","psp3bt1vuy","1920","1080","0","1","0","5933d3c4ed2e9a0001d37ab4","","null","","","learningBlock1","","","","That was a dep.","null","","","","","",""
"html-keyboard-response","95","123877","0.0-5.0-2.29","FL","psp3bt1vuy","1920","1080","0","1","0","5933d3c4ed2e9a0001d37ab4","","null","","","learningBlock1","","","","<div style=""font-size:60px;""> </div>","null","FL","learning/Slide30.JPG","That was a dep.","","",""
"image-keyboard-response","96","124053","0.0-5.0-0.30","FL","psp3bt1vuy","1920","1080","0","1","0","5933d3c4ed2e9a0001d37ab4","","null","","","","","","","learning/Slide31.JPG","null","","","","","",""
"html-keyboard-response","97","125204","0.0-5.0-1.30","FL","psp3bt1vuy","1920","1080","0","1","0","5933d3c4ed2e9a0001d37ab4","","null","","","learningBlock1","","","","That was a wug.","null","","","","","",""
"html-keyboard-response","98","126204","0.0-5.0-2.30","FL","psp3bt1vuy","1920","1080","0","1","0","5933d3c4ed2e9a0001d37ab4","","null","","","learningBlock1","","","","<div style=""font-size:60px;""> </div>","null","FL","learning/Slide31.JPG","That was a wug.","","",""
"image-keyboard-response","99","126380","0.0-5.0-0.31","FL","psp3bt1vuy","1920","1080","0","1","0","5933d3c4ed2e9a0001d37ab4","","null","","","","","","","learning/Slide32.JPG","null","","","","","",""
"html-keyboard-response","100","127530","0.0-5.0-1.31","FL","psp3bt1vuy","1920","1080","0","1","0","5933d3c4ed2e9a0001d37ab4","","null","","","learningBlock1","","","","That was a tob.","null","","","","","",""
"html-keyboard-response","101","128530","0.0-5.0-2.31","FL","psp3bt1vuy","1920","1080","0","1","0","5933d3c4ed2e9a0001d37ab4","","null","","","learningBlock1","","","","<div style=""font-size:60px;""> </div>","null","FL","learning/Slide32.JPG","That was a tob.","","",""
"image-keyboard-response","102","128707","0.0-5.0-0.32","FL","psp3bt1vuy","1920","1080","0","1","0","5933d3c4ed2e9a0001d37ab4","","null","","","","","","","learning/Slide33.JPG","null","","","","","",""
"html-keyboard-response","103","129857","0.0-5.0-1.32","FL","psp3bt1vuy","1920","1080","0","1","0","5933d3c4ed2e9a0001d37ab4","","null","","","learningBlock1","","","","That was a bim.","null","","","","","",""
"html-keyboard-response","104","130857","0.0-5.0-2.32","FL","psp3bt1vuy","1920","1080","0","1","0","5933d3c4ed2e9a0001d37ab4","","null","","","learningBlock1","","","","<div style=""font-size:60px;""> </div>","null","FL","learning/Slide33.JPG","That was a bim.","","",""
"image-keyboard-response","105","131033","0.0-5.0-0.33","FL","psp3bt1vuy","1920","1080","0","1","0","5933d3c4ed2e9a0001d37ab4","","null","","","","","","","learning/Slide34.JPG","null","","","","","",""
"html-keyboard-response","106","132184","0.0-5.0-1.33","FL","psp3bt1vuy","1920","1080","0","1","0","5933d3c4ed2e9a0001d37ab4","","null","","","learningBlock1","","","","That was a tob.","null","","","","","",""
"html-keyboard-response","107","133185","0.0-5.0-2.33","FL","psp3bt1vuy","1920","1080","0","1","0","5933d3c4ed2e9a0001d37ab4","","null","","","learningBlock1","","","","<div style=""font-size:60px;""> </div>","null","FL","learning/Slide34.JPG","That was a tob.","","",""
"image-keyboard-response","108","133361","0.0-5.0-0.34","FL","psp3bt1vuy","1920","1080","0","1","0","5933d3c4ed2e9a0001d37ab4","","null","","","","","","","learning/Slide35.JPG","null","","","","","",""
"html-keyboard-response","109","134511","0.0-5.0-1.34","FL","psp3bt1vuy","1920","1080","0","1","0","5933d3c4ed2e9a0001d37ab4","","null","","","learningBlock1","","","","That was a bim.","null","","","","","",""
"html-keyboard-response","110","135511","0.0-5.0-2.34","FL","psp3bt1vuy","1920","1080","0","1","0","5933d3c4ed2e9a0001d37ab4","","null","","","learningBlock1","","","","<div style=""font-size:60px;""> </div>","null","FL","learning/Slide35.JPG","That was a bim.","","",""
"image-keyboard-response","111","135688","0.0-5.0-0.35","FL","psp3bt1vuy","1920","1080","0","1","0","5933d3c4ed2e9a0001d37ab4","","null","","","","","","","learning/Slide36.JPG","null","","","","","",""
"html-keyboard-response","112","136838","0.0-5.0-1.35","FL","psp3bt1vuy","1920","1080","0","1","0","5933d3c4ed2e9a0001d37ab4","","null","","","learningBlock1","","","","That was a dep.","null","","","","","",""
"html-keyboard-response","113","137839","0.0-5.0-2.35","FL","psp3bt1vuy","1920","1080","0","1","0","5933d3c4ed2e9a0001d37ab4","","null","","","learningBlock1","","","","<div style=""font-size:60px;""> </div>","null","FL","learning/Slide36.JPG","That was a dep.","","",""
"image-keyboard-response","114","138015","0.0-5.0-0.36","FL","psp3bt1vuy","1920","1080","0","1","0","5933d3c4ed2e9a0001d37ab4","","null","","","","","","","learning/Slide37.JPG","null","","","","","",""
"html-keyboard-response","115","139165","0.0-5.0-1.36","FL","psp3bt1vuy","1920","1080","0","1","0","5933d3c4ed2e9a0001d37ab4","","null","","","learningBlock1","","","","That was a tob.","null","","","","","",""
"html-keyboard-response","116","140165","0.0-5.0-2.36","FL","psp3bt1vuy","1920","1080","0","1","0","5933d3c4ed2e9a0001d37ab4","","null","","","learningBlock1","","","","<div style=""font-size:60px;""> </div>","null","FL","learning/Slide37.JPG","That was a tob.","","",""
"image-keyboard-response","117","140341","0.0-5.0-0.37","FL","psp3bt1vuy","1920","1080","0","1","0","5933d3c4ed2e9a0001d37ab4","","null","","","","","","","learning/Slide38.JPG","null","","","","","",""
"html-keyboard-response","118","141491","0.0-5.0-1.37","FL","psp3bt1vuy","1920","1080","0","1","0","5933d3c4ed2e9a0001d37ab4","","null","","","learningBlock1","","","","That was a wug.","null","","","","","",""
"html-keyboard-response","119","142492","0.0-5.0-2.37","FL","psp3bt1vuy","1920","1080","0","1","0","5933d3c4ed2e9a0001d37ab4","","null","","","learningBlock1","","","","<div style=""font-size:60px;""> </div>","null","FL","learning/Slide38.JPG","That was a wug.","","",""
"image-keyboard-response","120","142667","0.0-5.0-0.38","FL","psp3bt1vuy","1920","1080","0","1","0","5933d3c4ed2e9a0001d37ab4","","null","","","","","","","learning/Slide39.JPG","null","","","","","",""
"html-keyboard-response","121","143826","0.0-5.0-1.38","FL","psp3bt1vuy","1920","1080","0","1","0","5933d3c4ed2e9a0001d37ab4","","null","","","learningBlock1","","","","That was a bim.","null","","","","","",""
"html-keyboard-response","122","144826","0.0-5.0-2.38","FL","psp3bt1vuy","1920","1080","0","1","0","5933d3c4ed2e9a0001d37ab4","","null","","","learningBlock1","","","","<div style=""font-size:60px;""> </div>","null","FL","learning/Slide39.JPG","That was a bim.","","",""
"image-keyboard-response","123","145003","0.0-5.0-0.39","FL","psp3bt1vuy","1920","1080","0","1","0","5933d3c4ed2e9a0001d37ab4","","null","","","","","","","learning/Slide40.JPG","null","","","","","",""
"html-keyboard-response","124","146153","0.0-5.0-1.39","FL","psp3bt1vuy","1920","1080","0","1","0","5933d3c4ed2e9a0001d37ab4","","null","","","learningBlock1","","","","That was a tob.","null","","","","","",""
"html-keyboard-response","125","147153","0.0-5.0-2.39","FL","psp3bt1vuy","1920","1080","0","1","0","5933d3c4ed2e9a0001d37ab4","","null","","","learningBlock1","","","","<div style=""font-size:60px;""> </div>","null","FL","learning/Slide40.JPG","That was a tob.","","",""
"image-keyboard-response","126","147329","0.0-5.0-0.40","FL","psp3bt1vuy","1920","1080","0","1","0","5933d3c4ed2e9a0001d37ab4","","null","","","","","","","learning/Slide41.JPG","null","","","","","",""
"html-keyboard-response","127","148479","0.0-5.0-1.40","FL","psp3bt1vuy","1920","1080","0","1","0","5933d3c4ed2e9a0001d37ab4","","null","","","learningBlock1","","","","That was a bim.","null","","","","","",""
"html-keyboard-response","128","149479","0.0-5.0-2.40","FL","psp3bt1vuy","1920","1080","0","1","0","5933d3c4ed2e9a0001d37ab4","","null","","","learningBlock1","","","","<div style=""font-size:60px;""> </div>","null","FL","learning/Slide41.JPG","That was a bim.","","",""
"image-keyboard-response","129","149656","0.0-5.0-0.41","FL","psp3bt1vuy","1920","1080","0","1","0","5933d3c4ed2e9a0001d37ab4","","null","","","","","","","learning/Slide42.JPG","null","","","","","",""
"html-keyboard-response","130","150806","0.0-5.0-1.41","FL","psp3bt1vuy","1920","1080","0","1","0","5933d3c4ed2e9a0001d37ab4","","null","","","learningBlock1","","","","That was a dep.","null","","","","","",""
"html-keyboard-response","131","151806","0.0-5.0-2.41","FL","psp3bt1vuy","1920","1080","0","1","0","5933d3c4ed2e9a0001d37ab4","","null","","","learningBlock1","","","","<div style=""font-size:60px;""> </div>","null","FL","learning/Slide42.JPG","That was a dep.","","",""
"image-keyboard-response","132","151982","0.0-5.0-0.42","FL","psp3bt1vuy","1920","1080","0","1","0","5933d3c4ed2e9a0001d37ab4","","null","","","","","","","learning/Slide43.JPG","null","","","","","",""
"html-keyboard-response","133","153132","0.0-5.0-1.42","FL","psp3bt1vuy","1920","1080","0","1","0","5933d3c4ed2e9a0001d37ab4","","null","","","learningBlock1","","","","That was a wug.","null","","","","","",""
"html-keyboard-response","134","154132","0.0-5.0-2.42","FL","psp3bt1vuy","1920","1080","0","1","0","5933d3c4ed2e9a0001d37ab4","","null","","","learningBlock1","","","","<div style=""font-size:60px;""> </div>","null","FL","learning/Slide43.JPG","That was a wug.","","",""
"image-keyboard-response","135","154308","0.0-5.0-0.43","FL","psp3bt1vuy","1920","1080","0","1","0","5933d3c4ed2e9a0001d37ab4","","null","","","","","","","learning/Slide44.JPG","null","","","","","",""
"html-keyboard-response","136","155459","0.0-5.0-1.43","FL","psp3bt1vuy","1920","1080","0","1","0","5933d3c4ed2e9a0001d37ab4","","null","","","learningBlock1","","","","That was a bim.","null","","","","","",""
"html-keyboard-response","137","156461","0.0-5.0-2.43","FL","psp3bt1vuy","1920","1080","0","1","0","5933d3c4ed2e9a0001d37ab4","","null","","","learningBlock1","","","","<div style=""font-size:60px;""> </div>","null","FL","learning/Slide44.JPG","That was a bim.","","",""
"image-keyboard-response","138","156637","0.0-5.0-0.44","FL","psp3bt1vuy","1920","1080","0","1","0","5933d3c4ed2e9a0001d37ab4","","null","","","","","","","learning/Slide45.JPG","null","","","","","",""
"html-keyboard-response","139","157787","0.0-5.0-1.44","FL","psp3bt1vuy","1920","1080","0","1","0","5933d3c4ed2e9a0001d37ab4","","null","","","learningBlock1","","","","That was a wug.","null","","","","","",""
"html-keyboard-response","140","158787","0.0-5.0-2.44","FL","psp3bt1vuy","1920","1080","0","1","0","5933d3c4ed2e9a0001d37ab4","","null","","","learningBlock1","","","","<div style=""font-size:60px;""> </div>","null","FL","learning/Slide45.JPG","That was a wug.","","",""
"image-keyboard-response","141","158963","0.0-5.0-0.45","FL","psp3bt1vuy","1920","1080","0","1","0","5933d3c4ed2e9a0001d37ab4","","null","","","","","","","learning/Slide46.JPG","null","","","","","",""
"html-keyboard-response","142","160114","0.0-5.0-1.45","FL","psp3bt1vuy","1920","1080","0","1","0","5933d3c4ed2e9a0001d37ab4","","null","","","learningBlock1","","","","That was a dep.","null","","","","","",""
"html-keyboard-response","143","161114","0.0-5.0-2.45","FL","psp3bt1vuy","1920","1080","0","1","0","5933d3c4ed2e9a0001d37ab4","","null","","","learningBlock1","","","","<div style=""font-size:60px;""> </div>","null","FL","learning/Slide46.JPG","That was a dep.","","",""
"image-keyboard-response","144","161291","0.0-5.0-0.46","FL","psp3bt1vuy","1920","1080","0","1","0","5933d3c4ed2e9a0001d37ab4","","null","","","","","","","learning/Slide47.JPG","null","","","","","",""
"html-keyboard-response","145","162441","0.0-5.0-1.46","FL","psp3bt1vuy","1920","1080","0","1","0","5933d3c4ed2e9a0001d37ab4","","null","","","learningBlock1","","","","That was a tob.","null","","","","","",""
"html-keyboard-response","146","163441","0.0-5.0-2.46","FL","psp3bt1vuy","1920","1080","0","1","0","5933d3c4ed2e9a0001d37ab4","","null","","","learningBlock1","","","","<div style=""font-size:60px;""> </div>","null","FL","learning/Slide47.JPG","That was a tob.","","",""
"image-keyboard-response","147","163617","0.0-5.0-0.47","FL","psp3bt1vuy","1920","1080","0","1","0","5933d3c4ed2e9a0001d37ab4","","null","","","","","","","learning/Slide48.JPG","null","","","","","",""
"html-keyboard-response","148","164767","0.0-5.0-1.47","FL","psp3bt1vuy","1920","1080","0","1","0","5933d3c4ed2e9a0001d37ab4","","null","","","learningBlock1","","","","That was a bim.","null","","","","","",""
"html-keyboard-response","149","165767","0.0-5.0-2.47","FL","psp3bt1vuy","1920","1080","0","1","0","5933d3c4ed2e9a0001d37ab4","","null","","","learningBlock1","","","","<div style=""font-size:60px;""> </div>","null","FL","learning/Slide48.JPG","That was a bim.","","",""
"image-keyboard-response","150","165944","0.0-5.0-0.48","FL","psp3bt1vuy","1920","1080","0","1","0","5933d3c4ed2e9a0001d37ab4","","null","","","","","","","learning/Slide49.JPG","null","","","","","",""
"html-keyboard-response","151","167095","0.0-5.0-1.48","FL","psp3bt1vuy","1920","1080","0","1","0","5933d3c4ed2e9a0001d37ab4","","null","","","learningBlock1","","","","That was a dep.","null","","","","","",""
"html-keyboard-response","152","168096","0.0-5.0-2.48","FL","psp3bt1vuy","1920","1080","0","1","0","5933d3c4ed2e9a0001d37ab4","","null","","","learningBlock1","","","","<div style=""font-size:60px;""> </div>","null","FL","learning/Slide49.JPG","That was a dep.","","",""
"image-keyboard-response","153","168272","0.0-5.0-0.49","FL","psp3bt1vuy","1920","1080","0","1","0","5933d3c4ed2e9a0001d37ab4","","null","","","","","","","learning/Slide50.JPG","null","","","","","",""
"html-keyboard-response","154","169422","0.0-5.0-1.49","FL","psp3bt1vuy","1920","1080","0","1","0","5933d3c4ed2e9a0001d37ab4","","null","","","learningBlock1","","","","That was a tob.","null","","","","","",""
"html-keyboard-response","155","170422","0.0-5.0-2.49","FL","psp3bt1vuy","1920","1080","0","1","0","5933d3c4ed2e9a0001d37ab4","","null","","","learningBlock1","","","","<div style=""font-size:60px;""> </div>","null","FL","learning/Slide50.JPG","That was a tob.","","",""
"image-keyboard-response","156","170598","0.0-5.0-0.50","FL","psp3bt1vuy","1920","1080","0","1","0","5933d3c4ed2e9a0001d37ab4","","null","","","","","","","learning/Slide51.JPG","null","","","","","",""
"html-keyboard-response","157","171748","0.0-5.0-1.50","FL","psp3bt1vuy","1920","1080","0","1","0","5933d3c4ed2e9a0001d37ab4","","null","","","learningBlock1","","","","That was a bim.","null","","","","","",""
"html-keyboard-response","158","172749","0.0-5.0-2.50","FL","psp3bt1vuy","1920","1080","0","1","0","5933d3c4ed2e9a0001d37ab4","","null","","","learningBlock1","","","","<div style=""font-size:60px;""> </div>","null","FL","learning/Slide51.JPG","That was a bim.","","",""
"image-keyboard-response","159","172925","0.0-5.0-0.51","FL","psp3bt1vuy","1920","1080","0","1","0","5933d3c4ed2e9a0001d37ab4","","null","","","","","","","learning/Slide52.JPG","null","","","","","",""
"html-keyboard-response","160","174077","0.0-5.0-1.51","FL","psp3bt1vuy","1920","1080","0","1","0","5933d3c4ed2e9a0001d37ab4","","null","","","learningBlock1","","","","That was a wug.","null","","","","","",""
"html-keyboard-response","161","175078","0.0-5.0-2.51","FL","psp3bt1vuy","1920","1080","0","1","0","5933d3c4ed2e9a0001d37ab4","","null","","","learningBlock1","","","","<div style=""font-size:60px;""> </div>","null","FL","learning/Slide52.JPG","That was a wug.","","",""
"image-keyboard-response","162","175255","0.0-5.0-0.52","FL","psp3bt1vuy","1920","1080","0","1","0","5933d3c4ed2e9a0001d37ab4","","null","","","","","","","learning/Slide53.JPG","null","","","","","",""
"html-keyboard-response","163","176406","0.0-5.0-1.52","FL","psp3bt1vuy","1920","1080","0","1","0","5933d3c4ed2e9a0001d37ab4","","null","","","learningBlock1","","","","That was a tob.","null","","","","","",""
"html-keyboard-response","164","177407","0.0-5.0-2.52","FL","psp3bt1vuy","1920","1080","0","1","0","5933d3c4ed2e9a0001d37ab4","","null","","","learningBlock1","","","","<div style=""font-size:60px;""> </div>","null","FL","learning/Slide53.JPG","That was a tob.","","",""
"image-keyboard-response","165","177583","0.0-5.0-0.53","FL","psp3bt1vuy","1920","1080","0","1","0","5933d3c4ed2e9a0001d37ab4","","null","","","","","","","learning/Slide54.JPG","null","","","","","",""
"html-keyboard-response","166","178733","0.0-5.0-1.53","FL","psp3bt1vuy","1920","1080","0","1","0","5933d3c4ed2e9a0001d37ab4","","null","","","learningBlock1","","","","That was a dep.","null","","","","","",""
"html-keyboard-response","167","179734","0.0-5.0-2.53","FL","psp3bt1vuy","1920","1080","0","1","0","5933d3c4ed2e9a0001d37ab4","","null","","","learningBlock1","","","","<div style=""font-size:60px;""> </div>","null","FL","learning/Slide54.JPG","That was a dep.","","",""
"image-keyboard-response","168","179910","0.0-5.0-0.54","FL","psp3bt1vuy","1920","1080","0","1","0","5933d3c4ed2e9a0001d37ab4","","null","","","","","","","learning/Slide55.JPG","null","","","","","",""
"html-keyboard-response","169","181060","0.0-5.0-1.54","FL","psp3bt1vuy","1920","1080","0","1","0","5933d3c4ed2e9a0001d37ab4","","null","","","learningBlock1","","","","That was a bim.","null","","","","","",""
"html-keyboard-response","170","182060","0.0-5.0-2.54","FL","psp3bt1vuy","1920","1080","0","1","0","5933d3c4ed2e9a0001d37ab4","","null","","","learningBlock1","","","","<div style=""font-size:60px;""> </div>","null","FL","learning/Slide55.JPG","That was a bim.","","",""
"image-keyboard-response","171","182236","0.0-5.0-0.55","FL","psp3bt1vuy","1920","1080","0","1","0","5933d3c4ed2e9a0001d37ab4","","null","","","","","","","learning/Slide56.JPG","null","","","","","",""
"html-keyboard-response","172","183399","0.0-5.0-1.55","FL","psp3bt1vuy","1920","1080","0","1","0","5933d3c4ed2e9a0001d37ab4","","null","","","learningBlock1","","","","That was a tob.","null","","","","","",""
"html-keyboard-response","173","184399","0.0-5.0-2.55","FL","psp3bt1vuy","1920","1080","0","1","0","5933d3c4ed2e9a0001d37ab4","","null","","","learningBlock1","","","","<div style=""font-size:60px;""> </div>","null","FL","learning/Slide56.JPG","That was a tob.","","",""
"image-keyboard-response","174","184575","0.0-5.0-0.56","FL","psp3bt1vuy","1920","1080","0","1","0","5933d3c4ed2e9a0001d37ab4","","null","","","","","","","learning/Slide57.JPG","null","","","","","",""
"html-keyboard-response","175","185727","0.0-5.0-1.56","FL","psp3bt1vuy","1920","1080","0","1","0","5933d3c4ed2e9a0001d37ab4","","null","","","learningBlock1","","","","That was a dep.","null","","","","","",""
"html-keyboard-response","176","186728","0.0-5.0-2.56","FL","psp3bt1vuy","1920","1080","0","1","0","5933d3c4ed2e9a0001d37ab4","","null","","","learningBlock1","","","","<div style=""font-size:60px;""> </div>","null","FL","learning/Slide57.JPG","That was a dep.","","",""
"image-keyboard-response","177","186904","0.0-5.0-0.57","FL","psp3bt1vuy","1920","1080","0","1","0","5933d3c4ed2e9a0001d37ab4","","null","","","","","","","learning/Slide58.JPG","null","","","","","",""
"html-keyboard-response","178","188054","0.0-5.0-1.57","FL","psp3bt1vuy","1920","1080","0","1","0","5933d3c4ed2e9a0001d37ab4","","null","","","learningBlock1","","","","That was a wug.","null","","","","","",""
"html-keyboard-response","179","189054","0.0-5.0-2.57","FL","psp3bt1vuy","1920","1080","0","1","0","5933d3c4ed2e9a0001d37ab4","","null","","","learningBlock1","","","","<div style=""font-size:60px;""> </div>","null","FL","learning/Slide58.JPG","That was a wug.","","",""
"image-keyboard-response","180","189230","0.0-5.0-0.58","FL","psp3bt1vuy","1920","1080","0","1","0","5933d3c4ed2e9a0001d37ab4","","null","","","","","","","learning/Slide59.JPG","null","","","","","",""
"html-keyboard-response","181","190380","0.0-5.0-1.58","FL","psp3bt1vuy","1920","1080","0","1","0","5933d3c4ed2e9a0001d37ab4","","null","","","learningBlock1","","","","That was a dep.","null","","","","","",""
"html-keyboard-response","182","191380","0.0-5.0-2.58","FL","psp3bt1vuy","1920","1080","0","1","0","5933d3c4ed2e9a0001d37ab4","","null","","","learningBlock1","","","","<div style=""font-size:60px;""> </div>","null","FL","learning/Slide59.JPG","That was a dep.","","",""
"image-keyboard-response","183","191557","0.0-5.0-0.59","FL","psp3bt1vuy","1920","1080","0","1","0","5933d3c4ed2e9a0001d37ab4","","null","","","","","","","learning/Slide60.JPG","null","","","","","",""
"html-keyboard-response","184","192707","0.0-5.0-1.59","FL","psp3bt1vuy","1920","1080","0","1","0","5933d3c4ed2e9a0001d37ab4","","null","","","learningBlock1","","","","That was a wug.","null","","","","","",""
"html-keyboard-response","185","193707","0.0-5.0-2.59","FL","psp3bt1vuy","1920","1080","0","1","0","5933d3c4ed2e9a0001d37ab4","","null","","","learningBlock1","","","","<div style=""font-size:60px;""> </div>","null","FL","learning/Slide60.JPG","That was a wug.","","",""
"image-keyboard-response","186","193883","0.0-5.0-0.60","FL","psp3bt1vuy","1920","1080","0","1","0","5933d3c4ed2e9a0001d37ab4","","null","","","","","","","learning/Slide61.JPG","null","","","","","",""
"html-keyboard-response","187","195033","0.0-5.0-1.60","FL","psp3bt1vuy","1920","1080","0","1","0","5933d3c4ed2e9a0001d37ab4","","null","","","learningBlock1","","","","That was a bim.","null","","","","","",""
"html-keyboard-response","188","196033","0.0-5.0-2.60","FL","psp3bt1vuy","1920","1080","0","1","0","5933d3c4ed2e9a0001d37ab4","","null","","","learningBlock1","","","","<div style=""font-size:60px;""> </div>","null","FL","learning/Slide61.JPG","That was a bim.","","",""
"image-keyboard-response","189","196209","0.0-5.0-0.61","FL","psp3bt1vuy","1920","1080","0","1","0","5933d3c4ed2e9a0001d37ab4","","null","","","","","","","learning/Slide62.JPG","null","","","","","",""
"html-keyboard-response","190","197360","0.0-5.0-1.61","FL","psp3bt1vuy","1920","1080","0","1","0","5933d3c4ed2e9a0001d37ab4","","null","","","learningBlock1","","","","That was a dep.","null","","","","","",""
"html-keyboard-response","191","198360","0.0-5.0-2.61","FL","psp3bt1vuy","1920","1080","0","1","0","5933d3c4ed2e9a0001d37ab4","","null","","","learningBlock1","","","","<div style=""font-size:60px;""> </div>","null","FL","learning/Slide62.JPG","That was a dep.","","",""
"image-keyboard-response","192","198536","0.0-5.0-0.62","FL","psp3bt1vuy","1920","1080","0","1","0","5933d3c4ed2e9a0001d37ab4","","null","","","","","","","learning/Slide63.JPG","null","","","","","",""
"html-keyboard-response","193","199687","0.0-5.0-1.62","FL","psp3bt1vuy","1920","1080","0","1","0","5933d3c4ed2e9a0001d37ab4","","null","","","learningBlock1","","","","That was a bim.","null","","","","","",""
"html-keyboard-response","194","200687","0.0-5.0-2.62","FL","psp3bt1vuy","1920","1080","0","1","0","5933d3c4ed2e9a0001d37ab4","","null","","","learningBlock1","","","","<div style=""font-size:60px;""> </div>","null","FL","learning/Slide63.JPG","That was a bim.","","",""
"image-keyboard-response","195","200863","0.0-5.0-0.63","FL","psp3bt1vuy","1920","1080","0","1","0","5933d3c4ed2e9a0001d37ab4","","null","","","","","","","learning/Slide64.JPG","null","","","","","",""
"html-keyboard-response","196","202013","0.0-5.0-1.63","FL","psp3bt1vuy","1920","1080","0","1","0","5933d3c4ed2e9a0001d37ab4","","null","","","learningBlock1","","","","That was a tob.","null","","","","","",""
"html-keyboard-response","197","203014","0.0-5.0-2.63","FL","psp3bt1vuy","1920","1080","0","1","0","5933d3c4ed2e9a0001d37ab4","","null","","","learningBlock1","","","","<div style=""font-size:60px;""> </div>","null","FL","learning/Slide64.JPG","That was a tob.","","",""
"image-keyboard-response","198","203191","0.0-5.0-0.64","FL","psp3bt1vuy","1920","1080","0","1","0","5933d3c4ed2e9a0001d37ab4","","null","","","","","","","learning/Slide65.JPG","null","","","","","",""
"html-keyboard-response","199","204341","0.0-5.0-1.64","FL","psp3bt1vuy","1920","1080","0","1","0","5933d3c4ed2e9a0001d37ab4","","null","","","learningBlock1","","","","That was a wug.","null","","","","","",""
"html-keyboard-response","200","205341","0.0-5.0-2.64","FL","psp3bt1vuy","1920","1080","0","1","0","5933d3c4ed2e9a0001d37ab4","","null","","","learningBlock1","","","","<div style=""font-size:60px;""> </div>","null","FL","learning/Slide65.JPG","That was a wug.","","",""
"image-keyboard-response","201","205517","0.0-5.0-0.65","FL","psp3bt1vuy","1920","1080","0","1","0","5933d3c4ed2e9a0001d37ab4","","null","","","","","","","learning/Slide66.JPG","null","","","","","",""
"html-keyboard-response","202","206667","0.0-5.0-1.65","FL","psp3bt1vuy","1920","1080","0","1","0","5933d3c4ed2e9a0001d37ab4","","null","","","learningBlock1","","","","That was a dep.","null","","","","","",""
"html-keyboard-response","203","207667","0.0-5.0-2.65","FL","psp3bt1vuy","1920","1080","0","1","0","5933d3c4ed2e9a0001d37ab4","","null","","","learningBlock1","","","","<div style=""font-size:60px;""> </div>","null","FL","learning/Slide66.JPG","That was a dep.","","",""
"image-keyboard-response","204","207844","0.0-5.0-0.66","FL","psp3bt1vuy","1920","1080","0","1","0","5933d3c4ed2e9a0001d37ab4","","null","","","","","","","learning/Slide67.JPG","null","","","","","",""
"html-keyboard-response","205","208995","0.0-5.0-1.66","FL","psp3bt1vuy","1920","1080","0","1","0","5933d3c4ed2e9a0001d37ab4","","null","","","learningBlock1","","","","That was a tob.","null","","","","","",""
"html-keyboard-response","206","209996","0.0-5.0-2.66","FL","psp3bt1vuy","1920","1080","0","1","0","5933d3c4ed2e9a0001d37ab4","","null","","","learningBlock1","","","","<div style=""font-size:60px;""> </div>","null","FL","learning/Slide67.JPG","That was a tob.","","",""
"image-keyboard-response","207","210172","0.0-5.0-0.67","FL","psp3bt1vuy","1920","1080","0","1","0","5933d3c4ed2e9a0001d37ab4","","null","","","","","","","learning/Slide68.JPG","null","","","","","",""
"html-keyboard-response","208","211322","0.0-5.0-1.67","FL","psp3bt1vuy","1920","1080","0","1","0","5933d3c4ed2e9a0001d37ab4","","null","","","learningBlock1","","","","That was a wug.","null","","","","","",""
"html-keyboard-response","209","212322","0.0-5.0-2.67","FL","psp3bt1vuy","1920","1080","0","1","0","5933d3c4ed2e9a0001d37ab4","","null","","","learningBlock1","","","","<div style=""font-size:60px;""> </div>","null","FL","learning/Slide68.JPG","That was a wug.","","",""
"image-keyboard-response","210","212499","0.0-5.0-0.68","FL","psp3bt1vuy","1920","1080","0","1","0","5933d3c4ed2e9a0001d37ab4","","null","","","","","","","learning/Slide69.JPG","null","","","","","",""
"html-keyboard-response","211","213653","0.0-5.0-1.68","FL","psp3bt1vuy","1920","1080","0","1","0","5933d3c4ed2e9a0001d37ab4","","null","","","learningBlock1","","","","That was a tob.","null","","","","","",""
"html-keyboard-response","212","214653","0.0-5.0-2.68","FL","psp3bt1vuy","1920","1080","0","1","0","5933d3c4ed2e9a0001d37ab4","","null","","","learningBlock1","","","","<div style=""font-size:60px;""> </div>","null","FL","learning/Slide69.JPG","That was a tob.","","",""
"image-keyboard-response","213","214829","0.0-5.0-0.69","FL","psp3bt1vuy","1920","1080","0","1","0","5933d3c4ed2e9a0001d37ab4","","null","","","","","","","learning/Slide70.JPG","null","","","","","",""
"html-keyboard-response","214","215981","0.0-5.0-1.69","FL","psp3bt1vuy","1920","1080","0","1","0","5933d3c4ed2e9a0001d37ab4","","null","","","learningBlock1","","","","That was a dep.","null","","","","","",""
"html-keyboard-response","215","216982","0.0-5.0-2.69","FL","psp3bt1vuy","1920","1080","0","1","0","5933d3c4ed2e9a0001d37ab4","","null","","","learningBlock1","","","","<div style=""font-size:60px;""> </div>","null","FL","learning/Slide70.JPG","That was a dep.","","",""
"image-keyboard-response","216","217158","0.0-5.0-0.70","FL","psp3bt1vuy","1920","1080","0","1","0","5933d3c4ed2e9a0001d37ab4","","null","","","","","","","learning/Slide71.JPG","null","","","","","",""
"html-keyboard-response","217","218308","0.0-5.0-1.70","FL","psp3bt1vuy","1920","1080","0","1","0","5933d3c4ed2e9a0001d37ab4","","null","","","learningBlock1","","","","That was a wug.","null","","","","","",""
"html-keyboard-response","218","219308","0.0-5.0-2.70","FL","psp3bt1vuy","1920","1080","0","1","0","5933d3c4ed2e9a0001d37ab4","","null","","","learningBlock1","","","","<div style=""font-size:60px;""> </div>","null","FL","learning/Slide71.JPG","That was a wug.","","",""
"image-keyboard-response","219","219484","0.0-5.0-0.71","FL","psp3bt1vuy","1920","1080","0","1","0","5933d3c4ed2e9a0001d37ab4","","null","","","","","","","learning/Slide72.JPG","null","","","","","",""
"html-keyboard-response","220","220634","0.0-5.0-1.71","FL","psp3bt1vuy","1920","1080","0","1","0","5933d3c4ed2e9a0001d37ab4","","null","","","learningBlock1","","","","That was a bim.","null","","","","","",""
"html-keyboard-response","221","221634","0.0-5.0-2.71","FL","psp3bt1vuy","1920","1080","0","1","0","5933d3c4ed2e9a0001d37ab4","","null","","","learningBlock1","","","","<div style=""font-size:60px;""> </div>","null","FL","learning/Slide72.JPG","That was a bim.","","",""
"image-keyboard-response","222","221810","0.0-5.0-0.72","FL","psp3bt1vuy","1920","1080","0","1","0","5933d3c4ed2e9a0001d37ab4","","null","","","","","","","learning/Slide73.JPG","null","","","","","",""
"html-keyboard-response","223","222961","0.0-5.0-1.72","FL","psp3bt1vuy","1920","1080","0","1","0","5933d3c4ed2e9a0001d37ab4","","null","","","learningBlock1","","","","That was a wug.","null","","","","","",""
"html-keyboard-response","224","223961","0.0-5.0-2.72","FL","psp3bt1vuy","1920","1080","0","1","0","5933d3c4ed2e9a0001d37ab4","","null","","","learningBlock1","","","","<div style=""font-size:60px;""> </div>","null","FL","learning/Slide73.JPG","That was a wug.","","",""
"image-keyboard-response","225","224137","0.0-5.0-0.73","FL","psp3bt1vuy","1920","1080","0","1","0","5933d3c4ed2e9a0001d37ab4","","null","","","","","","","learning/Slide74.JPG","null","","","","","",""
"html-keyboard-response","226","225288","0.0-5.0-1.73","FL","psp3bt1vuy","1920","1080","0","1","0","5933d3c4ed2e9a0001d37ab4","","null","","","learningBlock1","","","","That was a dep.","null","","","","","",""
"html-keyboard-response","227","226288","0.0-5.0-2.73","FL","psp3bt1vuy","1920","1080","0","1","0","5933d3c4ed2e9a0001d37ab4","","null","","","learningBlock1","","","","<div style=""font-size:60px;""> </div>","null","FL","learning/Slide74.JPG","That was a dep.","","",""
"image-keyboard-response","228","226465","0.0-5.0-0.74","FL","psp3bt1vuy","1920","1080","0","1","0","5933d3c4ed2e9a0001d37ab4","","null","","","","","","","learning/Slide75.JPG","null","","","","","",""
"html-keyboard-response","229","227616","0.0-5.0-1.74","FL","psp3bt1vuy","1920","1080","0","1","0","5933d3c4ed2e9a0001d37ab4","","null","","","learningBlock1","","","","That was a tob.","null","","","","","",""
"html-keyboard-response","230","228616","0.0-5.0-2.74","FL","psp3bt1vuy","1920","1080","0","1","0","5933d3c4ed2e9a0001d37ab4","","null","","","learningBlock1","","","","<div style=""font-size:60px;""> </div>","null","FL","learning/Slide75.JPG","That was a tob.","","",""
"image-keyboard-response","231","228792","0.0-5.0-0.75","FL","psp3bt1vuy","1920","1080","0","1","0","5933d3c4ed2e9a0001d37ab4","","null","","","","","","","learning/Slide76.JPG","null","","","","","",""
"html-keyboard-response","232","229959","0.0-5.0-1.75","FL","psp3bt1vuy","1920","1080","0","1","0","5933d3c4ed2e9a0001d37ab4","","null","","","learningBlock1","","","","That was a bim.","null","","","","","",""
"html-keyboard-response","233","230959","0.0-5.0-2.75","FL","psp3bt1vuy","1920","1080","0","1","0","5933d3c4ed2e9a0001d37ab4","","null","","","learningBlock1","","","","<div style=""font-size:60px;""> </div>","null","FL","learning/Slide76.JPG","That was a bim.","","",""
"image-keyboard-response","234","231135","0.0-5.0-0.76","FL","psp3bt1vuy","1920","1080","0","1","0","5933d3c4ed2e9a0001d37ab4","","null","","","","","","","learning/Slide77.JPG","null","","","","","",""
"html-keyboard-response","235","232286","0.0-5.0-1.76","FL","psp3bt1vuy","1920","1080","0","1","0","5933d3c4ed2e9a0001d37ab4","","null","","","learningBlock1","","","","That was a tob.","null","","","","","",""
"html-keyboard-response","236","233286","0.0-5.0-2.76","FL","psp3bt1vuy","1920","1080","0","1","0","5933d3c4ed2e9a0001d37ab4","","null","","","learningBlock1","","","","<div style=""font-size:60px;""> </div>","null","FL","learning/Slide77.JPG","That was a tob.","","",""
"image-keyboard-response","237","233462","0.0-5.0-0.77","FL","psp3bt1vuy","1920","1080","0","1","0","5933d3c4ed2e9a0001d37ab4","","null","","","","","","","learning/Slide78.JPG","null","","","","","",""
"html-keyboard-response","238","234623","0.0-5.0-1.77","FL","psp3bt1vuy","1920","1080","0","1","0","5933d3c4ed2e9a0001d37ab4","","null","","","learningBlock1","","","","That was a wug.","null","","","","","",""
"html-keyboard-response","239","235625","0.0-5.0-2.77","FL","psp3bt1vuy","1920","1080","0","1","0","5933d3c4ed2e9a0001d37ab4","","null","","","learningBlock1","","","","<div style=""font-size:60px;""> </div>","null","FL","learning/Slide78.JPG","That was a wug.","","",""
"image-keyboard-response","240","235800","0.0-5.0-0.78","FL","psp3bt1vuy","1920","1080","0","1","0","5933d3c4ed2e9a0001d37ab4","","null","","","","","","","learning/Slide79.JPG","null","","","","","",""
"html-keyboard-response","241","236950","0.0-5.0-1.78","FL","psp3bt1vuy","1920","1080","0","1","0","5933d3c4ed2e9a0001d37ab4","","null","","","learningBlock1","","","","That was a bim.","null","","","","","",""
"html-keyboard-response","242","237952","0.0-5.0-2.78","FL","psp3bt1vuy","1920","1080","0","1","0","5933d3c4ed2e9a0001d37ab4","","null","","","learningBlock1","","","","<div style=""font-size:60px;""> </div>","null","FL","learning/Slide79.JPG","That was a bim.","","",""
"image-keyboard-response","243","238128","0.0-5.0-0.79","FL","psp3bt1vuy","1920","1080","0","1","0","5933d3c4ed2e9a0001d37ab4","","null","","","","","","","learning/Slide80.JPG","null","","","","","",""
"html-keyboard-response","244","239279","0.0-5.0-1.79","FL","psp3bt1vuy","1920","1080","0","1","0","5933d3c4ed2e9a0001d37ab4","","null","","","learningBlock1","","","","That was a tob.","null","","","","","",""
"html-keyboard-response","245","240280","0.0-5.0-2.79","FL","psp3bt1vuy","1920","1080","0","1","0","5933d3c4ed2e9a0001d37ab4","","null","","","learningBlock1","","","","<div style=""font-size:60px;""> </div>","null","FL","learning/Slide80.JPG","That was a tob.","","",""
"instructions","246","242851","0.0-6.0","FL","psp3bt1vuy","1920","1080","0","1","0","5933d3c4ed2e9a0001d37ab4","","NA","","[{""page_index"":0,""viewing_time"":2569.9999999487773}]","instructions","","","","","","","","","","",""
"image-keyboard-response","247","243027","0.0-7.0-0.0","FL","psp3bt1vuy","1920","1080","0","1","0","5933d3c4ed2e9a0001d37ab4","","null","","","","","","","learning/Slide81.JPG","null","","","","","",""
"html-keyboard-response","248","244177","0.0-7.0-1.0","FL","psp3bt1vuy","1920","1080","0","1","0","5933d3c4ed2e9a0001d37ab4","","null","","","learningBlock2","","","","That was a wug.","null","","","","","",""
"html-keyboard-response","249","245177","0.0-7.0-2.0","FL","psp3bt1vuy","1920","1080","0","1","0","5933d3c4ed2e9a0001d37ab4","","null","","","learningBlock2","","","","<div style=""font-size:60px;""> </div>","null","FL","learning/Slide81.JPG","That was a wug.","","",""
"image-keyboard-response","250","245353","0.0-7.0-0.1","FL","psp3bt1vuy","1920","1080","0","1","0","5933d3c4ed2e9a0001d37ab4","","null","","","","","","","learning/Slide82.JPG","null","","","","","",""
"html-keyboard-response","251","246503","0.0-7.0-1.1","FL","psp3bt1vuy","1920","1080","0","1","0","5933d3c4ed2e9a0001d37ab4","","null","","","learningBlock2","","","","That was a bim.","null","","","","","",""
"html-keyboard-response","252","247503","0.0-7.0-2.1","FL","psp3bt1vuy","1920","1080","0","1","0","5933d3c4ed2e9a0001d37ab4","","null","","","learningBlock2","","","","<div style=""font-size:60px;""> </div>","null","FL","learning/Slide82.JPG","That was a bim.","","",""
"image-keyboard-response","253","247679","0.0-7.0-0.2","FL","psp3bt1vuy","1920","1080","0","1","0","5933d3c4ed2e9a0001d37ab4","","null","","","","","","","learning/Slide83.JPG","null","","","","","",""
"html-keyboard-response","254","248830","0.0-7.0-1.2","FL","psp3bt1vuy","1920","1080","0","1","0","5933d3c4ed2e9a0001d37ab4","","null","","","learningBlock2","","","","That was a wug.","null","","","","","",""
"html-keyboard-response","255","249832","0.0-7.0-2.2","FL","psp3bt1vuy","1920","1080","0","1","0","5933d3c4ed2e9a0001d37ab4","","null","","","learningBlock2","","","","<div style=""font-size:60px;""> </div>","null","FL","learning/Slide83.JPG","That was a wug.","","",""
"image-keyboard-response","256","250009","0.0-7.0-0.3","FL","psp3bt1vuy","1920","1080","0","1","0","5933d3c4ed2e9a0001d37ab4","","null","","","","","","","learning/Slide84.JPG","null","","","","","",""
"html-keyboard-response","257","251160","0.0-7.0-1.3","FL","psp3bt1vuy","1920","1080","0","1","0","5933d3c4ed2e9a0001d37ab4","","null","","","learningBlock2","","","","That was a dep.","null","","","","","",""
"html-keyboard-response","258","252160","0.0-7.0-2.3","FL","psp3bt1vuy","1920","1080","0","1","0","5933d3c4ed2e9a0001d37ab4","","null","","","learningBlock2","","","","<div style=""font-size:60px;""> </div>","null","FL","learning/Slide84.JPG","That was a dep.","","",""
"image-keyboard-response","259","252336","0.0-7.0-0.4","FL","psp3bt1vuy","1920","1080","0","1","0","5933d3c4ed2e9a0001d37ab4","","null","","","","","","","learning/Slide85.JPG","null","","","","","",""
"html-keyboard-response","260","253486","0.0-7.0-1.4","FL","psp3bt1vuy","1920","1080","0","1","0","5933d3c4ed2e9a0001d37ab4","","null","","","learningBlock2","","","","That was a bim.","null","","","","","",""
"html-keyboard-response","261","254487","0.0-7.0-2.4","FL","psp3bt1vuy","1920","1080","0","1","0","5933d3c4ed2e9a0001d37ab4","","null","","","learningBlock2","","","","<div style=""font-size:60px;""> </div>","null","FL","learning/Slide85.JPG","That was a bim.","","",""
"image-keyboard-response","262","254663","0.0-7.0-0.5","FL","psp3bt1vuy","1920","1080","0","1","0","5933d3c4ed2e9a0001d37ab4","","null","","","","","","","learning/Slide86.JPG","null","","","","","",""
"html-keyboard-response","263","255814","0.0-7.0-1.5","FL","psp3bt1vuy","1920","1080","0","1","0","5933d3c4ed2e9a0001d37ab4","","null","","","learningBlock2","","","","That was a tob.","null","","","","","",""
"html-keyboard-response","264","256814","0.0-7.0-2.5","FL","psp3bt1vuy","1920","1080","0","1","0","5933d3c4ed2e9a0001d37ab4","","null","","","learningBlock2","","","","<div style=""font-size:60px;""> </div>","null","FL","learning/Slide86.JPG","That was a tob.","","",""
"image-keyboard-response","265","256990","0.0-7.0-0.6","FL","psp3bt1vuy","1920","1080","0","1","0","5933d3c4ed2e9a0001d37ab4","","null","","","","","","","learning/Slide87.JPG","null","","","","","",""
"html-keyboard-response","266","258141","0.0-7.0-1.6","FL","psp3bt1vuy","1920","1080","0","1","0","5933d3c4ed2e9a0001d37ab4","","null","","","learningBlock2","","","","That was a wug.","null","","","","","",""
"html-keyboard-response","267","259141","0.0-7.0-2.6","FL","psp3bt1vuy","1920","1080","0","1","0","5933d3c4ed2e9a0001d37ab4","","null","","","learningBlock2","","","","<div style=""font-size:60px;""> </div>","null","FL","learning/Slide87.JPG","That was a wug.","","",""
"image-keyboard-response","268","259317","0.0-7.0-0.7","FL","psp3bt1vuy","1920","1080","0","1","0","5933d3c4ed2e9a0001d37ab4","","null","","","","","","","learning/Slide88.JPG","null","","","","","",""
"html-keyboard-response","269","260467","0.0-7.0-1.7","FL","psp3bt1vuy","1920","1080","0","1","0","5933d3c4ed2e9a0001d37ab4","","null","","","learningBlock2","","","","That was a tob.","null","","","","","",""
"html-keyboard-response","270","261467","0.0-7.0-2.7","FL","psp3bt1vuy","1920","1080","0","1","0","5933d3c4ed2e9a0001d37ab4","","null","","","learningBlock2","","","","<div style=""font-size:60px;""> </div>","null","FL","learning/Slide88.JPG","That was a tob.","","",""
"image-keyboard-response","271","261643","0.0-7.0-0.8","FL","psp3bt1vuy","1920","1080","0","1","0","5933d3c4ed2e9a0001d37ab4","","null","","","","","","","learning/Slide89.JPG","null","","","","","",""
"html-keyboard-response","272","262793","0.0-7.0-1.8","FL","psp3bt1vuy","1920","1080","0","1","0","5933d3c4ed2e9a0001d37ab4","","null","","","learningBlock2","","","","That was a bim.","null","","","","","",""
"html-keyboard-response","273","263793","0.0-7.0-2.8","FL","psp3bt1vuy","1920","1080","0","1","0","5933d3c4ed2e9a0001d37ab4","","null","","","learningBlock2","","","","<div style=""font-size:60px;""> </div>","null","FL","learning/Slide89.JPG","That was a bim.","","",""
"image-keyboard-response","274","263969","0.0-7.0-0.9","FL","psp3bt1vuy","1920","1080","0","1","0","5933d3c4ed2e9a0001d37ab4","","null","","","","","","","learning/Slide90.JPG","null","","","","","",""
"html-keyboard-response","275","265122","0.0-7.0-1.9","FL","psp3bt1vuy","1920","1080","0","1","0","5933d3c4ed2e9a0001d37ab4","","null","","","learningBlock2","","","","That was a dep.","null","","","","","",""
"html-keyboard-response","276","266123","0.0-7.0-2.9","FL","psp3bt1vuy","1920","1080","0","1","0","5933d3c4ed2e9a0001d37ab4","","null","","","learningBlock2","","","","<div style=""font-size:60px;""> </div>","null","FL","learning/Slide90.JPG","That was a dep.","","",""
"image-keyboard-response","277","266299","0.0-7.0-0.10","FL","psp3bt1vuy","1920","1080","0","1","0","5933d3c4ed2e9a0001d37ab4","","null","","","","","","","learning/Slide91.JPG","null","","","","","",""
"html-keyboard-response","278","267449","0.0-7.0-1.10","FL","psp3bt1vuy","1920","1080","0","1","0","5933d3c4ed2e9a0001d37ab4","","null","","","learningBlock2","","","","That was a wug.","null","","","","","",""
"html-keyboard-response","279","268449","0.0-7.0-2.10","FL","psp3bt1vuy","1920","1080","0","1","0","5933d3c4ed2e9a0001d37ab4","","null","","","learningBlock2","","","","<div style=""font-size:60px;""> </div>","null","FL","learning/Slide91.JPG","That was a wug.","","",""
"image-keyboard-response","280","268625","0.0-7.0-0.11","FL","psp3bt1vuy","1920","1080","0","1","0","5933d3c4ed2e9a0001d37ab4","","null","","","","","","","learning/Slide92.JPG","null","","","","","",""
"html-keyboard-response","281","269797","0.0-7.0-1.11","FL","psp3bt1vuy","1920","1080","0","1","0","5933d3c4ed2e9a0001d37ab4","","null","","","learningBlock2","","","","That was a tob.","null","","","","","",""
"html-keyboard-response","282","270800","0.0-7.0-2.11","FL","psp3bt1vuy","1920","1080","0","1","0","5933d3c4ed2e9a0001d37ab4","","null","","","learningBlock2","","","","<div style=""font-size:60px;""> </div>","null","FL","learning/Slide92.JPG","That was a tob.","","",""
"image-keyboard-response","283","270976","0.0-7.0-0.12","FL","psp3bt1vuy","1920","1080","0","1","0","5933d3c4ed2e9a0001d37ab4","","null","","","","","","","learning/Slide93.JPG","null","","","","","",""
"html-keyboard-response","284","272127","0.0-7.0-1.12","FL","psp3bt1vuy","1920","1080","0","1","0","5933d3c4ed2e9a0001d37ab4","","null","","","learningBlock2","","","","That was a bim.","null","","","","","",""
"html-keyboard-response","285","273128","0.0-7.0-2.12","FL","psp3bt1vuy","1920","1080","0","1","0","5933d3c4ed2e9a0001d37ab4","","null","","","learningBlock2","","","","<div style=""font-size:60px;""> </div>","null","FL","learning/Slide93.JPG","That was a bim.","","",""
"image-keyboard-response","286","273304","0.0-7.0-0.13","FL","psp3bt1vuy","1920","1080","0","1","0","5933d3c4ed2e9a0001d37ab4","","null","","","","","","","learning/Slide94.JPG","null","","","","","",""
"html-keyboard-response","287","274454","0.0-7.0-1.13","FL","psp3bt1vuy","1920","1080","0","1","0","5933d3c4ed2e9a0001d37ab4","","null","","","learningBlock2","","","","That was a tob.","null","","","","","",""
"html-keyboard-response","288","275454","0.0-7.0-2.13","FL","psp3bt1vuy","1920","1080","0","1","0","5933d3c4ed2e9a0001d37ab4","","null","","","learningBlock2","","","","<div style=""font-size:60px;""> </div>","null","FL","learning/Slide94.JPG","That was a tob.","","",""
"image-keyboard-response","289","275631","0.0-7.0-0.14","FL","psp3bt1vuy","1920","1080","0","1","0","5933d3c4ed2e9a0001d37ab4","","null","","","","","","","learning/Slide95.JPG","null","","","","","",""
"html-keyboard-response","290","276781","0.0-7.0-1.14","FL","psp3bt1vuy","1920","1080","0","1","0","5933d3c4ed2e9a0001d37ab4","","null","","","learningBlock2","","","","That was a wug.","null","","","","","",""
"html-keyboard-response","291","277781","0.0-7.0-2.14","FL","psp3bt1vuy","1920","1080","0","1","0","5933d3c4ed2e9a0001d37ab4","","null","","","learningBlock2","","","","<div style=""font-size:60px;""> </div>","null","FL","learning/Slide95.JPG","That was a wug.","","",""
"image-keyboard-response","292","277958","0.0-7.0-0.15","FL","psp3bt1vuy","1920","1080","0","1","0","5933d3c4ed2e9a0001d37ab4","","null","","","","","","","learning/Slide96.JPG","null","","","","","",""
"html-keyboard-response","293","279111","0.0-7.0-1.15","FL","psp3bt1vuy","1920","1080","0","1","0","5933d3c4ed2e9a0001d37ab4","","null","","","learningBlock2","","","","That was a tob.","null","","","","","",""
"html-keyboard-response","294","280113","0.0-7.0-2.15","FL","psp3bt1vuy","1920","1080","0","1","0","5933d3c4ed2e9a0001d37ab4","","null","","","learningBlock2","","","","<div style=""font-size:60px;""> </div>","null","FL","learning/Slide96.JPG","That was a tob.","","",""
"image-keyboard-response","295","280297","0.0-7.0-0.16","FL","psp3bt1vuy","1920","1080","0","1","0","5933d3c4ed2e9a0001d37ab4","","null","","","","","","","learning/Slide97.JPG","null","","","","","",""
"html-keyboard-response","296","281457","0.0-7.0-1.16","FL","psp3bt1vuy","1920","1080","0","1","0","5933d3c4ed2e9a0001d37ab4","","null","","","learningBlock2","","","","That was a dep.","null","","","","","",""
"html-keyboard-response","297","282458","0.0-7.0-2.16","FL","psp3bt1vuy","1920","1080","0","1","0","5933d3c4ed2e9a0001d37ab4","","null","","","learningBlock2","","","","<div style=""font-size:60px;""> </div>","null","FL","learning/Slide97.JPG","That was a dep.","","",""
"image-keyboard-response","298","282634","0.0-7.0-0.17","FL","psp3bt1vuy","1920","1080","0","1","0","5933d3c4ed2e9a0001d37ab4","","null","","","","","","","learning/Slide98.JPG","null","","","","","",""
"html-keyboard-response","299","283784","0.0-7.0-1.17","FL","psp3bt1vuy","1920","1080","0","1","0","5933d3c4ed2e9a0001d37ab4","","null","","","learningBlock2","","","","That was a bim.","null","","","","","",""
"html-keyboard-response","300","284784","0.0-7.0-2.17","FL","psp3bt1vuy","1920","1080","0","1","0","5933d3c4ed2e9a0001d37ab4","","null","","","learningBlock2","","","","<div style=""font-size:60px;""> </div>","null","FL","learning/Slide98.JPG","That was a bim.","","",""
"image-keyboard-response","301","284960","0.0-7.0-0.18","FL","psp3bt1vuy","1920","1080","0","1","0","5933d3c4ed2e9a0001d37ab4","","null","","","","","","","learning/Slide99.JPG","null","","","","","",""
"html-keyboard-response","302","286110","0.0-7.0-1.18","FL","psp3bt1vuy","1920","1080","0","1","0","5933d3c4ed2e9a0001d37ab4","","null","","","learningBlock2","","","","That was a dep.","null","","","","","",""
"html-keyboard-response","303","287111","0.0-7.0-2.18","FL","psp3bt1vuy","1920","1080","0","1","0","5933d3c4ed2e9a0001d37ab4","","null","","","learningBlock2","","","","<div style=""font-size:60px;""> </div>","null","FL","learning/Slide99.JPG","That was a dep.","","",""
"image-keyboard-response","304","287287","0.0-7.0-0.19","FL","psp3bt1vuy","1920","1080","0","1","0","5933d3c4ed2e9a0001d37ab4","","null","","","","","","","learning/Slide100.JPG","null","","","","","",""
"html-keyboard-response","305","288437","0.0-7.0-1.19","FL","psp3bt1vuy","1920","1080","0","1","0","5933d3c4ed2e9a0001d37ab4","","null","","","learningBlock2","","","","That was a bim.","null","","","","","",""
"html-keyboard-response","306","289437","0.0-7.0-2.19","FL","psp3bt1vuy","1920","1080","0","1","0","5933d3c4ed2e9a0001d37ab4","","null","","","learningBlock2","","","","<div style=""font-size:60px;""> </div>","null","FL","learning/Slide100.JPG","That was a bim.","","",""
"image-keyboard-response","307","289614","0.0-7.0-0.20","FL","psp3bt1vuy","1920","1080","0","1","0","5933d3c4ed2e9a0001d37ab4","","null","","","","","","","learning/Slide101.JPG","null","","","","","",""
"html-keyboard-response","308","290765","0.0-7.0-1.20","FL","psp3bt1vuy","1920","1080","0","1","0","5933d3c4ed2e9a0001d37ab4","","null","","","learningBlock2","","","","That was a tob.","null","","","","","",""
"html-keyboard-response","309","291766","0.0-7.0-2.20","FL","psp3bt1vuy","1920","1080","0","1","0","5933d3c4ed2e9a0001d37ab4","","null","","","learningBlock2","","","","<div style=""font-size:60px;""> </div>","null","FL","learning/Slide101.JPG","That was a tob.","","",""
"image-keyboard-response","310","291943","0.0-7.0-0.21","FL","psp3bt1vuy","1920","1080","0","1","0","5933d3c4ed2e9a0001d37ab4","","null","","","","","","","learning/Slide102.JPG","null","","","","","",""
"html-keyboard-response","311","293093","0.0-7.0-1.21","FL","psp3bt1vuy","1920","1080","0","1","0","5933d3c4ed2e9a0001d37ab4","","null","","","learningBlock2","","","","That was a bim.","null","","","","","",""
"html-keyboard-response","312","294093","0.0-7.0-2.21","FL","psp3bt1vuy","1920","1080","0","1","0","5933d3c4ed2e9a0001d37ab4","","null","","","learningBlock2","","","","<div style=""font-size:60px;""> </div>","null","FL","learning/Slide102.JPG","That was a bim.","","",""
"image-keyboard-response","313","294269","0.0-7.0-0.22","FL","psp3bt1vuy","1920","1080","0","1","0","5933d3c4ed2e9a0001d37ab4","","null","","","","","","","learning/Slide103.JPG","null","","","","","",""
"html-keyboard-response","314","295454","0.0-7.0-1.22","FL","psp3bt1vuy","1920","1080","0","1","0","5933d3c4ed2e9a0001d37ab4","","null","","","learningBlock2","","","","That was a dep.","null","","","","","",""
"html-keyboard-response","315","296455","0.0-7.0-2.22","FL","psp3bt1vuy","1920","1080","0","1","0","5933d3c4ed2e9a0001d37ab4","","null","","","learningBlock2","","","","<div style=""font-size:60px;""> </div>","null","FL","learning/Slide103.JPG","That was a dep.","","",""
"image-keyboard-response","316","296631","0.0-7.0-0.23","FL","psp3bt1vuy","1920","1080","0","1","0","5933d3c4ed2e9a0001d37ab4","","null","","","","","","","learning/Slide104.JPG","null","","","","","",""
"html-keyboard-response","317","297781","0.0-7.0-1.23","FL","psp3bt1vuy","1920","1080","0","1","0","5933d3c4ed2e9a0001d37ab4","","null","","","learningBlock2","","","","That was a tob.","null","","","","","",""
"html-keyboard-response","318","298781","0.0-7.0-2.23","FL","psp3bt1vuy","1920","1080","0","1","0","5933d3c4ed2e9a0001d37ab4","","null","","","learningBlock2","","","","<div style=""font-size:60px;""> </div>","null","FL","learning/Slide104.JPG","That was a tob.","","",""
"image-keyboard-response","319","298957","0.0-7.0-0.24","FL","psp3bt1vuy","1920","1080","0","1","0","5933d3c4ed2e9a0001d37ab4","","null","","","","","","","learning/Slide105.JPG","null","","","","","",""
"html-keyboard-response","320","300107","0.0-7.0-1.24","FL","psp3bt1vuy","1920","1080","0","1","0","5933d3c4ed2e9a0001d37ab4","","null","","","learningBlock2","","","","That was a dep.","null","","","","","",""
"html-keyboard-response","321","301107","0.0-7.0-2.24","FL","psp3bt1vuy","1920","1080","0","1","0","5933d3c4ed2e9a0001d37ab4","","null","","","learningBlock2","","","","<div style=""font-size:60px;""> </div>","null","FL","learning/Slide105.JPG","That was a dep.","","",""
"image-keyboard-response","322","301283","0.0-7.0-0.25","FL","psp3bt1vuy","1920","1080","0","1","0","5933d3c4ed2e9a0001d37ab4","","null","","","","","","","learning/Slide106.JPG","null","","","","","",""
"html-keyboard-response","323","302434","0.0-7.0-1.25","FL","psp3bt1vuy","1920","1080","0","1","0","5933d3c4ed2e9a0001d37ab4","","null","","","learningBlock2","","","","That was a wug.","null","","","","","",""
"html-keyboard-response","324","303435","0.0-7.0-2.25","FL","psp3bt1vuy","1920","1080","0","1","0","5933d3c4ed2e9a0001d37ab4","","null","","","learningBlock2","","","","<div style=""font-size:60px;""> </div>","null","FL","learning/Slide106.JPG","That was a wug.","","",""
"image-keyboard-response","325","303611","0.0-7.0-0.26","FL","psp3bt1vuy","1920","1080","0","1","0","5933d3c4ed2e9a0001d37ab4","","null","","","","","","","learning/Slide107.JPG","null","","","","","",""
"html-keyboard-response","326","304761","0.0-7.0-1.26","FL","psp3bt1vuy","1920","1080","0","1","0","5933d3c4ed2e9a0001d37ab4","","null","","","learningBlock2","","","","That was a bim.","null","","","","","",""
"html-keyboard-response","327","305762","0.0-7.0-2.26","FL","psp3bt1vuy","1920","1080","0","1","0","5933d3c4ed2e9a0001d37ab4","","null","","","learningBlock2","","","","<div style=""font-size:60px;""> </div>","null","FL","learning/Slide107.JPG","That was a bim.","","",""
"image-keyboard-response","328","305939","0.0-7.0-0.27","FL","psp3bt1vuy","1920","1080","0","1","0","5933d3c4ed2e9a0001d37ab4","","null","","","","","","","learning/Slide108.JPG","null","","","","","",""
"html-keyboard-response","329","307089","0.0-7.0-1.27","FL","psp3bt1vuy","1920","1080","0","1","0","5933d3c4ed2e9a0001d37ab4","","null","","","learningBlock2","","","","That was a dep.","null","","","","","",""
"html-keyboard-response","330","308089","0.0-7.0-2.27","FL","psp3bt1vuy","1920","1080","0","1","0","5933d3c4ed2e9a0001d37ab4","","null","","","learningBlock2","","","","<div style=""font-size:60px;""> </div>","null","FL","learning/Slide108.JPG","That was a dep.","","",""
"image-keyboard-response","331","308266","0.0-7.0-0.28","FL","psp3bt1vuy","1920","1080","0","1","0","5933d3c4ed2e9a0001d37ab4","","null","","","","","","","learning/Slide109.JPG","null","","","","","",""
"html-keyboard-response","332","309417","0.0-7.0-1.28","FL","psp3bt1vuy","1920","1080","0","1","0","5933d3c4ed2e9a0001d37ab4","","null","","","learningBlock2","","","","That was a wug.","null","","","","","",""
"html-keyboard-response","333","310417","0.0-7.0-2.28","FL","psp3bt1vuy","1920","1080","0","1","0","5933d3c4ed2e9a0001d37ab4","","null","","","learningBlock2","","","","<div style=""font-size:60px;""> </div>","null","FL","learning/Slide109.JPG","That was a wug.","","",""
"image-keyboard-response","334","310594","0.0-7.0-0.29","FL","psp3bt1vuy","1920","1080","0","1","0","5933d3c4ed2e9a0001d37ab4","","null","","","","","","","learning/Slide110.JPG","null","","","","","",""
"html-keyboard-response","335","311744","0.0-7.0-1.29","FL","psp3bt1vuy","1920","1080","0","1","0","5933d3c4ed2e9a0001d37ab4","","null","","","learningBlock2","","","","That was a bim.","null","","","","","",""
"html-keyboard-response","336","312744","0.0-7.0-2.29","FL","psp3bt1vuy","1920","1080","0","1","0","5933d3c4ed2e9a0001d37ab4","","null","","","learningBlock2","","","","<div style=""font-size:60px;""> </div>","null","FL","learning/Slide110.JPG","That was a bim.","","",""
"image-keyboard-response","337","312920","0.0-7.0-0.30","FL","psp3bt1vuy","1920","1080","0","1","0","5933d3c4ed2e9a0001d37ab4","","null","","","","","","","learning/Slide111.JPG","null","","","","","",""
"html-keyboard-response","338","314070","0.0-7.0-1.30","FL","psp3bt1vuy","1920","1080","0","1","0","5933d3c4ed2e9a0001d37ab4","","null","","","learningBlock2","","","","That was a tob.","null","","","","","",""
"html-keyboard-response","339","315070","0.0-7.0-2.30","FL","psp3bt1vuy","1920","1080","0","1","0","5933d3c4ed2e9a0001d37ab4","","null","","","learningBlock2","","","","<div style=""font-size:60px;""> </div>","null","FL","learning/Slide111.JPG","That was a tob.","","",""
"image-keyboard-response","340","315246","0.0-7.0-0.31","FL","psp3bt1vuy","1920","1080","0","1","0","5933d3c4ed2e9a0001d37ab4","","null","","","","","","","learning/Slide112.JPG","null","","","","","",""
"html-keyboard-response","341","316396","0.0-7.0-1.31","FL","psp3bt1vuy","1920","1080","0","1","0","5933d3c4ed2e9a0001d37ab4","","null","","","learningBlock2","","","","That was a wug.","null","","","","","",""
"html-keyboard-response","342","317397","0.0-7.0-2.31","FL","psp3bt1vuy","1920","1080","0","1","0","5933d3c4ed2e9a0001d37ab4","","null","","","learningBlock2","","","","<div style=""font-size:60px;""> </div>","null","FL","learning/Slide112.JPG","That was a wug.","","",""
"image-keyboard-response","343","317574","0.0-7.0-0.32","FL","psp3bt1vuy","1920","1080","0","1","0","5933d3c4ed2e9a0001d37ab4","","null","","","","","","","learning/Slide113.JPG","null","","","","","",""
"html-keyboard-response","344","318724","0.0-7.0-1.32","FL","psp3bt1vuy","1920","1080","0","1","0","5933d3c4ed2e9a0001d37ab4","","null","","","learningBlock2","","","","That was a tob.","null","","","","","",""
"html-keyboard-response","345","319724","0.0-7.0-2.32","FL","psp3bt1vuy","1920","1080","0","1","0","5933d3c4ed2e9a0001d37ab4","","null","","","learningBlock2","","","","<div style=""font-size:60px;""> </div>","null","FL","learning/Slide113.JPG","That was a tob.","","",""
"image-keyboard-response","346","319900","0.0-7.0-0.33","FL","psp3bt1vuy","1920","1080","0","1","0","5933d3c4ed2e9a0001d37ab4","","null","","","","","","","learning/Slide114.JPG","null","","","","","",""
"html-keyboard-response","347","321050","0.0-7.0-1.33","FL","psp3bt1vuy","1920","1080","0","1","0","5933d3c4ed2e9a0001d37ab4","","null","","","learningBlock2","","","","That was a wug.","null","","","","","",""
"html-keyboard-response","348","322050","0.0-7.0-2.33","FL","psp3bt1vuy","1920","1080","0","1","0","5933d3c4ed2e9a0001d37ab4","","null","","","learningBlock2","","","","<div style=""font-size:60px;""> </div>","null","FL","learning/Slide114.JPG","That was a wug.","","",""
"image-keyboard-response","349","322226","0.0-7.0-0.34","FL","psp3bt1vuy","1920","1080","0","1","0","5933d3c4ed2e9a0001d37ab4","","null","","","","","","","learning/Slide115.JPG","null","","","","","",""
"html-keyboard-response","350","323377","0.0-7.0-1.34","FL","psp3bt1vuy","1920","1080","0","1","0","5933d3c4ed2e9a0001d37ab4","","null","","","learningBlock2","","","","That was a bim.","null","","","","","",""
"html-keyboard-response","351","324377","0.0-7.0-2.34","FL","psp3bt1vuy","1920","1080","0","1","0","5933d3c4ed2e9a0001d37ab4","","null","","","learningBlock2","","","","<div style=""font-size:60px;""> </div>","null","FL","learning/Slide115.JPG","That was a bim.","","",""
"image-keyboard-response","352","324553","0.0-7.0-0.35","FL","psp3bt1vuy","1920","1080","0","1","0","5933d3c4ed2e9a0001d37ab4","","null","","","","","","","learning/Slide116.JPG","null","","","","","",""
"html-keyboard-response","353","325703","0.0-7.0-1.35","FL","psp3bt1vuy","1920","1080","0","1","0","5933d3c4ed2e9a0001d37ab4","","null","","","learningBlock2","","","","That was a dep.","null","","","","","",""
"html-keyboard-response","354","326703","0.0-7.0-2.35","FL","psp3bt1vuy","1920","1080","0","1","0","5933d3c4ed2e9a0001d37ab4","","null","","","learningBlock2","","","","<div style=""font-size:60px;""> </div>","null","FL","learning/Slide116.JPG","That was a dep.","","",""
"image-keyboard-response","355","326879","0.0-7.0-0.36","FL","psp3bt1vuy","1920","1080","0","1","0","5933d3c4ed2e9a0001d37ab4","","null","","","","","","","learning/Slide117.JPG","null","","","","","",""
"html-keyboard-response","356","328029","0.0-7.0-1.36","FL","psp3bt1vuy","1920","1080","0","1","0","5933d3c4ed2e9a0001d37ab4","","null","","","learningBlock2","","","","That was a tob.","null","","","","","",""
"html-keyboard-response","357","329029","0.0-7.0-2.36","FL","psp3bt1vuy","1920","1080","0","1","0","5933d3c4ed2e9a0001d37ab4","","null","","","learningBlock2","","","","<div style=""font-size:60px;""> </div>","null","FL","learning/Slide117.JPG","That was a tob.","","",""
"image-keyboard-response","358","329207","0.0-7.0-0.37","FL","psp3bt1vuy","1920","1080","0","1","0","5933d3c4ed2e9a0001d37ab4","","null","","","","","","","learning/Slide118.JPG","null","","","","","",""
"html-keyboard-response","359","330357","0.0-7.0-1.37","FL","psp3bt1vuy","1920","1080","0","1","0","5933d3c4ed2e9a0001d37ab4","","null","","","learningBlock2","","","","That was a dep.","null","","","","","",""
"html-keyboard-response","360","331357","0.0-7.0-2.37","FL","psp3bt1vuy","1920","1080","0","1","0","5933d3c4ed2e9a0001d37ab4","","null","","","learningBlock2","","","","<div style=""font-size:60px;""> </div>","null","FL","learning/Slide118.JPG","That was a dep.","","",""
"image-keyboard-response","361","331533","0.0-7.0-0.38","FL","psp3bt1vuy","1920","1080","0","1","0","5933d3c4ed2e9a0001d37ab4","","null","","","","","","","learning/Slide119.JPG","null","","","","","",""
"html-keyboard-response","362","332683","0.0-7.0-1.38","FL","psp3bt1vuy","1920","1080","0","1","0","5933d3c4ed2e9a0001d37ab4","","null","","","learningBlock2","","","","That was a wug.","null","","","","","",""
"html-keyboard-response","363","333683","0.0-7.0-2.38","FL","psp3bt1vuy","1920","1080","0","1","0","5933d3c4ed2e9a0001d37ab4","","null","","","learningBlock2","","","","<div style=""font-size:60px;""> </div>","null","FL","learning/Slide119.JPG","That was a wug.","","",""
"image-keyboard-response","364","333859","0.0-7.0-0.39","FL","psp3bt1vuy","1920","1080","0","1","0","5933d3c4ed2e9a0001d37ab4","","null","","","","","","","learning/Slide120.JPG","null","","","","","",""
"html-keyboard-response","365","335009","0.0-7.0-1.39","FL","psp3bt1vuy","1920","1080","0","1","0","5933d3c4ed2e9a0001d37ab4","","null","","","learningBlock2","","","","That was a dep.","null","","","","","",""
"html-keyboard-response","366","336009","0.0-7.0-2.39","FL","psp3bt1vuy","1920","1080","0","1","0","5933d3c4ed2e9a0001d37ab4","","null","","","learningBlock2","","","","<div style=""font-size:60px;""> </div>","null","FL","learning/Slide120.JPG","That was a dep.","","",""
"image-keyboard-response","367","336189","0.0-7.0-0.40","FL","psp3bt1vuy","1920","1080","0","1","0","5933d3c4ed2e9a0001d37ab4","","null","","","","","","","learning/Slide121.JPG","null","","","","","",""
"html-keyboard-response","368","337340","0.0-7.0-1.40","FL","psp3bt1vuy","1920","1080","0","1","0","5933d3c4ed2e9a0001d37ab4","","null","","","learningBlock2","","","","That was a bim.","null","","","","","",""
"html-keyboard-response","369","338340","0.0-7.0-2.40","FL","psp3bt1vuy","1920","1080","0","1","0","5933d3c4ed2e9a0001d37ab4","","null","","","learningBlock2","","","","<div style=""font-size:60px;""> </div>","null","FL","learning/Slide121.JPG","That was a bim.","","",""
"image-keyboard-response","370","338516","0.0-7.0-0.41","FL","psp3bt1vuy","1920","1080","0","1","0","5933d3c4ed2e9a0001d37ab4","","null","","","","","","","learning/Slide122.JPG","null","","","","","",""
"html-keyboard-response","371","339728","0.0-7.0-1.41","FL","psp3bt1vuy","1920","1080","0","1","0","5933d3c4ed2e9a0001d37ab4","","null","","","learningBlock2","","","","That was a wug.","null","","","","","",""
"html-keyboard-response","372","340729","0.0-7.0-2.41","FL","psp3bt1vuy","1920","1080","0","1","0","5933d3c4ed2e9a0001d37ab4","","null","","","learningBlock2","","","","<div style=""font-size:60px;""> </div>","null","FL","learning/Slide122.JPG","That was a wug.","","",""
"image-keyboard-response","373","340905","0.0-7.0-0.42","FL","psp3bt1vuy","1920","1080","0","1","0","5933d3c4ed2e9a0001d37ab4","","null","","","","","","","learning/Slide123.JPG","null","","","","","",""
"html-keyboard-response","374","342056","0.0-7.0-1.42","FL","psp3bt1vuy","1920","1080","0","1","0","5933d3c4ed2e9a0001d37ab4","","null","","","learningBlock2","","","","That was a bim.","null","","","","","",""
"html-keyboard-response","375","343057","0.0-7.0-2.42","FL","psp3bt1vuy","1920","1080","0","1","0","5933d3c4ed2e9a0001d37ab4","","null","","","learningBlock2","","","","<div style=""font-size:60px;""> </div>","null","FL","learning/Slide123.JPG","That was a bim.","","",""
"image-keyboard-response","376","343232","0.0-7.0-0.43","FL","psp3bt1vuy","1920","1080","0","1","0","5933d3c4ed2e9a0001d37ab4","","null","","","","","","","learning/Slide124.JPG","null","","","","","",""
"html-keyboard-response","377","344382","0.0-7.0-1.43","FL","psp3bt1vuy","1920","1080","0","1","0","5933d3c4ed2e9a0001d37ab4","","null","","","learningBlock2","","","","That was a tob.","null","","","","","",""
"html-keyboard-response","378","345382","0.0-7.0-2.43","FL","psp3bt1vuy","1920","1080","0","1","0","5933d3c4ed2e9a0001d37ab4","","null","","","learningBlock2","","","","<div style=""font-size:60px;""> </div>","null","FL","learning/Slide124.JPG","That was a tob.","","",""
"image-keyboard-response","379","345559","0.0-7.0-0.44","FL","psp3bt1vuy","1920","1080","0","1","0","5933d3c4ed2e9a0001d37ab4","","null","","","","","","","learning/Slide125.JPG","null","","","","","",""
"html-keyboard-response","380","346709","0.0-7.0-1.44","FL","psp3bt1vuy","1920","1080","0","1","0","5933d3c4ed2e9a0001d37ab4","","null","","","learningBlock2","","","","That was a bim.","null","","","","","",""
"html-keyboard-response","381","347709","0.0-7.0-2.44","FL","psp3bt1vuy","1920","1080","0","1","0","5933d3c4ed2e9a0001d37ab4","","null","","","learningBlock2","","","","<div style=""font-size:60px;""> </div>","null","FL","learning/Slide125.JPG","That was a bim.","","",""
"image-keyboard-response","382","347885","0.0-7.0-0.45","FL","psp3bt1vuy","1920","1080","0","1","0","5933d3c4ed2e9a0001d37ab4","","null","","","","","","","learning/Slide126.JPG","null","","","","","",""
"html-keyboard-response","383","349035","0.0-7.0-1.45","FL","psp3bt1vuy","1920","1080","0","1","0","5933d3c4ed2e9a0001d37ab4","","null","","","learningBlock2","","","","That was a tob.","null","","","","","",""
"html-keyboard-response","384","350035","0.0-7.0-2.45","FL","psp3bt1vuy","1920","1080","0","1","0","5933d3c4ed2e9a0001d37ab4","","null","","","learningBlock2","","","","<div style=""font-size:60px;""> </div>","null","FL","learning/Slide126.JPG","That was a tob.","","",""
"image-keyboard-response","385","350211","0.0-7.0-0.46","FL","psp3bt1vuy","1920","1080","0","1","0","5933d3c4ed2e9a0001d37ab4","","null","","","","","","","learning/Slide127.JPG","null","","","","","",""
"html-keyboard-response","386","351362","0.0-7.0-1.46","FL","psp3bt1vuy","1920","1080","0","1","0","5933d3c4ed2e9a0001d37ab4","","null","","","learningBlock2","","","","That was a dep.","null","","","","","",""
"html-keyboard-response","387","352363","0.0-7.0-2.46","FL","psp3bt1vuy","1920","1080","0","1","0","5933d3c4ed2e9a0001d37ab4","","null","","","learningBlock2","","","","<div style=""font-size:60px;""> </div>","null","FL","learning/Slide127.JPG","That was a dep.","","",""
"image-keyboard-response","388","352540","0.0-7.0-0.47","FL","psp3bt1vuy","1920","1080","0","1","0","5933d3c4ed2e9a0001d37ab4","","null","","","","","","","learning/Slide128.JPG","null","","","","","",""
"html-keyboard-response","389","353691","0.0-7.0-1.47","FL","psp3bt1vuy","1920","1080","0","1","0","5933d3c4ed2e9a0001d37ab4","","null","","","learningBlock2","","","","That was a wug.","null","","","","","",""
"html-keyboard-response","390","354692","0.0-7.0-2.47","FL","psp3bt1vuy","1920","1080","0","1","0","5933d3c4ed2e9a0001d37ab4","","null","","","learningBlock2","","","","<div style=""font-size:60px;""> </div>","null","FL","learning/Slide128.JPG","That was a wug.","","",""
"image-keyboard-response","391","354869","0.0-7.0-0.48","FL","psp3bt1vuy","1920","1080","0","1","0","5933d3c4ed2e9a0001d37ab4","","null","","","","","","","learning/Slide129.JPG","null","","","","","",""
"html-keyboard-response","392","356019","0.0-7.0-1.48","FL","psp3bt1vuy","1920","1080","0","1","0","5933d3c4ed2e9a0001d37ab4","","null","","","learningBlock2","","","","That was a tob.","null","","","","","",""
"html-keyboard-response","393","357022","0.0-7.0-2.48","FL","psp3bt1vuy","1920","1080","0","1","0","5933d3c4ed2e9a0001d37ab4","","null","","","learningBlock2","","","","<div style=""font-size:60px;""> </div>","null","FL","learning/Slide129.JPG","That was a tob.","","",""
"image-keyboard-response","394","357198","0.0-7.0-0.49","FL","psp3bt1vuy","1920","1080","0","1","0","5933d3c4ed2e9a0001d37ab4","","null","","","","","","","learning/Slide130.JPG","null","","","","","",""
"html-keyboard-response","395","358349","0.0-7.0-1.49","FL","psp3bt1vuy","1920","1080","0","1","0","5933d3c4ed2e9a0001d37ab4","","null","","","learningBlock2","","","","That was a wug.","null","","","","","",""
"html-keyboard-response","396","359349","0.0-7.0-2.49","FL","psp3bt1vuy","1920","1080","0","1","0","5933d3c4ed2e9a0001d37ab4","","null","","","learningBlock2","","","","<div style=""font-size:60px;""> </div>","null","FL","learning/Slide130.JPG","That was a wug.","","",""
"image-keyboard-response","397","359525","0.0-7.0-0.50","FL","psp3bt1vuy","1920","1080","0","1","0","5933d3c4ed2e9a0001d37ab4","","null","","","","","","","learning/Slide131.JPG","null","","","","","",""
"html-keyboard-response","398","360676","0.0-7.0-1.50","FL","psp3bt1vuy","1920","1080","0","1","0","5933d3c4ed2e9a0001d37ab4","","null","","","learningBlock2","","","","That was a bim.","null","","","","","",""
"html-keyboard-response","399","361676","0.0-7.0-2.50","FL","psp3bt1vuy","1920","1080","0","1","0","5933d3c4ed2e9a0001d37ab4","","null","","","learningBlock2","","","","<div style=""font-size:60px;""> </div>","null","FL","learning/Slide131.JPG","That was a bim.","","",""
"image-keyboard-response","400","361852","0.0-7.0-0.51","FL","psp3bt1vuy","1920","1080","0","1","0","5933d3c4ed2e9a0001d37ab4","","null","","","","","","","learning/Slide132.JPG","null","","","","","",""
"html-keyboard-response","401","363003","0.0-7.0-1.51","FL","psp3bt1vuy","1920","1080","0","1","0","5933d3c4ed2e9a0001d37ab4","","null","","","learningBlock2","","","","That was a dep.","null","","","","","",""
"html-keyboard-response","402","364003","0.0-7.0-2.51","FL","psp3bt1vuy","1920","1080","0","1","0","5933d3c4ed2e9a0001d37ab4","","null","","","learningBlock2","","","","<div style=""font-size:60px;""> </div>","null","FL","learning/Slide132.JPG","That was a dep.","","",""
"image-keyboard-response","403","364179","0.0-7.0-0.52","FL","psp3bt1vuy","1920","1080","0","1","0","5933d3c4ed2e9a0001d37ab4","","null","","","","","","","learning/Slide133.JPG","null","","","","","",""
"html-keyboard-response","404","365335","0.0-7.0-1.52","FL","psp3bt1vuy","1920","1080","0","1","0","5933d3c4ed2e9a0001d37ab4","","null","","","learningBlock2","","","","That was a tob.","null","","","","","",""
"html-keyboard-response","405","366338","0.0-7.0-2.52","FL","psp3bt1vuy","1920","1080","0","1","0","5933d3c4ed2e9a0001d37ab4","","null","","","learningBlock2","","","","<div style=""font-size:60px;""> </div>","null","FL","learning/Slide133.JPG","That was a tob.","","",""
"image-keyboard-response","406","366514","0.0-7.0-0.53","FL","psp3bt1vuy","1920","1080","0","1","0","5933d3c4ed2e9a0001d37ab4","","null","","","","","","","learning/Slide134.JPG","null","","","","","",""
"html-keyboard-response","407","367665","0.0-7.0-1.53","FL","psp3bt1vuy","1920","1080","0","1","0","5933d3c4ed2e9a0001d37ab4","","null","","","learningBlock2","","","","That was a dep.","null","","","","","",""
"html-keyboard-response","408","368666","0.0-7.0-2.53","FL","psp3bt1vuy","1920","1080","0","1","0","5933d3c4ed2e9a0001d37ab4","","null","","","learningBlock2","","","","<div style=""font-size:60px;""> </div>","null","FL","learning/Slide134.JPG","That was a dep.","","",""
"image-keyboard-response","409","368842","0.0-7.0-0.54","FL","psp3bt1vuy","1920","1080","0","1","0","5933d3c4ed2e9a0001d37ab4","","null","","","","","","","learning/Slide135.JPG","null","","","","","",""
"html-keyboard-response","410","369993","0.0-7.0-1.54","FL","psp3bt1vuy","1920","1080","0","1","0","5933d3c4ed2e9a0001d37ab4","","null","","","learningBlock2","","","","That was a tob.","null","","","","","",""
"html-keyboard-response","411","370993","0.0-7.0-2.54","FL","psp3bt1vuy","1920","1080","0","1","0","5933d3c4ed2e9a0001d37ab4","","null","","","learningBlock2","","","","<div style=""font-size:60px;""> </div>","null","FL","learning/Slide135.JPG","That was a tob.","","",""
"image-keyboard-response","412","371170","0.0-7.0-0.55","FL","psp3bt1vuy","1920","1080","0","1","0","5933d3c4ed2e9a0001d37ab4","","null","","","","","","","learning/Slide136.JPG","null","","","","","",""
"html-keyboard-response","413","372320","0.0-7.0-1.55","FL","psp3bt1vuy","1920","1080","0","1","0","5933d3c4ed2e9a0001d37ab4","","null","","","learningBlock2","","","","That was a wug.","null","","","","","",""
"html-keyboard-response","414","373320","0.0-7.0-2.55","FL","psp3bt1vuy","1920","1080","0","1","0","5933d3c4ed2e9a0001d37ab4","","null","","","learningBlock2","","","","<div style=""font-size:60px;""> </div>","null","FL","learning/Slide136.JPG","That was a wug.","","",""
"image-keyboard-response","415","373496","0.0-7.0-0.56","FL","psp3bt1vuy","1920","1080","0","1","0","5933d3c4ed2e9a0001d37ab4","","null","","","","","","","learning/Slide137.JPG","null","","","","","",""
"html-keyboard-response","416","374647","0.0-7.0-1.56","FL","psp3bt1vuy","1920","1080","0","1","0","5933d3c4ed2e9a0001d37ab4","","null","","","learningBlock2","","","","That was a tob.","null","","","","","",""
"html-keyboard-response","417","375648","0.0-7.0-2.56","FL","psp3bt1vuy","1920","1080","0","1","0","5933d3c4ed2e9a0001d37ab4","","null","","","learningBlock2","","","","<div style=""font-size:60px;""> </div>","null","FL","learning/Slide137.JPG","That was a tob.","","",""
"image-keyboard-response","418","375824","0.0-7.0-0.57","FL","psp3bt1vuy","1920","1080","0","1","0","5933d3c4ed2e9a0001d37ab4","","null","","","","","","","learning/Slide138.JPG","null","","","","","",""
"html-keyboard-response","419","376975","0.0-7.0-1.57","FL","psp3bt1vuy","1920","1080","0","1","0","5933d3c4ed2e9a0001d37ab4","","null","","","learningBlock2","","","","That was a bim.","null","","","","","",""
"html-keyboard-response","420","377976","0.0-7.0-2.57","FL","psp3bt1vuy","1920","1080","0","1","0","5933d3c4ed2e9a0001d37ab4","","null","","","learningBlock2","","","","<div style=""font-size:60px;""> </div>","null","FL","learning/Slide138.JPG","That was a bim.","","",""
"image-keyboard-response","421","378152","0.0-7.0-0.58","FL","psp3bt1vuy","1920","1080","0","1","0","5933d3c4ed2e9a0001d37ab4","","null","","","","","","","learning/Slide139.JPG","null","","","","","",""
"html-keyboard-response","422","379302","0.0-7.0-1.58","FL","psp3bt1vuy","1920","1080","0","1","0","5933d3c4ed2e9a0001d37ab4","","null","","","learningBlock2","","","","That was a wug.","null","","","","","",""
"html-keyboard-response","423","380302","0.0-7.0-2.58","FL","psp3bt1vuy","1920","1080","0","1","0","5933d3c4ed2e9a0001d37ab4","","null","","","learningBlock2","","","","<div style=""font-size:60px;""> </div>","null","FL","learning/Slide139.JPG","That was a wug.","","",""
"image-keyboard-response","424","380478","0.0-7.0-0.59","FL","psp3bt1vuy","1920","1080","0","1","0","5933d3c4ed2e9a0001d37ab4","","null","","","","","","","learning/Slide140.JPG","null","","","","","",""
"html-keyboard-response","425","381629","0.0-7.0-1.59","FL","psp3bt1vuy","1920","1080","0","1","0","5933d3c4ed2e9a0001d37ab4","","null","","","learningBlock2","","","","That was a dep.","null","","","","","",""
"html-keyboard-response","426","382631","0.0-7.0-2.59","FL","psp3bt1vuy","1920","1080","0","1","0","5933d3c4ed2e9a0001d37ab4","","null","","","learningBlock2","","","","<div style=""font-size:60px;""> </div>","null","FL","learning/Slide140.JPG","That was a dep.","","",""
"image-keyboard-response","427","382806","0.0-7.0-0.60","FL","psp3bt1vuy","1920","1080","0","1","0","5933d3c4ed2e9a0001d37ab4","","null","","","","","","","learning/Slide141.JPG","null","","","","","",""
"html-keyboard-response","428","383957","0.0-7.0-1.60","FL","psp3bt1vuy","1920","1080","0","1","0","5933d3c4ed2e9a0001d37ab4","","null","","","learningBlock2","","","","That was a tob.","null","","","","","",""
"html-keyboard-response","429","384958","0.0-7.0-2.60","FL","psp3bt1vuy","1920","1080","0","1","0","5933d3c4ed2e9a0001d37ab4","","null","","","learningBlock2","","","","<div style=""font-size:60px;""> </div>","null","FL","learning/Slide141.JPG","That was a tob.","","",""
"image-keyboard-response","430","385133","0.0-7.0-0.61","FL","psp3bt1vuy","1920","1080","0","1","0","5933d3c4ed2e9a0001d37ab4","","null","","","","","","","learning/Slide142.JPG","null","","","","","",""
"html-keyboard-response","431","386284","0.0-7.0-1.61","FL","psp3bt1vuy","1920","1080","0","1","0","5933d3c4ed2e9a0001d37ab4","","null","","","learningBlock2","","","","That was a wug.","null","","","","","",""
"html-keyboard-response","432","387286","0.0-7.0-2.61","FL","psp3bt1vuy","1920","1080","0","1","0","5933d3c4ed2e9a0001d37ab4","","null","","","learningBlock2","","","","<div style=""font-size:60px;""> </div>","null","FL","learning/Slide142.JPG","That was a wug.","","",""
"image-keyboard-response","433","387471","0.0-7.0-0.62","FL","psp3bt1vuy","1920","1080","0","1","0","5933d3c4ed2e9a0001d37ab4","","null","","","","","","","learning/Slide143.JPG","null","","","","","",""
"html-keyboard-response","434","388621","0.0-7.0-1.62","FL","psp3bt1vuy","1920","1080","0","1","0","5933d3c4ed2e9a0001d37ab4","","null","","","learningBlock2","","","","That was a bim.","null","","","","","",""
