"trial_type","trial_index","time_elapsed","internal_node_id","condition","subject","screen_width","screen_height","attention","distraction","conscientious","prolificID","success","rt","url","view_history","test_part","final_height_px","final_width_px","scale_factor","stimulus","key_press","learningType","presentedImage","presentedLabel","button_pressed","response","responses"
"pavlovia","0","12","0.0-0.0","LF","s52728tqhv","1536","864","0","0","0","6014777b8a88c449408352c5","","","","","","","","","","","","","","","",""
"fullscreen","1","8621","0.0-1.0","LF","s52728tqhv","1536","864","0","0","0","6014777b8a88c449408352c5","true","","","","","","","","","","","","","","",""
"external-html","2","93804","0.0-2.0-0.0","LF","s52728tqhv","1536","864","0","0","0","6014777b8a88c449408352c5","","85018","text/information_english.html","","","","","","","","","","","","",""
"external-html","3","154344","0.0-2.0-1.0","LF","s52728tqhv","1536","864","0","0","0","6014777b8a88c449408352c5","","60432","text/consent_english.html","","","","","","","","","","","","",""
"instructions","4","174604","0.0-3.0","LF","s52728tqhv","1536","864","0","0","0","6014777b8a88c449408352c5","","NA","","[{""page_index"":0,""viewing_time"":4506},{""page_index"":1,""viewing_time"":15750}]","instructions","","","","","","","","","","",""
"resize","5","271094","0.0-4.0","LF","s52728tqhv","1536","864","0","0","0","6014777b8a88c449408352c5","","","","","","","379","2.4063492063492067","","","","","","","",""
"html-keyboard-response","6","272113","0.0-5.0-0.0","LF","s52728tqhv","1536","864","0","0","0","6014777b8a88c449408352c5","","null","","","learningBlock1","","","","This is a tob:","null","","","","","",""
"image-keyboard-response","7","272463","0.0-5.0-1.0","LF","s52728tqhv","1536","864","0","0","0","6014777b8a88c449408352c5","","null","","","","","","","learning/Slide1.JPG","null","","","","","",""
"html-keyboard-response","8","273480","0.0-5.0-2.0","LF","s52728tqhv","1536","864","0","0","0","6014777b8a88c449408352c5","","null","","","learningBlock1","","","","<div style=""font-size:60px;""> </div>","null","LF","learning/Slide1.JPG","This is a tob:","","",""
"html-keyboard-response","9","274482","0.0-5.0-0.1","LF","s52728tqhv","1536","864","0","0","0","6014777b8a88c449408352c5","","null","","","learningBlock1","","","","This is a wug:","null","","","","","",""
"image-keyboard-response","10","274830","0.0-5.0-1.1","LF","s52728tqhv","1536","864","0","0","0","6014777b8a88c449408352c5","","null","","","","","","","learning/Slide2.JPG","null","","","","","",""
"html-keyboard-response","11","275835","0.0-5.0-2.1","LF","s52728tqhv","1536","864","0","0","0","6014777b8a88c449408352c5","","null","","","learningBlock1","","","","<div style=""font-size:60px;""> </div>","null","LF","learning/Slide2.JPG","This is a wug:","","",""
"html-keyboard-response","12","276846","0.0-5.0-0.2","LF","s52728tqhv","1536","864","0","0","0","6014777b8a88c449408352c5","","null","","","learningBlock1","","","","This is a bim:","null","","","","","",""
"image-keyboard-response","13","277194","0.0-5.0-1.2","LF","s52728tqhv","1536","864","0","0","0","6014777b8a88c449408352c5","","null","","","","","","","learning/Slide3.JPG","null","","","","","",""
"html-keyboard-response","14","278214","0.0-5.0-2.2","LF","s52728tqhv","1536","864","0","0","0","6014777b8a88c449408352c5","","null","","","learningBlock1","","","","<div style=""font-size:60px;""> </div>","null","LF","learning/Slide3.JPG","This is a bim:","","",""
"html-keyboard-response","15","279232","0.0-5.0-0.3","LF","s52728tqhv","1536","864","0","0","0","6014777b8a88c449408352c5","","null","","","learningBlock1","","","","This is a dep:","null","","","","","",""
"image-keyboard-response","16","279578","0.0-5.0-1.3","LF","s52728tqhv","1536","864","0","0","0","6014777b8a88c449408352c5","","null","","","","","","","learning/Slide4.JPG","null","","","","","",""
"html-keyboard-response","17","280582","0.0-5.0-2.3","LF","s52728tqhv","1536","864","0","0","0","6014777b8a88c449408352c5","","null","","","learningBlock1","","","","<div style=""font-size:60px;""> </div>","null","LF","learning/Slide4.JPG","This is a dep:","","",""
"html-keyboard-response","18","281602","0.0-5.0-0.4","LF","s52728tqhv","1536","864","0","0","0","6014777b8a88c449408352c5","","null","","","learningBlock1","","","","This is a wug:","null","","","","","",""
"image-keyboard-response","19","281943","0.0-5.0-1.4","LF","s52728tqhv","1536","864","0","0","0","6014777b8a88c449408352c5","","null","","","","","","","learning/Slide5.JPG","null","","","","","",""
"html-keyboard-response","20","282963","0.0-5.0-2.4","LF","s52728tqhv","1536","864","0","0","0","6014777b8a88c449408352c5","","null","","","learningBlock1","","","","<div style=""font-size:60px;""> </div>","null","LF","learning/Slide5.JPG","This is a wug:","","",""
"html-keyboard-response","21","283974","0.0-5.0-0.5","LF","s52728tqhv","1536","864","0","0","0","6014777b8a88c449408352c5","","null","","","learningBlock1","","","","This is a dep:","null","","","","","",""
"image-keyboard-response","22","284309","0.0-5.0-1.5","LF","s52728tqhv","1536","864","0","0","0","6014777b8a88c449408352c5","","null","","","","","","","learning/Slide6.JPG","null","","","","","",""
"html-keyboard-response","23","285312","0.0-5.0-2.5","LF","s52728tqhv","1536","864","0","0","0","6014777b8a88c449408352c5","","null","","","learningBlock1","","","","<div style=""font-size:60px;""> </div>","null","LF","learning/Slide6.JPG","This is a dep:","","",""
"html-keyboard-response","24","286322","0.0-5.0-0.6","LF","s52728tqhv","1536","864","0","0","0","6014777b8a88c449408352c5","","null","","","learningBlock1","","","","This is a wug:","null","","","","","",""
"image-keyboard-response","25","286659","0.0-5.0-1.6","LF","s52728tqhv","1536","864","0","0","0","6014777b8a88c449408352c5","","null","","","","","","","learning/Slide7.JPG","null","","","","","",""
"html-keyboard-response","26","287662","0.0-5.0-2.6","LF","s52728tqhv","1536","864","0","0","0","6014777b8a88c449408352c5","","null","","","learningBlock1","","","","<div style=""font-size:60px;""> </div>","null","LF","learning/Slide7.JPG","This is a wug:","","",""
"html-keyboard-response","27","288682","0.0-5.0-0.7","LF","s52728tqhv","1536","864","0","0","0","6014777b8a88c449408352c5","","null","","","learningBlock1","","","","This is a bim:","null","","","","","",""
"image-keyboard-response","28","289024","0.0-5.0-1.7","LF","s52728tqhv","1536","864","0","0","0","6014777b8a88c449408352c5","","null","","","","","","","learning/Slide8.JPG","null","","","","","",""
"html-keyboard-response","29","290032","0.0-5.0-2.7","LF","s52728tqhv","1536","864","0","0","0","6014777b8a88c449408352c5","","null","","","learningBlock1","","","","<div style=""font-size:60px;""> </div>","null","LF","learning/Slide8.JPG","This is a bim:","","",""
"html-keyboard-response","30","291038","0.0-5.0-0.8","LF","s52728tqhv","1536","864","0","0","0","6014777b8a88c449408352c5","","null","","","learningBlock1","","","","This is a wug:","null","","","","","",""
"image-keyboard-response","31","291373","0.0-5.0-1.8","LF","s52728tqhv","1536","864","0","0","0","6014777b8a88c449408352c5","","null","","","","","","","learning/Slide9.JPG","null","","","","","",""
"html-keyboard-response","32","292392","0.0-5.0-2.8","LF","s52728tqhv","1536","864","0","0","0","6014777b8a88c449408352c5","","null","","","learningBlock1","","","","<div style=""font-size:60px;""> </div>","null","LF","learning/Slide9.JPG","This is a wug:","","",""
"html-keyboard-response","33","293412","0.0-5.0-0.9","LF","s52728tqhv","1536","864","0","0","0","6014777b8a88c449408352c5","","null","","","learningBlock1","","","","This is a dep:","null","","","","","",""
"image-keyboard-response","34","293754","0.0-5.0-1.9","LF","s52728tqhv","1536","864","0","0","0","6014777b8a88c449408352c5","","null","","","","","","","learning/Slide10.JPG","null","","","","","",""
"html-keyboard-response","35","294773","0.0-5.0-2.9","LF","s52728tqhv","1536","864","0","0","0","6014777b8a88c449408352c5","","null","","","learningBlock1","","","","<div style=""font-size:60px;""> </div>","null","LF","learning/Slide10.JPG","This is a dep:","","",""
"html-keyboard-response","36","295792","0.0-5.0-0.10","LF","s52728tqhv","1536","864","0","0","0","6014777b8a88c449408352c5","","null","","","learningBlock1","","","","This is a tob:","null","","","","","",""
"image-keyboard-response","37","296139","0.0-5.0-1.10","LF","s52728tqhv","1536","864","0","0","0","6014777b8a88c449408352c5","","null","","","","","","","learning/Slide11.JPG","null","","","","","",""
"html-keyboard-response","38","297153","0.0-5.0-2.10","LF","s52728tqhv","1536","864","0","0","0","6014777b8a88c449408352c5","","null","","","learningBlock1","","","","<div style=""font-size:60px;""> </div>","null","LF","learning/Slide11.JPG","This is a tob:","","",""
"html-keyboard-response","39","298172","0.0-5.0-0.11","LF","s52728tqhv","1536","864","0","0","0","6014777b8a88c449408352c5","","null","","","learningBlock1","","","","This is a dep:","null","","","","","",""
"image-keyboard-response","40","298521","0.0-5.0-1.11","LF","s52728tqhv","1536","864","0","0","0","6014777b8a88c449408352c5","","null","","","","","","","learning/Slide12.JPG","null","","","","","",""
"html-keyboard-response","41","299532","0.0-5.0-2.11","LF","s52728tqhv","1536","864","0","0","0","6014777b8a88c449408352c5","","null","","","learningBlock1","","","","<div style=""font-size:60px;""> </div>","null","LF","learning/Slide12.JPG","This is a dep:","","",""
"html-keyboard-response","42","300552","0.0-5.0-0.12","LF","s52728tqhv","1536","864","0","0","0","6014777b8a88c449408352c5","","null","","","learningBlock1","","","","This is a bim:","null","","","","","",""
"image-keyboard-response","43","300902","0.0-5.0-1.12","LF","s52728tqhv","1536","864","0","0","0","6014777b8a88c449408352c5","","null","","","","","","","learning/Slide13.JPG","null","","","","","",""
"html-keyboard-response","44","301912","0.0-5.0-2.12","LF","s52728tqhv","1536","864","0","0","0","6014777b8a88c449408352c5","","null","","","learningBlock1","","","","<div style=""font-size:60px;""> </div>","null","LF","learning/Slide13.JPG","This is a bim:","","",""
"html-keyboard-response","45","302922","0.0-5.0-0.13","LF","s52728tqhv","1536","864","0","0","0","6014777b8a88c449408352c5","","null","","","learningBlock1","","","","This is a wug:","null","","","","","",""
"image-keyboard-response","46","303269","0.0-5.0-1.13","LF","s52728tqhv","1536","864","0","0","0","6014777b8a88c449408352c5","","null","","","","","","","learning/Slide14.JPG","null","","","","","",""
"html-keyboard-response","47","304282","0.0-5.0-2.13","LF","s52728tqhv","1536","864","0","0","0","6014777b8a88c449408352c5","","null","","","learningBlock1","","","","<div style=""font-size:60px;""> </div>","null","LF","learning/Slide14.JPG","This is a wug:","","",""
"html-keyboard-response","48","305302","0.0-5.0-0.14","LF","s52728tqhv","1536","864","0","0","0","6014777b8a88c449408352c5","","null","","","learningBlock1","","","","This is a tob:","null","","","","","",""
"image-keyboard-response","49","305652","0.0-5.0-1.14","LF","s52728tqhv","1536","864","0","0","0","6014777b8a88c449408352c5","","null","","","","","","","learning/Slide15.JPG","null","","","","","",""
"html-keyboard-response","50","306654","0.0-5.0-2.14","LF","s52728tqhv","1536","864","0","0","0","6014777b8a88c449408352c5","","null","","","learningBlock1","","","","<div style=""font-size:60px;""> </div>","null","LF","learning/Slide15.JPG","This is a tob:","","",""
"html-keyboard-response","51","307672","0.0-5.0-0.15","LF","s52728tqhv","1536","864","0","0","0","6014777b8a88c449408352c5","","null","","","learningBlock1","","","","This is a dep:","null","","","","","",""
"image-keyboard-response","52","308018","0.0-5.0-1.15","LF","s52728tqhv","1536","864","0","0","0","6014777b8a88c449408352c5","","null","","","","","","","learning/Slide16.JPG","null","","","","","",""
"html-keyboard-response","53","309032","0.0-5.0-2.15","LF","s52728tqhv","1536","864","0","0","0","6014777b8a88c449408352c5","","null","","","learningBlock1","","","","<div style=""font-size:60px;""> </div>","null","LF","learning/Slide16.JPG","This is a dep:","","",""
"html-keyboard-response","54","310052","0.0-5.0-0.16","LF","s52728tqhv","1536","864","0","0","0","6014777b8a88c449408352c5","","null","","","learningBlock1","","","","This is a bim:","null","","","","","",""
"image-keyboard-response","55","310401","0.0-5.0-1.16","LF","s52728tqhv","1536","864","0","0","0","6014777b8a88c449408352c5","","null","","","","","","","learning/Slide17.JPG","null","","","","","",""
"html-keyboard-response","56","311402","0.0-5.0-2.16","LF","s52728tqhv","1536","864","0","0","0","6014777b8a88c449408352c5","","null","","","learningBlock1","","","","<div style=""font-size:60px;""> </div>","null","LF","learning/Slide17.JPG","This is a bim:","","",""
"html-keyboard-response","57","312423","0.0-5.0-0.17","LF","s52728tqhv","1536","864","0","0","0","6014777b8a88c449408352c5","","null","","","learningBlock1","","","","This is a tob:","null","","","","","",""
"image-keyboard-response","58","312765","0.0-5.0-1.17","LF","s52728tqhv","1536","864","0","0","0","6014777b8a88c449408352c5","","null","","","","","","","learning/Slide18.JPG","null","","","","","",""
"html-keyboard-response","59","313782","0.0-5.0-2.17","LF","s52728tqhv","1536","864","0","0","0","6014777b8a88c449408352c5","","null","","","learningBlock1","","","","<div style=""font-size:60px;""> </div>","null","LF","learning/Slide18.JPG","This is a tob:","","",""
"html-keyboard-response","60","314792","0.0-5.0-0.18","LF","s52728tqhv","1536","864","0","0","0","6014777b8a88c449408352c5","","null","","","learningBlock1","","","","This is a wug:","null","","","","","",""
"image-keyboard-response","61","315132","0.0-5.0-1.18","LF","s52728tqhv","1536","864","0","0","0","6014777b8a88c449408352c5","","null","","","","","","","learning/Slide19.JPG","null","","","","","",""
"html-keyboard-response","62","316143","0.0-5.0-2.18","LF","s52728tqhv","1536","864","0","0","0","6014777b8a88c449408352c5","","null","","","learningBlock1","","","","<div style=""font-size:60px;""> </div>","null","LF","learning/Slide19.JPG","This is a wug:","","",""
"html-keyboard-response","63","317152","0.0-5.0-0.19","LF","s52728tqhv","1536","864","0","0","0","6014777b8a88c449408352c5","","null","","","learningBlock1","","","","This is a bim:","null","","","","","",""
"image-keyboard-response","64","317498","0.0-5.0-1.19","LF","s52728tqhv","1536","864","0","0","0","6014777b8a88c449408352c5","","null","","","","","","","learning/Slide20.JPG","null","","","","","",""
"html-keyboard-response","65","318502","0.0-5.0-2.19","LF","s52728tqhv","1536","864","0","0","0","6014777b8a88c449408352c5","","null","","","learningBlock1","","","","<div style=""font-size:60px;""> </div>","null","LF","learning/Slide20.JPG","This is a bim:","","",""
"html-keyboard-response","66","319523","0.0-5.0-0.20","LF","s52728tqhv","1536","864","0","0","0","6014777b8a88c449408352c5","","null","","","learningBlock1","","","","This is a dep:","null","","","","","",""
"image-keyboard-response","67","319864","0.0-5.0-1.20","LF","s52728tqhv","1536","864","0","0","0","6014777b8a88c449408352c5","","null","","","","","","","learning/Slide21.JPG","null","","","","","",""
"html-keyboard-response","68","320872","0.0-5.0-2.20","LF","s52728tqhv","1536","864","0","0","0","6014777b8a88c449408352c5","","null","","","learningBlock1","","","","<div style=""font-size:60px;""> </div>","null","LF","learning/Slide21.JPG","This is a dep:","","",""
"html-keyboard-response","69","321882","0.0-5.0-0.21","LF","s52728tqhv","1536","864","0","0","0","6014777b8a88c449408352c5","","null","","","learningBlock1","","","","This is a bim:","null","","","","","",""
"image-keyboard-response","70","322230","0.0-5.0-1.21","LF","s52728tqhv","1536","864","0","0","0","6014777b8a88c449408352c5","","null","","","","","","","learning/Slide22.JPG","null","","","","","",""
"html-keyboard-response","71","323242","0.0-5.0-2.21","LF","s52728tqhv","1536","864","0","0","0","6014777b8a88c449408352c5","","null","","","learningBlock1","","","","<div style=""font-size:60px;""> </div>","null","LF","learning/Slide22.JPG","This is a bim:","","",""
"html-keyboard-response","72","324262","0.0-5.0-0.22","LF","s52728tqhv","1536","864","0","0","0","6014777b8a88c449408352c5","","null","","","learningBlock1","","","","This is a tob:","null","","","","","",""
"image-keyboard-response","73","324612","0.0-5.0-1.22","LF","s52728tqhv","1536","864","0","0","0","6014777b8a88c449408352c5","","null","","","","","","","learning/Slide23.JPG","null","","","","","",""
"html-keyboard-response","74","325633","0.0-5.0-2.22","LF","s52728tqhv","1536","864","0","0","0","6014777b8a88c449408352c5","","null","","","learningBlock1","","","","<div style=""font-size:60px;""> </div>","null","LF","learning/Slide23.JPG","This is a tob:","","",""
"html-keyboard-response","75","326643","0.0-5.0-0.23","LF","s52728tqhv","1536","864","0","0","0","6014777b8a88c449408352c5","","null","","","learningBlock1","","","","This is a wug:","null","","","","","",""
"image-keyboard-response","76","326978","0.0-5.0-1.23","LF","s52728tqhv","1536","864","0","0","0","6014777b8a88c449408352c5","","null","","","","","","","learning/Slide24.JPG","null","","","","","",""
"html-keyboard-response","77","327983","0.0-5.0-2.23","LF","s52728tqhv","1536","864","0","0","0","6014777b8a88c449408352c5","","null","","","learningBlock1","","","","<div style=""font-size:60px;""> </div>","null","LF","learning/Slide24.JPG","This is a wug:","","",""
"html-keyboard-response","78","328992","0.0-5.0-0.24","LF","s52728tqhv","1536","864","0","0","0","6014777b8a88c449408352c5","","null","","","learningBlock1","","","","This is a dep:","null","","","","","",""
"image-keyboard-response","79","329328","0.0-5.0-1.24","LF","s52728tqhv","1536","864","0","0","0","6014777b8a88c449408352c5","","null","","","","","","","learning/Slide25.JPG","null","","","","","",""
"html-keyboard-response","80","330333","0.0-5.0-2.24","LF","s52728tqhv","1536","864","0","0","0","6014777b8a88c449408352c5","","null","","","learningBlock1","","","","<div style=""font-size:60px;""> </div>","null","LF","learning/Slide25.JPG","This is a dep:","","",""
"html-keyboard-response","81","331343","0.0-5.0-0.25","LF","s52728tqhv","1536","864","0","0","0","6014777b8a88c449408352c5","","null","","","learningBlock1","","","","This is a wug:","null","","","","","",""
"image-keyboard-response","82","331693","0.0-5.0-1.25","LF","s52728tqhv","1536","864","0","0","0","6014777b8a88c449408352c5","","null","","","","","","","learning/Slide26.JPG","null","","","","","",""
"html-keyboard-response","83","332713","0.0-5.0-2.25","LF","s52728tqhv","1536","864","0","0","0","6014777b8a88c449408352c5","","null","","","learningBlock1","","","","<div style=""font-size:60px;""> </div>","null","LF","learning/Slide26.JPG","This is a wug:","","",""
"html-keyboard-response","84","333722","0.0-5.0-0.26","LF","s52728tqhv","1536","864","0","0","0","6014777b8a88c449408352c5","","null","","","learningBlock1","","","","This is a bim:","null","","","","","",""
"image-keyboard-response","85","334059","0.0-5.0-1.26","LF","s52728tqhv","1536","864","0","0","0","6014777b8a88c449408352c5","","null","","","","","","","learning/Slide27.JPG","null","","","","","",""
"html-keyboard-response","86","335072","0.0-5.0-2.26","LF","s52728tqhv","1536","864","0","0","0","6014777b8a88c449408352c5","","null","","","learningBlock1","","","","<div style=""font-size:60px;""> </div>","null","LF","learning/Slide27.JPG","This is a bim:","","",""
"html-keyboard-response","87","336082","0.0-5.0-0.27","LF","s52728tqhv","1536","864","0","0","0","6014777b8a88c449408352c5","","null","","","learningBlock1","","","","This is a dep:","null","","","","","",""
"image-keyboard-response","88","336424","0.0-5.0-1.27","LF","s52728tqhv","1536","864","0","0","0","6014777b8a88c449408352c5","","null","","","","","","","learning/Slide28.JPG","null","","","","","",""
"html-keyboard-response","89","337442","0.0-5.0-2.27","LF","s52728tqhv","1536","864","0","0","0","6014777b8a88c449408352c5","","null","","","learningBlock1","","","","<div style=""font-size:60px;""> </div>","null","LF","learning/Slide28.JPG","This is a dep:","","",""
"html-keyboard-response","90","338463","0.0-5.0-0.28","LF","s52728tqhv","1536","864","0","0","0","6014777b8a88c449408352c5","","null","","","learningBlock1","","","","This is a tob:","null","","","","","",""
"image-keyboard-response","91","338808","0.0-5.0-1.28","LF","s52728tqhv","1536","864","0","0","0","6014777b8a88c449408352c5","","null","","","","","","","learning/Slide29.JPG","null","","","","","",""
"html-keyboard-response","92","339812","0.0-5.0-2.28","LF","s52728tqhv","1536","864","0","0","0","6014777b8a88c449408352c5","","null","","","learningBlock1","","","","<div style=""font-size:60px;""> </div>","null","LF","learning/Slide29.JPG","This is a tob:","","",""
"html-keyboard-response","93","340833","0.0-5.0-0.29","LF","s52728tqhv","1536","864","0","0","0","6014777b8a88c449408352c5","","null","","","learningBlock1","","","","This is a dep:","null","","","","","",""
"image-keyboard-response","94","341173","0.0-5.0-1.29","LF","s52728tqhv","1536","864","0","0","0","6014777b8a88c449408352c5","","null","","","","","","","learning/Slide30.JPG","null","","","","","",""
"html-keyboard-response","95","342183","0.0-5.0-2.29","LF","s52728tqhv","1536","864","0","0","0","6014777b8a88c449408352c5","","null","","","learningBlock1","","","","<div style=""font-size:60px;""> </div>","null","LF","learning/Slide30.JPG","This is a dep:","","",""
"html-keyboard-response","96","343202","0.0-5.0-0.30","LF","s52728tqhv","1536","864","0","0","0","6014777b8a88c449408352c5","","null","","","learningBlock1","","","","This is a wug:","null","","","","","",""
"image-keyboard-response","97","343539","0.0-5.0-1.30","LF","s52728tqhv","1536","864","0","0","0","6014777b8a88c449408352c5","","null","","","","","","","learning/Slide31.JPG","null","","","","","",""
"html-keyboard-response","98","344542","0.0-5.0-2.30","LF","s52728tqhv","1536","864","0","0","0","6014777b8a88c449408352c5","","null","","","learningBlock1","","","","<div style=""font-size:60px;""> </div>","null","LF","learning/Slide31.JPG","This is a wug:","","",""
"html-keyboard-response","99","345553","0.0-5.0-0.31","LF","s52728tqhv","1536","864","0","0","0","6014777b8a88c449408352c5","","null","","","learningBlock1","","","","This is a tob:","null","","","","","",""
"image-keyboard-response","100","345889","0.0-5.0-1.31","LF","s52728tqhv","1536","864","0","0","0","6014777b8a88c449408352c5","","null","","","","","","","learning/Slide32.JPG","null","","","","","",""
"html-keyboard-response","101","346893","0.0-5.0-2.31","LF","s52728tqhv","1536","864","0","0","0","6014777b8a88c449408352c5","","null","","","learningBlock1","","","","<div style=""font-size:60px;""> </div>","null","LF","learning/Slide32.JPG","This is a tob:","","",""
"html-keyboard-response","102","347912","0.0-5.0-0.32","LF","s52728tqhv","1536","864","0","0","0","6014777b8a88c449408352c5","","null","","","learningBlock1","","","","This is a bim:","null","","","","","",""
"image-keyboard-response","103","348254","0.0-5.0-1.32","LF","s52728tqhv","1536","864","0","0","0","6014777b8a88c449408352c5","","null","","","","","","","learning/Slide33.JPG","null","","","","","",""
"html-keyboard-response","104","349263","0.0-5.0-2.32","LF","s52728tqhv","1536","864","0","0","0","6014777b8a88c449408352c5","","null","","","learningBlock1","","","","<div style=""font-size:60px;""> </div>","null","LF","learning/Slide33.JPG","This is a bim:","","",""
"html-keyboard-response","105","350273","0.0-5.0-0.33","LF","s52728tqhv","1536","864","0","0","0","6014777b8a88c449408352c5","","null","","","learningBlock1","","","","This is a tob:","null","","","","","",""
"image-keyboard-response","106","350620","0.0-5.0-1.33","LF","s52728tqhv","1536","864","0","0","0","6014777b8a88c449408352c5","","null","","","","","","","learning/Slide34.JPG","null","","","","","",""
"html-keyboard-response","107","351623","0.0-5.0-2.33","LF","s52728tqhv","1536","864","0","0","0","6014777b8a88c449408352c5","","null","","","learningBlock1","","","","<div style=""font-size:60px;""> </div>","null","LF","learning/Slide34.JPG","This is a tob:","","",""
"html-keyboard-response","108","352642","0.0-5.0-0.34","LF","s52728tqhv","1536","864","0","0","0","6014777b8a88c449408352c5","","null","","","learningBlock1","","","","This is a bim:","null","","","","","",""
"image-keyboard-response","109","352985","0.0-5.0-1.34","LF","s52728tqhv","1536","864","0","0","0","6014777b8a88c449408352c5","","null","","","","","","","learning/Slide35.JPG","null","","","","","",""
"html-keyboard-response","110","354002","0.0-5.0-2.34","LF","s52728tqhv","1536","864","0","0","0","6014777b8a88c449408352c5","","null","","","learningBlock1","","","","<div style=""font-size:60px;""> </div>","null","LF","learning/Slide35.JPG","This is a bim:","","",""
"html-keyboard-response","111","355012","0.0-5.0-0.35","LF","s52728tqhv","1536","864","0","0","0","6014777b8a88c449408352c5","","null","","","learningBlock1","","","","This is a dep:","null","","","","","",""
"image-keyboard-response","112","355352","0.0-5.0-1.35","LF","s52728tqhv","1536","864","0","0","0","6014777b8a88c449408352c5","","null","","","","","","","learning/Slide36.JPG","null","","","","","",""
"html-keyboard-response","113","356372","0.0-5.0-2.35","LF","s52728tqhv","1536","864","0","0","0","6014777b8a88c449408352c5","","null","","","learningBlock1","","","","<div style=""font-size:60px;""> </div>","null","LF","learning/Slide36.JPG","This is a dep:","","",""
"html-keyboard-response","114","357392","0.0-5.0-0.36","LF","s52728tqhv","1536","864","0","0","0","6014777b8a88c449408352c5","","null","","","learningBlock1","","","","This is a tob:","null","","","","","",""
"image-keyboard-response","115","357733","0.0-5.0-1.36","LF","s52728tqhv","1536","864","0","0","0","6014777b8a88c449408352c5","","null","","","","","","","learning/Slide37.JPG","null","","","","","",""
"html-keyboard-response","116","358742","0.0-5.0-2.36","LF","s52728tqhv","1536","864","0","0","0","6014777b8a88c449408352c5","","null","","","learningBlock1","","","","<div style=""font-size:60px;""> </div>","null","LF","learning/Slide37.JPG","This is a tob:","","",""
"html-keyboard-response","117","359762","0.0-5.0-0.37","LF","s52728tqhv","1536","864","0","0","0","6014777b8a88c449408352c5","","null","","","learningBlock1","","","","This is a wug:","null","","","","","",""
"image-keyboard-response","118","360101","0.0-5.0-1.37","LF","s52728tqhv","1536","864","0","0","0","6014777b8a88c449408352c5","","null","","","","","","","learning/Slide38.JPG","null","","","","","",""
"html-keyboard-response","119","361102","0.0-5.0-2.37","LF","s52728tqhv","1536","864","0","0","0","6014777b8a88c449408352c5","","null","","","learningBlock1","","","","<div style=""font-size:60px;""> </div>","null","LF","learning/Slide38.JPG","This is a wug:","","",""
"html-keyboard-response","120","362112","0.0-5.0-0.38","LF","s52728tqhv","1536","864","0","0","0","6014777b8a88c449408352c5","","null","","","learningBlock1","","","","This is a bim:","null","","","","","",""
"image-keyboard-response","121","362450","0.0-5.0-1.38","LF","s52728tqhv","1536","864","0","0","0","6014777b8a88c449408352c5","","null","","","","","","","learning/Slide39.JPG","null","","","","","",""
"html-keyboard-response","122","363462","0.0-5.0-2.38","LF","s52728tqhv","1536","864","0","0","0","6014777b8a88c449408352c5","","null","","","learningBlock1","","","","<div style=""font-size:60px;""> </div>","null","LF","learning/Slide39.JPG","This is a bim:","","",""
"html-keyboard-response","123","364482","0.0-5.0-0.39","LF","s52728tqhv","1536","864","0","0","0","6014777b8a88c449408352c5","","null","","","learningBlock1","","","","This is a tob:","null","","","","","",""
"image-keyboard-response","124","364832","0.0-5.0-1.39","LF","s52728tqhv","1536","864","0","0","0","6014777b8a88c449408352c5","","null","","","","","","","learning/Slide40.JPG","null","","","","","",""
"html-keyboard-response","125","365852","0.0-5.0-2.39","LF","s52728tqhv","1536","864","0","0","0","6014777b8a88c449408352c5","","null","","","learningBlock1","","","","<div style=""font-size:60px;""> </div>","null","LF","learning/Slide40.JPG","This is a tob:","","",""
"html-keyboard-response","126","366862","0.0-5.0-0.40","LF","s52728tqhv","1536","864","0","0","0","6014777b8a88c449408352c5","","null","","","learningBlock1","","","","This is a bim:","null","","","","","",""
"image-keyboard-response","127","367198","0.0-5.0-1.40","LF","s52728tqhv","1536","864","0","0","0","6014777b8a88c449408352c5","","null","","","","","","","learning/Slide41.JPG","null","","","","","",""
"html-keyboard-response","128","368212","0.0-5.0-2.40","LF","s52728tqhv","1536","864","0","0","0","6014777b8a88c449408352c5","","null","","","learningBlock1","","","","<div style=""font-size:60px;""> </div>","null","LF","learning/Slide41.JPG","This is a bim:","","",""
"html-keyboard-response","129","369233","0.0-5.0-0.41","LF","s52728tqhv","1536","864","0","0","0","6014777b8a88c449408352c5","","null","","","learningBlock1","","","","This is a dep:","null","","","","","",""
"image-keyboard-response","130","369581","0.0-5.0-1.41","LF","s52728tqhv","1536","864","0","0","0","6014777b8a88c449408352c5","","null","","","","","","","learning/Slide42.JPG","null","","","","","",""
"html-keyboard-response","131","370582","0.0-5.0-2.41","LF","s52728tqhv","1536","864","0","0","0","6014777b8a88c449408352c5","","null","","","learningBlock1","","","","<div style=""font-size:60px;""> </div>","null","LF","learning/Slide42.JPG","This is a dep:","","",""
"html-keyboard-response","132","371603","0.0-5.0-0.42","LF","s52728tqhv","1536","864","0","0","0","6014777b8a88c449408352c5","","null","","","learningBlock1","","","","This is a wug:","null","","","","","",""
"image-keyboard-response","133","371945","0.0-5.0-1.42","LF","s52728tqhv","1536","864","0","0","0","6014777b8a88c449408352c5","","null","","","","","","","learning/Slide43.JPG","null","","","","","",""
"html-keyboard-response","134","372963","0.0-5.0-2.42","LF","s52728tqhv","1536","864","0","0","0","6014777b8a88c449408352c5","","null","","","learningBlock1","","","","<div style=""font-size:60px;""> </div>","null","LF","learning/Slide43.JPG","This is a wug:","","",""
"html-keyboard-response","135","373972","0.0-5.0-0.43","LF","s52728tqhv","1536","864","0","0","0","6014777b8a88c449408352c5","","null","","","learningBlock1","","","","This is a bim:","null","","","","","",""
"image-keyboard-response","136","374312","0.0-5.0-1.43","LF","s52728tqhv","1536","864","0","0","0","6014777b8a88c449408352c5","","null","","","","","","","learning/Slide44.JPG","null","","","","","",""
"html-keyboard-response","137","375333","0.0-5.0-2.43","LF","s52728tqhv","1536","864","0","0","0","6014777b8a88c449408352c5","","null","","","learningBlock1","","","","<div style=""font-size:60px;""> </div>","null","LF","learning/Slide44.JPG","This is a bim:","","",""
"html-keyboard-response","138","376342","0.0-5.0-0.44","LF","s52728tqhv","1536","864","0","0","0","6014777b8a88c449408352c5","","null","","","learningBlock1","","","","This is a wug:","null","","","","","",""
"image-keyboard-response","139","376678","0.0-5.0-1.44","LF","s52728tqhv","1536","864","0","0","0","6014777b8a88c449408352c5","","null","","","","","","","learning/Slide45.JPG","null","","","","","",""
"html-keyboard-response","140","377692","0.0-5.0-2.44","LF","s52728tqhv","1536","864","0","0","0","6014777b8a88c449408352c5","","null","","","learningBlock1","","","","<div style=""font-size:60px;""> </div>","null","LF","learning/Slide45.JPG","This is a wug:","","",""
"html-keyboard-response","141","378712","0.0-5.0-0.45","LF","s52728tqhv","1536","864","0","0","0","6014777b8a88c449408352c5","","null","","","learningBlock1","","","","This is a dep:","null","","","","","",""
"image-keyboard-response","142","379060","0.0-5.0-1.45","LF","s52728tqhv","1536","864","0","0","0","6014777b8a88c449408352c5","","null","","","","","","","learning/Slide46.JPG","null","","","","","",""
"html-keyboard-response","143","380073","0.0-5.0-2.45","LF","s52728tqhv","1536","864","0","0","0","6014777b8a88c449408352c5","","null","","","learningBlock1","","","","<div style=""font-size:60px;""> </div>","null","LF","learning/Slide46.JPG","This is a dep:","","",""
"html-keyboard-response","144","381092","0.0-5.0-0.46","LF","s52728tqhv","1536","864","0","0","0","6014777b8a88c449408352c5","","null","","","learningBlock1","","","","This is a tob:","null","","","","","",""
"image-keyboard-response","145","381443","0.0-5.0-1.46","LF","s52728tqhv","1536","864","0","0","0","6014777b8a88c449408352c5","","null","","","","","","","learning/Slide47.JPG","null","","","","","",""
"html-keyboard-response","146","382452","0.0-5.0-2.46","LF","s52728tqhv","1536","864","0","0","0","6014777b8a88c449408352c5","","null","","","learningBlock1","","","","<div style=""font-size:60px;""> </div>","null","LF","learning/Slide47.JPG","This is a tob:","","",""
"html-keyboard-response","147","383473","0.0-5.0-0.47","LF","s52728tqhv","1536","864","0","0","0","6014777b8a88c449408352c5","","null","","","learningBlock1","","","","This is a bim:","null","","","","","",""
"image-keyboard-response","148","383808","0.0-5.0-1.47","LF","s52728tqhv","1536","864","0","0","0","6014777b8a88c449408352c5","","null","","","","","","","learning/Slide48.JPG","null","","","","","",""
"html-keyboard-response","149","384822","0.0-5.0-2.47","LF","s52728tqhv","1536","864","0","0","0","6014777b8a88c449408352c5","","null","","","learningBlock1","","","","<div style=""font-size:60px;""> </div>","null","LF","learning/Slide48.JPG","This is a bim:","","",""
"html-keyboard-response","150","385834","0.0-5.0-0.48","LF","s52728tqhv","1536","864","0","0","0","6014777b8a88c449408352c5","","null","","","learningBlock1","","","","This is a dep:","null","","","","","",""
"image-keyboard-response","151","386174","0.0-5.0-1.48","LF","s52728tqhv","1536","864","0","0","0","6014777b8a88c449408352c5","","null","","","","","","","learning/Slide49.JPG","null","","","","","",""
"html-keyboard-response","152","387183","0.0-5.0-2.48","LF","s52728tqhv","1536","864","0","0","0","6014777b8a88c449408352c5","","null","","","learningBlock1","","","","<div style=""font-size:60px;""> </div>","null","LF","learning/Slide49.JPG","This is a dep:","","",""
"html-keyboard-response","153","388193","0.0-5.0-0.49","LF","s52728tqhv","1536","864","0","0","0","6014777b8a88c449408352c5","","null","","","learningBlock1","","","","This is a tob:","null","","","","","",""
"image-keyboard-response","154","388541","0.0-5.0-1.49","LF","s52728tqhv","1536","864","0","0","0","6014777b8a88c449408352c5","","null","","","","","","","learning/Slide50.JPG","null","","","","","",""
"html-keyboard-response","155","389553","0.0-5.0-2.49","LF","s52728tqhv","1536","864","0","0","0","6014777b8a88c449408352c5","","null","","","learningBlock1","","","","<div style=""font-size:60px;""> </div>","null","LF","learning/Slide50.JPG","This is a tob:","","",""
"html-keyboard-response","156","390563","0.0-5.0-0.50","LF","s52728tqhv","1536","864","0","0","0","6014777b8a88c449408352c5","","null","","","learningBlock1","","","","This is a bim:","null","","","","","",""
"image-keyboard-response","157","390906","0.0-5.0-1.50","LF","s52728tqhv","1536","864","0","0","0","6014777b8a88c449408352c5","","null","","","","","","","learning/Slide51.JPG","null","","","","","",""
"html-keyboard-response","158","391909","0.0-5.0-2.50","LF","s52728tqhv","1536","864","0","0","0","6014777b8a88c449408352c5","","null","","","learningBlock1","","","","<div style=""font-size:60px;""> </div>","null","LF","learning/Slide51.JPG","This is a bim:","","",""
"html-keyboard-response","159","392922","0.0-5.0-0.51","LF","s52728tqhv","1536","864","0","0","0","6014777b8a88c449408352c5","","null","","","learningBlock1","","","","This is a wug:","null","","","","","",""
"image-keyboard-response","160","393272","0.0-5.0-1.51","LF","s52728tqhv","1536","864","0","0","0","6014777b8a88c449408352c5","","null","","","","","","","learning/Slide52.JPG","null","","","","","",""
"html-keyboard-response","161","394292","0.0-5.0-2.51","LF","s52728tqhv","1536","864","0","0","0","6014777b8a88c449408352c5","","null","","","learningBlock1","","","","<div style=""font-size:60px;""> </div>","null","LF","learning/Slide52.JPG","This is a wug:","","",""
"html-keyboard-response","162","395313","0.0-5.0-0.52","LF","s52728tqhv","1536","864","0","0","0","6014777b8a88c449408352c5","","null","","","learningBlock1","","","","This is a tob:","null","","","","","",""
"image-keyboard-response","163","395653","0.0-5.0-1.52","LF","s52728tqhv","1536","864","0","0","0","6014777b8a88c449408352c5","","null","","","","","","","learning/Slide53.JPG","null","","","","","",""
"html-keyboard-response","164","396662","0.0-5.0-2.52","LF","s52728tqhv","1536","864","0","0","0","6014777b8a88c449408352c5","","null","","","learningBlock1","","","","<div style=""font-size:60px;""> </div>","null","LF","learning/Slide53.JPG","This is a tob:","","",""
"html-keyboard-response","165","397672","0.0-5.0-0.53","LF","s52728tqhv","1536","864","0","0","0","6014777b8a88c449408352c5","","null","","","learningBlock1","","","","This is a dep:","null","","","","","",""
"image-keyboard-response","166","398021","0.0-5.0-1.53","LF","s52728tqhv","1536","864","0","0","0","6014777b8a88c449408352c5","","null","","","","","","","learning/Slide54.JPG","null","","","","","",""
"html-keyboard-response","167","399043","0.0-5.0-2.53","LF","s52728tqhv","1536","864","0","0","0","6014777b8a88c449408352c5","","null","","","learningBlock1","","","","<div style=""font-size:60px;""> </div>","null","LF","learning/Slide54.JPG","This is a dep:","","",""
"html-keyboard-response","168","400062","0.0-5.0-0.54","LF","s52728tqhv","1536","864","0","0","0","6014777b8a88c449408352c5","","null","","","learningBlock1","","","","This is a bim:","null","","","","","",""
"image-keyboard-response","169","400403","0.0-5.0-1.54","LF","s52728tqhv","1536","864","0","0","0","6014777b8a88c449408352c5","","null","","","","","","","learning/Slide55.JPG","null","","","","","",""
"html-keyboard-response","170","401412","0.0-5.0-2.54","LF","s52728tqhv","1536","864","0","0","0","6014777b8a88c449408352c5","","null","","","learningBlock1","","","","<div style=""font-size:60px;""> </div>","null","LF","learning/Slide55.JPG","This is a bim:","","",""
"html-keyboard-response","171","402432","0.0-5.0-0.55","LF","s52728tqhv","1536","864","0","0","0","6014777b8a88c449408352c5","","null","","","learningBlock1","","","","This is a tob:","null","","","","","",""
"image-keyboard-response","172","402769","0.0-5.0-1.55","LF","s52728tqhv","1536","864","0","0","0","6014777b8a88c449408352c5","","null","","","","","","","learning/Slide56.JPG","null","","","","","",""
"html-keyboard-response","173","403772","0.0-5.0-2.55","LF","s52728tqhv","1536","864","0","0","0","6014777b8a88c449408352c5","","null","","","learningBlock1","","","","<div style=""font-size:60px;""> </div>","null","LF","learning/Slide56.JPG","This is a tob:","","",""
"html-keyboard-response","174","404782","0.0-5.0-0.56","LF","s52728tqhv","1536","864","0","0","0","6014777b8a88c449408352c5","","null","","","learningBlock1","","","","This is a dep:","null","","","","","",""
"image-keyboard-response","175","405119","0.0-5.0-1.56","LF","s52728tqhv","1536","864","0","0","0","6014777b8a88c449408352c5","","null","","","","","","","learning/Slide57.JPG","null","","","","","",""
"html-keyboard-response","176","406133","0.0-5.0-2.56","LF","s52728tqhv","1536","864","0","0","0","6014777b8a88c449408352c5","","null","","","learningBlock1","","","","<div style=""font-size:60px;""> </div>","null","LF","learning/Slide57.JPG","This is a dep:","","",""
"html-keyboard-response","177","407143","0.0-5.0-0.57","LF","s52728tqhv","1536","864","0","0","0","6014777b8a88c449408352c5","","null","","","learningBlock1","","","","This is a wug:","null","","","","","",""
"image-keyboard-response","178","407482","0.0-5.0-1.57","LF","s52728tqhv","1536","864","0","0","0","6014777b8a88c449408352c5","","null","","","","","","","learning/Slide58.JPG","null","","","","","",""
"html-keyboard-response","179","408502","0.0-5.0-2.57","LF","s52728tqhv","1536","864","0","0","0","6014777b8a88c449408352c5","","null","","","learningBlock1","","","","<div style=""font-size:60px;""> </div>","null","LF","learning/Slide58.JPG","This is a wug:","","",""
"html-keyboard-response","180","409523","0.0-5.0-0.58","LF","s52728tqhv","1536","864","0","0","0","6014777b8a88c449408352c5","","null","","","learningBlock1","","","","This is a dep:","null","","","","","",""
"image-keyboard-response","181","409866","0.0-5.0-1.58","LF","s52728tqhv","1536","864","0","0","0","6014777b8a88c449408352c5","","null","","","","","","","learning/Slide59.JPG","null","","","","","",""
"html-keyboard-response","182","410872","0.0-5.0-2.58","LF","s52728tqhv","1536","864","0","0","0","6014777b8a88c449408352c5","","null","","","learningBlock1","","","","<div style=""font-size:60px;""> </div>","null","LF","learning/Slide59.JPG","This is a dep:","","",""
"html-keyboard-response","183","411893","0.0-5.0-0.59","LF","s52728tqhv","1536","864","0","0","0","6014777b8a88c449408352c5","","null","","","learningBlock1","","","","This is a wug:","null","","","","","",""
"image-keyboard-response","184","412233","0.0-5.0-1.59","LF","s52728tqhv","1536","864","0","0","0","6014777b8a88c449408352c5","","null","","","","","","","learning/Slide60.JPG","null","","","","","",""
"html-keyboard-response","185","413242","0.0-5.0-2.59","LF","s52728tqhv","1536","864","0","0","0","6014777b8a88c449408352c5","","null","","","learningBlock1","","","","<div style=""font-size:60px;""> </div>","null","LF","learning/Slide60.JPG","This is a wug:","","",""
"html-keyboard-response","186","414262","0.0-5.0-0.60","LF","s52728tqhv","1536","864","0","0","0","6014777b8a88c449408352c5","","null","","","learningBlock1","","","","This is a bim:","null","","","","","",""
"image-keyboard-response","187","414599","0.0-5.0-1.60","LF","s52728tqhv","1536","864","0","0","0","6014777b8a88c449408352c5","","null","","","","","","","learning/Slide61.JPG","null","","","","","",""
"html-keyboard-response","188","415613","0.0-5.0-2.60","LF","s52728tqhv","1536","864","0","0","0","6014777b8a88c449408352c5","","null","","","learningBlock1","","","","<div style=""font-size:60px;""> </div>","null","LF","learning/Slide61.JPG","This is a bim:","","",""
"html-keyboard-response","189","416632","0.0-5.0-0.61","LF","s52728tqhv","1536","864","0","0","0","6014777b8a88c449408352c5","","null","","","learningBlock1","","","","This is a dep:","null","","","","","",""
"image-keyboard-response","190","416981","0.0-5.0-1.61","LF","s52728tqhv","1536","864","0","0","0","6014777b8a88c449408352c5","","null","","","","","","","learning/Slide62.JPG","null","","","","","",""
"html-keyboard-response","191","417994","0.0-5.0-2.61","LF","s52728tqhv","1536","864","0","0","0","6014777b8a88c449408352c5","","null","","","learningBlock1","","","","<div style=""font-size:60px;""> </div>","null","LF","learning/Slide62.JPG","This is a dep:","","",""
"html-keyboard-response","192","419012","0.0-5.0-0.62","LF","s52728tqhv","1536","864","0","0","0","6014777b8a88c449408352c5","","null","","","learningBlock1","","","","This is a bim:","null","","","","","",""
"image-keyboard-response","193","419363","0.0-5.0-1.62","LF","s52728tqhv","1536","864","0","0","0","6014777b8a88c449408352c5","","null","","","","","","","learning/Slide63.JPG","null","","","","","",""
"html-keyboard-response","194","420373","0.0-5.0-2.62","LF","s52728tqhv","1536","864","0","0","0","6014777b8a88c449408352c5","","null","","","learningBlock1","","","","<div style=""font-size:60px;""> </div>","null","LF","learning/Slide63.JPG","This is a bim:","","",""
"html-keyboard-response","195","421383","0.0-5.0-0.63","LF","s52728tqhv","1536","864","0","0","0","6014777b8a88c449408352c5","","null","","","learningBlock1","","","","This is a tob:","null","","","","","",""
"image-keyboard-response","196","421730","0.0-5.0-1.63","LF","s52728tqhv","1536","864","0","0","0","6014777b8a88c449408352c5","","null","","","","","","","learning/Slide64.JPG","null","","","","","",""
"html-keyboard-response","197","422733","0.0-5.0-2.63","LF","s52728tqhv","1536","864","0","0","0","6014777b8a88c449408352c5","","null","","","learningBlock1","","","","<div style=""font-size:60px;""> </div>","null","LF","learning/Slide64.JPG","This is a tob:","","",""
"html-keyboard-response","198","423753","0.0-5.0-0.64","LF","s52728tqhv","1536","864","0","0","0","6014777b8a88c449408352c5","","null","","","learningBlock1","","","","This is a wug:","null","","","","","",""
"image-keyboard-response","199","424096","0.0-5.0-1.64","LF","s52728tqhv","1536","864","0","0","0","6014777b8a88c449408352c5","","null","","","","","","","learning/Slide65.JPG","null","","","","","",""
"html-keyboard-response","200","425102","0.0-5.0-2.64","LF","s52728tqhv","1536","864","0","0","0","6014777b8a88c449408352c5","","null","","","learningBlock1","","","","<div style=""font-size:60px;""> </div>","null","LF","learning/Slide65.JPG","This is a wug:","","",""
"html-keyboard-response","201","426122","0.0-5.0-0.65","LF","s52728tqhv","1536","864","0","0","0","6014777b8a88c449408352c5","","null","","","learningBlock1","","","","This is a dep:","null","","","","","",""
"image-keyboard-response","202","426461","0.0-5.0-1.65","LF","s52728tqhv","1536","864","0","0","0","6014777b8a88c449408352c5","","null","","","","","","","learning/Slide66.JPG","null","","","","","",""
"html-keyboard-response","203","427472","0.0-5.0-2.65","LF","s52728tqhv","1536","864","0","0","0","6014777b8a88c449408352c5","","null","","","learningBlock1","","","","<div style=""font-size:60px;""> </div>","null","LF","learning/Slide66.JPG","This is a dep:","","",""
"html-keyboard-response","204","428493","0.0-5.0-0.66","LF","s52728tqhv","1536","864","0","0","0","6014777b8a88c449408352c5","","null","","","learningBlock1","","","","This is a tob:","null","","","","","",""
"image-keyboard-response","205","428843","0.0-5.0-1.66","LF","s52728tqhv","1536","864","0","0","0","6014777b8a88c449408352c5","","null","","","","","","","learning/Slide67.JPG","null","","","","","",""
"html-keyboard-response","206","429853","0.0-5.0-2.66","LF","s52728tqhv","1536","864","0","0","0","6014777b8a88c449408352c5","","null","","","learningBlock1","","","","<div style=""font-size:60px;""> </div>","null","LF","learning/Slide67.JPG","This is a tob:","","",""
"html-keyboard-response","207","430862","0.0-5.0-0.67","LF","s52728tqhv","1536","864","0","0","0","6014777b8a88c449408352c5","","null","","","learningBlock1","","","","This is a wug:","null","","","","","",""
"image-keyboard-response","208","431209","0.0-5.0-1.67","LF","s52728tqhv","1536","864","0","0","0","6014777b8a88c449408352c5","","null","","","","","","","learning/Slide68.JPG","null","","","","","",""
"html-keyboard-response","209","432222","0.0-5.0-2.67","LF","s52728tqhv","1536","864","0","0","0","6014777b8a88c449408352c5","","null","","","learningBlock1","","","","<div style=""font-size:60px;""> </div>","null","LF","learning/Slide68.JPG","This is a wug:","","",""
"html-keyboard-response","210","433243","0.0-5.0-0.68","LF","s52728tqhv","1536","864","0","0","0","6014777b8a88c449408352c5","","null","","","learningBlock1","","","","This is a tob:","null","","","","","",""
"image-keyboard-response","211","433592","0.0-5.0-1.68","LF","s52728tqhv","1536","864","0","0","0","6014777b8a88c449408352c5","","null","","","","","","","learning/Slide69.JPG","null","","","","","",""
"html-keyboard-response","212","434602","0.0-5.0-2.68","LF","s52728tqhv","1536","864","0","0","0","6014777b8a88c449408352c5","","null","","","learningBlock1","","","","<div style=""font-size:60px;""> </div>","null","LF","learning/Slide69.JPG","This is a tob:","","",""
"html-keyboard-response","213","435623","0.0-5.0-0.69","LF","s52728tqhv","1536","864","0","0","0","6014777b8a88c449408352c5","","null","","","learningBlock1","","","","This is a dep:","null","","","","","",""
"image-keyboard-response","214","435973","0.0-5.0-1.69","LF","s52728tqhv","1536","864","0","0","0","6014777b8a88c449408352c5","","null","","","","","","","learning/Slide70.JPG","null","","","","","",""
"html-keyboard-response","215","436982","0.0-5.0-2.69","LF","s52728tqhv","1536","864","0","0","0","6014777b8a88c449408352c5","","null","","","learningBlock1","","","","<div style=""font-size:60px;""> </div>","null","LF","learning/Slide70.JPG","This is a dep:","","",""
"html-keyboard-response","216","437992","0.0-5.0-0.70","LF","s52728tqhv","1536","864","0","0","0","6014777b8a88c449408352c5","","null","","","learningBlock1","","","","This is a wug:","null","","","","","",""
"image-keyboard-response","217","438340","0.0-5.0-1.70","LF","s52728tqhv","1536","864","0","0","0","6014777b8a88c449408352c5","","null","","","","","","","learning/Slide71.JPG","null","","","","","",""
"html-keyboard-response","218","439352","0.0-5.0-2.70","LF","s52728tqhv","1536","864","0","0","0","6014777b8a88c449408352c5","","null","","","learningBlock1","","","","<div style=""font-size:60px;""> </div>","null","LF","learning/Slide71.JPG","This is a wug:","","",""
"html-keyboard-response","219","440372","0.0-5.0-0.71","LF","s52728tqhv","1536","864","0","0","0","6014777b8a88c449408352c5","","null","","","learningBlock1","","","","This is a bim:","null","","","","","",""
"image-keyboard-response","220","440723","0.0-5.0-1.71","LF","s52728tqhv","1536","864","0","0","0","6014777b8a88c449408352c5","","null","","","","","","","learning/Slide72.JPG","null","","","","","",""
"html-keyboard-response","221","441743","0.0-5.0-2.71","LF","s52728tqhv","1536","864","0","0","0","6014777b8a88c449408352c5","","null","","","learningBlock1","","","","<div style=""font-size:60px;""> </div>","null","LF","learning/Slide72.JPG","This is a bim:","","",""
"html-keyboard-response","222","442752","0.0-5.0-0.72","LF","s52728tqhv","1536","864","0","0","0","6014777b8a88c449408352c5","","null","","","learningBlock1","","","","This is a wug:","null","","","","","",""
"image-keyboard-response","223","443089","0.0-5.0-1.72","LF","s52728tqhv","1536","864","0","0","0","6014777b8a88c449408352c5","","null","","","","","","","learning/Slide73.JPG","null","","","","","",""
"html-keyboard-response","224","444102","0.0-5.0-2.72","LF","s52728tqhv","1536","864","0","0","0","6014777b8a88c449408352c5","","null","","","learningBlock1","","","","<div style=""font-size:60px;""> </div>","null","LF","learning/Slide73.JPG","This is a wug:","","",""
"html-keyboard-response","225","445112","0.0-5.0-0.73","LF","s52728tqhv","1536","864","0","0","0","6014777b8a88c449408352c5","","null","","","learningBlock1","","","","This is a dep:","null","","","","","",""
"image-keyboard-response","226","445453","0.0-5.0-1.73","LF","s52728tqhv","1536","864","0","0","0","6014777b8a88c449408352c5","","null","","","","","","","learning/Slide74.JPG","null","","","","","",""
"html-keyboard-response","227","446463","0.0-5.0-2.73","LF","s52728tqhv","1536","864","0","0","0","6014777b8a88c449408352c5","","null","","","learningBlock1","","","","<div style=""font-size:60px;""> </div>","null","LF","learning/Slide74.JPG","This is a dep:","","",""
"html-keyboard-response","228","447482","0.0-5.0-0.74","LF","s52728tqhv","1536","864","0","0","0","6014777b8a88c449408352c5","","null","","","learningBlock1","","","","This is a tob:","null","","","","","",""
"image-keyboard-response","229","447820","0.0-5.0-1.74","LF","s52728tqhv","1536","864","0","0","0","6014777b8a88c449408352c5","","null","","","","","","","learning/Slide75.JPG","null","","","","","",""
"html-keyboard-response","230","448832","0.0-5.0-2.74","LF","s52728tqhv","1536","864","0","0","0","6014777b8a88c449408352c5","","null","","","learningBlock1","","","","<div style=""font-size:60px;""> </div>","null","LF","learning/Slide75.JPG","This is a tob:","","",""
"html-keyboard-response","231","449852","0.0-5.0-0.75","LF","s52728tqhv","1536","864","0","0","0","6014777b8a88c449408352c5","","null","","","learningBlock1","","","","This is a bim:","null","","","","","",""
"image-keyboard-response","232","450203","0.0-5.0-1.75","LF","s52728tqhv","1536","864","0","0","0","6014777b8a88c449408352c5","","null","","","","","","","learning/Slide76.JPG","null","","","","","",""
"html-keyboard-response","233","451213","0.0-5.0-2.75","LF","s52728tqhv","1536","864","0","0","0","6014777b8a88c449408352c5","","null","","","learningBlock1","","","","<div style=""font-size:60px;""> </div>","null","LF","learning/Slide76.JPG","This is a bim:","","",""
"html-keyboard-response","234","452222","0.0-5.0-0.76","LF","s52728tqhv","1536","864","0","0","0","6014777b8a88c449408352c5","","null","","","learningBlock1","","","","This is a tob:","null","","","","","",""
"image-keyboard-response","235","452569","0.0-5.0-1.76","LF","s52728tqhv","1536","864","0","0","0","6014777b8a88c449408352c5","","null","","","","","","","learning/Slide77.JPG","null","","","","","",""
"html-keyboard-response","236","453583","0.0-5.0-2.76","LF","s52728tqhv","1536","864","0","0","0","6014777b8a88c449408352c5","","null","","","learningBlock1","","","","<div style=""font-size:60px;""> </div>","null","LF","learning/Slide77.JPG","This is a tob:","","",""
"html-keyboard-response","237","454603","0.0-5.0-0.77","LF","s52728tqhv","1536","864","0","0","0","6014777b8a88c449408352c5","","null","","","learningBlock1","","","","This is a wug:","null","","","","","",""
"image-keyboard-response","238","454951","0.0-5.0-1.77","LF","s52728tqhv","1536","864","0","0","0","6014777b8a88c449408352c5","","null","","","","","","","learning/Slide78.JPG","null","","","","","",""
"html-keyboard-response","239","455972","0.0-5.0-2.77","LF","s52728tqhv","1536","864","0","0","0","6014777b8a88c449408352c5","","null","","","learningBlock1","","","","<div style=""font-size:60px;""> </div>","null","LF","learning/Slide78.JPG","This is a wug:","","",""
"html-keyboard-response","240","456982","0.0-5.0-0.78","LF","s52728tqhv","1536","864","0","0","0","6014777b8a88c449408352c5","","null","","","learningBlock1","","","","This is a bim:","null","","","","","",""
"image-keyboard-response","241","457333","0.0-5.0-1.78","LF","s52728tqhv","1536","864","0","0","0","6014777b8a88c449408352c5","","null","","","","","","","learning/Slide79.JPG","null","","","","","",""
"html-keyboard-response","242","458352","0.0-5.0-2.78","LF","s52728tqhv","1536","864","0","0","0","6014777b8a88c449408352c5","","null","","","learningBlock1","","","","<div style=""font-size:60px;""> </div>","null","LF","learning/Slide79.JPG","This is a bim:","","",""
"html-keyboard-response","243","459373","0.0-5.0-0.79","LF","s52728tqhv","1536","864","0","0","0","6014777b8a88c449408352c5","","null","","","learningBlock1","","","","This is a tob:","null","","","","","",""
"image-keyboard-response","244","459715","0.0-5.0-1.79","LF","s52728tqhv","1536","864","0","0","0","6014777b8a88c449408352c5","","null","","","","","","","learning/Slide80.JPG","null","","","","","",""
"html-keyboard-response","245","460722","0.0-5.0-2.79","LF","s52728tqhv","1536","864","0","0","0","6014777b8a88c449408352c5","","null","","","learningBlock1","","","","<div style=""font-size:60px;""> </div>","null","LF","learning/Slide80.JPG","This is a tob:","","",""
"instructions","246","470324","0.0-6.0","LF","s52728tqhv","1536","864","0","0","0","6014777b8a88c449408352c5","","NA","","[{""page_index"":0,""viewing_time"":9599}]","instructions","","","","","","","","","","",""
"html-keyboard-response","247","471343","0.0-7.0-0.0","LF","s52728tqhv","1536","864","0","0","0","6014777b8a88c449408352c5","","null","","","learningBlock2","","","","This is a wug:","null","","","","","",""
"image-keyboard-response","248","471679","0.0-7.0-1.0","LF","s52728tqhv","1536","864","0","0","0","6014777b8a88c449408352c5","","null","","","","","","","learning/Slide81.JPG","null","","","","","",""
"html-keyboard-response","249","472693","0.0-7.0-2.0","LF","s52728tqhv","1536","864","0","0","0","6014777b8a88c449408352c5","","null","","","learningBlock2","","","","<div style=""font-size:60px;""> </div>","null","LF","learning/Slide81.JPG","This is a wug:","","",""
"html-keyboard-response","250","473712","0.0-7.0-0.1","LF","s52728tqhv","1536","864","0","0","0","6014777b8a88c449408352c5","","null","","","learningBlock2","","","","This is a bim:","null","","","","","",""
"image-keyboard-response","251","474062","0.0-7.0-1.1","LF","s52728tqhv","1536","864","0","0","0","6014777b8a88c449408352c5","","null","","","","","","","learning/Slide82.JPG","null","","","","","",""
"html-keyboard-response","252","475072","0.0-7.0-2.1","LF","s52728tqhv","1536","864","0","0","0","6014777b8a88c449408352c5","","null","","","learningBlock2","","","","<div style=""font-size:60px;""> </div>","null","LF","learning/Slide82.JPG","This is a bim:","","",""
"html-keyboard-response","253","476082","0.0-7.0-0.2","LF","s52728tqhv","1536","864","0","0","0","6014777b8a88c449408352c5","","null","","","learningBlock2","","","","This is a wug:","null","","","","","",""
"image-keyboard-response","254","476428","0.0-7.0-1.2","LF","s52728tqhv","1536","864","0","0","0","6014777b8a88c449408352c5","","null","","","","","","","learning/Slide83.JPG","null","","","","","",""
"html-keyboard-response","255","477442","0.0-7.0-2.2","LF","s52728tqhv","1536","864","0","0","0","6014777b8a88c449408352c5","","null","","","learningBlock2","","","","<div style=""font-size:60px;""> </div>","null","LF","learning/Slide83.JPG","This is a wug:","","",""
"html-keyboard-response","256","478462","0.0-7.0-0.3","LF","s52728tqhv","1536","864","0","0","0","6014777b8a88c449408352c5","","null","","","learningBlock2","","","","This is a dep:","null","","","","","",""
"image-keyboard-response","257","478810","0.0-7.0-1.3","LF","s52728tqhv","1536","864","0","0","0","6014777b8a88c449408352c5","","null","","","","","","","learning/Slide84.JPG","null","","","","","",""
"html-keyboard-response","258","479823","0.0-7.0-2.3","LF","s52728tqhv","1536","864","0","0","0","6014777b8a88c449408352c5","","null","","","learningBlock2","","","","<div style=""font-size:60px;""> </div>","null","LF","learning/Slide84.JPG","This is a dep:","","",""
"html-keyboard-response","259","480842","0.0-7.0-0.4","LF","s52728tqhv","1536","864","0","0","0","6014777b8a88c449408352c5","","null","","","learningBlock2","","","","This is a bim:","null","","","","","",""
"image-keyboard-response","260","481193","0.0-7.0-1.4","LF","s52728tqhv","1536","864","0","0","0","6014777b8a88c449408352c5","","null","","","","","","","learning/Slide85.JPG","null","","","","","",""
"html-keyboard-response","261","482203","0.0-7.0-2.4","LF","s52728tqhv","1536","864","0","0","0","6014777b8a88c449408352c5","","null","","","learningBlock2","","","","<div style=""font-size:60px;""> </div>","null","LF","learning/Slide85.JPG","This is a bim:","","",""
"html-keyboard-response","262","483213","0.0-7.0-0.5","LF","s52728tqhv","1536","864","0","0","0","6014777b8a88c449408352c5","","null","","","learningBlock2","","","","This is a tob:","null","","","","","",""
"image-keyboard-response","263","483558","0.0-7.0-1.5","LF","s52728tqhv","1536","864","0","0","0","6014777b8a88c449408352c5","","null","","","","","","","learning/Slide86.JPG","null","","","","","",""
"html-keyboard-response","264","484562","0.0-7.0-2.5","LF","s52728tqhv","1536","864","0","0","0","6014777b8a88c449408352c5","","null","","","learningBlock2","","","","<div style=""font-size:60px;""> </div>","null","LF","learning/Slide86.JPG","This is a tob:","","",""
"html-keyboard-response","265","485582","0.0-7.0-0.6","LF","s52728tqhv","1536","864","0","0","0","6014777b8a88c449408352c5","","null","","","learningBlock2","","","","This is a wug:","null","","","","","",""
"image-keyboard-response","266","485924","0.0-7.0-1.6","LF","s52728tqhv","1536","864","0","0","0","6014777b8a88c449408352c5","","null","","","","","","","learning/Slide87.JPG","null","","","","","",""
"html-keyboard-response","267","486943","0.0-7.0-2.6","LF","s52728tqhv","1536","864","0","0","0","6014777b8a88c449408352c5","","null","","","learningBlock2","","","","<div style=""font-size:60px;""> </div>","null","LF","learning/Slide87.JPG","This is a wug:","","",""
"html-keyboard-response","268","487962","0.0-7.0-0.7","LF","s52728tqhv","1536","864","0","0","0","6014777b8a88c449408352c5","","null","","","learningBlock2","","","","This is a tob:","null","","","","","",""
"image-keyboard-response","269","488306","0.0-7.0-1.7","LF","s52728tqhv","1536","864","0","0","0","6014777b8a88c449408352c5","","null","","","","","","","learning/Slide88.JPG","null","","","","","",""
"html-keyboard-response","270","489313","0.0-7.0-2.7","LF","s52728tqhv","1536","864","0","0","0","6014777b8a88c449408352c5","","null","","","learningBlock2","","","","<div style=""font-size:60px;""> </div>","null","LF","learning/Slide88.JPG","This is a tob:","","",""
"html-keyboard-response","271","490322","0.0-7.0-0.8","LF","s52728tqhv","1536","864","0","0","0","6014777b8a88c449408352c5","","null","","","learningBlock2","","","","This is a bim:","null","","","","","",""
"image-keyboard-response","272","490672","0.0-7.0-1.8","LF","s52728tqhv","1536","864","0","0","0","6014777b8a88c449408352c5","","null","","","","","","","learning/Slide89.JPG","null","","","","","",""
"html-keyboard-response","273","491692","0.0-7.0-2.8","LF","s52728tqhv","1536","864","0","0","0","6014777b8a88c449408352c5","","null","","","learningBlock2","","","","<div style=""font-size:60px;""> </div>","null","LF","learning/Slide89.JPG","This is a bim:","","",""
"html-keyboard-response","274","492703","0.0-7.0-0.9","LF","s52728tqhv","1536","864","0","0","0","6014777b8a88c449408352c5","","null","","","learningBlock2","","","","This is a dep:","null","","","","","",""
"image-keyboard-response","275","493038","0.0-7.0-1.9","LF","s52728tqhv","1536","864","0","0","0","6014777b8a88c449408352c5","","null","","","","","","","learning/Slide90.JPG","null","","","","","",""
"html-keyboard-response","276","494053","0.0-7.0-2.9","LF","s52728tqhv","1536","864","0","0","0","6014777b8a88c449408352c5","","null","","","learningBlock2","","","","<div style=""font-size:60px;""> </div>","null","LF","learning/Slide90.JPG","This is a dep:","","",""
"html-keyboard-response","277","495072","0.0-7.0-0.10","LF","s52728tqhv","1536","864","0","0","0","6014777b8a88c449408352c5","","null","","","learningBlock2","","","","This is a wug:","null","","","","","",""
"image-keyboard-response","278","495420","0.0-7.0-1.10","LF","s52728tqhv","1536","864","0","0","0","6014777b8a88c449408352c5","","null","","","","","","","learning/Slide91.JPG","null","","","","","",""
"html-keyboard-response","279","496433","0.0-7.0-2.10","LF","s52728tqhv","1536","864","0","0","0","6014777b8a88c449408352c5","","null","","","learningBlock2","","","","<div style=""font-size:60px;""> </div>","null","LF","learning/Slide91.JPG","This is a wug:","","",""
"html-keyboard-response","280","497453","0.0-7.0-0.11","LF","s52728tqhv","1536","864","0","0","0","6014777b8a88c449408352c5","","null","","","learningBlock2","","","","This is a tob:","null","","","","","",""
"image-keyboard-response","281","497802","0.0-7.0-1.11","LF","s52728tqhv","1536","864","0","0","0","6014777b8a88c449408352c5","","null","","","","","","","learning/Slide92.JPG","null","","","","","",""
"html-keyboard-response","282","498811","0.0-7.0-2.11","LF","s52728tqhv","1536","864","0","0","0","6014777b8a88c449408352c5","","null","","","learningBlock2","","","","<div style=""font-size:60px;""> </div>","null","LF","learning/Slide92.JPG","This is a tob:","","",""
"html-keyboard-response","283","499825","0.0-7.0-0.12","LF","s52728tqhv","1536","864","0","0","0","6014777b8a88c449408352c5","","null","","","learningBlock2","","","","This is a bim:","null","","","","","",""
"image-keyboard-response","284","500163","0.0-7.0-1.12","LF","s52728tqhv","1536","864","0","0","0","6014777b8a88c449408352c5","","null","","","","","","","learning/Slide93.JPG","null","","","","","",""
"html-keyboard-response","285","501167","0.0-7.0-2.12","LF","s52728tqhv","1536","864","0","0","0","6014777b8a88c449408352c5","","null","","","learningBlock2","","","","<div style=""font-size:60px;""> </div>","null","LF","learning/Slide93.JPG","This is a bim:","","",""
"html-keyboard-response","286","502171","0.0-7.0-0.13","LF","s52728tqhv","1536","864","0","0","0","6014777b8a88c449408352c5","","null","","","learningBlock2","","","","This is a tob:","null","","","","","",""
"image-keyboard-response","287","502519","0.0-7.0-1.13","LF","s52728tqhv","1536","864","0","0","0","6014777b8a88c449408352c5","","null","","","","","","","learning/Slide94.JPG","null","","","","","",""
"html-keyboard-response","288","503535","0.0-7.0-2.13","LF","s52728tqhv","1536","864","0","0","0","6014777b8a88c449408352c5","","null","","","learningBlock2","","","","<div style=""font-size:60px;""> </div>","null","LF","learning/Slide94.JPG","This is a tob:","","",""
"html-keyboard-response","289","504539","0.0-7.0-0.14","LF","s52728tqhv","1536","864","0","0","0","6014777b8a88c449408352c5","","null","","","learningBlock2","","","","This is a wug:","null","","","","","",""
"image-keyboard-response","290","504876","0.0-7.0-1.14","LF","s52728tqhv","1536","864","0","0","0","6014777b8a88c449408352c5","","null","","","","","","","learning/Slide95.JPG","null","","","","","",""
"html-keyboard-response","291","505882","0.0-7.0-2.14","LF","s52728tqhv","1536","864","0","0","0","6014777b8a88c449408352c5","","null","","","learningBlock2","","","","<div style=""font-size:60px;""> </div>","null","LF","learning/Slide95.JPG","This is a wug:","","",""
"html-keyboard-response","292","506886","0.0-7.0-0.15","LF","s52728tqhv","1536","864","0","0","0","6014777b8a88c449408352c5","","null","","","learningBlock2","","","","This is a tob:","null","","","","","",""
"image-keyboard-response","293","507225","0.0-7.0-1.15","LF","s52728tqhv","1536","864","0","0","0","6014777b8a88c449408352c5","","null","","","","","","","learning/Slide96.JPG","null","","","","","",""
"html-keyboard-response","294","508232","0.0-7.0-2.15","LF","s52728tqhv","1536","864","0","0","0","6014777b8a88c449408352c5","","null","","","learningBlock2","","","","<div style=""font-size:60px;""> </div>","null","LF","learning/Slide96.JPG","This is a tob:","","",""
"html-keyboard-response","295","509259","0.0-7.0-0.16","LF","s52728tqhv","1536","864","0","0","0","6014777b8a88c449408352c5","","null","","","learningBlock2","","","","This is a dep:","null","","","","","",""
"image-keyboard-response","296","509611","0.0-7.0-1.16","LF","s52728tqhv","1536","864","0","0","0","6014777b8a88c449408352c5","","null","","","","","","","learning/Slide97.JPG","null","","","","","",""
"html-keyboard-response","297","510617","0.0-7.0-2.16","LF","s52728tqhv","1536","864","0","0","0","6014777b8a88c449408352c5","","null","","","learningBlock2","","","","<div style=""font-size:60px;""> </div>","null","LF","learning/Slide97.JPG","This is a dep:","","",""
"html-keyboard-response","298","511621","0.0-7.0-0.17","LF","s52728tqhv","1536","864","0","0","0","6014777b8a88c449408352c5","","null","","","learningBlock2","","","","This is a bim:","null","","","","","",""
"image-keyboard-response","299","511964","0.0-7.0-1.17","LF","s52728tqhv","1536","864","0","0","0","6014777b8a88c449408352c5","","null","","","","","","","learning/Slide98.JPG","null","","","","","",""
"html-keyboard-response","300","512981","0.0-7.0-2.17","LF","s52728tqhv","1536","864","0","0","0","6014777b8a88c449408352c5","","null","","","learningBlock2","","","","<div style=""font-size:60px;""> </div>","null","LF","learning/Slide98.JPG","This is a bim:","","",""
"html-keyboard-response","301","513988","0.0-7.0-0.18","LF","s52728tqhv","1536","864","0","0","0","6014777b8a88c449408352c5","","null","","","learningBlock2","","","","This is a dep:","null","","","","","",""
"image-keyboard-response","302","514335","0.0-7.0-1.18","LF","s52728tqhv","1536","864","0","0","0","6014777b8a88c449408352c5","","null","","","","","","","learning/Slide99.JPG","null","","","","","",""
"html-keyboard-response","303","515341","0.0-7.0-2.18","LF","s52728tqhv","1536","864","0","0","0","6014777b8a88c449408352c5","","null","","","learningBlock2","","","","<div style=""font-size:60px;""> </div>","null","LF","learning/Slide99.JPG","This is a dep:","","",""
"html-keyboard-response","304","516363","0.0-7.0-0.19","LF","s52728tqhv","1536","864","0","0","0","6014777b8a88c449408352c5","","null","","","learningBlock2","","","","This is a bim:","null","","","","","",""
"image-keyboard-response","305","516712","0.0-7.0-1.19","LF","s52728tqhv","1536","864","0","0","0","6014777b8a88c449408352c5","","null","","","","","","","learning/Slide100.JPG","null","","","","","",""
"html-keyboard-response","306","517721","0.0-7.0-2.19","LF","s52728tqhv","1536","864","0","0","0","6014777b8a88c449408352c5","","null","","","learningBlock2","","","","<div style=""font-size:60px;""> </div>","null","LF","learning/Slide100.JPG","This is a bim:","","",""
"html-keyboard-response","307","518724","0.0-7.0-0.20","LF","s52728tqhv","1536","864","0","0","0","6014777b8a88c449408352c5","","null","","","learningBlock2","","","","This is a tob:","null","","","","","",""
"image-keyboard-response","308","519079","0.0-7.0-1.20","LF","s52728tqhv","1536","864","0","0","0","6014777b8a88c449408352c5","","null","","","","","","","learning/Slide101.JPG","null","","","","","",""
"html-keyboard-response","309","520081","0.0-7.0-2.20","LF","s52728tqhv","1536","864","0","0","0","6014777b8a88c449408352c5","","null","","","learningBlock2","","","","<div style=""font-size:60px;""> </div>","null","LF","learning/Slide101.JPG","This is a tob:","","",""
"html-keyboard-response","310","521093","0.0-7.0-0.21","LF","s52728tqhv","1536","864","0","0","0","6014777b8a88c449408352c5","","null","","","learningBlock2","","","","This is a bim:","null","","","","","",""
"image-keyboard-response","311","521428","0.0-7.0-1.21","LF","s52728tqhv","1536","864","0","0","0","6014777b8a88c449408352c5","","null","","","","","","","learning/Slide102.JPG","null","","","","","",""
"html-keyboard-response","312","522442","0.0-7.0-2.21","LF","s52728tqhv","1536","864","0","0","0","6014777b8a88c449408352c5","","null","","","learningBlock2","","","","<div style=""font-size:60px;""> </div>","null","LF","learning/Slide102.JPG","This is a bim:","","",""
"html-keyboard-response","313","523462","0.0-7.0-0.22","LF","s52728tqhv","1536","864","0","0","0","6014777b8a88c449408352c5","","null","","","learningBlock2","","","","This is a dep:","null","","","","","",""
"image-keyboard-response","314","523803","0.0-7.0-1.22","LF","s52728tqhv","1536","864","0","0","0","6014777b8a88c449408352c5","","null","","","","","","","learning/Slide103.JPG","null","","","","","",""
"html-keyboard-response","315","524823","0.0-7.0-2.22","LF","s52728tqhv","1536","864","0","0","0","6014777b8a88c449408352c5","","null","","","learningBlock2","","","","<div style=""font-size:60px;""> </div>","null","LF","learning/Slide103.JPG","This is a dep:","","",""
"html-keyboard-response","316","525840","0.0-7.0-0.23","LF","s52728tqhv","1536","864","0","0","0","6014777b8a88c449408352c5","","null","","","learningBlock2","","","","This is a tob:","null","","","","","",""
"image-keyboard-response","317","526178","0.0-7.0-1.23","LF","s52728tqhv","1536","864","0","0","0","6014777b8a88c449408352c5","","null","","","","","","","learning/Slide104.JPG","null","","","","","",""
"html-keyboard-response","318","527192","0.0-7.0-2.23","LF","s52728tqhv","1536","864","0","0","0","6014777b8a88c449408352c5","","null","","","learningBlock2","","","","<div style=""font-size:60px;""> </div>","null","LF","learning/Slide104.JPG","This is a tob:","","",""
"html-keyboard-response","319","528213","0.0-7.0-0.24","LF","s52728tqhv","1536","864","0","0","0","6014777b8a88c449408352c5","","null","","","learningBlock2","","","","This is a dep:","null","","","","","",""
"image-keyboard-response","320","528560","0.0-7.0-1.24","LF","s52728tqhv","1536","864","0","0","0","6014777b8a88c449408352c5","","null","","","","","","","learning/Slide105.JPG","null","","","","","",""
"html-keyboard-response","321","529563","0.0-7.0-2.24","LF","s52728tqhv","1536","864","0","0","0","6014777b8a88c449408352c5","","null","","","learningBlock2","","","","<div style=""font-size:60px;""> </div>","null","LF","learning/Slide105.JPG","This is a dep:","","",""
"html-keyboard-response","322","530572","0.0-7.0-0.25","LF","s52728tqhv","1536","864","0","0","0","6014777b8a88c449408352c5","","null","","","learningBlock2","","","","This is a wug:","null","","","","","",""
"image-keyboard-response","323","530909","0.0-7.0-1.25","LF","s52728tqhv","1536","864","0","0","0","6014777b8a88c449408352c5","","null","","","","","","","learning/Slide106.JPG","null","","","","","",""
"html-keyboard-response","324","531923","0.0-7.0-2.25","LF","s52728tqhv","1536","864","0","0","0","6014777b8a88c449408352c5","","null","","","learningBlock2","","","","<div style=""font-size:60px;""> </div>","null","LF","learning/Slide106.JPG","This is a wug:","","",""
"html-keyboard-response","325","532943","0.0-7.0-0.26","LF","s52728tqhv","1536","864","0","0","0","6014777b8a88c449408352c5","","null","","","learningBlock2","","","","This is a bim:","null","","","","","",""
"image-keyboard-response","326","533291","0.0-7.0-1.26","LF","s52728tqhv","1536","864","0","0","0","6014777b8a88c449408352c5","","null","","","","","","","learning/Slide107.JPG","null","","","","","",""
"html-keyboard-response","327","534308","0.0-7.0-2.26","LF","s52728tqhv","1536","864","0","0","0","6014777b8a88c449408352c5","","null","","","learningBlock2","","","","<div style=""font-size:60px;""> </div>","null","LF","learning/Slide107.JPG","This is a bim:","","",""
"html-keyboard-response","328","535321","0.0-7.0-0.27","LF","s52728tqhv","1536","864","0","0","0","6014777b8a88c449408352c5","","null","","","learningBlock2","","","","This is a dep:","null","","","","","",""
"image-keyboard-response","329","535665","0.0-7.0-1.27","LF","s52728tqhv","1536","864","0","0","0","6014777b8a88c449408352c5","","null","","","","","","","learning/Slide108.JPG","null","","","","","",""
"html-keyboard-response","330","536673","0.0-7.0-2.27","LF","s52728tqhv","1536","864","0","0","0","6014777b8a88c449408352c5","","null","","","learningBlock2","","","","<div style=""font-size:60px;""> </div>","null","LF","learning/Slide108.JPG","This is a dep:","","",""
"html-keyboard-response","331","537692","0.0-7.0-0.28","LF","s52728tqhv","1536","864","0","0","0","6014777b8a88c449408352c5","","null","","","learningBlock2","","","","This is a wug:","null","","","","","",""
"image-keyboard-response","332","538032","0.0-7.0-1.28","LF","s52728tqhv","1536","864","0","0","0","6014777b8a88c449408352c5","","null","","","","","","","learning/Slide109.JPG","null","","","","","",""
"html-keyboard-response","333","539052","0.0-7.0-2.28","LF","s52728tqhv","1536","864","0","0","0","6014777b8a88c449408352c5","","null","","","learningBlock2","","","","<div style=""font-size:60px;""> </div>","null","LF","learning/Slide109.JPG","This is a wug:","","",""
"html-keyboard-response","334","540062","0.0-7.0-0.29","LF","s52728tqhv","1536","864","0","0","0","6014777b8a88c449408352c5","","null","","","learningBlock2","","","","This is a bim:","null","","","","","",""
"image-keyboard-response","335","540404","0.0-7.0-1.29","LF","s52728tqhv","1536","864","0","0","0","6014777b8a88c449408352c5","","null","","","","","","","learning/Slide110.JPG","null","","","","","",""
"html-keyboard-response","336","541421","0.0-7.0-2.29","LF","s52728tqhv","1536","864","0","0","0","6014777b8a88c449408352c5","","null","","","learningBlock2","","","","<div style=""font-size:60px;""> </div>","null","LF","learning/Slide110.JPG","This is a bim:","","",""
"html-keyboard-response","337","542434","0.0-7.0-0.30","LF","s52728tqhv","1536","864","0","0","0","6014777b8a88c449408352c5","","null","","","learningBlock2","","","","This is a tob:","null","","","","","",""
"image-keyboard-response","338","542771","0.0-7.0-1.30","LF","s52728tqhv","1536","864","0","0","0","6014777b8a88c449408352c5","","null","","","","","","","learning/Slide111.JPG","null","","","","","",""
"html-keyboard-response","339","543787","0.0-7.0-2.30","LF","s52728tqhv","1536","864","0","0","0","6014777b8a88c449408352c5","","null","","","learningBlock2","","","","<div style=""font-size:60px;""> </div>","null","LF","learning/Slide111.JPG","This is a tob:","","",""
"html-keyboard-response","340","544802","0.0-7.0-0.31","LF","s52728tqhv","1536","864","0","0","0","6014777b8a88c449408352c5","","null","","","learningBlock2","","","","This is a wug:","null","","","","","",""
"image-keyboard-response","341","545137","0.0-7.0-1.31","LF","s52728tqhv","1536","864","0","0","0","6014777b8a88c449408352c5","","null","","","","","","","learning/Slide112.JPG","null","","","","","",""
"html-keyboard-response","342","546153","0.0-7.0-2.31","LF","s52728tqhv","1536","864","0","0","0","6014777b8a88c449408352c5","","null","","","learningBlock2","","","","<div style=""font-size:60px;""> </div>","null","LF","learning/Slide112.JPG","This is a wug:","","",""
"html-keyboard-response","343","547163","0.0-7.0-0.32","LF","s52728tqhv","1536","864","0","0","0","6014777b8a88c449408352c5","","null","","","learningBlock2","","","","This is a tob:","null","","","","","",""
"image-keyboard-response","344","547503","0.0-7.0-1.32","LF","s52728tqhv","1536","864","0","0","0","6014777b8a88c449408352c5","","null","","","","","","","learning/Slide113.JPG","null","","","","","",""
"html-keyboard-response","345","548523","0.0-7.0-2.32","LF","s52728tqhv","1536","864","0","0","0","6014777b8a88c449408352c5","","null","","","learningBlock2","","","","<div style=""font-size:60px;""> </div>","null","LF","learning/Slide113.JPG","This is a tob:","","",""
"html-keyboard-response","346","549544","0.0-7.0-0.33","LF","s52728tqhv","1536","864","0","0","0","6014777b8a88c449408352c5","","null","","","learningBlock2","","","","This is a wug:","null","","","","","",""
"image-keyboard-response","347","549885","0.0-7.0-1.33","LF","s52728tqhv","1536","864","0","0","0","6014777b8a88c449408352c5","","null","","","","","","","learning/Slide114.JPG","null","","","","","",""
"html-keyboard-response","348","550893","0.0-7.0-2.33","LF","s52728tqhv","1536","864","0","0","0","6014777b8a88c449408352c5","","null","","","learningBlock2","","","","<div style=""font-size:60px;""> </div>","null","LF","learning/Slide114.JPG","This is a wug:","","",""
"html-keyboard-response","349","551903","0.0-7.0-0.34","LF","s52728tqhv","1536","864","0","0","0","6014777b8a88c449408352c5","","null","","","learningBlock2","","","","This is a bim:","null","","","","","",""
"image-keyboard-response","350","552251","0.0-7.0-1.34","LF","s52728tqhv","1536","864","0","0","0","6014777b8a88c449408352c5","","null","","","","","","","learning/Slide115.JPG","null","","","","","",""
"html-keyboard-response","351","553262","0.0-7.0-2.34","LF","s52728tqhv","1536","864","0","0","0","6014777b8a88c449408352c5","","null","","","learningBlock2","","","","<div style=""font-size:60px;""> </div>","null","LF","learning/Slide115.JPG","This is a bim:","","",""
"html-keyboard-response","352","554282","0.0-7.0-0.35","LF","s52728tqhv","1536","864","0","0","0","6014777b8a88c449408352c5","","null","","","learningBlock2","","","","This is a dep:","null","","","","","",""
"image-keyboard-response","353","554618","0.0-7.0-1.35","LF","s52728tqhv","1536","864","0","0","0","6014777b8a88c449408352c5","","null","","","","","","","learning/Slide116.JPG","null","","","","","",""
"html-keyboard-response","354","555623","0.0-7.0-2.35","LF","s52728tqhv","1536","864","0","0","0","6014777b8a88c449408352c5","","null","","","learningBlock2","","","","<div style=""font-size:60px;""> </div>","null","LF","learning/Slide116.JPG","This is a dep:","","",""
"html-keyboard-response","355","556642","0.0-7.0-0.36","LF","s52728tqhv","1536","864","0","0","0","6014777b8a88c449408352c5","","null","","","learningBlock2","","","","This is a tob:","null","","","","","",""
"image-keyboard-response","356","556983","0.0-7.0-1.36","LF","s52728tqhv","1536","864","0","0","0","6014777b8a88c449408352c5","","null","","","","","","","learning/Slide117.JPG","null","","","","","",""
"html-keyboard-response","357","558003","0.0-7.0-2.36","LF","s52728tqhv","1536","864","0","0","0","6014777b8a88c449408352c5","","null","","","learningBlock2","","","","<div style=""font-size:60px;""> </div>","null","LF","learning/Slide117.JPG","This is a tob:","","",""
"html-keyboard-response","358","559024","0.0-7.0-0.37","LF","s52728tqhv","1536","864","0","0","0","6014777b8a88c449408352c5","","null","","","learningBlock2","","","","This is a dep:","null","","","","","",""
"image-keyboard-response","359","559365","0.0-7.0-1.37","LF","s52728tqhv","1536","864","0","0","0","6014777b8a88c449408352c5","","null","","","","","","","learning/Slide118.JPG","null","","","","","",""
"html-keyboard-response","360","560372","0.0-7.0-2.37","LF","s52728tqhv","1536","864","0","0","0","6014777b8a88c449408352c5","","null","","","learningBlock2","","","","<div style=""font-size:60px;""> </div>","null","LF","learning/Slide118.JPG","This is a dep:","","",""
"html-keyboard-response","361","561381","0.0-7.0-0.38","LF","s52728tqhv","1536","864","0","0","0","6014777b8a88c449408352c5","","null","","","learningBlock2","","","","This is a wug:","null","","","","","",""
"image-keyboard-response","362","561731","0.0-7.0-1.38","LF","s52728tqhv","1536","864","0","0","0","6014777b8a88c449408352c5","","null","","","","","","","learning/Slide119.JPG","null","","","","","",""
"html-keyboard-response","363","562742","0.0-7.0-2.38","LF","s52728tqhv","1536","864","0","0","0","6014777b8a88c449408352c5","","null","","","learningBlock2","","","","<div style=""font-size:60px;""> </div>","null","LF","learning/Slide119.JPG","This is a wug:","","",""
"html-keyboard-response","364","563762","0.0-7.0-0.39","LF","s52728tqhv","1536","864","0","0","0","6014777b8a88c449408352c5","","null","","","learningBlock2","","","","This is a dep:","null","","","","","",""
"image-keyboard-response","365","564098","0.0-7.0-1.39","LF","s52728tqhv","1536","864","0","0","0","6014777b8a88c449408352c5","","null","","","","","","","learning/Slide120.JPG","null","","","","","",""
"html-keyboard-response","366","565108","0.0-7.0-2.39","LF","s52728tqhv","1536","864","0","0","0","6014777b8a88c449408352c5","","null","","","learningBlock2","","","","<div style=""font-size:60px;""> </div>","null","LF","learning/Slide120.JPG","This is a dep:","","",""
"html-keyboard-response","367","566124","0.0-7.0-0.40","LF","s52728tqhv","1536","864","0","0","0","6014777b8a88c449408352c5","","null","","","learningBlock2","","","","This is a bim:","null","","","","","",""
"image-keyboard-response","368","566461","0.0-7.0-1.40","LF","s52728tqhv","1536","864","0","0","0","6014777b8a88c449408352c5","","null","","","","","","","learning/Slide121.JPG","null","","","","","",""
"html-keyboard-response","369","567470","0.0-7.0-2.40","LF","s52728tqhv","1536","864","0","0","0","6014777b8a88c449408352c5","","null","","","learningBlock2","","","","<div style=""font-size:60px;""> </div>","null","LF","learning/Slide121.JPG","This is a bim:","","",""
"html-keyboard-response","370","568475","0.0-7.0-0.41","LF","s52728tqhv","1536","864","0","0","0","6014777b8a88c449408352c5","","null","","","learningBlock2","","","","This is a wug:","null","","","","","",""
"image-keyboard-response","371","568812","0.0-7.0-1.41","LF","s52728tqhv","1536","864","0","0","0","6014777b8a88c449408352c5","","null","","","","","","","learning/Slide122.JPG","null","","","","","",""
"html-keyboard-response","372","569825","0.0-7.0-2.41","LF","s52728tqhv","1536","864","0","0","0","6014777b8a88c449408352c5","","null","","","learningBlock2","","","","<div style=""font-size:60px;""> </div>","null","LF","learning/Slide122.JPG","This is a wug:","","",""
"html-keyboard-response","373","570832","0.0-7.0-0.42","LF","s52728tqhv","1536","864","0","0","0","6014777b8a88c449408352c5","","null","","","learningBlock2","","","","This is a bim:","null","","","","","",""
"image-keyboard-response","374","571173","0.0-7.0-1.42","LF","s52728tqhv","1536","864","0","0","0","6014777b8a88c449408352c5","","null","","","","","","","learning/Slide123.JPG","null","","","","","",""
"html-keyboard-response","375","572182","0.0-7.0-2.42","LF","s52728tqhv","1536","864","0","0","0","6014777b8a88c449408352c5","","null","","","learningBlock2","","","","<div style=""font-size:60px;""> </div>","null","LF","learning/Slide123.JPG","This is a bim:","","",""
"html-keyboard-response","376","573192","0.0-7.0-0.43","LF","s52728tqhv","1536","864","0","0","0","6014777b8a88c449408352c5","","null","","","learningBlock2","","","","This is a tob:","null","","","","","",""
"image-keyboard-response","377","573543","0.0-7.0-1.43","LF","s52728tqhv","1536","864","0","0","0","6014777b8a88c449408352c5","","null","","","","","","","learning/Slide124.JPG","null","","","","","",""
"html-keyboard-response","378","574561","0.0-7.0-2.43","LF","s52728tqhv","1536","864","0","0","0","6014777b8a88c449408352c5","","null","","","learningBlock2","","","","<div style=""font-size:60px;""> </div>","null","LF","learning/Slide124.JPG","This is a tob:","","",""
"html-keyboard-response","379","575570","0.0-7.0-0.44","LF","s52728tqhv","1536","864","0","0","0","6014777b8a88c449408352c5","","null","","","learningBlock2","","","","This is a bim:","null","","","","","",""
"image-keyboard-response","380","575911","0.0-7.0-1.44","LF","s52728tqhv","1536","864","0","0","0","6014777b8a88c449408352c5","","null","","","","","","","learning/Slide125.JPG","null","","","","","",""
"html-keyboard-response","381","576932","0.0-7.0-2.44","LF","s52728tqhv","1536","864","0","0","0","6014777b8a88c449408352c5","","null","","","learningBlock2","","","","<div style=""font-size:60px;""> </div>","null","LF","learning/Slide125.JPG","This is a bim:","","",""
"html-keyboard-response","382","577944","0.0-7.0-0.45","LF","s52728tqhv","1536","864","0","0","0","6014777b8a88c449408352c5","","null","","","learningBlock2","","","","This is a tob:","null","","","","","",""
"image-keyboard-response","383","578299","0.0-7.0-1.45","LF","s52728tqhv","1536","864","0","0","0","6014777b8a88c449408352c5","","null","","","","","","","learning/Slide126.JPG","null","","","","","",""
"html-keyboard-response","384","579307","0.0-7.0-2.45","LF","s52728tqhv","1536","864","0","0","0","6014777b8a88c449408352c5","","null","","","learningBlock2","","","","<div style=""font-size:60px;""> </div>","null","LF","learning/Slide126.JPG","This is a tob:","","",""
"html-keyboard-response","385","580322","0.0-7.0-0.46","LF","s52728tqhv","1536","864","0","0","0","6014777b8a88c449408352c5","","null","","","learningBlock2","","","","This is a dep:","null","","","","","",""
"image-keyboard-response","386","580659","0.0-7.0-1.46","LF","s52728tqhv","1536","864","0","0","0","6014777b8a88c449408352c5","","null","","","","","","","learning/Slide127.JPG","null","","","","","",""
"html-keyboard-response","387","581663","0.0-7.0-2.46","LF","s52728tqhv","1536","864","0","0","0","6014777b8a88c449408352c5","","null","","","learningBlock2","","","","<div style=""font-size:60px;""> </div>","null","LF","learning/Slide127.JPG","This is a dep:","","",""
"html-keyboard-response","388","582682","0.0-7.0-0.47","LF","s52728tqhv","1536","864","0","0","0","6014777b8a88c449408352c5","","null","","","learningBlock2","","","","This is a wug:","null","","","","","",""
"image-keyboard-response","389","583024","0.0-7.0-1.47","LF","s52728tqhv","1536","864","0","0","0","6014777b8a88c449408352c5","","null","","","","","","","learning/Slide128.JPG","null","","","","","",""
"html-keyboard-response","390","584033","0.0-7.0-2.47","LF","s52728tqhv","1536","864","0","0","0","6014777b8a88c449408352c5","","null","","","learningBlock2","","","","<div style=""font-size:60px;""> </div>","null","LF","learning/Slide128.JPG","This is a wug:","","",""
"html-keyboard-response","391","585042","0.0-7.0-0.48","LF","s52728tqhv","1536","864","0","0","0","6014777b8a88c449408352c5","","null","","","learningBlock2","","","","This is a tob:","null","","","","","",""
"image-keyboard-response","392","585390","0.0-7.0-1.48","LF","s52728tqhv","1536","864","0","0","0","6014777b8a88c449408352c5","","null","","","","","","","learning/Slide129.JPG","null","","","","","",""
"html-keyboard-response","393","586393","0.0-7.0-2.48","LF","s52728tqhv","1536","864","0","0","0","6014777b8a88c449408352c5","","null","","","learningBlock2","","","","<div style=""font-size:60px;""> </div>","null","LF","learning/Slide129.JPG","This is a tob:","","",""
"html-keyboard-response","394","587402","0.0-7.0-0.49","LF","s52728tqhv","1536","864","0","0","0","6014777b8a88c449408352c5","","null","","","learningBlock2","","","","This is a wug:","null","","","","","",""
"image-keyboard-response","395","587739","0.0-7.0-1.49","LF","s52728tqhv","1536","864","0","0","0","6014777b8a88c449408352c5","","null","","","","","","","learning/Slide130.JPG","null","","","","","",""
"html-keyboard-response","396","588742","0.0-7.0-2.49","LF","s52728tqhv","1536","864","0","0","0","6014777b8a88c449408352c5","","null","","","learningBlock2","","","","<div style=""font-size:60px;""> </div>","null","LF","learning/Slide130.JPG","This is a wug:","","",""
"html-keyboard-response","397","589763","0.0-7.0-0.50","LF","s52728tqhv","1536","864","0","0","0","6014777b8a88c449408352c5","","null","","","learningBlock2","","","","This is a bim:","null","","","","","",""
"image-keyboard-response","398","590105","0.0-7.0-1.50","LF","s52728tqhv","1536","864","0","0","0","6014777b8a88c449408352c5","","null","","","","","","","learning/Slide131.JPG","null","","","","","",""
"html-keyboard-response","399","591114","0.0-7.0-2.50","LF","s52728tqhv","1536","864","0","0","0","6014777b8a88c449408352c5","","null","","","learningBlock2","","","","<div style=""font-size:60px;""> </div>","null","LF","learning/Slide131.JPG","This is a bim:","","",""
"html-keyboard-response","400","592122","0.0-7.0-0.51","LF","s52728tqhv","1536","864","0","0","0","6014777b8a88c449408352c5","","null","","","learningBlock2","","","","This is a dep:","null","","","","","",""
"image-keyboard-response","401","592471","0.0-7.0-1.51","LF","s52728tqhv","1536","864","0","0","0","6014777b8a88c449408352c5","","null","","","","","","","learning/Slide132.JPG","null","","","","","",""
"html-keyboard-response","402","593483","0.0-7.0-2.51","LF","s52728tqhv","1536","864","0","0","0","6014777b8a88c449408352c5","","null","","","learningBlock2","","","","<div style=""font-size:60px;""> </div>","null","LF","learning/Slide132.JPG","This is a dep:","","",""
"html-keyboard-response","403","594503","0.0-7.0-0.52","LF","s52728tqhv","1536","864","0","0","0","6014777b8a88c449408352c5","","null","","","learningBlock2","","","","This is a tob:","null","","","","","",""
"image-keyboard-response","404","594853","0.0-7.0-1.52","LF","s52728tqhv","1536","864","0","0","0","6014777b8a88c449408352c5","","null","","","","","","","learning/Slide133.JPG","null","","","","","",""
"html-keyboard-response","405","595873","0.0-7.0-2.52","LF","s52728tqhv","1536","864","0","0","0","6014777b8a88c449408352c5","","null","","","learningBlock2","","","","<div style=""font-size:60px;""> </div>","null","LF","learning/Slide133.JPG","This is a tob:","","",""
"html-keyboard-response","406","596892","0.0-7.0-0.53","LF","s52728tqhv","1536","864","0","0","0","6014777b8a88c449408352c5","","null","","","learningBlock2","","","","This is a dep:","null","","","","","",""
"image-keyboard-response","407","597235","0.0-7.0-1.53","LF","s52728tqhv","1536","864","0","0","0","6014777b8a88c449408352c5","","null","","","","","","","learning/Slide134.JPG","null","","","","","",""
"html-keyboard-response","408","598252","0.0-7.0-2.53","LF","s52728tqhv","1536","864","0","0","0","6014777b8a88c449408352c5","","null","","","learningBlock2","","","","<div style=""font-size:60px;""> </div>","null","LF","learning/Slide134.JPG","This is a dep:","","",""
"html-keyboard-response","409","599273","0.0-7.0-0.54","LF","s52728tqhv","1536","864","0","0","0","6014777b8a88c449408352c5","","null","","","learningBlock2","","","","This is a tob:","null","","","","","",""
"image-keyboard-response","410","599619","0.0-7.0-1.54","LF","s52728tqhv","1536","864","0","0","0","6014777b8a88c449408352c5","","null","","","","","","","learning/Slide135.JPG","null","","","","","",""
"html-keyboard-response","411","600622","0.0-7.0-2.54","LF","s52728tqhv","1536","864","0","0","0","6014777b8a88c449408352c5","","null","","","learningBlock2","","","","<div style=""font-size:60px;""> </div>","null","LF","learning/Slide135.JPG","This is a tob:","","",""
"html-keyboard-response","412","601642","0.0-7.0-0.55","LF","s52728tqhv","1536","864","0","0","0","6014777b8a88c449408352c5","","null","","","learningBlock2","","","","This is a wug:","null","","","","","",""
"image-keyboard-response","413","601984","0.0-7.0-1.55","LF","s52728tqhv","1536","864","0","0","0","6014777b8a88c449408352c5","","null","","","","","","","learning/Slide136.JPG","null","","","","","",""
"html-keyboard-response","414","602993","0.0-7.0-2.55","LF","s52728tqhv","1536","864","0","0","0","6014777b8a88c449408352c5","","null","","","learningBlock2","","","","<div style=""font-size:60px;""> </div>","null","LF","learning/Slide136.JPG","This is a wug:","","",""
"html-keyboard-response","415","604012","0.0-7.0-0.56","LF","s52728tqhv","1536","864","0","0","0","6014777b8a88c449408352c5","","null","","","learningBlock2","","","","This is a tob:","null","","","","","",""
"image-keyboard-response","416","604350","0.0-7.0-1.56","LF","s52728tqhv","1536","864","0","0","0","6014777b8a88c449408352c5","","null","","","","","","","learning/Slide137.JPG","null","","","","","",""
"html-keyboard-response","417","605363","0.0-7.0-2.56","LF","s52728tqhv","1536","864","0","0","0","6014777b8a88c449408352c5","","null","","","learningBlock2","","","","<div style=""font-size:60px;""> </div>","null","LF","learning/Slide137.JPG","This is a tob:","","",""
"html-keyboard-response","418","606372","0.0-7.0-0.57","LF","s52728tqhv","1536","864","0","0","0","6014777b8a88c449408352c5","","null","","","learningBlock2","","","","This is a bim:","null","","","","","",""
"image-keyboard-response","419","606716","0.0-7.0-1.57","LF","s52728tqhv","1536","864","0","0","0","6014777b8a88c449408352c5","","null","","","","","","","learning/Slide138.JPG","null","","","","","",""
"html-keyboard-response","420","607723","0.0-7.0-2.57","LF","s52728tqhv","1536","864","0","0","0","6014777b8a88c449408352c5","","null","","","learningBlock2","","","","<div style=""font-size:60px;""> </div>","null","LF","learning/Slide138.JPG","This is a bim:","","",""
"html-keyboard-response","421","608732","0.0-7.0-0.58","LF","s52728tqhv","1536","864","0","0","0","6014777b8a88c449408352c5","","null","","","learningBlock2","","","","This is a wug:","null","","","","","",""
"image-keyboard-response","422","609082","0.0-7.0-1.58","LF","s52728tqhv","1536","864","0","0","0","6014777b8a88c449408352c5","","null","","","","","","","learning/Slide139.JPG","null","","","","","",""
"html-keyboard-response","423","610093","0.0-7.0-2.58","LF","s52728tqhv","1536","864","0","0","0","6014777b8a88c449408352c5","","null","","","learningBlock2","","","","<div style=""font-size:60px;""> </div>","null","LF","learning/Slide139.JPG","This is a wug:","","",""
"html-keyboard-response","424","611102","0.0-7.0-0.59","LF","s52728tqhv","1536","864","0","0","0","6014777b8a88c449408352c5","","null","","","learningBlock2","","","","This is a dep:","null","","","","","",""
"image-keyboard-response","425","611449","0.0-7.0-1.59","LF","s52728tqhv","1536","864","0","0","0","6014777b8a88c449408352c5","","null","","","","","","","learning/Slide140.JPG","null","","","","","",""
"html-keyboard-response","426","612454","0.0-7.0-2.59","LF","s52728tqhv","1536","864","0","0","0","6014777b8a88c449408352c5","","null","","","learningBlock2","","","","<div style=""font-size:60px;""> </div>","null","LF","learning/Slide140.JPG","This is a dep:","","",""
"html-keyboard-response","427","613473","0.0-7.0-0.60","LF","s52728tqhv","1536","864","0","0","0","6014777b8a88c449408352c5","","null","","","learningBlock2","","","","This is a tob:","null","","","","","",""
"image-keyboard-response","428","613812","0.0-7.0-1.60","LF","s52728tqhv","1536","864","0","0","0","6014777b8a88c449408352c5","","null","","","","","","","learning/Slide141.JPG","null","","","","","",""
"html-keyboard-response","429","614834","0.0-7.0-2.60","LF","s52728tqhv","1536","864","0","0","0","6014777b8a88c449408352c5","","null","","","learningBlock2","","","","<div style=""font-size:60px;""> </div>","null","LF","learning/Slide141.JPG","This is a tob:","","",""
"html-keyboard-response","430","615843","0.0-7.0-0.61","LF","s52728tqhv","1536","864","0","0","0","6014777b8a88c449408352c5","","null","","","learningBlock2","","","","This is a wug:","null","","","","","",""
"image-keyboard-response","431","616180","0.0-7.0-1.61","LF","s52728tqhv","1536","864","0","0","0","6014777b8a88c449408352c5","","null","","","","","","","learning/Slide142.JPG","null","","","","","",""
"html-keyboard-response","432","617183","0.0-7.0-2.61","LF","s52728tqhv","1536","864","0","0","0","6014777b8a88c449408352c5","","null","","","learningBlock2","","","","<div style=""font-size:60px;""> </div>","null","LF","learning/Slide142.JPG","This is a wug:","","",""
"html-keyboard-response","433","618193","0.0-7.0-0.62","LF","s52728tqhv","1536","864","0","0","0","6014777b8a88c449408352c5","","null","","","learningBlock2","","","","This is a bim:","null","","","","","",""
"image-keyboard-response","434","618529","0.0-7.0-1.62","LF","s52728tqhv","1536","864","0","0","0","6014777b8a88c449408352c5","","null","","","","","","","learning/Slide143.JPG","null","","","","","",""
"html-keyboard-response","435","619542","0.0-7.0-2.62","LF","s52728tqhv","1536","864","0","0","0","6014777b8a88c449408352c5","","null","","","learningBlock2","","","","<div style=""font-size:60px;""> </div>","null","LF","learning/Slide143.JPG","This is a bim:","","",""
"html-keyboard-response","436","620562","0.0-7.0-0.63","LF","s52728tqhv","1536","864","0","0","0","6014777b8a88c449408352c5","","null","","","learningBlock2","","","","This is a dep:","null","","","","","",""
"image-keyboard-response","437","620912","0.0-7.0-1.63","LF","s52728tqhv","1536","864","0","0","0","6014777b8a88c449408352c5","","null","","","","","","","learning/Slide144.JPG","null","","","","","",""
"html-keyboard-response","438","621923","0.0-7.0-2.63","LF","s52728tqhv","1536","864","0","0","0","6014777b8a88c449408352c5","","null","","","learningBlock2","","","","<div style=""font-size:60px;""> </div>","null","LF","learning/Slide144.JPG","This is a dep:","","",""
