"trial_type","trial_index","time_elapsed","internal_node_id","condition","subject","screen_width","screen_height","attention","distraction","conscientious","prolificID","success","rt","url","view_history","test_part","final_height_px","final_width_px","scale_factor","stimulus","key_press","learningType","presentedImage","presentedLabel","button_pressed","response","responses"
"pavlovia","0","19","0.0-0.0","LF","9y1b9uh65r","1920","1080","0","0","0","5daca079bf590700167f704d","","","","","","","","","","","","","","","",""
"fullscreen","1","4233","0.0-1.0","LF","9y1b9uh65r","1920","1080","0","0","0","5daca079bf590700167f704d","true","","","","","","","","","","","","","","",""
"external-html","2","7049","0.0-2.0-0.0","LF","9y1b9uh65r","1920","1080","0","0","0","5daca079bf590700167f704d","","2777.009999990696","text/information_english.html","","","","","","","","","","","","",""
"external-html","3","9956","0.0-2.0-1.0","LF","9y1b9uh65r","1920","1080","0","0","0","5daca079bf590700167f704d","","2850.509999989299","text/consent_english.html","","","","","","","","","","","","",""
"instructions","4","57068","0.0-3.0","LF","9y1b9uh65r","1920","1080","0","0","0","5daca079bf590700167f704d","","NA","","[{""page_index"":0,""viewing_time"":1287.7099999896018},{""page_index"":1,""viewing_time"":45818.95000000077}]","instructions","","","","","","","","","","",""
"resize","5","90183","0.0-4.0","LF","9y1b9uh65r","1920","1080","0","0","0","5daca079bf590700167f704d","","","","","","","474","3.009523809523809","","","","","","","",""
"html-keyboard-response","6","91187","0.0-5.0-0.0","LF","9y1b9uh65r","1920","1080","0","0","0","5daca079bf590700167f704d","","null","","","learningBlock1","","","","This is a tob:","null","","","","","",""
"image-keyboard-response","7","91516","0.0-5.0-1.0","LF","9y1b9uh65r","1920","1080","0","0","0","5daca079bf590700167f704d","","null","","","","","","","learning/Slide1.JPG","null","","","","","",""
"html-keyboard-response","8","92518","0.0-5.0-2.0","LF","9y1b9uh65r","1920","1080","0","0","0","5daca079bf590700167f704d","","null","","","learningBlock1","","","","<div style=""font-size:60px;""> </div>","null","LF","learning/Slide1.JPG","This is a tob:","","",""
"html-keyboard-response","9","93519","0.0-5.0-0.1","LF","9y1b9uh65r","1920","1080","0","0","0","5daca079bf590700167f704d","","null","","","learningBlock1","","","","This is a wug:","null","","","","","",""
"image-keyboard-response","10","93847","0.0-5.0-1.1","LF","9y1b9uh65r","1920","1080","0","0","0","5daca079bf590700167f704d","","null","","","","","","","learning/Slide2.JPG","null","","","","","",""
"html-keyboard-response","11","94848","0.0-5.0-2.1","LF","9y1b9uh65r","1920","1080","0","0","0","5daca079bf590700167f704d","","null","","","learningBlock1","","","","<div style=""font-size:60px;""> </div>","null","LF","learning/Slide2.JPG","This is a wug:","","",""
"html-keyboard-response","12","95850","0.0-5.0-0.2","LF","9y1b9uh65r","1920","1080","0","0","0","5daca079bf590700167f704d","","null","","","learningBlock1","","","","This is a bim:","null","","","","","",""
"image-keyboard-response","13","96178","0.0-5.0-1.2","LF","9y1b9uh65r","1920","1080","0","0","0","5daca079bf590700167f704d","","null","","","","","","","learning/Slide3.JPG","null","","","","","",""
"html-keyboard-response","14","97180","0.0-5.0-2.2","LF","9y1b9uh65r","1920","1080","0","0","0","5daca079bf590700167f704d","","null","","","learningBlock1","","","","<div style=""font-size:60px;""> </div>","null","LF","learning/Slide3.JPG","This is a bim:","","",""
"html-keyboard-response","15","98181","0.0-5.0-0.3","LF","9y1b9uh65r","1920","1080","0","0","0","5daca079bf590700167f704d","","null","","","learningBlock1","","","","This is a dep:","null","","","","","",""
"image-keyboard-response","16","98509","0.0-5.0-1.3","LF","9y1b9uh65r","1920","1080","0","0","0","5daca079bf590700167f704d","","null","","","","","","","learning/Slide4.JPG","null","","","","","",""
"html-keyboard-response","17","99510","0.0-5.0-2.3","LF","9y1b9uh65r","1920","1080","0","0","0","5daca079bf590700167f704d","","null","","","learningBlock1","","","","<div style=""font-size:60px;""> </div>","null","LF","learning/Slide4.JPG","This is a dep:","","",""
"html-keyboard-response","18","100512","0.0-5.0-0.4","LF","9y1b9uh65r","1920","1080","0","0","0","5daca079bf590700167f704d","","null","","","learningBlock1","","","","This is a wug:","null","","","","","",""
"image-keyboard-response","19","100839","0.0-5.0-1.4","LF","9y1b9uh65r","1920","1080","0","0","0","5daca079bf590700167f704d","","null","","","","","","","learning/Slide5.JPG","null","","","","","",""
"html-keyboard-response","20","101841","0.0-5.0-2.4","LF","9y1b9uh65r","1920","1080","0","0","0","5daca079bf590700167f704d","","null","","","learningBlock1","","","","<div style=""font-size:60px;""> </div>","null","LF","learning/Slide5.JPG","This is a wug:","","",""
"html-keyboard-response","21","102842","0.0-5.0-0.5","LF","9y1b9uh65r","1920","1080","0","0","0","5daca079bf590700167f704d","","null","","","learningBlock1","","","","This is a dep:","null","","","","","",""
"image-keyboard-response","22","103171","0.0-5.0-1.5","LF","9y1b9uh65r","1920","1080","0","0","0","5daca079bf590700167f704d","","null","","","","","","","learning/Slide6.JPG","null","","","","","",""
"html-keyboard-response","23","104173","0.0-5.0-2.5","LF","9y1b9uh65r","1920","1080","0","0","0","5daca079bf590700167f704d","","null","","","learningBlock1","","","","<div style=""font-size:60px;""> </div>","null","LF","learning/Slide6.JPG","This is a dep:","","",""
"html-keyboard-response","24","105175","0.0-5.0-0.6","LF","9y1b9uh65r","1920","1080","0","0","0","5daca079bf590700167f704d","","null","","","learningBlock1","","","","This is a wug:","null","","","","","",""
"image-keyboard-response","25","105502","0.0-5.0-1.6","LF","9y1b9uh65r","1920","1080","0","0","0","5daca079bf590700167f704d","","null","","","","","","","learning/Slide7.JPG","null","","","","","",""
"html-keyboard-response","26","106503","0.0-5.0-2.6","LF","9y1b9uh65r","1920","1080","0","0","0","5daca079bf590700167f704d","","null","","","learningBlock1","","","","<div style=""font-size:60px;""> </div>","null","LF","learning/Slide7.JPG","This is a wug:","","",""
"html-keyboard-response","27","107505","0.0-5.0-0.7","LF","9y1b9uh65r","1920","1080","0","0","0","5daca079bf590700167f704d","","null","","","learningBlock1","","","","This is a bim:","null","","","","","",""
"image-keyboard-response","28","107833","0.0-5.0-1.7","LF","9y1b9uh65r","1920","1080","0","0","0","5daca079bf590700167f704d","","null","","","","","","","learning/Slide8.JPG","null","","","","","",""
"html-keyboard-response","29","108835","0.0-5.0-2.7","LF","9y1b9uh65r","1920","1080","0","0","0","5daca079bf590700167f704d","","null","","","learningBlock1","","","","<div style=""font-size:60px;""> </div>","null","LF","learning/Slide8.JPG","This is a bim:","","",""
"html-keyboard-response","30","109836","0.0-5.0-0.8","LF","9y1b9uh65r","1920","1080","0","0","0","5daca079bf590700167f704d","","null","","","learningBlock1","","","","This is a wug:","null","","","","","",""
"image-keyboard-response","31","110164","0.0-5.0-1.8","LF","9y1b9uh65r","1920","1080","0","0","0","5daca079bf590700167f704d","","null","","","","","","","learning/Slide9.JPG","null","","","","","",""
"html-keyboard-response","32","111166","0.0-5.0-2.8","LF","9y1b9uh65r","1920","1080","0","0","0","5daca079bf590700167f704d","","null","","","learningBlock1","","","","<div style=""font-size:60px;""> </div>","null","LF","learning/Slide9.JPG","This is a wug:","","",""
"html-keyboard-response","33","112168","0.0-5.0-0.9","LF","9y1b9uh65r","1920","1080","0","0","0","5daca079bf590700167f704d","","null","","","learningBlock1","","","","This is a dep:","null","","","","","",""
"image-keyboard-response","34","112496","0.0-5.0-1.9","LF","9y1b9uh65r","1920","1080","0","0","0","5daca079bf590700167f704d","","null","","","","","","","learning/Slide10.JPG","null","","","","","",""
"html-keyboard-response","35","113497","0.0-5.0-2.9","LF","9y1b9uh65r","1920","1080","0","0","0","5daca079bf590700167f704d","","null","","","learningBlock1","","","","<div style=""font-size:60px;""> </div>","null","LF","learning/Slide10.JPG","This is a dep:","","",""
"html-keyboard-response","36","114499","0.0-5.0-0.10","LF","9y1b9uh65r","1920","1080","0","0","0","5daca079bf590700167f704d","","null","","","learningBlock1","","","","This is a tob:","null","","","","","",""
"image-keyboard-response","37","114826","0.0-5.0-1.10","LF","9y1b9uh65r","1920","1080","0","0","0","5daca079bf590700167f704d","","null","","","","","","","learning/Slide11.JPG","null","","","","","",""
"html-keyboard-response","38","115828","0.0-5.0-2.10","LF","9y1b9uh65r","1920","1080","0","0","0","5daca079bf590700167f704d","","null","","","learningBlock1","","","","<div style=""font-size:60px;""> </div>","null","LF","learning/Slide11.JPG","This is a tob:","","",""
"html-keyboard-response","39","116829","0.0-5.0-0.11","LF","9y1b9uh65r","1920","1080","0","0","0","5daca079bf590700167f704d","","null","","","learningBlock1","","","","This is a dep:","null","","","","","",""
"image-keyboard-response","40","117157","0.0-5.0-1.11","LF","9y1b9uh65r","1920","1080","0","0","0","5daca079bf590700167f704d","","null","","","","","","","learning/Slide12.JPG","null","","","","","",""
"html-keyboard-response","41","118158","0.0-5.0-2.11","LF","9y1b9uh65r","1920","1080","0","0","0","5daca079bf590700167f704d","","null","","","learningBlock1","","","","<div style=""font-size:60px;""> </div>","null","LF","learning/Slide12.JPG","This is a dep:","","",""
"html-keyboard-response","42","119159","0.0-5.0-0.12","LF","9y1b9uh65r","1920","1080","0","0","0","5daca079bf590700167f704d","","null","","","learningBlock1","","","","This is a bim:","null","","","","","",""
"image-keyboard-response","43","119486","0.0-5.0-1.12","LF","9y1b9uh65r","1920","1080","0","0","0","5daca079bf590700167f704d","","null","","","","","","","learning/Slide13.JPG","null","","","","","",""
"html-keyboard-response","44","120488","0.0-5.0-2.12","LF","9y1b9uh65r","1920","1080","0","0","0","5daca079bf590700167f704d","","null","","","learningBlock1","","","","<div style=""font-size:60px;""> </div>","null","LF","learning/Slide13.JPG","This is a bim:","","",""
"html-keyboard-response","45","121489","0.0-5.0-0.13","LF","9y1b9uh65r","1920","1080","0","0","0","5daca079bf590700167f704d","","null","","","learningBlock1","","","","This is a wug:","null","","","","","",""
"image-keyboard-response","46","121817","0.0-5.0-1.13","LF","9y1b9uh65r","1920","1080","0","0","0","5daca079bf590700167f704d","","null","","","","","","","learning/Slide14.JPG","null","","","","","",""
"html-keyboard-response","47","122818","0.0-5.0-2.13","LF","9y1b9uh65r","1920","1080","0","0","0","5daca079bf590700167f704d","","null","","","learningBlock1","","","","<div style=""font-size:60px;""> </div>","null","LF","learning/Slide14.JPG","This is a wug:","","",""
"html-keyboard-response","48","123819","0.0-5.0-0.14","LF","9y1b9uh65r","1920","1080","0","0","0","5daca079bf590700167f704d","","null","","","learningBlock1","","","","This is a tob:","null","","","","","",""
"image-keyboard-response","49","124146","0.0-5.0-1.14","LF","9y1b9uh65r","1920","1080","0","0","0","5daca079bf590700167f704d","","null","","","","","","","learning/Slide15.JPG","null","","","","","",""
"html-keyboard-response","50","125148","0.0-5.0-2.14","LF","9y1b9uh65r","1920","1080","0","0","0","5daca079bf590700167f704d","","null","","","learningBlock1","","","","<div style=""font-size:60px;""> </div>","null","LF","learning/Slide15.JPG","This is a tob:","","",""
"html-keyboard-response","51","126149","0.0-5.0-0.15","LF","9y1b9uh65r","1920","1080","0","0","0","5daca079bf590700167f704d","","null","","","learningBlock1","","","","This is a dep:","null","","","","","",""
"image-keyboard-response","52","126477","0.0-5.0-1.15","LF","9y1b9uh65r","1920","1080","0","0","0","5daca079bf590700167f704d","","null","","","","","","","learning/Slide16.JPG","null","","","","","",""
"html-keyboard-response","53","127478","0.0-5.0-2.15","LF","9y1b9uh65r","1920","1080","0","0","0","5daca079bf590700167f704d","","null","","","learningBlock1","","","","<div style=""font-size:60px;""> </div>","null","LF","learning/Slide16.JPG","This is a dep:","","",""
"html-keyboard-response","54","128479","0.0-5.0-0.16","LF","9y1b9uh65r","1920","1080","0","0","0","5daca079bf590700167f704d","","null","","","learningBlock1","","","","This is a bim:","null","","","","","",""
"image-keyboard-response","55","128807","0.0-5.0-1.16","LF","9y1b9uh65r","1920","1080","0","0","0","5daca079bf590700167f704d","","null","","","","","","","learning/Slide17.JPG","null","","","","","",""
"html-keyboard-response","56","129809","0.0-5.0-2.16","LF","9y1b9uh65r","1920","1080","0","0","0","5daca079bf590700167f704d","","null","","","learningBlock1","","","","<div style=""font-size:60px;""> </div>","null","LF","learning/Slide17.JPG","This is a bim:","","",""
"html-keyboard-response","57","130812","0.0-5.0-0.17","LF","9y1b9uh65r","1920","1080","0","0","0","5daca079bf590700167f704d","","null","","","learningBlock1","","","","This is a tob:","null","","","","","",""
"image-keyboard-response","58","131138","0.0-5.0-1.17","LF","9y1b9uh65r","1920","1080","0","0","0","5daca079bf590700167f704d","","null","","","","","","","learning/Slide18.JPG","null","","","","","",""
"html-keyboard-response","59","132141","0.0-5.0-2.17","LF","9y1b9uh65r","1920","1080","0","0","0","5daca079bf590700167f704d","","null","","","learningBlock1","","","","<div style=""font-size:60px;""> </div>","null","LF","learning/Slide18.JPG","This is a tob:","","",""
"html-keyboard-response","60","133142","0.0-5.0-0.18","LF","9y1b9uh65r","1920","1080","0","0","0","5daca079bf590700167f704d","","null","","","learningBlock1","","","","This is a wug:","null","","","","","",""
"image-keyboard-response","61","133471","0.0-5.0-1.18","LF","9y1b9uh65r","1920","1080","0","0","0","5daca079bf590700167f704d","","null","","","","","","","learning/Slide19.JPG","null","","","","","",""
"html-keyboard-response","62","134472","0.0-5.0-2.18","LF","9y1b9uh65r","1920","1080","0","0","0","5daca079bf590700167f704d","","null","","","learningBlock1","","","","<div style=""font-size:60px;""> </div>","null","LF","learning/Slide19.JPG","This is a wug:","","",""
"html-keyboard-response","63","135473","0.0-5.0-0.19","LF","9y1b9uh65r","1920","1080","0","0","0","5daca079bf590700167f704d","","null","","","learningBlock1","","","","This is a bim:","null","","","","","",""
"image-keyboard-response","64","135801","0.0-5.0-1.19","LF","9y1b9uh65r","1920","1080","0","0","0","5daca079bf590700167f704d","","null","","","","","","","learning/Slide20.JPG","null","","","","","",""
"html-keyboard-response","65","136802","0.0-5.0-2.19","LF","9y1b9uh65r","1920","1080","0","0","0","5daca079bf590700167f704d","","null","","","learningBlock1","","","","<div style=""font-size:60px;""> </div>","null","LF","learning/Slide20.JPG","This is a bim:","","",""
"html-keyboard-response","66","137803","0.0-5.0-0.20","LF","9y1b9uh65r","1920","1080","0","0","0","5daca079bf590700167f704d","","null","","","learningBlock1","","","","This is a dep:","null","","","","","",""
"image-keyboard-response","67","138130","0.0-5.0-1.20","LF","9y1b9uh65r","1920","1080","0","0","0","5daca079bf590700167f704d","","null","","","","","","","learning/Slide21.JPG","null","","","","","",""
"html-keyboard-response","68","139131","0.0-5.0-2.20","LF","9y1b9uh65r","1920","1080","0","0","0","5daca079bf590700167f704d","","null","","","learningBlock1","","","","<div style=""font-size:60px;""> </div>","null","LF","learning/Slide21.JPG","This is a dep:","","",""
"html-keyboard-response","69","140134","0.0-5.0-0.21","LF","9y1b9uh65r","1920","1080","0","0","0","5daca079bf590700167f704d","","null","","","learningBlock1","","","","This is a bim:","null","","","","","",""
"image-keyboard-response","70","140462","0.0-5.0-1.21","LF","9y1b9uh65r","1920","1080","0","0","0","5daca079bf590700167f704d","","null","","","","","","","learning/Slide22.JPG","null","","","","","",""
"html-keyboard-response","71","141465","0.0-5.0-2.21","LF","9y1b9uh65r","1920","1080","0","0","0","5daca079bf590700167f704d","","null","","","learningBlock1","","","","<div style=""font-size:60px;""> </div>","null","LF","learning/Slide22.JPG","This is a bim:","","",""
"html-keyboard-response","72","142467","0.0-5.0-0.22","LF","9y1b9uh65r","1920","1080","0","0","0","5daca079bf590700167f704d","","null","","","learningBlock1","","","","This is a tob:","null","","","","","",""
"image-keyboard-response","73","142795","0.0-5.0-1.22","LF","9y1b9uh65r","1920","1080","0","0","0","5daca079bf590700167f704d","","null","","","","","","","learning/Slide23.JPG","null","","","","","",""
"html-keyboard-response","74","143797","0.0-5.0-2.22","LF","9y1b9uh65r","1920","1080","0","0","0","5daca079bf590700167f704d","","null","","","learningBlock1","","","","<div style=""font-size:60px;""> </div>","null","LF","learning/Slide23.JPG","This is a tob:","","",""
"html-keyboard-response","75","144799","0.0-5.0-0.23","LF","9y1b9uh65r","1920","1080","0","0","0","5daca079bf590700167f704d","","null","","","learningBlock1","","","","This is a wug:","null","","","","","",""
"image-keyboard-response","76","145126","0.0-5.0-1.23","LF","9y1b9uh65r","1920","1080","0","0","0","5daca079bf590700167f704d","","null","","","","","","","learning/Slide24.JPG","null","","","","","",""
"html-keyboard-response","77","146127","0.0-5.0-2.23","LF","9y1b9uh65r","1920","1080","0","0","0","5daca079bf590700167f704d","","null","","","learningBlock1","","","","<div style=""font-size:60px;""> </div>","null","LF","learning/Slide24.JPG","This is a wug:","","",""
"html-keyboard-response","78","147129","0.0-5.0-0.24","LF","9y1b9uh65r","1920","1080","0","0","0","5daca079bf590700167f704d","","null","","","learningBlock1","","","","This is a dep:","null","","","","","",""
"image-keyboard-response","79","147457","0.0-5.0-1.24","LF","9y1b9uh65r","1920","1080","0","0","0","5daca079bf590700167f704d","","null","","","","","","","learning/Slide25.JPG","null","","","","","",""
"html-keyboard-response","80","148458","0.0-5.0-2.24","LF","9y1b9uh65r","1920","1080","0","0","0","5daca079bf590700167f704d","","null","","","learningBlock1","","","","<div style=""font-size:60px;""> </div>","null","LF","learning/Slide25.JPG","This is a dep:","","",""
"html-keyboard-response","81","149460","0.0-5.0-0.25","LF","9y1b9uh65r","1920","1080","0","0","0","5daca079bf590700167f704d","","null","","","learningBlock1","","","","This is a wug:","null","","","","","",""
"image-keyboard-response","82","149787","0.0-5.0-1.25","LF","9y1b9uh65r","1920","1080","0","0","0","5daca079bf590700167f704d","","null","","","","","","","learning/Slide26.JPG","null","","","","","",""
"html-keyboard-response","83","150788","0.0-5.0-2.25","LF","9y1b9uh65r","1920","1080","0","0","0","5daca079bf590700167f704d","","null","","","learningBlock1","","","","<div style=""font-size:60px;""> </div>","null","LF","learning/Slide26.JPG","This is a wug:","","",""
"html-keyboard-response","84","151790","0.0-5.0-0.26","LF","9y1b9uh65r","1920","1080","0","0","0","5daca079bf590700167f704d","","null","","","learningBlock1","","","","This is a bim:","null","","","","","",""
"image-keyboard-response","85","152117","0.0-5.0-1.26","LF","9y1b9uh65r","1920","1080","0","0","0","5daca079bf590700167f704d","","null","","","","","","","learning/Slide27.JPG","null","","","","","",""
"html-keyboard-response","86","153119","0.0-5.0-2.26","LF","9y1b9uh65r","1920","1080","0","0","0","5daca079bf590700167f704d","","null","","","learningBlock1","","","","<div style=""font-size:60px;""> </div>","null","LF","learning/Slide27.JPG","This is a bim:","","",""
"html-keyboard-response","87","154120","0.0-5.0-0.27","LF","9y1b9uh65r","1920","1080","0","0","0","5daca079bf590700167f704d","","null","","","learningBlock1","","","","This is a dep:","null","","","","","",""
"image-keyboard-response","88","154446","0.0-5.0-1.27","LF","9y1b9uh65r","1920","1080","0","0","0","5daca079bf590700167f704d","","null","","","","","","","learning/Slide28.JPG","null","","","","","",""
"html-keyboard-response","89","155448","0.0-5.0-2.27","LF","9y1b9uh65r","1920","1080","0","0","0","5daca079bf590700167f704d","","null","","","learningBlock1","","","","<div style=""font-size:60px;""> </div>","null","LF","learning/Slide28.JPG","This is a dep:","","",""
"html-keyboard-response","90","156449","0.0-5.0-0.28","LF","9y1b9uh65r","1920","1080","0","0","0","5daca079bf590700167f704d","","null","","","learningBlock1","","","","This is a tob:","null","","","","","",""
"image-keyboard-response","91","156776","0.0-5.0-1.28","LF","9y1b9uh65r","1920","1080","0","0","0","5daca079bf590700167f704d","","null","","","","","","","learning/Slide29.JPG","null","","","","","",""
"html-keyboard-response","92","157779","0.0-5.0-2.28","LF","9y1b9uh65r","1920","1080","0","0","0","5daca079bf590700167f704d","","null","","","learningBlock1","","","","<div style=""font-size:60px;""> </div>","null","LF","learning/Slide29.JPG","This is a tob:","","",""
"html-keyboard-response","93","158780","0.0-5.0-0.29","LF","9y1b9uh65r","1920","1080","0","0","0","5daca079bf590700167f704d","","null","","","learningBlock1","","","","This is a dep:","null","","","","","",""
"image-keyboard-response","94","159108","0.0-5.0-1.29","LF","9y1b9uh65r","1920","1080","0","0","0","5daca079bf590700167f704d","","null","","","","","","","learning/Slide30.JPG","null","","","","","",""
"html-keyboard-response","95","160110","0.0-5.0-2.29","LF","9y1b9uh65r","1920","1080","0","0","0","5daca079bf590700167f704d","","null","","","learningBlock1","","","","<div style=""font-size:60px;""> </div>","null","LF","learning/Slide30.JPG","This is a dep:","","",""
"html-keyboard-response","96","161111","0.0-5.0-0.30","LF","9y1b9uh65r","1920","1080","0","0","0","5daca079bf590700167f704d","","null","","","learningBlock1","","","","This is a wug:","null","","","","","",""
"image-keyboard-response","97","161440","0.0-5.0-1.30","LF","9y1b9uh65r","1920","1080","0","0","0","5daca079bf590700167f704d","","null","","","","","","","learning/Slide31.JPG","null","","","","","",""
"html-keyboard-response","98","162441","0.0-5.0-2.30","LF","9y1b9uh65r","1920","1080","0","0","0","5daca079bf590700167f704d","","null","","","learningBlock1","","","","<div style=""font-size:60px;""> </div>","null","LF","learning/Slide31.JPG","This is a wug:","","",""
"html-keyboard-response","99","163442","0.0-5.0-0.31","LF","9y1b9uh65r","1920","1080","0","0","0","5daca079bf590700167f704d","","null","","","learningBlock1","","","","This is a tob:","null","","","","","",""
"image-keyboard-response","100","163768","0.0-5.0-1.31","LF","9y1b9uh65r","1920","1080","0","0","0","5daca079bf590700167f704d","","null","","","","","","","learning/Slide32.JPG","null","","","","","",""
"html-keyboard-response","101","164770","0.0-5.0-2.31","LF","9y1b9uh65r","1920","1080","0","0","0","5daca079bf590700167f704d","","null","","","learningBlock1","","","","<div style=""font-size:60px;""> </div>","null","LF","learning/Slide32.JPG","This is a tob:","","",""
"html-keyboard-response","102","165771","0.0-5.0-0.32","LF","9y1b9uh65r","1920","1080","0","0","0","5daca079bf590700167f704d","","null","","","learningBlock1","","","","This is a bim:","null","","","","","",""
"image-keyboard-response","103","166100","0.0-5.0-1.32","LF","9y1b9uh65r","1920","1080","0","0","0","5daca079bf590700167f704d","","null","","","","","","","learning/Slide33.JPG","null","","","","","",""
"html-keyboard-response","104","167101","0.0-5.0-2.32","LF","9y1b9uh65r","1920","1080","0","0","0","5daca079bf590700167f704d","","null","","","learningBlock1","","","","<div style=""font-size:60px;""> </div>","null","LF","learning/Slide33.JPG","This is a bim:","","",""
"html-keyboard-response","105","168103","0.0-5.0-0.33","LF","9y1b9uh65r","1920","1080","0","0","0","5daca079bf590700167f704d","","null","","","learningBlock1","","","","This is a tob:","null","","","","","",""
"image-keyboard-response","106","168431","0.0-5.0-1.33","LF","9y1b9uh65r","1920","1080","0","0","0","5daca079bf590700167f704d","","null","","","","","","","learning/Slide34.JPG","null","","","","","",""
"html-keyboard-response","107","169432","0.0-5.0-2.33","LF","9y1b9uh65r","1920","1080","0","0","0","5daca079bf590700167f704d","","null","","","learningBlock1","","","","<div style=""font-size:60px;""> </div>","null","LF","learning/Slide34.JPG","This is a tob:","","",""
"html-keyboard-response","108","170433","0.0-5.0-0.34","LF","9y1b9uh65r","1920","1080","0","0","0","5daca079bf590700167f704d","","null","","","learningBlock1","","","","This is a bim:","null","","","","","",""
"image-keyboard-response","109","170762","0.0-5.0-1.34","LF","9y1b9uh65r","1920","1080","0","0","0","5daca079bf590700167f704d","","null","","","","","","","learning/Slide35.JPG","null","","","","","",""
"html-keyboard-response","110","171763","0.0-5.0-2.34","LF","9y1b9uh65r","1920","1080","0","0","0","5daca079bf590700167f704d","","null","","","learningBlock1","","","","<div style=""font-size:60px;""> </div>","null","LF","learning/Slide35.JPG","This is a bim:","","",""
"html-keyboard-response","111","172765","0.0-5.0-0.35","LF","9y1b9uh65r","1920","1080","0","0","0","5daca079bf590700167f704d","","null","","","learningBlock1","","","","This is a dep:","null","","","","","",""
"image-keyboard-response","112","173092","0.0-5.0-1.35","LF","9y1b9uh65r","1920","1080","0","0","0","5daca079bf590700167f704d","","null","","","","","","","learning/Slide36.JPG","null","","","","","",""
"html-keyboard-response","113","174095","0.0-5.0-2.35","LF","9y1b9uh65r","1920","1080","0","0","0","5daca079bf590700167f704d","","null","","","learningBlock1","","","","<div style=""font-size:60px;""> </div>","null","LF","learning/Slide36.JPG","This is a dep:","","",""
"html-keyboard-response","114","175097","0.0-5.0-0.36","LF","9y1b9uh65r","1920","1080","0","0","0","5daca079bf590700167f704d","","null","","","learningBlock1","","","","This is a tob:","null","","","","","",""
"image-keyboard-response","115","175424","0.0-5.0-1.36","LF","9y1b9uh65r","1920","1080","0","0","0","5daca079bf590700167f704d","","null","","","","","","","learning/Slide37.JPG","null","","","","","",""
"html-keyboard-response","116","176425","0.0-5.0-2.36","LF","9y1b9uh65r","1920","1080","0","0","0","5daca079bf590700167f704d","","null","","","learningBlock1","","","","<div style=""font-size:60px;""> </div>","null","LF","learning/Slide37.JPG","This is a tob:","","",""
"html-keyboard-response","117","177426","0.0-5.0-0.37","LF","9y1b9uh65r","1920","1080","0","0","0","5daca079bf590700167f704d","","null","","","learningBlock1","","","","This is a wug:","null","","","","","",""
"image-keyboard-response","118","177753","0.0-5.0-1.37","LF","9y1b9uh65r","1920","1080","0","0","0","5daca079bf590700167f704d","","null","","","","","","","learning/Slide38.JPG","null","","","","","",""
"html-keyboard-response","119","178755","0.0-5.0-2.37","LF","9y1b9uh65r","1920","1080","0","0","0","5daca079bf590700167f704d","","null","","","learningBlock1","","","","<div style=""font-size:60px;""> </div>","null","LF","learning/Slide38.JPG","This is a wug:","","",""
"html-keyboard-response","120","179757","0.0-5.0-0.38","LF","9y1b9uh65r","1920","1080","0","0","0","5daca079bf590700167f704d","","null","","","learningBlock1","","","","This is a bim:","null","","","","","",""
"image-keyboard-response","121","180085","0.0-5.0-1.38","LF","9y1b9uh65r","1920","1080","0","0","0","5daca079bf590700167f704d","","null","","","","","","","learning/Slide39.JPG","null","","","","","",""
"html-keyboard-response","122","181086","0.0-5.0-2.38","LF","9y1b9uh65r","1920","1080","0","0","0","5daca079bf590700167f704d","","null","","","learningBlock1","","","","<div style=""font-size:60px;""> </div>","null","LF","learning/Slide39.JPG","This is a bim:","","",""
"html-keyboard-response","123","182088","0.0-5.0-0.39","LF","9y1b9uh65r","1920","1080","0","0","0","5daca079bf590700167f704d","","null","","","learningBlock1","","","","This is a tob:","null","","","","","",""
"image-keyboard-response","124","182416","0.0-5.0-1.39","LF","9y1b9uh65r","1920","1080","0","0","0","5daca079bf590700167f704d","","null","","","","","","","learning/Slide40.JPG","null","","","","","",""
"html-keyboard-response","125","183418","0.0-5.0-2.39","LF","9y1b9uh65r","1920","1080","0","0","0","5daca079bf590700167f704d","","null","","","learningBlock1","","","","<div style=""font-size:60px;""> </div>","null","LF","learning/Slide40.JPG","This is a tob:","","",""
"html-keyboard-response","126","184420","0.0-5.0-0.40","LF","9y1b9uh65r","1920","1080","0","0","0","5daca079bf590700167f704d","","null","","","learningBlock1","","","","This is a bim:","null","","","","","",""
"image-keyboard-response","127","184747","0.0-5.0-1.40","LF","9y1b9uh65r","1920","1080","0","0","0","5daca079bf590700167f704d","","null","","","","","","","learning/Slide41.JPG","null","","","","","",""
"html-keyboard-response","128","185749","0.0-5.0-2.40","LF","9y1b9uh65r","1920","1080","0","0","0","5daca079bf590700167f704d","","null","","","learningBlock1","","","","<div style=""font-size:60px;""> </div>","null","LF","learning/Slide41.JPG","This is a bim:","","",""
"html-keyboard-response","129","186751","0.0-5.0-0.41","LF","9y1b9uh65r","1920","1080","0","0","0","5daca079bf590700167f704d","","null","","","learningBlock1","","","","This is a dep:","null","","","","","",""
"image-keyboard-response","130","187080","0.0-5.0-1.41","LF","9y1b9uh65r","1920","1080","0","0","0","5daca079bf590700167f704d","","null","","","","","","","learning/Slide42.JPG","null","","","","","",""
"html-keyboard-response","131","188081","0.0-5.0-2.41","LF","9y1b9uh65r","1920","1080","0","0","0","5daca079bf590700167f704d","","null","","","learningBlock1","","","","<div style=""font-size:60px;""> </div>","null","LF","learning/Slide42.JPG","This is a dep:","","",""
"html-keyboard-response","132","189083","0.0-5.0-0.42","LF","9y1b9uh65r","1920","1080","0","0","0","5daca079bf590700167f704d","","null","","","learningBlock1","","","","This is a wug:","null","","","","","",""
"image-keyboard-response","133","189411","0.0-5.0-1.42","LF","9y1b9uh65r","1920","1080","0","0","0","5daca079bf590700167f704d","","null","","","","","","","learning/Slide43.JPG","null","","","","","",""
"html-keyboard-response","134","190413","0.0-5.0-2.42","LF","9y1b9uh65r","1920","1080","0","0","0","5daca079bf590700167f704d","","null","","","learningBlock1","","","","<div style=""font-size:60px;""> </div>","null","LF","learning/Slide43.JPG","This is a wug:","","",""
"html-keyboard-response","135","191414","0.0-5.0-0.43","LF","9y1b9uh65r","1920","1080","0","0","0","5daca079bf590700167f704d","","null","","","learningBlock1","","","","This is a bim:","null","","","","","",""
"image-keyboard-response","136","191741","0.0-5.0-1.43","LF","9y1b9uh65r","1920","1080","0","0","0","5daca079bf590700167f704d","","null","","","","","","","learning/Slide44.JPG","null","","","","","",""
"html-keyboard-response","137","192742","0.0-5.0-2.43","LF","9y1b9uh65r","1920","1080","0","0","0","5daca079bf590700167f704d","","null","","","learningBlock1","","","","<div style=""font-size:60px;""> </div>","null","LF","learning/Slide44.JPG","This is a bim:","","",""
"html-keyboard-response","138","193744","0.0-5.0-0.44","LF","9y1b9uh65r","1920","1080","0","0","0","5daca079bf590700167f704d","","null","","","learningBlock1","","","","This is a wug:","null","","","","","",""
"image-keyboard-response","139","194071","0.0-5.0-1.44","LF","9y1b9uh65r","1920","1080","0","0","0","5daca079bf590700167f704d","","null","","","","","","","learning/Slide45.JPG","null","","","","","",""
"html-keyboard-response","140","195073","0.0-5.0-2.44","LF","9y1b9uh65r","1920","1080","0","0","0","5daca079bf590700167f704d","","null","","","learningBlock1","","","","<div style=""font-size:60px;""> </div>","null","LF","learning/Slide45.JPG","This is a wug:","","",""
"html-keyboard-response","141","196075","0.0-5.0-0.45","LF","9y1b9uh65r","1920","1080","0","0","0","5daca079bf590700167f704d","","null","","","learningBlock1","","","","This is a dep:","null","","","","","",""
"image-keyboard-response","142","196402","0.0-5.0-1.45","LF","9y1b9uh65r","1920","1080","0","0","0","5daca079bf590700167f704d","","null","","","","","","","learning/Slide46.JPG","null","","","","","",""
"html-keyboard-response","143","197404","0.0-5.0-2.45","LF","9y1b9uh65r","1920","1080","0","0","0","5daca079bf590700167f704d","","null","","","learningBlock1","","","","<div style=""font-size:60px;""> </div>","null","LF","learning/Slide46.JPG","This is a dep:","","",""
"html-keyboard-response","144","198406","0.0-5.0-0.46","LF","9y1b9uh65r","1920","1080","0","0","0","5daca079bf590700167f704d","","null","","","learningBlock1","","","","This is a tob:","null","","","","","",""
"image-keyboard-response","145","198733","0.0-5.0-1.46","LF","9y1b9uh65r","1920","1080","0","0","0","5daca079bf590700167f704d","","null","","","","","","","learning/Slide47.JPG","null","","","","","",""
"html-keyboard-response","146","199734","0.0-5.0-2.46","LF","9y1b9uh65r","1920","1080","0","0","0","5daca079bf590700167f704d","","null","","","learningBlock1","","","","<div style=""font-size:60px;""> </div>","null","LF","learning/Slide47.JPG","This is a tob:","","",""
"html-keyboard-response","147","200735","0.0-5.0-0.47","LF","9y1b9uh65r","1920","1080","0","0","0","5daca079bf590700167f704d","","null","","","learningBlock1","","","","This is a bim:","null","","","","","",""
"image-keyboard-response","148","201063","0.0-5.0-1.47","LF","9y1b9uh65r","1920","1080","0","0","0","5daca079bf590700167f704d","","null","","","","","","","learning/Slide48.JPG","null","","","","","",""
"html-keyboard-response","149","202065","0.0-5.0-2.47","LF","9y1b9uh65r","1920","1080","0","0","0","5daca079bf590700167f704d","","null","","","learningBlock1","","","","<div style=""font-size:60px;""> </div>","null","LF","learning/Slide48.JPG","This is a bim:","","",""
"html-keyboard-response","150","203067","0.0-5.0-0.48","LF","9y1b9uh65r","1920","1080","0","0","0","5daca079bf590700167f704d","","null","","","learningBlock1","","","","This is a dep:","null","","","","","",""
"image-keyboard-response","151","203394","0.0-5.0-1.48","LF","9y1b9uh65r","1920","1080","0","0","0","5daca079bf590700167f704d","","null","","","","","","","learning/Slide49.JPG","null","","","","","",""
"html-keyboard-response","152","204396","0.0-5.0-2.48","LF","9y1b9uh65r","1920","1080","0","0","0","5daca079bf590700167f704d","","null","","","learningBlock1","","","","<div style=""font-size:60px;""> </div>","null","LF","learning/Slide49.JPG","This is a dep:","","",""
"html-keyboard-response","153","205397","0.0-5.0-0.49","LF","9y1b9uh65r","1920","1080","0","0","0","5daca079bf590700167f704d","","null","","","learningBlock1","","","","This is a tob:","null","","","","","",""
"image-keyboard-response","154","205725","0.0-5.0-1.49","LF","9y1b9uh65r","1920","1080","0","0","0","5daca079bf590700167f704d","","null","","","","","","","learning/Slide50.JPG","null","","","","","",""
"html-keyboard-response","155","206727","0.0-5.0-2.49","LF","9y1b9uh65r","1920","1080","0","0","0","5daca079bf590700167f704d","","null","","","learningBlock1","","","","<div style=""font-size:60px;""> </div>","null","LF","learning/Slide50.JPG","This is a tob:","","",""
"html-keyboard-response","156","207728","0.0-5.0-0.50","LF","9y1b9uh65r","1920","1080","0","0","0","5daca079bf590700167f704d","","null","","","learningBlock1","","","","This is a bim:","null","","","","","",""
"image-keyboard-response","157","208055","0.0-5.0-1.50","LF","9y1b9uh65r","1920","1080","0","0","0","5daca079bf590700167f704d","","null","","","","","","","learning/Slide51.JPG","null","","","","","",""
"html-keyboard-response","158","209056","0.0-5.0-2.50","LF","9y1b9uh65r","1920","1080","0","0","0","5daca079bf590700167f704d","","null","","","learningBlock1","","","","<div style=""font-size:60px;""> </div>","null","LF","learning/Slide51.JPG","This is a bim:","","",""
"html-keyboard-response","159","210057","0.0-5.0-0.51","LF","9y1b9uh65r","1920","1080","0","0","0","5daca079bf590700167f704d","","null","","","learningBlock1","","","","This is a wug:","null","","","","","",""
"image-keyboard-response","160","210386","0.0-5.0-1.51","LF","9y1b9uh65r","1920","1080","0","0","0","5daca079bf590700167f704d","","null","","","","","","","learning/Slide52.JPG","null","","","","","",""
"html-keyboard-response","161","211389","0.0-5.0-2.51","LF","9y1b9uh65r","1920","1080","0","0","0","5daca079bf590700167f704d","","null","","","learningBlock1","","","","<div style=""font-size:60px;""> </div>","null","LF","learning/Slide52.JPG","This is a wug:","","",""
"html-keyboard-response","162","212391","0.0-5.0-0.52","LF","9y1b9uh65r","1920","1080","0","0","0","5daca079bf590700167f704d","","null","","","learningBlock1","","","","This is a tob:","null","","","","","",""
"image-keyboard-response","163","212718","0.0-5.0-1.52","LF","9y1b9uh65r","1920","1080","0","0","0","5daca079bf590700167f704d","","null","","","","","","","learning/Slide53.JPG","null","","","","","",""
"html-keyboard-response","164","213721","0.0-5.0-2.52","LF","9y1b9uh65r","1920","1080","0","0","0","5daca079bf590700167f704d","","null","","","learningBlock1","","","","<div style=""font-size:60px;""> </div>","null","LF","learning/Slide53.JPG","This is a tob:","","",""
"html-keyboard-response","165","214722","0.0-5.0-0.53","LF","9y1b9uh65r","1920","1080","0","0","0","5daca079bf590700167f704d","","null","","","learningBlock1","","","","This is a dep:","null","","","","","",""
"image-keyboard-response","166","215049","0.0-5.0-1.53","LF","9y1b9uh65r","1920","1080","0","0","0","5daca079bf590700167f704d","","null","","","","","","","learning/Slide54.JPG","null","","","","","",""
"html-keyboard-response","167","216051","0.0-5.0-2.53","LF","9y1b9uh65r","1920","1080","0","0","0","5daca079bf590700167f704d","","null","","","learningBlock1","","","","<div style=""font-size:60px;""> </div>","null","LF","learning/Slide54.JPG","This is a dep:","","",""
"html-keyboard-response","168","217052","0.0-5.0-0.54","LF","9y1b9uh65r","1920","1080","0","0","0","5daca079bf590700167f704d","","null","","","learningBlock1","","","","This is a bim:","null","","","","","",""
"image-keyboard-response","169","217378","0.0-5.0-1.54","LF","9y1b9uh65r","1920","1080","0","0","0","5daca079bf590700167f704d","","null","","","","","","","learning/Slide55.JPG","null","","","","","",""
"html-keyboard-response","170","218380","0.0-5.0-2.54","LF","9y1b9uh65r","1920","1080","0","0","0","5daca079bf590700167f704d","","null","","","learningBlock1","","","","<div style=""font-size:60px;""> </div>","null","LF","learning/Slide55.JPG","This is a bim:","","",""
"html-keyboard-response","171","219382","0.0-5.0-0.55","LF","9y1b9uh65r","1920","1080","0","0","0","5daca079bf590700167f704d","","null","","","learningBlock1","","","","This is a tob:","null","","","","","",""
"image-keyboard-response","172","219726","0.0-5.0-1.55","LF","9y1b9uh65r","1920","1080","0","0","0","5daca079bf590700167f704d","","null","","","","","","","learning/Slide56.JPG","null","","","","","",""
"html-keyboard-response","173","220727","0.0-5.0-2.55","LF","9y1b9uh65r","1920","1080","0","0","0","5daca079bf590700167f704d","","null","","","learningBlock1","","","","<div style=""font-size:60px;""> </div>","null","LF","learning/Slide56.JPG","This is a tob:","","",""
"html-keyboard-response","174","221728","0.0-5.0-0.56","LF","9y1b9uh65r","1920","1080","0","0","0","5daca079bf590700167f704d","","null","","","learningBlock1","","","","This is a dep:","null","","","","","",""
"image-keyboard-response","175","222054","0.0-5.0-1.56","LF","9y1b9uh65r","1920","1080","0","0","0","5daca079bf590700167f704d","","null","","","","","","","learning/Slide57.JPG","null","","","","","",""
"html-keyboard-response","176","223056","0.0-5.0-2.56","LF","9y1b9uh65r","1920","1080","0","0","0","5daca079bf590700167f704d","","null","","","learningBlock1","","","","<div style=""font-size:60px;""> </div>","null","LF","learning/Slide57.JPG","This is a dep:","","",""
"html-keyboard-response","177","224057","0.0-5.0-0.57","LF","9y1b9uh65r","1920","1080","0","0","0","5daca079bf590700167f704d","","null","","","learningBlock1","","","","This is a wug:","null","","","","","",""
"image-keyboard-response","178","224385","0.0-5.0-1.57","LF","9y1b9uh65r","1920","1080","0","0","0","5daca079bf590700167f704d","","null","","","","","","","learning/Slide58.JPG","null","","","","","",""
"html-keyboard-response","179","225387","0.0-5.0-2.57","LF","9y1b9uh65r","1920","1080","0","0","0","5daca079bf590700167f704d","","null","","","learningBlock1","","","","<div style=""font-size:60px;""> </div>","null","LF","learning/Slide58.JPG","This is a wug:","","",""
"html-keyboard-response","180","226388","0.0-5.0-0.58","LF","9y1b9uh65r","1920","1080","0","0","0","5daca079bf590700167f704d","","null","","","learningBlock1","","","","This is a dep:","null","","","","","",""
"image-keyboard-response","181","226716","0.0-5.0-1.58","LF","9y1b9uh65r","1920","1080","0","0","0","5daca079bf590700167f704d","","null","","","","","","","learning/Slide59.JPG","null","","","","","",""
"html-keyboard-response","182","227719","0.0-5.0-2.58","LF","9y1b9uh65r","1920","1080","0","0","0","5daca079bf590700167f704d","","null","","","learningBlock1","","","","<div style=""font-size:60px;""> </div>","null","LF","learning/Slide59.JPG","This is a dep:","","",""
"html-keyboard-response","183","228720","0.0-5.0-0.59","LF","9y1b9uh65r","1920","1080","0","0","0","5daca079bf590700167f704d","","null","","","learningBlock1","","","","This is a wug:","null","","","","","",""
"image-keyboard-response","184","229048","0.0-5.0-1.59","LF","9y1b9uh65r","1920","1080","0","0","0","5daca079bf590700167f704d","","null","","","","","","","learning/Slide60.JPG","null","","","","","",""
"html-keyboard-response","185","230050","0.0-5.0-2.59","LF","9y1b9uh65r","1920","1080","0","0","0","5daca079bf590700167f704d","","null","","","learningBlock1","","","","<div style=""font-size:60px;""> </div>","null","LF","learning/Slide60.JPG","This is a wug:","","",""
"html-keyboard-response","186","231052","0.0-5.0-0.60","LF","9y1b9uh65r","1920","1080","0","0","0","5daca079bf590700167f704d","","null","","","learningBlock1","","","","This is a bim:","null","","","","","",""
"image-keyboard-response","187","231379","0.0-5.0-1.60","LF","9y1b9uh65r","1920","1080","0","0","0","5daca079bf590700167f704d","","null","","","","","","","learning/Slide61.JPG","null","","","","","",""
"html-keyboard-response","188","232380","0.0-5.0-2.60","LF","9y1b9uh65r","1920","1080","0","0","0","5daca079bf590700167f704d","","null","","","learningBlock1","","","","<div style=""font-size:60px;""> </div>","null","LF","learning/Slide61.JPG","This is a bim:","","",""
"html-keyboard-response","189","233386","0.0-5.0-0.61","LF","9y1b9uh65r","1920","1080","0","0","0","5daca079bf590700167f704d","","null","","","learningBlock1","","","","This is a dep:","null","","","","","",""
"image-keyboard-response","190","233713","0.0-5.0-1.61","LF","9y1b9uh65r","1920","1080","0","0","0","5daca079bf590700167f704d","","null","","","","","","","learning/Slide62.JPG","null","","","","","",""
"html-keyboard-response","191","234715","0.0-5.0-2.61","LF","9y1b9uh65r","1920","1080","0","0","0","5daca079bf590700167f704d","","null","","","learningBlock1","","","","<div style=""font-size:60px;""> </div>","null","LF","learning/Slide62.JPG","This is a dep:","","",""
"html-keyboard-response","192","235717","0.0-5.0-0.62","LF","9y1b9uh65r","1920","1080","0","0","0","5daca079bf590700167f704d","","null","","","learningBlock1","","","","This is a bim:","null","","","","","",""
"image-keyboard-response","193","236045","0.0-5.0-1.62","LF","9y1b9uh65r","1920","1080","0","0","0","5daca079bf590700167f704d","","null","","","","","","","learning/Slide63.JPG","null","","","","","",""
"html-keyboard-response","194","237047","0.0-5.0-2.62","LF","9y1b9uh65r","1920","1080","0","0","0","5daca079bf590700167f704d","","null","","","learningBlock1","","","","<div style=""font-size:60px;""> </div>","null","LF","learning/Slide63.JPG","This is a bim:","","",""
"html-keyboard-response","195","238048","0.0-5.0-0.63","LF","9y1b9uh65r","1920","1080","0","0","0","5daca079bf590700167f704d","","null","","","learningBlock1","","","","This is a tob:","null","","","","","",""
"image-keyboard-response","196","238376","0.0-5.0-1.63","LF","9y1b9uh65r","1920","1080","0","0","0","5daca079bf590700167f704d","","null","","","","","","","learning/Slide64.JPG","null","","","","","",""
"html-keyboard-response","197","239377","0.0-5.0-2.63","LF","9y1b9uh65r","1920","1080","0","0","0","5daca079bf590700167f704d","","null","","","learningBlock1","","","","<div style=""font-size:60px;""> </div>","null","LF","learning/Slide64.JPG","This is a tob:","","",""
"html-keyboard-response","198","240379","0.0-5.0-0.64","LF","9y1b9uh65r","1920","1080","0","0","0","5daca079bf590700167f704d","","null","","","learningBlock1","","","","This is a wug:","null","","","","","",""
"image-keyboard-response","199","240707","0.0-5.0-1.64","LF","9y1b9uh65r","1920","1080","0","0","0","5daca079bf590700167f704d","","null","","","","","","","learning/Slide65.JPG","null","","","","","",""
"html-keyboard-response","200","241708","0.0-5.0-2.64","LF","9y1b9uh65r","1920","1080","0","0","0","5daca079bf590700167f704d","","null","","","learningBlock1","","","","<div style=""font-size:60px;""> </div>","null","LF","learning/Slide65.JPG","This is a wug:","","",""
"html-keyboard-response","201","242709","0.0-5.0-0.65","LF","9y1b9uh65r","1920","1080","0","0","0","5daca079bf590700167f704d","","null","","","learningBlock1","","","","This is a dep:","null","","","","","",""
"image-keyboard-response","202","243037","0.0-5.0-1.65","LF","9y1b9uh65r","1920","1080","0","0","0","5daca079bf590700167f704d","","null","","","","","","","learning/Slide66.JPG","null","","","","","",""
"html-keyboard-response","203","244039","0.0-5.0-2.65","LF","9y1b9uh65r","1920","1080","0","0","0","5daca079bf590700167f704d","","null","","","learningBlock1","","","","<div style=""font-size:60px;""> </div>","null","LF","learning/Slide66.JPG","This is a dep:","","",""
"html-keyboard-response","204","245040","0.0-5.0-0.66","LF","9y1b9uh65r","1920","1080","0","0","0","5daca079bf590700167f704d","","null","","","learningBlock1","","","","This is a tob:","null","","","","","",""
"image-keyboard-response","205","245368","0.0-5.0-1.66","LF","9y1b9uh65r","1920","1080","0","0","0","5daca079bf590700167f704d","","null","","","","","","","learning/Slide67.JPG","null","","","","","",""
"html-keyboard-response","206","246370","0.0-5.0-2.66","LF","9y1b9uh65r","1920","1080","0","0","0","5daca079bf590700167f704d","","null","","","learningBlock1","","","","<div style=""font-size:60px;""> </div>","null","LF","learning/Slide67.JPG","This is a tob:","","",""
"html-keyboard-response","207","247371","0.0-5.0-0.67","LF","9y1b9uh65r","1920","1080","0","0","0","5daca079bf590700167f704d","","null","","","learningBlock1","","","","This is a wug:","null","","","","","",""
"image-keyboard-response","208","247699","0.0-5.0-1.67","LF","9y1b9uh65r","1920","1080","0","0","0","5daca079bf590700167f704d","","null","","","","","","","learning/Slide68.JPG","null","","","","","",""
"html-keyboard-response","209","248701","0.0-5.0-2.67","LF","9y1b9uh65r","1920","1080","0","0","0","5daca079bf590700167f704d","","null","","","learningBlock1","","","","<div style=""font-size:60px;""> </div>","null","LF","learning/Slide68.JPG","This is a wug:","","",""
"html-keyboard-response","210","249702","0.0-5.0-0.68","LF","9y1b9uh65r","1920","1080","0","0","0","5daca079bf590700167f704d","","null","","","learningBlock1","","","","This is a tob:","null","","","","","",""
"image-keyboard-response","211","250030","0.0-5.0-1.68","LF","9y1b9uh65r","1920","1080","0","0","0","5daca079bf590700167f704d","","null","","","","","","","learning/Slide69.JPG","null","","","","","",""
"html-keyboard-response","212","251033","0.0-5.0-2.68","LF","9y1b9uh65r","1920","1080","0","0","0","5daca079bf590700167f704d","","null","","","learningBlock1","","","","<div style=""font-size:60px;""> </div>","null","LF","learning/Slide69.JPG","This is a tob:","","",""
"html-keyboard-response","213","252035","0.0-5.0-0.69","LF","9y1b9uh65r","1920","1080","0","0","0","5daca079bf590700167f704d","","null","","","learningBlock1","","","","This is a dep:","null","","","","","",""
"image-keyboard-response","214","252362","0.0-5.0-1.69","LF","9y1b9uh65r","1920","1080","0","0","0","5daca079bf590700167f704d","","null","","","","","","","learning/Slide70.JPG","null","","","","","",""
"html-keyboard-response","215","253364","0.0-5.0-2.69","LF","9y1b9uh65r","1920","1080","0","0","0","5daca079bf590700167f704d","","null","","","learningBlock1","","","","<div style=""font-size:60px;""> </div>","null","LF","learning/Slide70.JPG","This is a dep:","","",""
"html-keyboard-response","216","254365","0.0-5.0-0.70","LF","9y1b9uh65r","1920","1080","0","0","0","5daca079bf590700167f704d","","null","","","learningBlock1","","","","This is a wug:","null","","","","","",""
"image-keyboard-response","217","254692","0.0-5.0-1.70","LF","9y1b9uh65r","1920","1080","0","0","0","5daca079bf590700167f704d","","null","","","","","","","learning/Slide71.JPG","null","","","","","",""
"html-keyboard-response","218","255693","0.0-5.0-2.70","LF","9y1b9uh65r","1920","1080","0","0","0","5daca079bf590700167f704d","","null","","","learningBlock1","","","","<div style=""font-size:60px;""> </div>","null","LF","learning/Slide71.JPG","This is a wug:","","",""
"html-keyboard-response","219","256695","0.0-5.0-0.71","LF","9y1b9uh65r","1920","1080","0","0","0","5daca079bf590700167f704d","","null","","","learningBlock1","","","","This is a bim:","null","","","","","",""
"image-keyboard-response","220","257022","0.0-5.0-1.71","LF","9y1b9uh65r","1920","1080","0","0","0","5daca079bf590700167f704d","","null","","","","","","","learning/Slide72.JPG","null","","","","","",""
"html-keyboard-response","221","258023","0.0-5.0-2.71","LF","9y1b9uh65r","1920","1080","0","0","0","5daca079bf590700167f704d","","null","","","learningBlock1","","","","<div style=""font-size:60px;""> </div>","null","LF","learning/Slide72.JPG","This is a bim:","","",""
"html-keyboard-response","222","259025","0.0-5.0-0.72","LF","9y1b9uh65r","1920","1080","0","0","0","5daca079bf590700167f704d","","null","","","learningBlock1","","","","This is a wug:","null","","","","","",""
"image-keyboard-response","223","259353","0.0-5.0-1.72","LF","9y1b9uh65r","1920","1080","0","0","0","5daca079bf590700167f704d","","null","","","","","","","learning/Slide73.JPG","null","","","","","",""
"html-keyboard-response","224","260355","0.0-5.0-2.72","LF","9y1b9uh65r","1920","1080","0","0","0","5daca079bf590700167f704d","","null","","","learningBlock1","","","","<div style=""font-size:60px;""> </div>","null","LF","learning/Slide73.JPG","This is a wug:","","",""
"html-keyboard-response","225","261356","0.0-5.0-0.73","LF","9y1b9uh65r","1920","1080","0","0","0","5daca079bf590700167f704d","","null","","","learningBlock1","","","","This is a dep:","null","","","","","",""
"image-keyboard-response","226","261685","0.0-5.0-1.73","LF","9y1b9uh65r","1920","1080","0","0","0","5daca079bf590700167f704d","","null","","","","","","","learning/Slide74.JPG","null","","","","","",""
"html-keyboard-response","227","262686","0.0-5.0-2.73","LF","9y1b9uh65r","1920","1080","0","0","0","5daca079bf590700167f704d","","null","","","learningBlock1","","","","<div style=""font-size:60px;""> </div>","null","LF","learning/Slide74.JPG","This is a dep:","","",""
"html-keyboard-response","228","263687","0.0-5.0-0.74","LF","9y1b9uh65r","1920","1080","0","0","0","5daca079bf590700167f704d","","null","","","learningBlock1","","","","This is a tob:","null","","","","","",""
"image-keyboard-response","229","264015","0.0-5.0-1.74","LF","9y1b9uh65r","1920","1080","0","0","0","5daca079bf590700167f704d","","null","","","","","","","learning/Slide75.JPG","null","","","","","",""
"html-keyboard-response","230","265017","0.0-5.0-2.74","LF","9y1b9uh65r","1920","1080","0","0","0","5daca079bf590700167f704d","","null","","","learningBlock1","","","","<div style=""font-size:60px;""> </div>","null","LF","learning/Slide75.JPG","This is a tob:","","",""
"html-keyboard-response","231","266019","0.0-5.0-0.75","LF","9y1b9uh65r","1920","1080","0","0","0","5daca079bf590700167f704d","","null","","","learningBlock1","","","","This is a bim:","null","","","","","",""
"image-keyboard-response","232","266347","0.0-5.0-1.75","LF","9y1b9uh65r","1920","1080","0","0","0","5daca079bf590700167f704d","","null","","","","","","","learning/Slide76.JPG","null","","","","","",""
"html-keyboard-response","233","267350","0.0-5.0-2.75","LF","9y1b9uh65r","1920","1080","0","0","0","5daca079bf590700167f704d","","null","","","learningBlock1","","","","<div style=""font-size:60px;""> </div>","null","LF","learning/Slide76.JPG","This is a bim:","","",""
"html-keyboard-response","234","268350","0.0-5.0-0.76","LF","9y1b9uh65r","1920","1080","0","0","0","5daca079bf590700167f704d","","null","","","learningBlock1","","","","This is a tob:","null","","","","","",""
"image-keyboard-response","235","268678","0.0-5.0-1.76","LF","9y1b9uh65r","1920","1080","0","0","0","5daca079bf590700167f704d","","null","","","","","","","learning/Slide77.JPG","null","","","","","",""
"html-keyboard-response","236","269679","0.0-5.0-2.76","LF","9y1b9uh65r","1920","1080","0","0","0","5daca079bf590700167f704d","","null","","","learningBlock1","","","","<div style=""font-size:60px;""> </div>","null","LF","learning/Slide77.JPG","This is a tob:","","",""
"html-keyboard-response","237","270681","0.0-5.0-0.77","LF","9y1b9uh65r","1920","1080","0","0","0","5daca079bf590700167f704d","","null","","","learningBlock1","","","","This is a wug:","null","","","","","",""
"image-keyboard-response","238","271009","0.0-5.0-1.77","LF","9y1b9uh65r","1920","1080","0","0","0","5daca079bf590700167f704d","","null","","","","","","","learning/Slide78.JPG","null","","","","","",""
"html-keyboard-response","239","272010","0.0-5.0-2.77","LF","9y1b9uh65r","1920","1080","0","0","0","5daca079bf590700167f704d","","null","","","learningBlock1","","","","<div style=""font-size:60px;""> </div>","null","LF","learning/Slide78.JPG","This is a wug:","","",""
"html-keyboard-response","240","273012","0.0-5.0-0.78","LF","9y1b9uh65r","1920","1080","0","0","0","5daca079bf590700167f704d","","null","","","learningBlock1","","","","This is a bim:","null","","","","","",""
"image-keyboard-response","241","273339","0.0-5.0-1.78","LF","9y1b9uh65r","1920","1080","0","0","0","5daca079bf590700167f704d","","null","","","","","","","learning/Slide79.JPG","null","","","","","",""
"html-keyboard-response","242","274340","0.0-5.0-2.78","LF","9y1b9uh65r","1920","1080","0","0","0","5daca079bf590700167f704d","","null","","","learningBlock1","","","","<div style=""font-size:60px;""> </div>","null","LF","learning/Slide79.JPG","This is a bim:","","",""
"html-keyboard-response","243","275342","0.0-5.0-0.79","LF","9y1b9uh65r","1920","1080","0","0","0","5daca079bf590700167f704d","","null","","","learningBlock1","","","","This is a tob:","null","","","","","",""
"image-keyboard-response","244","275670","0.0-5.0-1.79","LF","9y1b9uh65r","1920","1080","0","0","0","5daca079bf590700167f704d","","null","","","","","","","learning/Slide80.JPG","null","","","","","",""
"html-keyboard-response","245","276829","0.0-5.0-2.79","LF","9y1b9uh65r","1920","1080","0","0","0","5daca079bf590700167f704d","","null","","","learningBlock1","","","","<div style=""font-size:60px;""> </div>","null","LF","learning/Slide80.JPG","This is a tob:","","",""
"instructions","246","308930","0.0-6.0","LF","9y1b9uh65r","1920","1080","0","0","0","5daca079bf590700167f704d","","NA","","[{""page_index"":0,""viewing_time"":32101.169999994454}]","instructions","","","","","","","","","","",""
"html-keyboard-response","247","309932","0.0-7.0-0.0","LF","9y1b9uh65r","1920","1080","0","0","0","5daca079bf590700167f704d","","null","","","learningBlock2","","","","This is a wug:","null","","","","","",""
"image-keyboard-response","248","310259","0.0-7.0-1.0","LF","9y1b9uh65r","1920","1080","0","0","0","5daca079bf590700167f704d","","null","","","","","","","learning/Slide81.JPG","null","","","","","",""
"html-keyboard-response","249","311260","0.0-7.0-2.0","LF","9y1b9uh65r","1920","1080","0","0","0","5daca079bf590700167f704d","","null","","","learningBlock2","","","","<div style=""font-size:60px;""> </div>","null","LF","learning/Slide81.JPG","This is a wug:","","",""
"html-keyboard-response","250","312262","0.0-7.0-0.1","LF","9y1b9uh65r","1920","1080","0","0","0","5daca079bf590700167f704d","","null","","","learningBlock2","","","","This is a bim:","null","","","","","",""
"image-keyboard-response","251","312591","0.0-7.0-1.1","LF","9y1b9uh65r","1920","1080","0","0","0","5daca079bf590700167f704d","","null","","","","","","","learning/Slide82.JPG","null","","","","","",""
"html-keyboard-response","252","313592","0.0-7.0-2.1","LF","9y1b9uh65r","1920","1080","0","0","0","5daca079bf590700167f704d","","null","","","learningBlock2","","","","<div style=""font-size:60px;""> </div>","null","LF","learning/Slide82.JPG","This is a bim:","","",""
"html-keyboard-response","253","314593","0.0-7.0-0.2","LF","9y1b9uh65r","1920","1080","0","0","0","5daca079bf590700167f704d","","null","","","learningBlock2","","","","This is a wug:","null","","","","","",""
"image-keyboard-response","254","314921","0.0-7.0-1.2","LF","9y1b9uh65r","1920","1080","0","0","0","5daca079bf590700167f704d","","null","","","","","","","learning/Slide83.JPG","null","","","","","",""
"html-keyboard-response","255","315922","0.0-7.0-2.2","LF","9y1b9uh65r","1920","1080","0","0","0","5daca079bf590700167f704d","","null","","","learningBlock2","","","","<div style=""font-size:60px;""> </div>","null","LF","learning/Slide83.JPG","This is a wug:","","",""
"html-keyboard-response","256","316924","0.0-7.0-0.3","LF","9y1b9uh65r","1920","1080","0","0","0","5daca079bf590700167f704d","","null","","","learningBlock2","","","","This is a dep:","null","","","","","",""
"image-keyboard-response","257","317251","0.0-7.0-1.3","LF","9y1b9uh65r","1920","1080","0","0","0","5daca079bf590700167f704d","","null","","","","","","","learning/Slide84.JPG","null","","","","","",""
"html-keyboard-response","258","318252","0.0-7.0-2.3","LF","9y1b9uh65r","1920","1080","0","0","0","5daca079bf590700167f704d","","null","","","learningBlock2","","","","<div style=""font-size:60px;""> </div>","null","LF","learning/Slide84.JPG","This is a dep:","","",""
"html-keyboard-response","259","319253","0.0-7.0-0.4","LF","9y1b9uh65r","1920","1080","0","0","0","5daca079bf590700167f704d","","null","","","learningBlock2","","","","This is a bim:","null","","","","","",""
"image-keyboard-response","260","319582","0.0-7.0-1.4","LF","9y1b9uh65r","1920","1080","0","0","0","5daca079bf590700167f704d","","null","","","","","","","learning/Slide85.JPG","null","","","","","",""
"html-keyboard-response","261","320583","0.0-7.0-2.4","LF","9y1b9uh65r","1920","1080","0","0","0","5daca079bf590700167f704d","","null","","","learningBlock2","","","","<div style=""font-size:60px;""> </div>","null","LF","learning/Slide85.JPG","This is a bim:","","",""
"html-keyboard-response","262","321584","0.0-7.0-0.5","LF","9y1b9uh65r","1920","1080","0","0","0","5daca079bf590700167f704d","","null","","","learningBlock2","","","","This is a tob:","null","","","","","",""
"image-keyboard-response","263","321911","0.0-7.0-1.5","LF","9y1b9uh65r","1920","1080","0","0","0","5daca079bf590700167f704d","","null","","","","","","","learning/Slide86.JPG","null","","","","","",""
"html-keyboard-response","264","322912","0.0-7.0-2.5","LF","9y1b9uh65r","1920","1080","0","0","0","5daca079bf590700167f704d","","null","","","learningBlock2","","","","<div style=""font-size:60px;""> </div>","null","LF","learning/Slide86.JPG","This is a tob:","","",""
"html-keyboard-response","265","323914","0.0-7.0-0.6","LF","9y1b9uh65r","1920","1080","0","0","0","5daca079bf590700167f704d","","null","","","learningBlock2","","","","This is a wug:","null","","","","","",""
"image-keyboard-response","266","324241","0.0-7.0-1.6","LF","9y1b9uh65r","1920","1080","0","0","0","5daca079bf590700167f704d","","null","","","","","","","learning/Slide87.JPG","null","","","","","",""
"html-keyboard-response","267","325243","0.0-7.0-2.6","LF","9y1b9uh65r","1920","1080","0","0","0","5daca079bf590700167f704d","","null","","","learningBlock2","","","","<div style=""font-size:60px;""> </div>","null","LF","learning/Slide87.JPG","This is a wug:","","",""
"html-keyboard-response","268","326245","0.0-7.0-0.7","LF","9y1b9uh65r","1920","1080","0","0","0","5daca079bf590700167f704d","","null","","","learningBlock2","","","","This is a tob:","null","","","","","",""
"image-keyboard-response","269","326573","0.0-7.0-1.7","LF","9y1b9uh65r","1920","1080","0","0","0","5daca079bf590700167f704d","","null","","","","","","","learning/Slide88.JPG","null","","","","","",""
"html-keyboard-response","270","327575","0.0-7.0-2.7","LF","9y1b9uh65r","1920","1080","0","0","0","5daca079bf590700167f704d","","null","","","learningBlock2","","","","<div style=""font-size:60px;""> </div>","null","LF","learning/Slide88.JPG","This is a tob:","","",""
"html-keyboard-response","271","328576","0.0-7.0-0.8","LF","9y1b9uh65r","1920","1080","0","0","0","5daca079bf590700167f704d","","null","","","learningBlock2","","","","This is a bim:","null","","","","","",""
"image-keyboard-response","272","328905","0.0-7.0-1.8","LF","9y1b9uh65r","1920","1080","0","0","0","5daca079bf590700167f704d","","null","","","","","","","learning/Slide89.JPG","null","","","","","",""
"html-keyboard-response","273","329907","0.0-7.0-2.8","LF","9y1b9uh65r","1920","1080","0","0","0","5daca079bf590700167f704d","","null","","","learningBlock2","","","","<div style=""font-size:60px;""> </div>","null","LF","learning/Slide89.JPG","This is a bim:","","",""
"html-keyboard-response","274","330909","0.0-7.0-0.9","LF","9y1b9uh65r","1920","1080","0","0","0","5daca079bf590700167f704d","","null","","","learningBlock2","","","","This is a dep:","null","","","","","",""
"image-keyboard-response","275","331237","0.0-7.0-1.9","LF","9y1b9uh65r","1920","1080","0","0","0","5daca079bf590700167f704d","","null","","","","","","","learning/Slide90.JPG","null","","","","","",""
"html-keyboard-response","276","332239","0.0-7.0-2.9","LF","9y1b9uh65r","1920","1080","0","0","0","5daca079bf590700167f704d","","null","","","learningBlock2","","","","<div style=""font-size:60px;""> </div>","null","LF","learning/Slide90.JPG","This is a dep:","","",""
"html-keyboard-response","277","333240","0.0-7.0-0.10","LF","9y1b9uh65r","1920","1080","0","0","0","5daca079bf590700167f704d","","null","","","learningBlock2","","","","This is a wug:","null","","","","","",""
"image-keyboard-response","278","333568","0.0-7.0-1.10","LF","9y1b9uh65r","1920","1080","0","0","0","5daca079bf590700167f704d","","null","","","","","","","learning/Slide91.JPG","null","","","","","",""
"html-keyboard-response","279","334569","0.0-7.0-2.10","LF","9y1b9uh65r","1920","1080","0","0","0","5daca079bf590700167f704d","","null","","","learningBlock2","","","","<div style=""font-size:60px;""> </div>","null","LF","learning/Slide91.JPG","This is a wug:","","",""
"html-keyboard-response","280","335571","0.0-7.0-0.11","LF","9y1b9uh65r","1920","1080","0","0","0","5daca079bf590700167f704d","","null","","","learningBlock2","","","","This is a tob:","null","","","","","",""
"image-keyboard-response","281","335899","0.0-7.0-1.11","LF","9y1b9uh65r","1920","1080","0","0","0","5daca079bf590700167f704d","","null","","","","","","","learning/Slide92.JPG","null","","","","","",""
"html-keyboard-response","282","336901","0.0-7.0-2.11","LF","9y1b9uh65r","1920","1080","0","0","0","5daca079bf590700167f704d","","null","","","learningBlock2","","","","<div style=""font-size:60px;""> </div>","null","LF","learning/Slide92.JPG","This is a tob:","","",""
"html-keyboard-response","283","337956","0.0-7.0-0.12","LF","9y1b9uh65r","1920","1080","0","0","0","5daca079bf590700167f704d","","null","","","learningBlock2","","","","This is a bim:","null","","","","","",""
"image-keyboard-response","284","338775","0.0-7.0-1.12","LF","9y1b9uh65r","1920","1080","0","0","0","5daca079bf590700167f704d","","null","","","","","","","learning/Slide93.JPG","null","","","","","",""
"html-keyboard-response","285","339777","0.0-7.0-2.12","LF","9y1b9uh65r","1920","1080","0","0","0","5daca079bf590700167f704d","","null","","","learningBlock2","","","","<div style=""font-size:60px;""> </div>","null","LF","learning/Slide93.JPG","This is a bim:","","",""
"html-keyboard-response","286","340778","0.0-7.0-0.13","LF","9y1b9uh65r","1920","1080","0","0","0","5daca079bf590700167f704d","","null","","","learningBlock2","","","","This is a tob:","null","","","","","",""
"image-keyboard-response","287","341106","0.0-7.0-1.13","LF","9y1b9uh65r","1920","1080","0","0","0","5daca079bf590700167f704d","","null","","","","","","","learning/Slide94.JPG","null","","","","","",""
"html-keyboard-response","288","342108","0.0-7.0-2.13","LF","9y1b9uh65r","1920","1080","0","0","0","5daca079bf590700167f704d","","null","","","learningBlock2","","","","<div style=""font-size:60px;""> </div>","null","LF","learning/Slide94.JPG","This is a tob:","","",""
"html-keyboard-response","289","343110","0.0-7.0-0.14","LF","9y1b9uh65r","1920","1080","0","0","0","5daca079bf590700167f704d","","null","","","learningBlock2","","","","This is a wug:","null","","","","","",""
"image-keyboard-response","290","343437","0.0-7.0-1.14","LF","9y1b9uh65r","1920","1080","0","0","0","5daca079bf590700167f704d","","null","","","","","","","learning/Slide95.JPG","null","","","","","",""
"html-keyboard-response","291","344439","0.0-7.0-2.14","LF","9y1b9uh65r","1920","1080","0","0","0","5daca079bf590700167f704d","","null","","","learningBlock2","","","","<div style=""font-size:60px;""> </div>","null","LF","learning/Slide95.JPG","This is a wug:","","",""
"html-keyboard-response","292","345441","0.0-7.0-0.15","LF","9y1b9uh65r","1920","1080","0","0","0","5daca079bf590700167f704d","","null","","","learningBlock2","","","","This is a tob:","null","","","","","",""
"image-keyboard-response","293","345769","0.0-7.0-1.15","LF","9y1b9uh65r","1920","1080","0","0","0","5daca079bf590700167f704d","","null","","","","","","","learning/Slide96.JPG","null","","","","","",""
"html-keyboard-response","294","346772","0.0-7.0-2.15","LF","9y1b9uh65r","1920","1080","0","0","0","5daca079bf590700167f704d","","null","","","learningBlock2","","","","<div style=""font-size:60px;""> </div>","null","LF","learning/Slide96.JPG","This is a tob:","","",""
"html-keyboard-response","295","347773","0.0-7.0-0.16","LF","9y1b9uh65r","1920","1080","0","0","0","5daca079bf590700167f704d","","null","","","learningBlock2","","","","This is a dep:","null","","","","","",""
"image-keyboard-response","296","348100","0.0-7.0-1.16","LF","9y1b9uh65r","1920","1080","0","0","0","5daca079bf590700167f704d","","null","","","","","","","learning/Slide97.JPG","null","","","","","",""
"html-keyboard-response","297","349102","0.0-7.0-2.16","LF","9y1b9uh65r","1920","1080","0","0","0","5daca079bf590700167f704d","","null","","","learningBlock2","","","","<div style=""font-size:60px;""> </div>","null","LF","learning/Slide97.JPG","This is a dep:","","",""
"html-keyboard-response","298","350104","0.0-7.0-0.17","LF","9y1b9uh65r","1920","1080","0","0","0","5daca079bf590700167f704d","","null","","","learningBlock2","","","","This is a bim:","null","","","","","",""
"image-keyboard-response","299","350431","0.0-7.0-1.17","LF","9y1b9uh65r","1920","1080","0","0","0","5daca079bf590700167f704d","","null","","","","","","","learning/Slide98.JPG","null","","","","","",""
"html-keyboard-response","300","351433","0.0-7.0-2.17","LF","9y1b9uh65r","1920","1080","0","0","0","5daca079bf590700167f704d","","null","","","learningBlock2","","","","<div style=""font-size:60px;""> </div>","null","LF","learning/Slide98.JPG","This is a bim:","","",""
"html-keyboard-response","301","352434","0.0-7.0-0.18","LF","9y1b9uh65r","1920","1080","0","0","0","5daca079bf590700167f704d","","null","","","learningBlock2","","","","This is a dep:","null","","","","","",""
"image-keyboard-response","302","352762","0.0-7.0-1.18","LF","9y1b9uh65r","1920","1080","0","0","0","5daca079bf590700167f704d","","null","","","","","","","learning/Slide99.JPG","null","","","","","",""
"html-keyboard-response","303","353764","0.0-7.0-2.18","LF","9y1b9uh65r","1920","1080","0","0","0","5daca079bf590700167f704d","","null","","","learningBlock2","","","","<div style=""font-size:60px;""> </div>","null","LF","learning/Slide99.JPG","This is a dep:","","",""
"html-keyboard-response","304","354765","0.0-7.0-0.19","LF","9y1b9uh65r","1920","1080","0","0","0","5daca079bf590700167f704d","","null","","","learningBlock2","","","","This is a bim:","null","","","","","",""
"image-keyboard-response","305","355093","0.0-7.0-1.19","LF","9y1b9uh65r","1920","1080","0","0","0","5daca079bf590700167f704d","","null","","","","","","","learning/Slide100.JPG","null","","","","","",""
"html-keyboard-response","306","356094","0.0-7.0-2.19","LF","9y1b9uh65r","1920","1080","0","0","0","5daca079bf590700167f704d","","null","","","learningBlock2","","","","<div style=""font-size:60px;""> </div>","null","LF","learning/Slide100.JPG","This is a bim:","","",""
"html-keyboard-response","307","357095","0.0-7.0-0.20","LF","9y1b9uh65r","1920","1080","0","0","0","5daca079bf590700167f704d","","null","","","learningBlock2","","","","This is a tob:","null","","","","","",""
"image-keyboard-response","308","357423","0.0-7.0-1.20","LF","9y1b9uh65r","1920","1080","0","0","0","5daca079bf590700167f704d","","null","","","","","","","learning/Slide101.JPG","null","","","","","",""
"html-keyboard-response","309","358425","0.0-7.0-2.20","LF","9y1b9uh65r","1920","1080","0","0","0","5daca079bf590700167f704d","","null","","","learningBlock2","","","","<div style=""font-size:60px;""> </div>","null","LF","learning/Slide101.JPG","This is a tob:","","",""
"html-keyboard-response","310","359426","0.0-7.0-0.21","LF","9y1b9uh65r","1920","1080","0","0","0","5daca079bf590700167f704d","","null","","","learningBlock2","","","","This is a bim:","null","","","","","",""
"image-keyboard-response","311","359753","0.0-7.0-1.21","LF","9y1b9uh65r","1920","1080","0","0","0","5daca079bf590700167f704d","","null","","","","","","","learning/Slide102.JPG","null","","","","","",""
"html-keyboard-response","312","360754","0.0-7.0-2.21","LF","9y1b9uh65r","1920","1080","0","0","0","5daca079bf590700167f704d","","null","","","learningBlock2","","","","<div style=""font-size:60px;""> </div>","null","LF","learning/Slide102.JPG","This is a bim:","","",""
"html-keyboard-response","313","361756","0.0-7.0-0.22","LF","9y1b9uh65r","1920","1080","0","0","0","5daca079bf590700167f704d","","null","","","learningBlock2","","","","This is a dep:","null","","","","","",""
"image-keyboard-response","314","362085","0.0-7.0-1.22","LF","9y1b9uh65r","1920","1080","0","0","0","5daca079bf590700167f704d","","null","","","","","","","learning/Slide103.JPG","null","","","","","",""
"html-keyboard-response","315","363086","0.0-7.0-2.22","LF","9y1b9uh65r","1920","1080","0","0","0","5daca079bf590700167f704d","","null","","","learningBlock2","","","","<div style=""font-size:60px;""> </div>","null","LF","learning/Slide103.JPG","This is a dep:","","",""
"html-keyboard-response","316","364087","0.0-7.0-0.23","LF","9y1b9uh65r","1920","1080","0","0","0","5daca079bf590700167f704d","","null","","","learningBlock2","","","","This is a tob:","null","","","","","",""
"image-keyboard-response","317","364414","0.0-7.0-1.23","LF","9y1b9uh65r","1920","1080","0","0","0","5daca079bf590700167f704d","","null","","","","","","","learning/Slide104.JPG","null","","","","","",""
"html-keyboard-response","318","365416","0.0-7.0-2.23","LF","9y1b9uh65r","1920","1080","0","0","0","5daca079bf590700167f704d","","null","","","learningBlock2","","","","<div style=""font-size:60px;""> </div>","null","LF","learning/Slide104.JPG","This is a tob:","","",""
"html-keyboard-response","319","366417","0.0-7.0-0.24","LF","9y1b9uh65r","1920","1080","0","0","0","5daca079bf590700167f704d","","null","","","learningBlock2","","","","This is a dep:","null","","","","","",""
"image-keyboard-response","320","366745","0.0-7.0-1.24","LF","9y1b9uh65r","1920","1080","0","0","0","5daca079bf590700167f704d","","null","","","","","","","learning/Slide105.JPG","null","","","","","",""
"html-keyboard-response","321","367748","0.0-7.0-2.24","LF","9y1b9uh65r","1920","1080","0","0","0","5daca079bf590700167f704d","","null","","","learningBlock2","","","","<div style=""font-size:60px;""> </div>","null","LF","learning/Slide105.JPG","This is a dep:","","",""
"html-keyboard-response","322","368749","0.0-7.0-0.25","LF","9y1b9uh65r","1920","1080","0","0","0","5daca079bf590700167f704d","","null","","","learningBlock2","","","","This is a wug:","null","","","","","",""
"image-keyboard-response","323","369076","0.0-7.0-1.25","LF","9y1b9uh65r","1920","1080","0","0","0","5daca079bf590700167f704d","","null","","","","","","","learning/Slide106.JPG","null","","","","","",""
"html-keyboard-response","324","370078","0.0-7.0-2.25","LF","9y1b9uh65r","1920","1080","0","0","0","5daca079bf590700167f704d","","null","","","learningBlock2","","","","<div style=""font-size:60px;""> </div>","null","LF","learning/Slide106.JPG","This is a wug:","","",""
"html-keyboard-response","325","371079","0.0-7.0-0.26","LF","9y1b9uh65r","1920","1080","0","0","0","5daca079bf590700167f704d","","null","","","learningBlock2","","","","This is a bim:","null","","","","","",""
"image-keyboard-response","326","371406","0.0-7.0-1.26","LF","9y1b9uh65r","1920","1080","0","0","0","5daca079bf590700167f704d","","null","","","","","","","learning/Slide107.JPG","null","","","","","",""
"html-keyboard-response","327","372408","0.0-7.0-2.26","LF","9y1b9uh65r","1920","1080","0","0","0","5daca079bf590700167f704d","","null","","","learningBlock2","","","","<div style=""font-size:60px;""> </div>","null","LF","learning/Slide107.JPG","This is a bim:","","",""
"html-keyboard-response","328","373410","0.0-7.0-0.27","LF","9y1b9uh65r","1920","1080","0","0","0","5daca079bf590700167f704d","","null","","","learningBlock2","","","","This is a dep:","null","","","","","",""
"image-keyboard-response","329","373738","0.0-7.0-1.27","LF","9y1b9uh65r","1920","1080","0","0","0","5daca079bf590700167f704d","","null","","","","","","","learning/Slide108.JPG","null","","","","","",""
"html-keyboard-response","330","374740","0.0-7.0-2.27","LF","9y1b9uh65r","1920","1080","0","0","0","5daca079bf590700167f704d","","null","","","learningBlock2","","","","<div style=""font-size:60px;""> </div>","null","LF","learning/Slide108.JPG","This is a dep:","","",""
"html-keyboard-response","331","375741","0.0-7.0-0.28","LF","9y1b9uh65r","1920","1080","0","0","0","5daca079bf590700167f704d","","null","","","learningBlock2","","","","This is a wug:","null","","","","","",""
"image-keyboard-response","332","376957","0.0-7.0-1.28","LF","9y1b9uh65r","1920","1080","0","0","0","5daca079bf590700167f704d","","null","","","","","","","learning/Slide109.JPG","null","","","","","",""
"html-keyboard-response","333","377959","0.0-7.0-2.28","LF","9y1b9uh65r","1920","1080","0","0","0","5daca079bf590700167f704d","","null","","","learningBlock2","","","","<div style=""font-size:60px;""> </div>","null","LF","learning/Slide109.JPG","This is a wug:","","",""
"html-keyboard-response","334","378960","0.0-7.0-0.29","LF","9y1b9uh65r","1920","1080","0","0","0","5daca079bf590700167f704d","","null","","","learningBlock2","","","","This is a bim:","null","","","","","",""
"image-keyboard-response","335","380143","0.0-7.0-1.29","LF","9y1b9uh65r","1920","1080","0","0","0","5daca079bf590700167f704d","","null","","","","","","","learning/Slide110.JPG","null","","","","","",""
"html-keyboard-response","336","381145","0.0-7.0-2.29","LF","9y1b9uh65r","1920","1080","0","0","0","5daca079bf590700167f704d","","null","","","learningBlock2","","","","<div style=""font-size:60px;""> </div>","null","LF","learning/Slide110.JPG","This is a bim:","","",""
"html-keyboard-response","337","382146","0.0-7.0-0.30","LF","9y1b9uh65r","1920","1080","0","0","0","5daca079bf590700167f704d","","null","","","learningBlock2","","","","This is a tob:","null","","","","","",""
"image-keyboard-response","338","382472","0.0-7.0-1.30","LF","9y1b9uh65r","1920","1080","0","0","0","5daca079bf590700167f704d","","null","","","","","","","learning/Slide111.JPG","null","","","","","",""
"html-keyboard-response","339","383474","0.0-7.0-2.30","LF","9y1b9uh65r","1920","1080","0","0","0","5daca079bf590700167f704d","","null","","","learningBlock2","","","","<div style=""font-size:60px;""> </div>","null","LF","learning/Slide111.JPG","This is a tob:","","",""
"html-keyboard-response","340","384475","0.0-7.0-0.31","LF","9y1b9uh65r","1920","1080","0","0","0","5daca079bf590700167f704d","","null","","","learningBlock2","","","","This is a wug:","null","","","","","",""
"image-keyboard-response","341","384803","0.0-7.0-1.31","LF","9y1b9uh65r","1920","1080","0","0","0","5daca079bf590700167f704d","","null","","","","","","","learning/Slide112.JPG","null","","","","","",""
"html-keyboard-response","342","385804","0.0-7.0-2.31","LF","9y1b9uh65r","1920","1080","0","0","0","5daca079bf590700167f704d","","null","","","learningBlock2","","","","<div style=""font-size:60px;""> </div>","null","LF","learning/Slide112.JPG","This is a wug:","","",""
"html-keyboard-response","343","386957","0.0-7.0-0.32","LF","9y1b9uh65r","1920","1080","0","0","0","5daca079bf590700167f704d","","null","","","learningBlock2","","","","This is a tob:","null","","","","","",""
"image-keyboard-response","344","388956","0.0-7.0-1.32","LF","9y1b9uh65r","1920","1080","0","0","0","5daca079bf590700167f704d","","null","","","","","","","learning/Slide113.JPG","null","","","","","",""
"html-keyboard-response","345","389958","0.0-7.0-2.32","LF","9y1b9uh65r","1920","1080","0","0","0","5daca079bf590700167f704d","","null","","","learningBlock2","","","","<div style=""font-size:60px;""> </div>","null","LF","learning/Slide113.JPG","This is a tob:","","",""
"html-keyboard-response","346","390959","0.0-7.0-0.33","LF","9y1b9uh65r","1920","1080","0","0","0","5daca079bf590700167f704d","","null","","","learningBlock2","","","","This is a wug:","null","","","","","",""
"image-keyboard-response","347","392957","0.0-7.0-1.33","LF","9y1b9uh65r","1920","1080","0","0","0","5daca079bf590700167f704d","","null","","","","","","","learning/Slide114.JPG","null","","","","","",""
"html-keyboard-response","348","393959","0.0-7.0-2.33","LF","9y1b9uh65r","1920","1080","0","0","0","5daca079bf590700167f704d","","null","","","learningBlock2","","","","<div style=""font-size:60px;""> </div>","null","LF","learning/Slide114.JPG","This is a wug:","","",""
"html-keyboard-response","349","394959","0.0-7.0-0.34","LF","9y1b9uh65r","1920","1080","0","0","0","5daca079bf590700167f704d","","null","","","learningBlock2","","","","This is a bim:","null","","","","","",""
"image-keyboard-response","350","396956","0.0-7.0-1.34","LF","9y1b9uh65r","1920","1080","0","0","0","5daca079bf590700167f704d","","null","","","","","","","learning/Slide115.JPG","null","","","","","",""
"html-keyboard-response","351","397960","0.0-7.0-2.34","LF","9y1b9uh65r","1920","1080","0","0","0","5daca079bf590700167f704d","","null","","","learningBlock2","","","","<div style=""font-size:60px;""> </div>","null","LF","learning/Slide115.JPG","This is a bim:","","",""
"html-keyboard-response","352","398968","0.0-7.0-0.35","LF","9y1b9uh65r","1920","1080","0","0","0","5daca079bf590700167f704d","","null","","","learningBlock2","","","","This is a dep:","null","","","","","",""
"image-keyboard-response","353","400956","0.0-7.0-1.35","LF","9y1b9uh65r","1920","1080","0","0","0","5daca079bf590700167f704d","","null","","","","","","","learning/Slide116.JPG","null","","","","","",""
"html-keyboard-response","354","401958","0.0-7.0-2.35","LF","9y1b9uh65r","1920","1080","0","0","0","5daca079bf590700167f704d","","null","","","learningBlock2","","","","<div style=""font-size:60px;""> </div>","null","LF","learning/Slide116.JPG","This is a dep:","","",""
"html-keyboard-response","355","402960","0.0-7.0-0.36","LF","9y1b9uh65r","1920","1080","0","0","0","5daca079bf590700167f704d","","null","","","learningBlock2","","","","This is a tob:","null","","","","","",""
"image-keyboard-response","356","404957","0.0-7.0-1.36","LF","9y1b9uh65r","1920","1080","0","0","0","5daca079bf590700167f704d","","null","","","","","","","learning/Slide117.JPG","null","","","","","",""
"html-keyboard-response","357","405960","0.0-7.0-2.36","LF","9y1b9uh65r","1920","1080","0","0","0","5daca079bf590700167f704d","","null","","","learningBlock2","","","","<div style=""font-size:60px;""> </div>","null","LF","learning/Slide117.JPG","This is a tob:","","",""
"html-keyboard-response","358","407366","0.0-7.0-0.37","LF","9y1b9uh65r","1920","1080","0","0","0","5daca079bf590700167f704d","","null","","","learningBlock2","","","","This is a dep:","null","","","","","",""
"image-keyboard-response","359","407694","0.0-7.0-1.37","LF","9y1b9uh65r","1920","1080","0","0","0","5daca079bf590700167f704d","","null","","","","","","","learning/Slide118.JPG","null","","","","","",""
"html-keyboard-response","360","408696","0.0-7.0-2.37","LF","9y1b9uh65r","1920","1080","0","0","0","5daca079bf590700167f704d","","null","","","learningBlock2","","","","<div style=""font-size:60px;""> </div>","null","LF","learning/Slide118.JPG","This is a dep:","","",""
"html-keyboard-response","361","409957","0.0-7.0-0.38","LF","9y1b9uh65r","1920","1080","0","0","0","5daca079bf590700167f704d","","null","","","learningBlock2","","","","This is a wug:","null","","","","","",""
"image-keyboard-response","362","411956","0.0-7.0-1.38","LF","9y1b9uh65r","1920","1080","0","0","0","5daca079bf590700167f704d","","null","","","","","","","learning/Slide119.JPG","null","","","","","",""
"html-keyboard-response","363","412957","0.0-7.0-2.38","LF","9y1b9uh65r","1920","1080","0","0","0","5daca079bf590700167f704d","","null","","","learningBlock2","","","","<div style=""font-size:60px;""> </div>","null","LF","learning/Slide119.JPG","This is a wug:","","",""
"html-keyboard-response","364","413959","0.0-7.0-0.39","LF","9y1b9uh65r","1920","1080","0","0","0","5daca079bf590700167f704d","","null","","","learningBlock2","","","","This is a dep:","null","","","","","",""
"image-keyboard-response","365","415956","0.0-7.0-1.39","LF","9y1b9uh65r","1920","1080","0","0","0","5daca079bf590700167f704d","","null","","","","","","","learning/Slide120.JPG","null","","","","","",""
"html-keyboard-response","366","416958","0.0-7.0-2.39","LF","9y1b9uh65r","1920","1080","0","0","0","5daca079bf590700167f704d","","null","","","learningBlock2","","","","<div style=""font-size:60px;""> </div>","null","LF","learning/Slide120.JPG","This is a dep:","","",""
"html-keyboard-response","367","417960","0.0-7.0-0.40","LF","9y1b9uh65r","1920","1080","0","0","0","5daca079bf590700167f704d","","null","","","learningBlock2","","","","This is a bim:","null","","","","","",""
"image-keyboard-response","368","418287","0.0-7.0-1.40","LF","9y1b9uh65r","1920","1080","0","0","0","5daca079bf590700167f704d","","null","","","","","","","learning/Slide121.JPG","null","","","","","",""
"html-keyboard-response","369","419289","0.0-7.0-2.40","LF","9y1b9uh65r","1920","1080","0","0","0","5daca079bf590700167f704d","","null","","","learningBlock2","","","","<div style=""font-size:60px;""> </div>","null","LF","learning/Slide121.JPG","This is a bim:","","",""
"html-keyboard-response","370","420290","0.0-7.0-0.41","LF","9y1b9uh65r","1920","1080","0","0","0","5daca079bf590700167f704d","","null","","","learningBlock2","","","","This is a wug:","null","","","","","",""
"image-keyboard-response","371","420618","0.0-7.0-1.41","LF","9y1b9uh65r","1920","1080","0","0","0","5daca079bf590700167f704d","","null","","","","","","","learning/Slide122.JPG","null","","","","","",""
"html-keyboard-response","372","421619","0.0-7.0-2.41","LF","9y1b9uh65r","1920","1080","0","0","0","5daca079bf590700167f704d","","null","","","learningBlock2","","","","<div style=""font-size:60px;""> </div>","null","LF","learning/Slide122.JPG","This is a wug:","","",""
"html-keyboard-response","373","422620","0.0-7.0-0.42","LF","9y1b9uh65r","1920","1080","0","0","0","5daca079bf590700167f704d","","null","","","learningBlock2","","","","This is a bim:","null","","","","","",""
"image-keyboard-response","374","422948","0.0-7.0-1.42","LF","9y1b9uh65r","1920","1080","0","0","0","5daca079bf590700167f704d","","null","","","","","","","learning/Slide123.JPG","null","","","","","",""
"html-keyboard-response","375","423949","0.0-7.0-2.42","LF","9y1b9uh65r","1920","1080","0","0","0","5daca079bf590700167f704d","","null","","","learningBlock2","","","","<div style=""font-size:60px;""> </div>","null","LF","learning/Slide123.JPG","This is a bim:","","",""
"html-keyboard-response","376","424951","0.0-7.0-0.43","LF","9y1b9uh65r","1920","1080","0","0","0","5daca079bf590700167f704d","","null","","","learningBlock2","","","","This is a tob:","null","","","","","",""
"image-keyboard-response","377","425279","0.0-7.0-1.43","LF","9y1b9uh65r","1920","1080","0","0","0","5daca079bf590700167f704d","","null","","","","","","","learning/Slide124.JPG","null","","","","","",""
"html-keyboard-response","378","426281","0.0-7.0-2.43","LF","9y1b9uh65r","1920","1080","0","0","0","5daca079bf590700167f704d","","null","","","learningBlock2","","","","<div style=""font-size:60px;""> </div>","null","LF","learning/Slide124.JPG","This is a tob:","","",""
"html-keyboard-response","379","427283","0.0-7.0-0.44","LF","9y1b9uh65r","1920","1080","0","0","0","5daca079bf590700167f704d","","null","","","learningBlock2","","","","This is a bim:","null","","","","","",""
"image-keyboard-response","380","427611","0.0-7.0-1.44","LF","9y1b9uh65r","1920","1080","0","0","0","5daca079bf590700167f704d","","null","","","","","","","learning/Slide125.JPG","null","","","","","",""
"html-keyboard-response","381","428612","0.0-7.0-2.44","LF","9y1b9uh65r","1920","1080","0","0","0","5daca079bf590700167f704d","","null","","","learningBlock2","","","","<div style=""font-size:60px;""> </div>","null","LF","learning/Slide125.JPG","This is a bim:","","",""
"html-keyboard-response","382","429614","0.0-7.0-0.45","LF","9y1b9uh65r","1920","1080","0","0","0","5daca079bf590700167f704d","","null","","","learningBlock2","","","","This is a tob:","null","","","","","",""
"image-keyboard-response","383","429941","0.0-7.0-1.45","LF","9y1b9uh65r","1920","1080","0","0","0","5daca079bf590700167f704d","","null","","","","","","","learning/Slide126.JPG","null","","","","","",""
"html-keyboard-response","384","430943","0.0-7.0-2.45","LF","9y1b9uh65r","1920","1080","0","0","0","5daca079bf590700167f704d","","null","","","learningBlock2","","","","<div style=""font-size:60px;""> </div>","null","LF","learning/Slide126.JPG","This is a tob:","","",""
"html-keyboard-response","385","431944","0.0-7.0-0.46","LF","9y1b9uh65r","1920","1080","0","0","0","5daca079bf590700167f704d","","null","","","learningBlock2","","","","This is a dep:","null","","","","","",""
"image-keyboard-response","386","432272","0.0-7.0-1.46","LF","9y1b9uh65r","1920","1080","0","0","0","5daca079bf590700167f704d","","null","","","","","","","learning/Slide127.JPG","null","","","","","",""
"html-keyboard-response","387","433275","0.0-7.0-2.46","LF","9y1b9uh65r","1920","1080","0","0","0","5daca079bf590700167f704d","","null","","","learningBlock2","","","","<div style=""font-size:60px;""> </div>","null","LF","learning/Slide127.JPG","This is a dep:","","",""
"html-keyboard-response","388","434277","0.0-7.0-0.47","LF","9y1b9uh65r","1920","1080","0","0","0","5daca079bf590700167f704d","","null","","","learningBlock2","","","","This is a wug:","null","","","","","",""
"image-keyboard-response","389","434604","0.0-7.0-1.47","LF","9y1b9uh65r","1920","1080","0","0","0","5daca079bf590700167f704d","","null","","","","","","","learning/Slide128.JPG","null","","","","","",""
"html-keyboard-response","390","435606","0.0-7.0-2.47","LF","9y1b9uh65r","1920","1080","0","0","0","5daca079bf590700167f704d","","null","","","learningBlock2","","","","<div style=""font-size:60px;""> </div>","null","LF","learning/Slide128.JPG","This is a wug:","","",""
"html-keyboard-response","391","436607","0.0-7.0-0.48","LF","9y1b9uh65r","1920","1080","0","0","0","5daca079bf590700167f704d","","null","","","learningBlock2","","","","This is a tob:","null","","","","","",""
"image-keyboard-response","392","436938","0.0-7.0-1.48","LF","9y1b9uh65r","1920","1080","0","0","0","5daca079bf590700167f704d","","null","","","","","","","learning/Slide129.JPG","null","","","","","",""
"html-keyboard-response","393","437940","0.0-7.0-2.48","LF","9y1b9uh65r","1920","1080","0","0","0","5daca079bf590700167f704d","","null","","","learningBlock2","","","","<div style=""font-size:60px;""> </div>","null","LF","learning/Slide129.JPG","This is a tob:","","",""
"html-keyboard-response","394","438941","0.0-7.0-0.49","LF","9y1b9uh65r","1920","1080","0","0","0","5daca079bf590700167f704d","","null","","","learningBlock2","","","","This is a wug:","null","","","","","",""
"image-keyboard-response","395","439270","0.0-7.0-1.49","LF","9y1b9uh65r","1920","1080","0","0","0","5daca079bf590700167f704d","","null","","","","","","","learning/Slide130.JPG","null","","","","","",""
"html-keyboard-response","396","440272","0.0-7.0-2.49","LF","9y1b9uh65r","1920","1080","0","0","0","5daca079bf590700167f704d","","null","","","learningBlock2","","","","<div style=""font-size:60px;""> </div>","null","LF","learning/Slide130.JPG","This is a wug:","","",""
"html-keyboard-response","397","441274","0.0-7.0-0.50","LF","9y1b9uh65r","1920","1080","0","0","0","5daca079bf590700167f704d","","null","","","learningBlock2","","","","This is a bim:","null","","","","","",""
"image-keyboard-response","398","441602","0.0-7.0-1.50","LF","9y1b9uh65r","1920","1080","0","0","0","5daca079bf590700167f704d","","null","","","","","","","learning/Slide131.JPG","null","","","","","",""
"html-keyboard-response","399","442603","0.0-7.0-2.50","LF","9y1b9uh65r","1920","1080","0","0","0","5daca079bf590700167f704d","","null","","","learningBlock2","","","","<div style=""font-size:60px;""> </div>","null","LF","learning/Slide131.JPG","This is a bim:","","",""
"html-keyboard-response","400","443604","0.0-7.0-0.51","LF","9y1b9uh65r","1920","1080","0","0","0","5daca079bf590700167f704d","","null","","","learningBlock2","","","","This is a dep:","null","","","","","",""
"image-keyboard-response","401","443931","0.0-7.0-1.51","LF","9y1b9uh65r","1920","1080","0","0","0","5daca079bf590700167f704d","","null","","","","","","","learning/Slide132.JPG","null","","","","","",""
"html-keyboard-response","402","444934","0.0-7.0-2.51","LF","9y1b9uh65r","1920","1080","0","0","0","5daca079bf590700167f704d","","null","","","learningBlock2","","","","<div style=""font-size:60px;""> </div>","null","LF","learning/Slide132.JPG","This is a dep:","","",""
"html-keyboard-response","403","445936","0.0-7.0-0.52","LF","9y1b9uh65r","1920","1080","0","0","0","5daca079bf590700167f704d","","null","","","learningBlock2","","","","This is a tob:","null","","","","","",""
"image-keyboard-response","404","446264","0.0-7.0-1.52","LF","9y1b9uh65r","1920","1080","0","0","0","5daca079bf590700167f704d","","null","","","","","","","learning/Slide133.JPG","null","","","","","",""
"html-keyboard-response","405","447266","0.0-7.0-2.52","LF","9y1b9uh65r","1920","1080","0","0","0","5daca079bf590700167f704d","","null","","","learningBlock2","","","","<div style=""font-size:60px;""> </div>","null","LF","learning/Slide133.JPG","This is a tob:","","",""
"html-keyboard-response","406","448268","0.0-7.0-0.53","LF","9y1b9uh65r","1920","1080","0","0","0","5daca079bf590700167f704d","","null","","","learningBlock2","","","","This is a dep:","null","","","","","",""
"image-keyboard-response","407","448598","0.0-7.0-1.53","LF","9y1b9uh65r","1920","1080","0","0","0","5daca079bf590700167f704d","","null","","","","","","","learning/Slide134.JPG","null","","","","","",""
"html-keyboard-response","408","449600","0.0-7.0-2.53","LF","9y1b9uh65r","1920","1080","0","0","0","5daca079bf590700167f704d","","null","","","learningBlock2","","","","<div style=""font-size:60px;""> </div>","null","LF","learning/Slide134.JPG","This is a dep:","","",""
"html-keyboard-response","409","450601","0.0-7.0-0.54","LF","9y1b9uh65r","1920","1080","0","0","0","5daca079bf590700167f704d","","null","","","learningBlock2","","","","This is a tob:","null","","","","","",""
"image-keyboard-response","410","450928","0.0-7.0-1.54","LF","9y1b9uh65r","1920","1080","0","0","0","5daca079bf590700167f704d","","null","","","","","","","learning/Slide135.JPG","null","","","","","",""
"html-keyboard-response","411","451930","0.0-7.0-2.54","LF","9y1b9uh65r","1920","1080","0","0","0","5daca079bf590700167f704d","","null","","","learningBlock2","","","","<div style=""font-size:60px;""> </div>","null","LF","learning/Slide135.JPG","This is a tob:","","",""
"html-keyboard-response","412","452931","0.0-7.0-0.55","LF","9y1b9uh65r","1920","1080","0","0","0","5daca079bf590700167f704d","","null","","","learningBlock2","","","","This is a wug:","null","","","","","",""
"image-keyboard-response","413","453258","0.0-7.0-1.55","LF","9y1b9uh65r","1920","1080","0","0","0","5daca079bf590700167f704d","","null","","","","","","","learning/Slide136.JPG","null","","","","","",""
"html-keyboard-response","414","454261","0.0-7.0-2.55","LF","9y1b9uh65r","1920","1080","0","0","0","5daca079bf590700167f704d","","null","","","learningBlock2","","","","<div style=""font-size:60px;""> </div>","null","LF","learning/Slide136.JPG","This is a wug:","","",""
"html-keyboard-response","415","455263","0.0-7.0-0.56","LF","9y1b9uh65r","1920","1080","0","0","0","5daca079bf590700167f704d","","null","","","learningBlock2","","","","This is a tob:","null","","","","","",""
"image-keyboard-response","416","455591","0.0-7.0-1.56","LF","9y1b9uh65r","1920","1080","0","0","0","5daca079bf590700167f704d","","null","","","","","","","learning/Slide137.JPG","null","","","","","",""
"html-keyboard-response","417","456593","0.0-7.0-2.56","LF","9y1b9uh65r","1920","1080","0","0","0","5daca079bf590700167f704d","","null","","","learningBlock2","","","","<div style=""font-size:60px;""> </div>","null","LF","learning/Slide137.JPG","This is a tob:","","",""
"html-keyboard-response","418","457594","0.0-7.0-0.57","LF","9y1b9uh65r","1920","1080","0","0","0","5daca079bf590700167f704d","","null","","","learningBlock2","","","","This is a bim:","null","","","","","",""
"image-keyboard-response","419","457921","0.0-7.0-1.57","LF","9y1b9uh65r","1920","1080","0","0","0","5daca079bf590700167f704d","","null","","","","","","","learning/Slide138.JPG","null","","","","","",""
"html-keyboard-response","420","458922","0.0-7.0-2.57","LF","9y1b9uh65r","1920","1080","0","0","0","5daca079bf590700167f704d","","null","","","learningBlock2","","","","<div style=""font-size:60px;""> </div>","null","LF","learning/Slide138.JPG","This is a bim:","","",""
"html-keyboard-response","421","459924","0.0-7.0-0.58","LF","9y1b9uh65r","1920","1080","0","0","0","5daca079bf590700167f704d","","null","","","learningBlock2","","","","This is a wug:","null","","","","","",""
"image-keyboard-response","422","460251","0.0-7.0-1.58","LF","9y1b9uh65r","1920","1080","0","0","0","5daca079bf590700167f704d","","null","","","","","","","learning/Slide139.JPG","null","","","","","",""
"html-keyboard-response","423","461253","0.0-7.0-2.58","LF","9y1b9uh65r","1920","1080","0","0","0","5daca079bf590700167f704d","","null","","","learningBlock2","","","","<div style=""font-size:60px;""> </div>","null","LF","learning/Slide139.JPG","This is a wug:","","",""
"html-keyboard-response","424","462255","0.0-7.0-0.59","LF","9y1b9uh65r","1920","1080","0","0","0","5daca079bf590700167f704d","","null","","","learningBlock2","","","","This is a dep:","null","","","","","",""
"image-keyboard-response","425","462584","0.0-7.0-1.59","LF","9y1b9uh65r","1920","1080","0","0","0","5daca079bf590700167f704d","","null","","","","","","","learning/Slide140.JPG","null","","","","","",""
"html-keyboard-response","426","463586","0.0-7.0-2.59","LF","9y1b9uh65r","1920","1080","0","0","0","5daca079bf590700167f704d","","null","","","learningBlock2","","","","<div style=""font-size:60px;""> </div>","null","LF","learning/Slide140.JPG","This is a dep:","","",""
"html-keyboard-response","427","464588","0.0-7.0-0.60","LF","9y1b9uh65r","1920","1080","0","0","0","5daca079bf590700167f704d","","null","","","learningBlock2","","","","This is a tob:","null","","","","","",""
"image-keyboard-response","428","464916","0.0-7.0-1.60","LF","9y1b9uh65r","1920","1080","0","0","0","5daca079bf590700167f704d","","null","","","","","","","learning/Slide141.JPG","null","","","","","",""
"html-keyboard-response","429","465917","0.0-7.0-2.60","LF","9y1b9uh65r","1920","1080","0","0","0","5daca079bf590700167f704d","","null","","","learningBlock2","","","","<div style=""font-size:60px;""> </div>","null","LF","learning/Slide141.JPG","This is a tob:","","",""
"html-keyboard-response","430","466918","0.0-7.0-0.61","LF","9y1b9uh65r","1920","1080","0","0","0","5daca079bf590700167f704d","","null","","","learningBlock2","","","","This is a wug:","null","","","","","",""
"image-keyboard-response","431","467247","0.0-7.0-1.61","LF","9y1b9uh65r","1920","1080","0","0","0","5daca079bf590700167f704d","","null","","","","","","","learning/Slide142.JPG","null","","","","","",""
"html-keyboard-response","432","468249","0.0-7.0-2.61","LF","9y1b9uh65r","1920","1080","0","0","0","5daca079bf590700167f704d","","null","","","learningBlock2","","","","<div style=""font-size:60px;""> </div>","null","LF","learning/Slide142.JPG","This is a wug:","","",""
"html-keyboard-response","433","469251","0.0-7.0-0.62","LF","9y1b9uh65r","1920","1080","0","0","0","5daca079bf590700167f704d","","null","","","learningBlock2","","","","This is a bim:","null","","","","","",""
"image-keyboard-response","434","469579","0.0-7.0-1.62","LF","9y1b9uh65r","1920","1080","0","0","0","5daca079bf590700167f704d","","null","","","","","","","learning/Slide143.JPG","null","","","","","",""
"html-keyboard-response","435","470580","0.0-7.0-2.62","LF","9y1b9uh65r","1920","1080","0","0","0","5daca079bf590700167f704d","","null","","","learningBlock2","","","","<div style=""font-size:60px;""> </div>","null","LF","learning/Slide143.JPG","This is a bim:","","",""
"html-keyboard-response","436","471581","0.0-7.0-0.63","LF","9y1b9uh65r","1920","1080","0","0","0","5daca079bf590700167f704d","","null","","","learningBlock2","","","","This is a dep:","null","","","","","",""
