"trial_type","trial_index","time_elapsed","internal_node_id","condition","subject","screen_width","screen_height","attention","distraction","conscientious","prolificID","success","rt","url","view_history","test_part","final_height_px","final_width_px","scale_factor","stimulus","key_press","learningType","presentedImage","presentedLabel","button_pressed","response","responses"
"pavlovia","0","28","0.0-0.0","LF","581oqcuhue","1366","768","0","0","0","6009c2eda21be3026447d80e","","","","","","","","","","","","","","","",""
"fullscreen","1","319053","0.0-1.0","LF","581oqcuhue","1366","768","0","0","0","6009c2eda21be3026447d80e","true","","","","","","","","","","","","","","",""
"external-html","2","452211","0.0-2.0-0.0","LF","581oqcuhue","1366","768","0","0","0","6009c2eda21be3026447d80e","","133012.31000000006","text/information_english.html","","","","","","","","","","","","",""
"external-html","3","479595","0.0-2.0-1.0","LF","581oqcuhue","1366","768","0","0","0","6009c2eda21be3026447d80e","","27236.525000000023","text/consent_english.html","","","","","","","","","","","","",""
"instructions","4","535707","0.0-3.0","LF","581oqcuhue","1366","768","0","0","0","6009c2eda21be3026447d80e","","NA","","[{""page_index"":0,""viewing_time"":5254.690000000002},{""page_index"":1,""viewing_time"":50847.780000000086}]","instructions","","","","","","","","","","",""
"resize","5","594930","0.0-4.0","LF","581oqcuhue","1366","768","0","0","0","6009c2eda21be3026447d80e","","","","","","","346","2.196825396825397","","","","","","","",""
"html-keyboard-response","6","595940","0.0-5.0-0.0","LF","581oqcuhue","1366","768","0","0","0","6009c2eda21be3026447d80e","","null","","","learningBlock1","","","","This is a tob:","null","","","","","",""
"image-keyboard-response","7","596289","0.0-5.0-1.0","LF","581oqcuhue","1366","768","0","0","0","6009c2eda21be3026447d80e","","null","","","","","","","learning/Slide1.JPG","null","","","","","",""
"html-keyboard-response","8","597311","0.0-5.0-2.0","LF","581oqcuhue","1366","768","0","0","0","6009c2eda21be3026447d80e","","null","","","learningBlock1","","","","<div style=""font-size:60px;""> </div>","null","LF","learning/Slide1.JPG","This is a tob:","","",""
"html-keyboard-response","9","598326","0.0-5.0-0.1","LF","581oqcuhue","1366","768","0","0","0","6009c2eda21be3026447d80e","","null","","","learningBlock1","","","","This is a wug:","null","","","","","",""
"image-keyboard-response","10","598655","0.0-5.0-1.1","LF","581oqcuhue","1366","768","0","0","0","6009c2eda21be3026447d80e","","null","","","","","","","learning/Slide2.JPG","null","","","","","",""
"html-keyboard-response","11","599672","0.0-5.0-2.1","LF","581oqcuhue","1366","768","0","0","0","6009c2eda21be3026447d80e","","null","","","learningBlock1","","","","<div style=""font-size:60px;""> </div>","null","LF","learning/Slide2.JPG","This is a wug:","","",""
"html-keyboard-response","12","600673","0.0-5.0-0.2","LF","581oqcuhue","1366","768","0","0","0","6009c2eda21be3026447d80e","","null","","","learningBlock1","","","","This is a bim:","null","","","","","",""
"image-keyboard-response","13","601011","0.0-5.0-1.2","LF","581oqcuhue","1366","768","0","0","0","6009c2eda21be3026447d80e","","null","","","","","","","learning/Slide3.JPG","null","","","","","",""
"html-keyboard-response","14","602023","0.0-5.0-2.2","LF","581oqcuhue","1366","768","0","0","0","6009c2eda21be3026447d80e","","null","","","learningBlock1","","","","<div style=""font-size:60px;""> </div>","null","LF","learning/Slide3.JPG","This is a bim:","","",""
"html-keyboard-response","15","603041","0.0-5.0-0.3","LF","581oqcuhue","1366","768","0","0","0","6009c2eda21be3026447d80e","","null","","","learningBlock1","","","","This is a dep:","null","","","","","",""
"image-keyboard-response","16","603381","0.0-5.0-1.3","LF","581oqcuhue","1366","768","0","0","0","6009c2eda21be3026447d80e","","null","","","","","","","learning/Slide4.JPG","null","","","","","",""
"html-keyboard-response","17","604391","0.0-5.0-2.3","LF","581oqcuhue","1366","768","0","0","0","6009c2eda21be3026447d80e","","null","","","learningBlock1","","","","<div style=""font-size:60px;""> </div>","null","LF","learning/Slide4.JPG","This is a dep:","","",""
"html-keyboard-response","18","605403","0.0-5.0-0.4","LF","581oqcuhue","1366","768","0","0","0","6009c2eda21be3026447d80e","","null","","","learningBlock1","","","","This is a wug:","null","","","","","",""
"image-keyboard-response","19","605744","0.0-5.0-1.4","LF","581oqcuhue","1366","768","0","0","0","6009c2eda21be3026447d80e","","null","","","","","","","learning/Slide5.JPG","null","","","","","",""
"html-keyboard-response","20","606752","0.0-5.0-2.4","LF","581oqcuhue","1366","768","0","0","0","6009c2eda21be3026447d80e","","null","","","learningBlock1","","","","<div style=""font-size:60px;""> </div>","null","LF","learning/Slide5.JPG","This is a wug:","","",""
"html-keyboard-response","21","607757","0.0-5.0-0.5","LF","581oqcuhue","1366","768","0","0","0","6009c2eda21be3026447d80e","","null","","","learningBlock1","","","","This is a dep:","null","","","","","",""
"image-keyboard-response","22","608091","0.0-5.0-1.5","LF","581oqcuhue","1366","768","0","0","0","6009c2eda21be3026447d80e","","null","","","","","","","learning/Slide6.JPG","null","","","","","",""
"html-keyboard-response","23","609105","0.0-5.0-2.5","LF","581oqcuhue","1366","768","0","0","0","6009c2eda21be3026447d80e","","null","","","learningBlock1","","","","<div style=""font-size:60px;""> </div>","null","LF","learning/Slide6.JPG","This is a dep:","","",""
"html-keyboard-response","24","610112","0.0-5.0-0.6","LF","581oqcuhue","1366","768","0","0","0","6009c2eda21be3026447d80e","","null","","","learningBlock1","","","","This is a wug:","null","","","","","",""
"image-keyboard-response","25","610464","0.0-5.0-1.6","LF","581oqcuhue","1366","768","0","0","0","6009c2eda21be3026447d80e","","null","","","","","","","learning/Slide7.JPG","null","","","","","",""
"html-keyboard-response","26","611472","0.0-5.0-2.6","LF","581oqcuhue","1366","768","0","0","0","6009c2eda21be3026447d80e","","null","","","learningBlock1","","","","<div style=""font-size:60px;""> </div>","null","LF","learning/Slide7.JPG","This is a wug:","","",""
"html-keyboard-response","27","612490","0.0-5.0-0.7","LF","581oqcuhue","1366","768","0","0","0","6009c2eda21be3026447d80e","","null","","","learningBlock1","","","","This is a bim:","null","","","","","",""
"image-keyboard-response","28","612837","0.0-5.0-1.7","LF","581oqcuhue","1366","768","0","0","0","6009c2eda21be3026447d80e","","null","","","","","","","learning/Slide8.JPG","null","","","","","",""
"html-keyboard-response","29","613849","0.0-5.0-2.7","LF","581oqcuhue","1366","768","0","0","0","6009c2eda21be3026447d80e","","null","","","learningBlock1","","","","<div style=""font-size:60px;""> </div>","null","LF","learning/Slide8.JPG","This is a bim:","","",""
"html-keyboard-response","30","614852","0.0-5.0-0.8","LF","581oqcuhue","1366","768","0","0","0","6009c2eda21be3026447d80e","","null","","","learningBlock1","","","","This is a wug:","null","","","","","",""
"image-keyboard-response","31","615201","0.0-5.0-1.8","LF","581oqcuhue","1366","768","0","0","0","6009c2eda21be3026447d80e","","null","","","","","","","learning/Slide9.JPG","null","","","","","",""
"html-keyboard-response","32","616214","0.0-5.0-2.8","LF","581oqcuhue","1366","768","0","0","0","6009c2eda21be3026447d80e","","null","","","learningBlock1","","","","<div style=""font-size:60px;""> </div>","null","LF","learning/Slide9.JPG","This is a wug:","","",""
"html-keyboard-response","33","617220","0.0-5.0-0.9","LF","581oqcuhue","1366","768","0","0","0","6009c2eda21be3026447d80e","","null","","","learningBlock1","","","","This is a dep:","null","","","","","",""
"image-keyboard-response","34","617569","0.0-5.0-1.9","LF","581oqcuhue","1366","768","0","0","0","6009c2eda21be3026447d80e","","null","","","","","","","learning/Slide10.JPG","null","","","","","",""
"html-keyboard-response","35","618588","0.0-5.0-2.9","LF","581oqcuhue","1366","768","0","0","0","6009c2eda21be3026447d80e","","null","","","learningBlock1","","","","<div style=""font-size:60px;""> </div>","null","LF","learning/Slide10.JPG","This is a dep:","","",""
"html-keyboard-response","36","619597","0.0-5.0-0.10","LF","581oqcuhue","1366","768","0","0","0","6009c2eda21be3026447d80e","","null","","","learningBlock1","","","","This is a tob:","null","","","","","",""
"image-keyboard-response","37","619940","0.0-5.0-1.10","LF","581oqcuhue","1366","768","0","0","0","6009c2eda21be3026447d80e","","null","","","","","","","learning/Slide11.JPG","null","","","","","",""
"html-keyboard-response","38","620950","0.0-5.0-2.10","LF","581oqcuhue","1366","768","0","0","0","6009c2eda21be3026447d80e","","null","","","learningBlock1","","","","<div style=""font-size:60px;""> </div>","null","LF","learning/Slide11.JPG","This is a tob:","","",""
"html-keyboard-response","39","621955","0.0-5.0-0.11","LF","581oqcuhue","1366","768","0","0","0","6009c2eda21be3026447d80e","","null","","","learningBlock1","","","","This is a dep:","null","","","","","",""
"image-keyboard-response","40","622292","0.0-5.0-1.11","LF","581oqcuhue","1366","768","0","0","0","6009c2eda21be3026447d80e","","null","","","","","","","learning/Slide12.JPG","null","","","","","",""
"html-keyboard-response","41","623295","0.0-5.0-2.11","LF","581oqcuhue","1366","768","0","0","0","6009c2eda21be3026447d80e","","null","","","learningBlock1","","","","<div style=""font-size:60px;""> </div>","null","LF","learning/Slide12.JPG","This is a dep:","","",""
"html-keyboard-response","42","624311","0.0-5.0-0.12","LF","581oqcuhue","1366","768","0","0","0","6009c2eda21be3026447d80e","","null","","","learningBlock1","","","","This is a bim:","null","","","","","",""
"image-keyboard-response","43","624656","0.0-5.0-1.12","LF","581oqcuhue","1366","768","0","0","0","6009c2eda21be3026447d80e","","null","","","","","","","learning/Slide13.JPG","null","","","","","",""
"html-keyboard-response","44","625661","0.0-5.0-2.12","LF","581oqcuhue","1366","768","0","0","0","6009c2eda21be3026447d80e","","null","","","learningBlock1","","","","<div style=""font-size:60px;""> </div>","null","LF","learning/Slide13.JPG","This is a bim:","","",""
"html-keyboard-response","45","626668","0.0-5.0-0.13","LF","581oqcuhue","1366","768","0","0","0","6009c2eda21be3026447d80e","","null","","","learningBlock1","","","","This is a wug:","null","","","","","",""
"image-keyboard-response","46","627018","0.0-5.0-1.13","LF","581oqcuhue","1366","768","0","0","0","6009c2eda21be3026447d80e","","null","","","","","","","learning/Slide14.JPG","null","","","","","",""
"html-keyboard-response","47","628022","0.0-5.0-2.13","LF","581oqcuhue","1366","768","0","0","0","6009c2eda21be3026447d80e","","null","","","learningBlock1","","","","<div style=""font-size:60px;""> </div>","null","LF","learning/Slide14.JPG","This is a wug:","","",""
"html-keyboard-response","48","629040","0.0-5.0-0.14","LF","581oqcuhue","1366","768","0","0","0","6009c2eda21be3026447d80e","","null","","","learningBlock1","","","","This is a tob:","null","","","","","",""
"image-keyboard-response","49","629385","0.0-5.0-1.14","LF","581oqcuhue","1366","768","0","0","0","6009c2eda21be3026447d80e","","null","","","","","","","learning/Slide15.JPG","null","","","","","",""
"html-keyboard-response","50","630397","0.0-5.0-2.14","LF","581oqcuhue","1366","768","0","0","0","6009c2eda21be3026447d80e","","null","","","learningBlock1","","","","<div style=""font-size:60px;""> </div>","null","LF","learning/Slide15.JPG","This is a tob:","","",""
"html-keyboard-response","51","631401","0.0-5.0-0.15","LF","581oqcuhue","1366","768","0","0","0","6009c2eda21be3026447d80e","","null","","","learningBlock1","","","","This is a dep:","null","","","","","",""
"image-keyboard-response","52","631752","0.0-5.0-1.15","LF","581oqcuhue","1366","768","0","0","0","6009c2eda21be3026447d80e","","null","","","","","","","learning/Slide16.JPG","null","","","","","",""
"html-keyboard-response","53","632760","0.0-5.0-2.15","LF","581oqcuhue","1366","768","0","0","0","6009c2eda21be3026447d80e","","null","","","learningBlock1","","","","<div style=""font-size:60px;""> </div>","null","LF","learning/Slide16.JPG","This is a dep:","","",""
"html-keyboard-response","54","633763","0.0-5.0-0.16","LF","581oqcuhue","1366","768","0","0","0","6009c2eda21be3026447d80e","","null","","","learningBlock1","","","","This is a bim:","null","","","","","",""
"image-keyboard-response","55","634102","0.0-5.0-1.16","LF","581oqcuhue","1366","768","0","0","0","6009c2eda21be3026447d80e","","null","","","","","","","learning/Slide17.JPG","null","","","","","",""
"html-keyboard-response","56","635110","0.0-5.0-2.16","LF","581oqcuhue","1366","768","0","0","0","6009c2eda21be3026447d80e","","null","","","learningBlock1","","","","<div style=""font-size:60px;""> </div>","null","LF","learning/Slide17.JPG","This is a bim:","","",""
"html-keyboard-response","57","636120","0.0-5.0-0.17","LF","581oqcuhue","1366","768","0","0","0","6009c2eda21be3026447d80e","","null","","","learningBlock1","","","","This is a tob:","null","","","","","",""
"image-keyboard-response","58","636458","0.0-5.0-1.17","LF","581oqcuhue","1366","768","0","0","0","6009c2eda21be3026447d80e","","null","","","","","","","learning/Slide18.JPG","null","","","","","",""
"html-keyboard-response","59","637473","0.0-5.0-2.17","LF","581oqcuhue","1366","768","0","0","0","6009c2eda21be3026447d80e","","null","","","learningBlock1","","","","<div style=""font-size:60px;""> </div>","null","LF","learning/Slide18.JPG","This is a tob:","","",""
"html-keyboard-response","60","638495","0.0-5.0-0.18","LF","581oqcuhue","1366","768","0","0","0","6009c2eda21be3026447d80e","","null","","","learningBlock1","","","","This is a wug:","null","","","","","",""
"image-keyboard-response","61","638836","0.0-5.0-1.18","LF","581oqcuhue","1366","768","0","0","0","6009c2eda21be3026447d80e","","null","","","","","","","learning/Slide19.JPG","null","","","","","",""
"html-keyboard-response","62","639849","0.0-5.0-2.18","LF","581oqcuhue","1366","768","0","0","0","6009c2eda21be3026447d80e","","null","","","learningBlock1","","","","<div style=""font-size:60px;""> </div>","null","LF","learning/Slide19.JPG","This is a wug:","","",""
"html-keyboard-response","63","640861","0.0-5.0-0.19","LF","581oqcuhue","1366","768","0","0","0","6009c2eda21be3026447d80e","","null","","","learningBlock1","","","","This is a bim:","null","","","","","",""
"image-keyboard-response","64","641194","0.0-5.0-1.19","LF","581oqcuhue","1366","768","0","0","0","6009c2eda21be3026447d80e","","null","","","","","","","learning/Slide20.JPG","null","","","","","",""
"html-keyboard-response","65","642206","0.0-5.0-2.19","LF","581oqcuhue","1366","768","0","0","0","6009c2eda21be3026447d80e","","null","","","learningBlock1","","","","<div style=""font-size:60px;""> </div>","null","LF","learning/Slide20.JPG","This is a bim:","","",""
"html-keyboard-response","66","643222","0.0-5.0-0.20","LF","581oqcuhue","1366","768","0","0","0","6009c2eda21be3026447d80e","","null","","","learningBlock1","","","","This is a dep:","null","","","","","",""
"image-keyboard-response","67","643569","0.0-5.0-1.20","LF","581oqcuhue","1366","768","0","0","0","6009c2eda21be3026447d80e","","null","","","","","","","learning/Slide21.JPG","null","","","","","",""
"html-keyboard-response","68","644580","0.0-5.0-2.20","LF","581oqcuhue","1366","768","0","0","0","6009c2eda21be3026447d80e","","null","","","learningBlock1","","","","<div style=""font-size:60px;""> </div>","null","LF","learning/Slide21.JPG","This is a dep:","","",""
"html-keyboard-response","69","645599","0.0-5.0-0.21","LF","581oqcuhue","1366","768","0","0","0","6009c2eda21be3026447d80e","","null","","","learningBlock1","","","","This is a bim:","null","","","","","",""
"image-keyboard-response","70","645953","0.0-5.0-1.21","LF","581oqcuhue","1366","768","0","0","0","6009c2eda21be3026447d80e","","null","","","","","","","learning/Slide22.JPG","null","","","","","",""
"html-keyboard-response","71","646966","0.0-5.0-2.21","LF","581oqcuhue","1366","768","0","0","0","6009c2eda21be3026447d80e","","null","","","learningBlock1","","","","<div style=""font-size:60px;""> </div>","null","LF","learning/Slide22.JPG","This is a bim:","","",""
"html-keyboard-response","72","647975","0.0-5.0-0.22","LF","581oqcuhue","1366","768","0","0","0","6009c2eda21be3026447d80e","","null","","","learningBlock1","","","","This is a tob:","null","","","","","",""
"image-keyboard-response","73","648320","0.0-5.0-1.22","LF","581oqcuhue","1366","768","0","0","0","6009c2eda21be3026447d80e","","null","","","","","","","learning/Slide23.JPG","null","","","","","",""
"html-keyboard-response","74","649329","0.0-5.0-2.22","LF","581oqcuhue","1366","768","0","0","0","6009c2eda21be3026447d80e","","null","","","learningBlock1","","","","<div style=""font-size:60px;""> </div>","null","LF","learning/Slide23.JPG","This is a tob:","","",""
"html-keyboard-response","75","650333","0.0-5.0-0.23","LF","581oqcuhue","1366","768","0","0","0","6009c2eda21be3026447d80e","","null","","","learningBlock1","","","","This is a wug:","null","","","","","",""
"image-keyboard-response","76","650666","0.0-5.0-1.23","LF","581oqcuhue","1366","768","0","0","0","6009c2eda21be3026447d80e","","null","","","","","","","learning/Slide24.JPG","null","","","","","",""
"html-keyboard-response","77","651680","0.0-5.0-2.23","LF","581oqcuhue","1366","768","0","0","0","6009c2eda21be3026447d80e","","null","","","learningBlock1","","","","<div style=""font-size:60px;""> </div>","null","LF","learning/Slide24.JPG","This is a wug:","","",""
"html-keyboard-response","78","652686","0.0-5.0-0.24","LF","581oqcuhue","1366","768","0","0","0","6009c2eda21be3026447d80e","","null","","","learningBlock1","","","","This is a dep:","null","","","","","",""
"image-keyboard-response","79","653036","0.0-5.0-1.24","LF","581oqcuhue","1366","768","0","0","0","6009c2eda21be3026447d80e","","null","","","","","","","learning/Slide25.JPG","null","","","","","",""
"html-keyboard-response","80","654049","0.0-5.0-2.24","LF","581oqcuhue","1366","768","0","0","0","6009c2eda21be3026447d80e","","null","","","learningBlock1","","","","<div style=""font-size:60px;""> </div>","null","LF","learning/Slide25.JPG","This is a dep:","","",""
"html-keyboard-response","81","655053","0.0-5.0-0.25","LF","581oqcuhue","1366","768","0","0","0","6009c2eda21be3026447d80e","","null","","","learningBlock1","","","","This is a wug:","null","","","","","",""
"image-keyboard-response","82","655404","0.0-5.0-1.25","LF","581oqcuhue","1366","768","0","0","0","6009c2eda21be3026447d80e","","null","","","","","","","learning/Slide26.JPG","null","","","","","",""
"html-keyboard-response","83","656416","0.0-5.0-2.25","LF","581oqcuhue","1366","768","0","0","0","6009c2eda21be3026447d80e","","null","","","learningBlock1","","","","<div style=""font-size:60px;""> </div>","null","LF","learning/Slide26.JPG","This is a wug:","","",""
"html-keyboard-response","84","657422","0.0-5.0-0.26","LF","581oqcuhue","1366","768","0","0","0","6009c2eda21be3026447d80e","","null","","","learningBlock1","","","","This is a bim:","null","","","","","",""
"image-keyboard-response","85","657759","0.0-5.0-1.26","LF","581oqcuhue","1366","768","0","0","0","6009c2eda21be3026447d80e","","null","","","","","","","learning/Slide27.JPG","null","","","","","",""
"html-keyboard-response","86","658765","0.0-5.0-2.26","LF","581oqcuhue","1366","768","0","0","0","6009c2eda21be3026447d80e","","null","","","learningBlock1","","","","<div style=""font-size:60px;""> </div>","null","LF","learning/Slide27.JPG","This is a bim:","","",""
"html-keyboard-response","87","659769","0.0-5.0-0.27","LF","581oqcuhue","1366","768","0","0","0","6009c2eda21be3026447d80e","","null","","","learningBlock1","","","","This is a dep:","null","","","","","",""
"image-keyboard-response","88","660131","0.0-5.0-1.27","LF","581oqcuhue","1366","768","0","0","0","6009c2eda21be3026447d80e","","null","","","","","","","learning/Slide28.JPG","null","","","","","",""
"html-keyboard-response","89","661139","0.0-5.0-2.27","LF","581oqcuhue","1366","768","0","0","0","6009c2eda21be3026447d80e","","null","","","learningBlock1","","","","<div style=""font-size:60px;""> </div>","null","LF","learning/Slide28.JPG","This is a dep:","","",""
"html-keyboard-response","90","662153","0.0-5.0-0.28","LF","581oqcuhue","1366","768","0","0","0","6009c2eda21be3026447d80e","","null","","","learningBlock1","","","","This is a tob:","null","","","","","",""
"image-keyboard-response","91","662501","0.0-5.0-1.28","LF","581oqcuhue","1366","768","0","0","0","6009c2eda21be3026447d80e","","null","","","","","","","learning/Slide29.JPG","null","","","","","",""
"html-keyboard-response","92","663517","0.0-5.0-2.28","LF","581oqcuhue","1366","768","0","0","0","6009c2eda21be3026447d80e","","null","","","learningBlock1","","","","<div style=""font-size:60px;""> </div>","null","LF","learning/Slide29.JPG","This is a tob:","","",""
"html-keyboard-response","93","664519","0.0-5.0-0.29","LF","581oqcuhue","1366","768","0","0","0","6009c2eda21be3026447d80e","","null","","","learningBlock1","","","","This is a dep:","null","","","","","",""
"image-keyboard-response","94","664856","0.0-5.0-1.29","LF","581oqcuhue","1366","768","0","0","0","6009c2eda21be3026447d80e","","null","","","","","","","learning/Slide30.JPG","null","","","","","",""
"html-keyboard-response","95","665871","0.0-5.0-2.29","LF","581oqcuhue","1366","768","0","0","0","6009c2eda21be3026447d80e","","null","","","learningBlock1","","","","<div style=""font-size:60px;""> </div>","null","LF","learning/Slide30.JPG","This is a dep:","","",""
"html-keyboard-response","96","666879","0.0-5.0-0.30","LF","581oqcuhue","1366","768","0","0","0","6009c2eda21be3026447d80e","","null","","","learningBlock1","","","","This is a wug:","null","","","","","",""
"image-keyboard-response","97","667235","0.0-5.0-1.30","LF","581oqcuhue","1366","768","0","0","0","6009c2eda21be3026447d80e","","null","","","","","","","learning/Slide31.JPG","null","","","","","",""
"html-keyboard-response","98","668250","0.0-5.0-2.30","LF","581oqcuhue","1366","768","0","0","0","6009c2eda21be3026447d80e","","null","","","learningBlock1","","","","<div style=""font-size:60px;""> </div>","null","LF","learning/Slide31.JPG","This is a wug:","","",""
"html-keyboard-response","99","669261","0.0-5.0-0.31","LF","581oqcuhue","1366","768","0","0","0","6009c2eda21be3026447d80e","","null","","","learningBlock1","","","","This is a tob:","null","","","","","",""
"image-keyboard-response","100","669615","0.0-5.0-1.31","LF","581oqcuhue","1366","768","0","0","0","6009c2eda21be3026447d80e","","null","","","","","","","learning/Slide32.JPG","null","","","","","",""
"html-keyboard-response","101","670625","0.0-5.0-2.31","LF","581oqcuhue","1366","768","0","0","0","6009c2eda21be3026447d80e","","null","","","learningBlock1","","","","<div style=""font-size:60px;""> </div>","null","LF","learning/Slide32.JPG","This is a tob:","","",""
"html-keyboard-response","102","671636","0.0-5.0-0.32","LF","581oqcuhue","1366","768","0","0","0","6009c2eda21be3026447d80e","","null","","","learningBlock1","","","","This is a bim:","null","","","","","",""
"image-keyboard-response","103","671978","0.0-5.0-1.32","LF","581oqcuhue","1366","768","0","0","0","6009c2eda21be3026447d80e","","null","","","","","","","learning/Slide33.JPG","null","","","","","",""
"html-keyboard-response","104","672982","0.0-5.0-2.32","LF","581oqcuhue","1366","768","0","0","0","6009c2eda21be3026447d80e","","null","","","learningBlock1","","","","<div style=""font-size:60px;""> </div>","null","LF","learning/Slide33.JPG","This is a bim:","","",""
"html-keyboard-response","105","673989","0.0-5.0-0.33","LF","581oqcuhue","1366","768","0","0","0","6009c2eda21be3026447d80e","","null","","","learningBlock1","","","","This is a tob:","null","","","","","",""
"image-keyboard-response","106","674327","0.0-5.0-1.33","LF","581oqcuhue","1366","768","0","0","0","6009c2eda21be3026447d80e","","null","","","","","","","learning/Slide34.JPG","null","","","","","",""
"html-keyboard-response","107","675339","0.0-5.0-2.33","LF","581oqcuhue","1366","768","0","0","0","6009c2eda21be3026447d80e","","null","","","learningBlock1","","","","<div style=""font-size:60px;""> </div>","null","LF","learning/Slide34.JPG","This is a tob:","","",""
"html-keyboard-response","108","676343","0.0-5.0-0.34","LF","581oqcuhue","1366","768","0","0","0","6009c2eda21be3026447d80e","","null","","","learningBlock1","","","","This is a bim:","null","","","","","",""
"image-keyboard-response","109","676670","0.0-5.0-1.34","LF","581oqcuhue","1366","768","0","0","0","6009c2eda21be3026447d80e","","null","","","","","","","learning/Slide35.JPG","null","","","","","",""
"html-keyboard-response","110","677673","0.0-5.0-2.34","LF","581oqcuhue","1366","768","0","0","0","6009c2eda21be3026447d80e","","null","","","learningBlock1","","","","<div style=""font-size:60px;""> </div>","null","LF","learning/Slide35.JPG","This is a bim:","","",""
"html-keyboard-response","111","678681","0.0-5.0-0.35","LF","581oqcuhue","1366","768","0","0","0","6009c2eda21be3026447d80e","","null","","","learningBlock1","","","","This is a dep:","null","","","","","",""
"image-keyboard-response","112","679024","0.0-5.0-1.35","LF","581oqcuhue","1366","768","0","0","0","6009c2eda21be3026447d80e","","null","","","","","","","learning/Slide36.JPG","null","","","","","",""
"html-keyboard-response","113","680031","0.0-5.0-2.35","LF","581oqcuhue","1366","768","0","0","0","6009c2eda21be3026447d80e","","null","","","learningBlock1","","","","<div style=""font-size:60px;""> </div>","null","LF","learning/Slide36.JPG","This is a dep:","","",""
"html-keyboard-response","114","681044","0.0-5.0-0.36","LF","581oqcuhue","1366","768","0","0","0","6009c2eda21be3026447d80e","","null","","","learningBlock1","","","","This is a tob:","null","","","","","",""
"image-keyboard-response","115","682352","0.0-5.0-1.36","LF","581oqcuhue","1366","768","0","0","0","6009c2eda21be3026447d80e","","null","","","","","","","learning/Slide37.JPG","null","","","","","",""
"html-keyboard-response","116","683366","0.0-5.0-2.36","LF","581oqcuhue","1366","768","0","0","0","6009c2eda21be3026447d80e","","null","","","learningBlock1","","","","<div style=""font-size:60px;""> </div>","null","LF","learning/Slide37.JPG","This is a tob:","","",""
"html-keyboard-response","117","685358","0.0-5.0-0.37","LF","581oqcuhue","1366","768","0","0","0","6009c2eda21be3026447d80e","","null","","","learningBlock1","","","","This is a wug:","null","","","","","",""
"image-keyboard-response","118","687363","0.0-5.0-1.37","LF","581oqcuhue","1366","768","0","0","0","6009c2eda21be3026447d80e","","null","","","","","","","learning/Slide38.JPG","null","","","","","",""
"html-keyboard-response","119","689360","0.0-5.0-2.37","LF","581oqcuhue","1366","768","0","0","0","6009c2eda21be3026447d80e","","null","","","learningBlock1","","","","<div style=""font-size:60px;""> </div>","null","LF","learning/Slide38.JPG","This is a wug:","","",""
"html-keyboard-response","120","691356","0.0-5.0-0.38","LF","581oqcuhue","1366","768","0","0","0","6009c2eda21be3026447d80e","","null","","","learningBlock1","","","","This is a bim:","null","","","","","",""
"image-keyboard-response","121","693353","0.0-5.0-1.38","LF","581oqcuhue","1366","768","0","0","0","6009c2eda21be3026447d80e","","null","","","","","","","learning/Slide39.JPG","null","","","","","",""
"html-keyboard-response","122","694360","0.0-5.0-2.38","LF","581oqcuhue","1366","768","0","0","0","6009c2eda21be3026447d80e","","null","","","learningBlock1","","","","<div style=""font-size:60px;""> </div>","null","LF","learning/Slide39.JPG","This is a bim:","","",""
"html-keyboard-response","123","695367","0.0-5.0-0.39","LF","581oqcuhue","1366","768","0","0","0","6009c2eda21be3026447d80e","","null","","","learningBlock1","","","","This is a tob:","null","","","","","",""
"image-keyboard-response","124","697360","0.0-5.0-1.39","LF","581oqcuhue","1366","768","0","0","0","6009c2eda21be3026447d80e","","null","","","","","","","learning/Slide40.JPG","null","","","","","",""
"html-keyboard-response","125","699363","0.0-5.0-2.39","LF","581oqcuhue","1366","768","0","0","0","6009c2eda21be3026447d80e","","null","","","learningBlock1","","","","<div style=""font-size:60px;""> </div>","null","LF","learning/Slide40.JPG","This is a tob:","","",""
"html-keyboard-response","126","701357","0.0-5.0-0.40","LF","581oqcuhue","1366","768","0","0","0","6009c2eda21be3026447d80e","","null","","","learningBlock1","","","","This is a bim:","null","","","","","",""
"image-keyboard-response","127","703351","0.0-5.0-1.40","LF","581oqcuhue","1366","768","0","0","0","6009c2eda21be3026447d80e","","null","","","","","","","learning/Slide41.JPG","null","","","","","",""
"html-keyboard-response","128","704364","0.0-5.0-2.40","LF","581oqcuhue","1366","768","0","0","0","6009c2eda21be3026447d80e","","null","","","learningBlock1","","","","<div style=""font-size:60px;""> </div>","null","LF","learning/Slide41.JPG","This is a bim:","","",""
"html-keyboard-response","129","706360","0.0-5.0-0.41","LF","581oqcuhue","1366","768","0","0","0","6009c2eda21be3026447d80e","","null","","","learningBlock1","","","","This is a dep:","null","","","","","",""
"image-keyboard-response","130","708355","0.0-5.0-1.41","LF","581oqcuhue","1366","768","0","0","0","6009c2eda21be3026447d80e","","null","","","","","","","learning/Slide42.JPG","null","","","","","",""
"html-keyboard-response","131","709362","0.0-5.0-2.41","LF","581oqcuhue","1366","768","0","0","0","6009c2eda21be3026447d80e","","null","","","learningBlock1","","","","<div style=""font-size:60px;""> </div>","null","LF","learning/Slide42.JPG","This is a dep:","","",""
"html-keyboard-response","132","711360","0.0-5.0-0.42","LF","581oqcuhue","1366","768","0","0","0","6009c2eda21be3026447d80e","","null","","","learningBlock1","","","","This is a wug:","null","","","","","",""
"image-keyboard-response","133","713355","0.0-5.0-1.42","LF","581oqcuhue","1366","768","0","0","0","6009c2eda21be3026447d80e","","null","","","","","","","learning/Slide43.JPG","null","","","","","",""
"html-keyboard-response","134","714368","0.0-5.0-2.42","LF","581oqcuhue","1366","768","0","0","0","6009c2eda21be3026447d80e","","null","","","learningBlock1","","","","<div style=""font-size:60px;""> </div>","null","LF","learning/Slide43.JPG","This is a wug:","","",""
"html-keyboard-response","135","716361","0.0-5.0-0.43","LF","581oqcuhue","1366","768","0","0","0","6009c2eda21be3026447d80e","","null","","","learningBlock1","","","","This is a bim:","null","","","","","",""
"image-keyboard-response","136","718355","0.0-5.0-1.43","LF","581oqcuhue","1366","768","0","0","0","6009c2eda21be3026447d80e","","null","","","","","","","learning/Slide44.JPG","null","","","","","",""
"html-keyboard-response","137","720353","0.0-5.0-2.43","LF","581oqcuhue","1366","768","0","0","0","6009c2eda21be3026447d80e","","null","","","learningBlock1","","","","<div style=""font-size:60px;""> </div>","null","LF","learning/Slide44.JPG","This is a bim:","","",""
"html-keyboard-response","138","721361","0.0-5.0-0.44","LF","581oqcuhue","1366","768","0","0","0","6009c2eda21be3026447d80e","","null","","","learningBlock1","","","","This is a wug:","null","","","","","",""
"image-keyboard-response","139","723358","0.0-5.0-1.44","LF","581oqcuhue","1366","768","0","0","0","6009c2eda21be3026447d80e","","null","","","","","","","learning/Slide45.JPG","null","","","","","",""
"html-keyboard-response","140","724367","0.0-5.0-2.44","LF","581oqcuhue","1366","768","0","0","0","6009c2eda21be3026447d80e","","null","","","learningBlock1","","","","<div style=""font-size:60px;""> </div>","null","LF","learning/Slide45.JPG","This is a wug:","","",""
"html-keyboard-response","141","726366","0.0-5.0-0.45","LF","581oqcuhue","1366","768","0","0","0","6009c2eda21be3026447d80e","","null","","","learningBlock1","","","","This is a dep:","null","","","","","",""
"image-keyboard-response","142","728354","0.0-5.0-1.45","LF","581oqcuhue","1366","768","0","0","0","6009c2eda21be3026447d80e","","null","","","","","","","learning/Slide46.JPG","null","","","","","",""
"html-keyboard-response","143","729361","0.0-5.0-2.45","LF","581oqcuhue","1366","768","0","0","0","6009c2eda21be3026447d80e","","null","","","learningBlock1","","","","<div style=""font-size:60px;""> </div>","null","LF","learning/Slide46.JPG","This is a dep:","","",""
"html-keyboard-response","144","731365","0.0-5.0-0.46","LF","581oqcuhue","1366","768","0","0","0","6009c2eda21be3026447d80e","","null","","","learningBlock1","","","","This is a tob:","null","","","","","",""
"image-keyboard-response","145","733355","0.0-5.0-1.46","LF","581oqcuhue","1366","768","0","0","0","6009c2eda21be3026447d80e","","null","","","","","","","learning/Slide47.JPG","null","","","","","",""
"html-keyboard-response","146","734362","0.0-5.0-2.46","LF","581oqcuhue","1366","768","0","0","0","6009c2eda21be3026447d80e","","null","","","learningBlock1","","","","<div style=""font-size:60px;""> </div>","null","LF","learning/Slide47.JPG","This is a tob:","","",""
"html-keyboard-response","147","736362","0.0-5.0-0.47","LF","581oqcuhue","1366","768","0","0","0","6009c2eda21be3026447d80e","","null","","","learningBlock1","","","","This is a bim:","null","","","","","",""
"image-keyboard-response","148","738367","0.0-5.0-1.47","LF","581oqcuhue","1366","768","0","0","0","6009c2eda21be3026447d80e","","null","","","","","","","learning/Slide48.JPG","null","","","","","",""
"html-keyboard-response","149","740365","0.0-5.0-2.47","LF","581oqcuhue","1366","768","0","0","0","6009c2eda21be3026447d80e","","null","","","learningBlock1","","","","<div style=""font-size:60px;""> </div>","null","LF","learning/Slide48.JPG","This is a bim:","","",""
"html-keyboard-response","150","742358","0.0-5.0-0.48","LF","581oqcuhue","1366","768","0","0","0","6009c2eda21be3026447d80e","","null","","","learningBlock1","","","","This is a dep:","null","","","","","",""
"image-keyboard-response","151","744360","0.0-5.0-1.48","LF","581oqcuhue","1366","768","0","0","0","6009c2eda21be3026447d80e","","null","","","","","","","learning/Slide49.JPG","null","","","","","",""
"html-keyboard-response","152","746361","0.0-5.0-2.48","LF","581oqcuhue","1366","768","0","0","0","6009c2eda21be3026447d80e","","null","","","learningBlock1","","","","<div style=""font-size:60px;""> </div>","null","LF","learning/Slide49.JPG","This is a dep:","","",""
"html-keyboard-response","153","747365","0.0-5.0-0.49","LF","581oqcuhue","1366","768","0","0","0","6009c2eda21be3026447d80e","","null","","","learningBlock1","","","","This is a tob:","null","","","","","",""
"image-keyboard-response","154","749360","0.0-5.0-1.49","LF","581oqcuhue","1366","768","0","0","0","6009c2eda21be3026447d80e","","null","","","","","","","learning/Slide50.JPG","null","","","","","",""
"html-keyboard-response","155","751353","0.0-5.0-2.49","LF","581oqcuhue","1366","768","0","0","0","6009c2eda21be3026447d80e","","null","","","learningBlock1","","","","<div style=""font-size:60px;""> </div>","null","LF","learning/Slide50.JPG","This is a tob:","","",""
"html-keyboard-response","156","752359","0.0-5.0-0.50","LF","581oqcuhue","1366","768","0","0","0","6009c2eda21be3026447d80e","","null","","","learningBlock1","","","","This is a bim:","null","","","","","",""
"image-keyboard-response","157","754357","0.0-5.0-1.50","LF","581oqcuhue","1366","768","0","0","0","6009c2eda21be3026447d80e","","null","","","","","","","learning/Slide51.JPG","null","","","","","",""
"html-keyboard-response","158","755363","0.0-5.0-2.50","LF","581oqcuhue","1366","768","0","0","0","6009c2eda21be3026447d80e","","null","","","learningBlock1","","","","<div style=""font-size:60px;""> </div>","null","LF","learning/Slide51.JPG","This is a bim:","","",""
"html-keyboard-response","159","757353","0.0-5.0-0.51","LF","581oqcuhue","1366","768","0","0","0","6009c2eda21be3026447d80e","","null","","","learningBlock1","","","","This is a wug:","null","","","","","",""
"image-keyboard-response","160","759354","0.0-5.0-1.51","LF","581oqcuhue","1366","768","0","0","0","6009c2eda21be3026447d80e","","null","","","","","","","learning/Slide52.JPG","null","","","","","",""
"html-keyboard-response","161","760356","0.0-5.0-2.51","LF","581oqcuhue","1366","768","0","0","0","6009c2eda21be3026447d80e","","null","","","learningBlock1","","","","<div style=""font-size:60px;""> </div>","null","LF","learning/Slide52.JPG","This is a wug:","","",""
"html-keyboard-response","162","762367","0.0-5.0-0.52","LF","581oqcuhue","1366","768","0","0","0","6009c2eda21be3026447d80e","","null","","","learningBlock1","","","","This is a tob:","null","","","","","",""
"image-keyboard-response","163","764364","0.0-5.0-1.52","LF","581oqcuhue","1366","768","0","0","0","6009c2eda21be3026447d80e","","null","","","","","","","learning/Slide53.JPG","null","","","","","",""
"html-keyboard-response","164","766366","0.0-5.0-2.52","LF","581oqcuhue","1366","768","0","0","0","6009c2eda21be3026447d80e","","null","","","learningBlock1","","","","<div style=""font-size:60px;""> </div>","null","LF","learning/Slide53.JPG","This is a tob:","","",""
"html-keyboard-response","165","768364","0.0-5.0-0.53","LF","581oqcuhue","1366","768","0","0","0","6009c2eda21be3026447d80e","","null","","","learningBlock1","","","","This is a dep:","null","","","","","",""
"image-keyboard-response","166","770354","0.0-5.0-1.53","LF","581oqcuhue","1366","768","0","0","0","6009c2eda21be3026447d80e","","null","","","","","","","learning/Slide54.JPG","null","","","","","",""
"html-keyboard-response","167","771358","0.0-5.0-2.53","LF","581oqcuhue","1366","768","0","0","0","6009c2eda21be3026447d80e","","null","","","learningBlock1","","","","<div style=""font-size:60px;""> </div>","null","LF","learning/Slide54.JPG","This is a dep:","","",""
"html-keyboard-response","168","772360","0.0-5.0-0.54","LF","581oqcuhue","1366","768","0","0","0","6009c2eda21be3026447d80e","","null","","","learningBlock1","","","","This is a bim:","null","","","","","",""
"image-keyboard-response","169","774364","0.0-5.0-1.54","LF","581oqcuhue","1366","768","0","0","0","6009c2eda21be3026447d80e","","null","","","","","","","learning/Slide55.JPG","null","","","","","",""
"html-keyboard-response","170","776358","0.0-5.0-2.54","LF","581oqcuhue","1366","768","0","0","0","6009c2eda21be3026447d80e","","null","","","learningBlock1","","","","<div style=""font-size:60px;""> </div>","null","LF","learning/Slide55.JPG","This is a bim:","","",""
"html-keyboard-response","171","778365","0.0-5.0-0.55","LF","581oqcuhue","1366","768","0","0","0","6009c2eda21be3026447d80e","","null","","","learningBlock1","","","","This is a tob:","null","","","","","",""
"image-keyboard-response","172","779213","0.0-5.0-1.55","LF","581oqcuhue","1366","768","0","0","0","6009c2eda21be3026447d80e","","null","","","","","","","learning/Slide56.JPG","null","","","","","",""
"html-keyboard-response","173","780225","0.0-5.0-2.55","LF","581oqcuhue","1366","768","0","0","0","6009c2eda21be3026447d80e","","null","","","learningBlock1","","","","<div style=""font-size:60px;""> </div>","null","LF","learning/Slide56.JPG","This is a tob:","","",""
"html-keyboard-response","174","781230","0.0-5.0-0.56","LF","581oqcuhue","1366","768","0","0","0","6009c2eda21be3026447d80e","","null","","","learningBlock1","","","","This is a dep:","null","","","","","",""
"image-keyboard-response","175","781573","0.0-5.0-1.56","LF","581oqcuhue","1366","768","0","0","0","6009c2eda21be3026447d80e","","null","","","","","","","learning/Slide57.JPG","null","","","","","",""
"html-keyboard-response","176","782589","0.0-5.0-2.56","LF","581oqcuhue","1366","768","0","0","0","6009c2eda21be3026447d80e","","null","","","learningBlock1","","","","<div style=""font-size:60px;""> </div>","null","LF","learning/Slide57.JPG","This is a dep:","","",""
"html-keyboard-response","177","783603","0.0-5.0-0.57","LF","581oqcuhue","1366","768","0","0","0","6009c2eda21be3026447d80e","","null","","","learningBlock1","","","","This is a wug:","null","","","","","",""
"image-keyboard-response","178","783939","0.0-5.0-1.57","LF","581oqcuhue","1366","768","0","0","0","6009c2eda21be3026447d80e","","null","","","","","","","learning/Slide58.JPG","null","","","","","",""
"html-keyboard-response","179","784955","0.0-5.0-2.57","LF","581oqcuhue","1366","768","0","0","0","6009c2eda21be3026447d80e","","null","","","learningBlock1","","","","<div style=""font-size:60px;""> </div>","null","LF","learning/Slide58.JPG","This is a wug:","","",""
"html-keyboard-response","180","785965","0.0-5.0-0.58","LF","581oqcuhue","1366","768","0","0","0","6009c2eda21be3026447d80e","","null","","","learningBlock1","","","","This is a dep:","null","","","","","",""
"image-keyboard-response","181","786311","0.0-5.0-1.58","LF","581oqcuhue","1366","768","0","0","0","6009c2eda21be3026447d80e","","null","","","","","","","learning/Slide59.JPG","null","","","","","",""
"html-keyboard-response","182","787325","0.0-5.0-2.58","LF","581oqcuhue","1366","768","0","0","0","6009c2eda21be3026447d80e","","null","","","learningBlock1","","","","<div style=""font-size:60px;""> </div>","null","LF","learning/Slide59.JPG","This is a dep:","","",""
"html-keyboard-response","183","788338","0.0-5.0-0.59","LF","581oqcuhue","1366","768","0","0","0","6009c2eda21be3026447d80e","","null","","","learningBlock1","","","","This is a wug:","null","","","","","",""
"image-keyboard-response","184","788675","0.0-5.0-1.59","LF","581oqcuhue","1366","768","0","0","0","6009c2eda21be3026447d80e","","null","","","","","","","learning/Slide60.JPG","null","","","","","",""
"html-keyboard-response","185","789676","0.0-5.0-2.59","LF","581oqcuhue","1366","768","0","0","0","6009c2eda21be3026447d80e","","null","","","learningBlock1","","","","<div style=""font-size:60px;""> </div>","null","LF","learning/Slide60.JPG","This is a wug:","","",""
"html-keyboard-response","186","790678","0.0-5.0-0.60","LF","581oqcuhue","1366","768","0","0","0","6009c2eda21be3026447d80e","","null","","","learningBlock1","","","","This is a bim:","null","","","","","",""
"image-keyboard-response","187","791009","0.0-5.0-1.60","LF","581oqcuhue","1366","768","0","0","0","6009c2eda21be3026447d80e","","null","","","","","","","learning/Slide61.JPG","null","","","","","",""
"html-keyboard-response","188","792026","0.0-5.0-2.60","LF","581oqcuhue","1366","768","0","0","0","6009c2eda21be3026447d80e","","null","","","learningBlock1","","","","<div style=""font-size:60px;""> </div>","null","LF","learning/Slide61.JPG","This is a bim:","","",""
"html-keyboard-response","189","793029","0.0-5.0-0.61","LF","581oqcuhue","1366","768","0","0","0","6009c2eda21be3026447d80e","","null","","","learningBlock1","","","","This is a dep:","null","","","","","",""
"image-keyboard-response","190","793371","0.0-5.0-1.61","LF","581oqcuhue","1366","768","0","0","0","6009c2eda21be3026447d80e","","null","","","","","","","learning/Slide62.JPG","null","","","","","",""
"html-keyboard-response","191","794383","0.0-5.0-2.61","LF","581oqcuhue","1366","768","0","0","0","6009c2eda21be3026447d80e","","null","","","learningBlock1","","","","<div style=""font-size:60px;""> </div>","null","LF","learning/Slide62.JPG","This is a dep:","","",""
"html-keyboard-response","192","795397","0.0-5.0-0.62","LF","581oqcuhue","1366","768","0","0","0","6009c2eda21be3026447d80e","","null","","","learningBlock1","","","","This is a bim:","null","","","","","",""
"image-keyboard-response","193","795738","0.0-5.0-1.62","LF","581oqcuhue","1366","768","0","0","0","6009c2eda21be3026447d80e","","null","","","","","","","learning/Slide63.JPG","null","","","","","",""
"html-keyboard-response","194","796753","0.0-5.0-2.62","LF","581oqcuhue","1366","768","0","0","0","6009c2eda21be3026447d80e","","null","","","learningBlock1","","","","<div style=""font-size:60px;""> </div>","null","LF","learning/Slide63.JPG","This is a bim:","","",""
"html-keyboard-response","195","797757","0.0-5.0-0.63","LF","581oqcuhue","1366","768","0","0","0","6009c2eda21be3026447d80e","","null","","","learningBlock1","","","","This is a tob:","null","","","","","",""
"image-keyboard-response","196","798104","0.0-5.0-1.63","LF","581oqcuhue","1366","768","0","0","0","6009c2eda21be3026447d80e","","null","","","","","","","learning/Slide64.JPG","null","","","","","",""
"html-keyboard-response","197","799112","0.0-5.0-2.63","LF","581oqcuhue","1366","768","0","0","0","6009c2eda21be3026447d80e","","null","","","learningBlock1","","","","<div style=""font-size:60px;""> </div>","null","LF","learning/Slide64.JPG","This is a tob:","","",""
"html-keyboard-response","198","800117","0.0-5.0-0.64","LF","581oqcuhue","1366","768","0","0","0","6009c2eda21be3026447d80e","","null","","","learningBlock1","","","","This is a wug:","null","","","","","",""
"image-keyboard-response","199","800467","0.0-5.0-1.64","LF","581oqcuhue","1366","768","0","0","0","6009c2eda21be3026447d80e","","null","","","","","","","learning/Slide65.JPG","null","","","","","",""
"html-keyboard-response","200","801469","0.0-5.0-2.64","LF","581oqcuhue","1366","768","0","0","0","6009c2eda21be3026447d80e","","null","","","learningBlock1","","","","<div style=""font-size:60px;""> </div>","null","LF","learning/Slide65.JPG","This is a wug:","","",""
"html-keyboard-response","201","802479","0.0-5.0-0.65","LF","581oqcuhue","1366","768","0","0","0","6009c2eda21be3026447d80e","","null","","","learningBlock1","","","","This is a dep:","null","","","","","",""
"image-keyboard-response","202","802830","0.0-5.0-1.65","LF","581oqcuhue","1366","768","0","0","0","6009c2eda21be3026447d80e","","null","","","","","","","learning/Slide66.JPG","null","","","","","",""
"html-keyboard-response","203","803847","0.0-5.0-2.65","LF","581oqcuhue","1366","768","0","0","0","6009c2eda21be3026447d80e","","null","","","learningBlock1","","","","<div style=""font-size:60px;""> </div>","null","LF","learning/Slide66.JPG","This is a dep:","","",""
"html-keyboard-response","204","804850","0.0-5.0-0.66","LF","581oqcuhue","1366","768","0","0","0","6009c2eda21be3026447d80e","","null","","","learningBlock1","","","","This is a tob:","null","","","","","",""
"image-keyboard-response","205","805203","0.0-5.0-1.66","LF","581oqcuhue","1366","768","0","0","0","6009c2eda21be3026447d80e","","null","","","","","","","learning/Slide67.JPG","null","","","","","",""
"html-keyboard-response","206","806211","0.0-5.0-2.66","LF","581oqcuhue","1366","768","0","0","0","6009c2eda21be3026447d80e","","null","","","learningBlock1","","","","<div style=""font-size:60px;""> </div>","null","LF","learning/Slide67.JPG","This is a tob:","","",""
"html-keyboard-response","207","807229","0.0-5.0-0.67","LF","581oqcuhue","1366","768","0","0","0","6009c2eda21be3026447d80e","","null","","","learningBlock1","","","","This is a wug:","null","","","","","",""
"image-keyboard-response","208","807574","0.0-5.0-1.67","LF","581oqcuhue","1366","768","0","0","0","6009c2eda21be3026447d80e","","null","","","","","","","learning/Slide68.JPG","null","","","","","",""
"html-keyboard-response","209","808595","0.0-5.0-2.67","LF","581oqcuhue","1366","768","0","0","0","6009c2eda21be3026447d80e","","null","","","learningBlock1","","","","<div style=""font-size:60px;""> </div>","null","LF","learning/Slide68.JPG","This is a wug:","","",""
"html-keyboard-response","210","809611","0.0-5.0-0.68","LF","581oqcuhue","1366","768","0","0","0","6009c2eda21be3026447d80e","","null","","","learningBlock1","","","","This is a tob:","null","","","","","",""
"image-keyboard-response","211","809969","0.0-5.0-1.68","LF","581oqcuhue","1366","768","0","0","0","6009c2eda21be3026447d80e","","null","","","","","","","learning/Slide69.JPG","null","","","","","",""
"html-keyboard-response","212","810972","0.0-5.0-2.68","LF","581oqcuhue","1366","768","0","0","0","6009c2eda21be3026447d80e","","null","","","learningBlock1","","","","<div style=""font-size:60px;""> </div>","null","LF","learning/Slide69.JPG","This is a tob:","","",""
"html-keyboard-response","213","811975","0.0-5.0-0.69","LF","581oqcuhue","1366","768","0","0","0","6009c2eda21be3026447d80e","","null","","","learningBlock1","","","","This is a dep:","null","","","","","",""
"image-keyboard-response","214","812304","0.0-5.0-1.69","LF","581oqcuhue","1366","768","0","0","0","6009c2eda21be3026447d80e","","null","","","","","","","learning/Slide70.JPG","null","","","","","",""
"html-keyboard-response","215","813317","0.0-5.0-2.69","LF","581oqcuhue","1366","768","0","0","0","6009c2eda21be3026447d80e","","null","","","learningBlock1","","","","<div style=""font-size:60px;""> </div>","null","LF","learning/Slide70.JPG","This is a dep:","","",""
"html-keyboard-response","216","814333","0.0-5.0-0.70","LF","581oqcuhue","1366","768","0","0","0","6009c2eda21be3026447d80e","","null","","","learningBlock1","","","","This is a wug:","null","","","","","",""
"image-keyboard-response","217","814677","0.0-5.0-1.70","LF","581oqcuhue","1366","768","0","0","0","6009c2eda21be3026447d80e","","null","","","","","","","learning/Slide71.JPG","null","","","","","",""
"html-keyboard-response","218","815685","0.0-5.0-2.70","LF","581oqcuhue","1366","768","0","0","0","6009c2eda21be3026447d80e","","null","","","learningBlock1","","","","<div style=""font-size:60px;""> </div>","null","LF","learning/Slide71.JPG","This is a wug:","","",""
"html-keyboard-response","219","816687","0.0-5.0-0.71","LF","581oqcuhue","1366","768","0","0","0","6009c2eda21be3026447d80e","","null","","","learningBlock1","","","","This is a bim:","null","","","","","",""
"image-keyboard-response","220","817036","0.0-5.0-1.71","LF","581oqcuhue","1366","768","0","0","0","6009c2eda21be3026447d80e","","null","","","","","","","learning/Slide72.JPG","null","","","","","",""
"html-keyboard-response","221","818051","0.0-5.0-2.71","LF","581oqcuhue","1366","768","0","0","0","6009c2eda21be3026447d80e","","null","","","learningBlock1","","","","<div style=""font-size:60px;""> </div>","null","LF","learning/Slide72.JPG","This is a bim:","","",""
"html-keyboard-response","222","819068","0.0-5.0-0.72","LF","581oqcuhue","1366","768","0","0","0","6009c2eda21be3026447d80e","","null","","","learningBlock1","","","","This is a wug:","null","","","","","",""
"image-keyboard-response","223","819407","0.0-5.0-1.72","LF","581oqcuhue","1366","768","0","0","0","6009c2eda21be3026447d80e","","null","","","","","","","learning/Slide73.JPG","null","","","","","",""
"html-keyboard-response","224","820410","0.0-5.0-2.72","LF","581oqcuhue","1366","768","0","0","0","6009c2eda21be3026447d80e","","null","","","learningBlock1","","","","<div style=""font-size:60px;""> </div>","null","LF","learning/Slide73.JPG","This is a wug:","","",""
"html-keyboard-response","225","821416","0.0-5.0-0.73","LF","581oqcuhue","1366","768","0","0","0","6009c2eda21be3026447d80e","","null","","","learningBlock1","","","","This is a dep:","null","","","","","",""
"image-keyboard-response","226","821769","0.0-5.0-1.73","LF","581oqcuhue","1366","768","0","0","0","6009c2eda21be3026447d80e","","null","","","","","","","learning/Slide74.JPG","null","","","","","",""
"html-keyboard-response","227","822778","0.0-5.0-2.73","LF","581oqcuhue","1366","768","0","0","0","6009c2eda21be3026447d80e","","null","","","learningBlock1","","","","<div style=""font-size:60px;""> </div>","null","LF","learning/Slide74.JPG","This is a dep:","","",""
"html-keyboard-response","228","823784","0.0-5.0-0.74","LF","581oqcuhue","1366","768","0","0","0","6009c2eda21be3026447d80e","","null","","","learningBlock1","","","","This is a tob:","null","","","","","",""
"image-keyboard-response","229","824122","0.0-5.0-1.74","LF","581oqcuhue","1366","768","0","0","0","6009c2eda21be3026447d80e","","null","","","","","","","learning/Slide75.JPG","null","","","","","",""
"html-keyboard-response","230","825130","0.0-5.0-2.74","LF","581oqcuhue","1366","768","0","0","0","6009c2eda21be3026447d80e","","null","","","learningBlock1","","","","<div style=""font-size:60px;""> </div>","null","LF","learning/Slide75.JPG","This is a tob:","","",""
"html-keyboard-response","231","826144","0.0-5.0-0.75","LF","581oqcuhue","1366","768","0","0","0","6009c2eda21be3026447d80e","","null","","","learningBlock1","","","","This is a bim:","null","","","","","",""
"image-keyboard-response","232","826487","0.0-5.0-1.75","LF","581oqcuhue","1366","768","0","0","0","6009c2eda21be3026447d80e","","null","","","","","","","learning/Slide76.JPG","null","","","","","",""
"html-keyboard-response","233","827490","0.0-5.0-2.75","LF","581oqcuhue","1366","768","0","0","0","6009c2eda21be3026447d80e","","null","","","learningBlock1","","","","<div style=""font-size:60px;""> </div>","null","LF","learning/Slide76.JPG","This is a bim:","","",""
"html-keyboard-response","234","828495","0.0-5.0-0.76","LF","581oqcuhue","1366","768","0","0","0","6009c2eda21be3026447d80e","","null","","","learningBlock1","","","","This is a tob:","null","","","","","",""
"image-keyboard-response","235","828853","0.0-5.0-1.76","LF","581oqcuhue","1366","768","0","0","0","6009c2eda21be3026447d80e","","null","","","","","","","learning/Slide77.JPG","null","","","","","",""
"html-keyboard-response","236","829856","0.0-5.0-2.76","LF","581oqcuhue","1366","768","0","0","0","6009c2eda21be3026447d80e","","null","","","learningBlock1","","","","<div style=""font-size:60px;""> </div>","null","LF","learning/Slide77.JPG","This is a tob:","","",""
"html-keyboard-response","237","830860","0.0-5.0-0.77","LF","581oqcuhue","1366","768","0","0","0","6009c2eda21be3026447d80e","","null","","","learningBlock1","","","","This is a wug:","null","","","","","",""
"image-keyboard-response","238","831204","0.0-5.0-1.77","LF","581oqcuhue","1366","768","0","0","0","6009c2eda21be3026447d80e","","null","","","","","","","learning/Slide78.JPG","null","","","","","",""
"html-keyboard-response","239","832207","0.0-5.0-2.77","LF","581oqcuhue","1366","768","0","0","0","6009c2eda21be3026447d80e","","null","","","learningBlock1","","","","<div style=""font-size:60px;""> </div>","null","LF","learning/Slide78.JPG","This is a wug:","","",""
"html-keyboard-response","240","833210","0.0-5.0-0.78","LF","581oqcuhue","1366","768","0","0","0","6009c2eda21be3026447d80e","","null","","","learningBlock1","","","","This is a bim:","null","","","","","",""
"image-keyboard-response","241","833555","0.0-5.0-1.78","LF","581oqcuhue","1366","768","0","0","0","6009c2eda21be3026447d80e","","null","","","","","","","learning/Slide79.JPG","null","","","","","",""
"html-keyboard-response","242","834568","0.0-5.0-2.78","LF","581oqcuhue","1366","768","0","0","0","6009c2eda21be3026447d80e","","null","","","learningBlock1","","","","<div style=""font-size:60px;""> </div>","null","LF","learning/Slide79.JPG","This is a bim:","","",""
"html-keyboard-response","243","835572","0.0-5.0-0.79","LF","581oqcuhue","1366","768","0","0","0","6009c2eda21be3026447d80e","","null","","","learningBlock1","","","","This is a tob:","null","","","","","",""
"image-keyboard-response","244","835935","0.0-5.0-1.79","LF","581oqcuhue","1366","768","0","0","0","6009c2eda21be3026447d80e","","null","","","","","","","learning/Slide80.JPG","null","","","","","",""
"html-keyboard-response","245","836941","0.0-5.0-2.79","LF","581oqcuhue","1366","768","0","0","0","6009c2eda21be3026447d80e","","null","","","learningBlock1","","","","<div style=""font-size:60px;""> </div>","null","LF","learning/Slide80.JPG","This is a tob:","","",""
"instructions","246","846650","0.0-6.0","LF","581oqcuhue","1366","768","0","0","0","6009c2eda21be3026447d80e","","NA","","[{""page_index"":0,""viewing_time"":9707.314999999944}]","instructions","","","","","","","","","","",""
"html-keyboard-response","247","847664","0.0-7.0-0.0","LF","581oqcuhue","1366","768","0","0","0","6009c2eda21be3026447d80e","","null","","","learningBlock2","","","","This is a wug:","null","","","","","",""
"image-keyboard-response","248","848004","0.0-7.0-1.0","LF","581oqcuhue","1366","768","0","0","0","6009c2eda21be3026447d80e","","null","","","","","","","learning/Slide81.JPG","null","","","","","",""
"html-keyboard-response","249","849007","0.0-7.0-2.0","LF","581oqcuhue","1366","768","0","0","0","6009c2eda21be3026447d80e","","null","","","learningBlock2","","","","<div style=""font-size:60px;""> </div>","null","LF","learning/Slide81.JPG","This is a wug:","","",""
"html-keyboard-response","250","850024","0.0-7.0-0.1","LF","581oqcuhue","1366","768","0","0","0","6009c2eda21be3026447d80e","","null","","","learningBlock2","","","","This is a bim:","null","","","","","",""
"image-keyboard-response","251","850380","0.0-7.0-1.1","LF","581oqcuhue","1366","768","0","0","0","6009c2eda21be3026447d80e","","null","","","","","","","learning/Slide82.JPG","null","","","","","",""
"html-keyboard-response","252","851395","0.0-7.0-2.1","LF","581oqcuhue","1366","768","0","0","0","6009c2eda21be3026447d80e","","null","","","learningBlock2","","","","<div style=""font-size:60px;""> </div>","null","LF","learning/Slide82.JPG","This is a bim:","","",""
"html-keyboard-response","253","852410","0.0-7.0-0.2","LF","581oqcuhue","1366","768","0","0","0","6009c2eda21be3026447d80e","","null","","","learningBlock2","","","","This is a wug:","null","","","","","",""
"image-keyboard-response","254","852760","0.0-7.0-1.2","LF","581oqcuhue","1366","768","0","0","0","6009c2eda21be3026447d80e","","null","","","","","","","learning/Slide83.JPG","null","","","","","",""
"html-keyboard-response","255","853772","0.0-7.0-2.2","LF","581oqcuhue","1366","768","0","0","0","6009c2eda21be3026447d80e","","null","","","learningBlock2","","","","<div style=""font-size:60px;""> </div>","null","LF","learning/Slide83.JPG","This is a wug:","","",""
"html-keyboard-response","256","854785","0.0-7.0-0.3","LF","581oqcuhue","1366","768","0","0","0","6009c2eda21be3026447d80e","","null","","","learningBlock2","","","","This is a dep:","null","","","","","",""
"image-keyboard-response","257","855136","0.0-7.0-1.3","LF","581oqcuhue","1366","768","0","0","0","6009c2eda21be3026447d80e","","null","","","","","","","learning/Slide84.JPG","null","","","","","",""
"html-keyboard-response","258","856149","0.0-7.0-2.3","LF","581oqcuhue","1366","768","0","0","0","6009c2eda21be3026447d80e","","null","","","learningBlock2","","","","<div style=""font-size:60px;""> </div>","null","LF","learning/Slide84.JPG","This is a dep:","","",""
"html-keyboard-response","259","857159","0.0-7.0-0.4","LF","581oqcuhue","1366","768","0","0","0","6009c2eda21be3026447d80e","","null","","","learningBlock2","","","","This is a bim:","null","","","","","",""
"image-keyboard-response","260","857501","0.0-7.0-1.4","LF","581oqcuhue","1366","768","0","0","0","6009c2eda21be3026447d80e","","null","","","","","","","learning/Slide85.JPG","null","","","","","",""
"html-keyboard-response","261","858511","0.0-7.0-2.4","LF","581oqcuhue","1366","768","0","0","0","6009c2eda21be3026447d80e","","null","","","learningBlock2","","","","<div style=""font-size:60px;""> </div>","null","LF","learning/Slide85.JPG","This is a bim:","","",""
"html-keyboard-response","262","859519","0.0-7.0-0.5","LF","581oqcuhue","1366","768","0","0","0","6009c2eda21be3026447d80e","","null","","","learningBlock2","","","","This is a tob:","null","","","","","",""
"image-keyboard-response","263","859878","0.0-7.0-1.5","LF","581oqcuhue","1366","768","0","0","0","6009c2eda21be3026447d80e","","null","","","","","","","learning/Slide86.JPG","null","","","","","",""
"html-keyboard-response","264","860881","0.0-7.0-2.5","LF","581oqcuhue","1366","768","0","0","0","6009c2eda21be3026447d80e","","null","","","learningBlock2","","","","<div style=""font-size:60px;""> </div>","null","LF","learning/Slide86.JPG","This is a tob:","","",""
"html-keyboard-response","265","861895","0.0-7.0-0.6","LF","581oqcuhue","1366","768","0","0","0","6009c2eda21be3026447d80e","","null","","","learningBlock2","","","","This is a wug:","null","","","","","",""
"image-keyboard-response","266","862237","0.0-7.0-1.6","LF","581oqcuhue","1366","768","0","0","0","6009c2eda21be3026447d80e","","null","","","","","","","learning/Slide87.JPG","null","","","","","",""
"html-keyboard-response","267","863241","0.0-7.0-2.6","LF","581oqcuhue","1366","768","0","0","0","6009c2eda21be3026447d80e","","null","","","learningBlock2","","","","<div style=""font-size:60px;""> </div>","null","LF","learning/Slide87.JPG","This is a wug:","","",""
"html-keyboard-response","268","864244","0.0-7.0-0.7","LF","581oqcuhue","1366","768","0","0","0","6009c2eda21be3026447d80e","","null","","","learningBlock2","","","","This is a tob:","null","","","","","",""
"image-keyboard-response","269","864590","0.0-7.0-1.7","LF","581oqcuhue","1366","768","0","0","0","6009c2eda21be3026447d80e","","null","","","","","","","learning/Slide88.JPG","null","","","","","",""
"html-keyboard-response","270","865604","0.0-7.0-2.7","LF","581oqcuhue","1366","768","0","0","0","6009c2eda21be3026447d80e","","null","","","learningBlock2","","","","<div style=""font-size:60px;""> </div>","null","LF","learning/Slide88.JPG","This is a tob:","","",""
"html-keyboard-response","271","866614","0.0-7.0-0.8","LF","581oqcuhue","1366","768","0","0","0","6009c2eda21be3026447d80e","","null","","","learningBlock2","","","","This is a bim:","null","","","","","",""
"image-keyboard-response","272","866955","0.0-7.0-1.8","LF","581oqcuhue","1366","768","0","0","0","6009c2eda21be3026447d80e","","null","","","","","","","learning/Slide89.JPG","null","","","","","",""
"html-keyboard-response","273","867960","0.0-7.0-2.8","LF","581oqcuhue","1366","768","0","0","0","6009c2eda21be3026447d80e","","null","","","learningBlock2","","","","<div style=""font-size:60px;""> </div>","null","LF","learning/Slide89.JPG","This is a bim:","","",""
"html-keyboard-response","274","868976","0.0-7.0-0.9","LF","581oqcuhue","1366","768","0","0","0","6009c2eda21be3026447d80e","","null","","","learningBlock2","","","","This is a dep:","null","","","","","",""
"image-keyboard-response","275","869304","0.0-7.0-1.9","LF","581oqcuhue","1366","768","0","0","0","6009c2eda21be3026447d80e","","null","","","","","","","learning/Slide90.JPG","null","","","","","",""
"html-keyboard-response","276","870320","0.0-7.0-2.9","LF","581oqcuhue","1366","768","0","0","0","6009c2eda21be3026447d80e","","null","","","learningBlock2","","","","<div style=""font-size:60px;""> </div>","null","LF","learning/Slide90.JPG","This is a dep:","","",""
"html-keyboard-response","277","871328","0.0-7.0-0.10","LF","581oqcuhue","1366","768","0","0","0","6009c2eda21be3026447d80e","","null","","","learningBlock2","","","","This is a wug:","null","","","","","",""
"image-keyboard-response","278","871672","0.0-7.0-1.10","LF","581oqcuhue","1366","768","0","0","0","6009c2eda21be3026447d80e","","null","","","","","","","learning/Slide91.JPG","null","","","","","",""
"html-keyboard-response","279","872687","0.0-7.0-2.10","LF","581oqcuhue","1366","768","0","0","0","6009c2eda21be3026447d80e","","null","","","learningBlock2","","","","<div style=""font-size:60px;""> </div>","null","LF","learning/Slide91.JPG","This is a wug:","","",""
"html-keyboard-response","280","873691","0.0-7.0-0.11","LF","581oqcuhue","1366","768","0","0","0","6009c2eda21be3026447d80e","","null","","","learningBlock2","","","","This is a tob:","null","","","","","",""
"image-keyboard-response","281","874030","0.0-7.0-1.11","LF","581oqcuhue","1366","768","0","0","0","6009c2eda21be3026447d80e","","null","","","","","","","learning/Slide92.JPG","null","","","","","",""
"html-keyboard-response","282","875037","0.0-7.0-2.11","LF","581oqcuhue","1366","768","0","0","0","6009c2eda21be3026447d80e","","null","","","learningBlock2","","","","<div style=""font-size:60px;""> </div>","null","LF","learning/Slide92.JPG","This is a tob:","","",""
"html-keyboard-response","283","876044","0.0-7.0-0.12","LF","581oqcuhue","1366","768","0","0","0","6009c2eda21be3026447d80e","","null","","","learningBlock2","","","","This is a bim:","null","","","","","",""
"image-keyboard-response","284","876373","0.0-7.0-1.12","LF","581oqcuhue","1366","768","0","0","0","6009c2eda21be3026447d80e","","null","","","","","","","learning/Slide93.JPG","null","","","","","",""
"html-keyboard-response","285","877386","0.0-7.0-2.12","LF","581oqcuhue","1366","768","0","0","0","6009c2eda21be3026447d80e","","null","","","learningBlock2","","","","<div style=""font-size:60px;""> </div>","null","LF","learning/Slide93.JPG","This is a bim:","","",""
"html-keyboard-response","286","878400","0.0-7.0-0.13","LF","581oqcuhue","1366","768","0","0","0","6009c2eda21be3026447d80e","","null","","","learningBlock2","","","","This is a tob:","null","","","","","",""
"image-keyboard-response","287","878743","0.0-7.0-1.13","LF","581oqcuhue","1366","768","0","0","0","6009c2eda21be3026447d80e","","null","","","","","","","learning/Slide94.JPG","null","","","","","",""
"html-keyboard-response","288","879761","0.0-7.0-2.13","LF","581oqcuhue","1366","768","0","0","0","6009c2eda21be3026447d80e","","null","","","learningBlock2","","","","<div style=""font-size:60px;""> </div>","null","LF","learning/Slide94.JPG","This is a tob:","","",""
"html-keyboard-response","289","880768","0.0-7.0-0.14","LF","581oqcuhue","1366","768","0","0","0","6009c2eda21be3026447d80e","","null","","","learningBlock2","","","","This is a wug:","null","","","","","",""
"image-keyboard-response","290","881104","0.0-7.0-1.14","LF","581oqcuhue","1366","768","0","0","0","6009c2eda21be3026447d80e","","null","","","","","","","learning/Slide95.JPG","null","","","","","",""
"html-keyboard-response","291","882107","0.0-7.0-2.14","LF","581oqcuhue","1366","768","0","0","0","6009c2eda21be3026447d80e","","null","","","learningBlock2","","","","<div style=""font-size:60px;""> </div>","null","LF","learning/Slide95.JPG","This is a wug:","","",""
"html-keyboard-response","292","883112","0.0-7.0-0.15","LF","581oqcuhue","1366","768","0","0","0","6009c2eda21be3026447d80e","","null","","","learningBlock2","","","","This is a tob:","null","","","","","",""
"image-keyboard-response","293","883452","0.0-7.0-1.15","LF","581oqcuhue","1366","768","0","0","0","6009c2eda21be3026447d80e","","null","","","","","","","learning/Slide96.JPG","null","","","","","",""
"html-keyboard-response","294","884461","0.0-7.0-2.15","LF","581oqcuhue","1366","768","0","0","0","6009c2eda21be3026447d80e","","null","","","learningBlock2","","","","<div style=""font-size:60px;""> </div>","null","LF","learning/Slide96.JPG","This is a tob:","","",""
"html-keyboard-response","295","885476","0.0-7.0-0.16","LF","581oqcuhue","1366","768","0","0","0","6009c2eda21be3026447d80e","","null","","","learningBlock2","","","","This is a dep:","null","","","","","",""
"image-keyboard-response","296","885820","0.0-7.0-1.16","LF","581oqcuhue","1366","768","0","0","0","6009c2eda21be3026447d80e","","null","","","","","","","learning/Slide97.JPG","null","","","","","",""
"html-keyboard-response","297","886835","0.0-7.0-2.16","LF","581oqcuhue","1366","768","0","0","0","6009c2eda21be3026447d80e","","null","","","learningBlock2","","","","<div style=""font-size:60px;""> </div>","null","LF","learning/Slide97.JPG","This is a dep:","","",""
"html-keyboard-response","298","887850","0.0-7.0-0.17","LF","581oqcuhue","1366","768","0","0","0","6009c2eda21be3026447d80e","","null","","","learningBlock2","","","","This is a bim:","null","","","","","",""
"image-keyboard-response","299","888196","0.0-7.0-1.17","LF","581oqcuhue","1366","768","0","0","0","6009c2eda21be3026447d80e","","null","","","","","","","learning/Slide98.JPG","null","","","","","",""
"html-keyboard-response","300","889208","0.0-7.0-2.17","LF","581oqcuhue","1366","768","0","0","0","6009c2eda21be3026447d80e","","null","","","learningBlock2","","","","<div style=""font-size:60px;""> </div>","null","LF","learning/Slide98.JPG","This is a bim:","","",""
"html-keyboard-response","301","890224","0.0-7.0-0.18","LF","581oqcuhue","1366","768","0","0","0","6009c2eda21be3026447d80e","","null","","","learningBlock2","","","","This is a dep:","null","","","","","",""
"image-keyboard-response","302","890562","0.0-7.0-1.18","LF","581oqcuhue","1366","768","0","0","0","6009c2eda21be3026447d80e","","null","","","","","","","learning/Slide99.JPG","null","","","","","",""
"html-keyboard-response","303","891579","0.0-7.0-2.18","LF","581oqcuhue","1366","768","0","0","0","6009c2eda21be3026447d80e","","null","","","learningBlock2","","","","<div style=""font-size:60px;""> </div>","null","LF","learning/Slide99.JPG","This is a dep:","","",""
"html-keyboard-response","304","892591","0.0-7.0-0.19","LF","581oqcuhue","1366","768","0","0","0","6009c2eda21be3026447d80e","","null","","","learningBlock2","","","","This is a bim:","null","","","","","",""
"image-keyboard-response","305","892938","0.0-7.0-1.19","LF","581oqcuhue","1366","768","0","0","0","6009c2eda21be3026447d80e","","null","","","","","","","learning/Slide100.JPG","null","","","","","",""
"html-keyboard-response","306","893953","0.0-7.0-2.19","LF","581oqcuhue","1366","768","0","0","0","6009c2eda21be3026447d80e","","null","","","learningBlock2","","","","<div style=""font-size:60px;""> </div>","null","LF","learning/Slide100.JPG","This is a bim:","","",""
"html-keyboard-response","307","894960","0.0-7.0-0.20","LF","581oqcuhue","1366","768","0","0","0","6009c2eda21be3026447d80e","","null","","","learningBlock2","","","","This is a tob:","null","","","","","",""
"image-keyboard-response","308","895288","0.0-7.0-1.20","LF","581oqcuhue","1366","768","0","0","0","6009c2eda21be3026447d80e","","null","","","","","","","learning/Slide101.JPG","null","","","","","",""
"html-keyboard-response","309","896291","0.0-7.0-2.20","LF","581oqcuhue","1366","768","0","0","0","6009c2eda21be3026447d80e","","null","","","learningBlock2","","","","<div style=""font-size:60px;""> </div>","null","LF","learning/Slide101.JPG","This is a tob:","","",""
"html-keyboard-response","310","897304","0.0-7.0-0.21","LF","581oqcuhue","1366","768","0","0","0","6009c2eda21be3026447d80e","","null","","","learningBlock2","","","","This is a bim:","null","","","","","",""
"image-keyboard-response","311","897645","0.0-7.0-1.21","LF","581oqcuhue","1366","768","0","0","0","6009c2eda21be3026447d80e","","null","","","","","","","learning/Slide102.JPG","null","","","","","",""
"html-keyboard-response","312","898656","0.0-7.0-2.21","LF","581oqcuhue","1366","768","0","0","0","6009c2eda21be3026447d80e","","null","","","learningBlock2","","","","<div style=""font-size:60px;""> </div>","null","LF","learning/Slide102.JPG","This is a bim:","","",""
"html-keyboard-response","313","899661","0.0-7.0-0.22","LF","581oqcuhue","1366","768","0","0","0","6009c2eda21be3026447d80e","","null","","","learningBlock2","","","","This is a dep:","null","","","","","",""
"image-keyboard-response","314","900003","0.0-7.0-1.22","LF","581oqcuhue","1366","768","0","0","0","6009c2eda21be3026447d80e","","null","","","","","","","learning/Slide103.JPG","null","","","","","",""
"html-keyboard-response","315","901021","0.0-7.0-2.22","LF","581oqcuhue","1366","768","0","0","0","6009c2eda21be3026447d80e","","null","","","learningBlock2","","","","<div style=""font-size:60px;""> </div>","null","LF","learning/Slide103.JPG","This is a dep:","","",""
"html-keyboard-response","316","902024","0.0-7.0-0.23","LF","581oqcuhue","1366","768","0","0","0","6009c2eda21be3026447d80e","","null","","","learningBlock2","","","","This is a tob:","null","","","","","",""
"image-keyboard-response","317","902369","0.0-7.0-1.23","LF","581oqcuhue","1366","768","0","0","0","6009c2eda21be3026447d80e","","null","","","","","","","learning/Slide104.JPG","null","","","","","",""
"html-keyboard-response","318","903379","0.0-7.0-2.23","LF","581oqcuhue","1366","768","0","0","0","6009c2eda21be3026447d80e","","null","","","learningBlock2","","","","<div style=""font-size:60px;""> </div>","null","LF","learning/Slide104.JPG","This is a tob:","","",""
"html-keyboard-response","319","904383","0.0-7.0-0.24","LF","581oqcuhue","1366","768","0","0","0","6009c2eda21be3026447d80e","","null","","","learningBlock2","","","","This is a dep:","null","","","","","",""
"image-keyboard-response","320","904723","0.0-7.0-1.24","LF","581oqcuhue","1366","768","0","0","0","6009c2eda21be3026447d80e","","null","","","","","","","learning/Slide105.JPG","null","","","","","",""
"html-keyboard-response","321","905736","0.0-7.0-2.24","LF","581oqcuhue","1366","768","0","0","0","6009c2eda21be3026447d80e","","null","","","learningBlock2","","","","<div style=""font-size:60px;""> </div>","null","LF","learning/Slide105.JPG","This is a dep:","","",""
"html-keyboard-response","322","906746","0.0-7.0-0.25","LF","581oqcuhue","1366","768","0","0","0","6009c2eda21be3026447d80e","","null","","","learningBlock2","","","","This is a wug:","null","","","","","",""
"image-keyboard-response","323","907087","0.0-7.0-1.25","LF","581oqcuhue","1366","768","0","0","0","6009c2eda21be3026447d80e","","null","","","","","","","learning/Slide106.JPG","null","","","","","",""
"html-keyboard-response","324","908100","0.0-7.0-2.25","LF","581oqcuhue","1366","768","0","0","0","6009c2eda21be3026447d80e","","null","","","learningBlock2","","","","<div style=""font-size:60px;""> </div>","null","LF","learning/Slide106.JPG","This is a wug:","","",""
"html-keyboard-response","325","909113","0.0-7.0-0.26","LF","581oqcuhue","1366","768","0","0","0","6009c2eda21be3026447d80e","","null","","","learningBlock2","","","","This is a bim:","null","","","","","",""
"image-keyboard-response","326","909450","0.0-7.0-1.26","LF","581oqcuhue","1366","768","0","0","0","6009c2eda21be3026447d80e","","null","","","","","","","learning/Slide107.JPG","null","","","","","",""
"html-keyboard-response","327","910456","0.0-7.0-2.26","LF","581oqcuhue","1366","768","0","0","0","6009c2eda21be3026447d80e","","null","","","learningBlock2","","","","<div style=""font-size:60px;""> </div>","null","LF","learning/Slide107.JPG","This is a bim:","","",""
"html-keyboard-response","328","911469","0.0-7.0-0.27","LF","581oqcuhue","1366","768","0","0","0","6009c2eda21be3026447d80e","","null","","","learningBlock2","","","","This is a dep:","null","","","","","",""
"image-keyboard-response","329","911805","0.0-7.0-1.27","LF","581oqcuhue","1366","768","0","0","0","6009c2eda21be3026447d80e","","null","","","","","","","learning/Slide108.JPG","null","","","","","",""
"html-keyboard-response","330","912824","0.0-7.0-2.27","LF","581oqcuhue","1366","768","0","0","0","6009c2eda21be3026447d80e","","null","","","learningBlock2","","","","<div style=""font-size:60px;""> </div>","null","LF","learning/Slide108.JPG","This is a dep:","","",""
"html-keyboard-response","331","913828","0.0-7.0-0.28","LF","581oqcuhue","1366","768","0","0","0","6009c2eda21be3026447d80e","","null","","","learningBlock2","","","","This is a wug:","null","","","","","",""
"image-keyboard-response","332","914170","0.0-7.0-1.28","LF","581oqcuhue","1366","768","0","0","0","6009c2eda21be3026447d80e","","null","","","","","","","learning/Slide109.JPG","null","","","","","",""
"html-keyboard-response","333","915187","0.0-7.0-2.28","LF","581oqcuhue","1366","768","0","0","0","6009c2eda21be3026447d80e","","null","","","learningBlock2","","","","<div style=""font-size:60px;""> </div>","null","LF","learning/Slide109.JPG","This is a wug:","","",""
"html-keyboard-response","334","916191","0.0-7.0-0.29","LF","581oqcuhue","1366","768","0","0","0","6009c2eda21be3026447d80e","","null","","","learningBlock2","","","","This is a bim:","null","","","","","",""
"image-keyboard-response","335","916537","0.0-7.0-1.29","LF","581oqcuhue","1366","768","0","0","0","6009c2eda21be3026447d80e","","null","","","","","","","learning/Slide110.JPG","null","","","","","",""
"html-keyboard-response","336","917552","0.0-7.0-2.29","LF","581oqcuhue","1366","768","0","0","0","6009c2eda21be3026447d80e","","null","","","learningBlock2","","","","<div style=""font-size:60px;""> </div>","null","LF","learning/Slide110.JPG","This is a bim:","","",""
"html-keyboard-response","337","918568","0.0-7.0-0.30","LF","581oqcuhue","1366","768","0","0","0","6009c2eda21be3026447d80e","","null","","","learningBlock2","","","","This is a tob:","null","","","","","",""
"image-keyboard-response","338","918920","0.0-7.0-1.30","LF","581oqcuhue","1366","768","0","0","0","6009c2eda21be3026447d80e","","null","","","","","","","learning/Slide111.JPG","null","","","","","",""
"html-keyboard-response","339","919934","0.0-7.0-2.30","LF","581oqcuhue","1366","768","0","0","0","6009c2eda21be3026447d80e","","null","","","learningBlock2","","","","<div style=""font-size:60px;""> </div>","null","LF","learning/Slide111.JPG","This is a tob:","","",""
"html-keyboard-response","340","920950","0.0-7.0-0.31","LF","581oqcuhue","1366","768","0","0","0","6009c2eda21be3026447d80e","","null","","","learningBlock2","","","","This is a wug:","null","","","","","",""
"image-keyboard-response","341","921296","0.0-7.0-1.31","LF","581oqcuhue","1366","768","0","0","0","6009c2eda21be3026447d80e","","null","","","","","","","learning/Slide112.JPG","null","","","","","",""
"html-keyboard-response","342","922304","0.0-7.0-2.31","LF","581oqcuhue","1366","768","0","0","0","6009c2eda21be3026447d80e","","null","","","learningBlock2","","","","<div style=""font-size:60px;""> </div>","null","LF","learning/Slide112.JPG","This is a wug:","","",""
"html-keyboard-response","343","923311","0.0-7.0-0.32","LF","581oqcuhue","1366","768","0","0","0","6009c2eda21be3026447d80e","","null","","","learningBlock2","","","","This is a tob:","null","","","","","",""
"image-keyboard-response","344","923650","0.0-7.0-1.32","LF","581oqcuhue","1366","768","0","0","0","6009c2eda21be3026447d80e","","null","","","","","","","learning/Slide113.JPG","null","","","","","",""
"html-keyboard-response","345","924658","0.0-7.0-2.32","LF","581oqcuhue","1366","768","0","0","0","6009c2eda21be3026447d80e","","null","","","learningBlock2","","","","<div style=""font-size:60px;""> </div>","null","LF","learning/Slide113.JPG","This is a tob:","","",""
"html-keyboard-response","346","925668","0.0-7.0-0.33","LF","581oqcuhue","1366","768","0","0","0","6009c2eda21be3026447d80e","","null","","","learningBlock2","","","","This is a wug:","null","","","","","",""
"image-keyboard-response","347","926003","0.0-7.0-1.33","LF","581oqcuhue","1366","768","0","0","0","6009c2eda21be3026447d80e","","null","","","","","","","learning/Slide114.JPG","null","","","","","",""
"html-keyboard-response","348","927011","0.0-7.0-2.33","LF","581oqcuhue","1366","768","0","0","0","6009c2eda21be3026447d80e","","null","","","learningBlock2","","","","<div style=""font-size:60px;""> </div>","null","LF","learning/Slide114.JPG","This is a wug:","","",""
"html-keyboard-response","349","928017","0.0-7.0-0.34","LF","581oqcuhue","1366","768","0","0","0","6009c2eda21be3026447d80e","","null","","","learningBlock2","","","","This is a bim:","null","","","","","",""
"image-keyboard-response","350","928363","0.0-7.0-1.34","LF","581oqcuhue","1366","768","0","0","0","6009c2eda21be3026447d80e","","null","","","","","","","learning/Slide115.JPG","null","","","","","",""
"html-keyboard-response","351","929369","0.0-7.0-2.34","LF","581oqcuhue","1366","768","0","0","0","6009c2eda21be3026447d80e","","null","","","learningBlock2","","","","<div style=""font-size:60px;""> </div>","null","LF","learning/Slide115.JPG","This is a bim:","","",""
"html-keyboard-response","352","930372","0.0-7.0-0.35","LF","581oqcuhue","1366","768","0","0","0","6009c2eda21be3026447d80e","","null","","","learningBlock2","","","","This is a dep:","null","","","","","",""
"image-keyboard-response","353","930714","0.0-7.0-1.35","LF","581oqcuhue","1366","768","0","0","0","6009c2eda21be3026447d80e","","null","","","","","","","learning/Slide116.JPG","null","","","","","",""
"html-keyboard-response","354","931721","0.0-7.0-2.35","LF","581oqcuhue","1366","768","0","0","0","6009c2eda21be3026447d80e","","null","","","learningBlock2","","","","<div style=""font-size:60px;""> </div>","null","LF","learning/Slide116.JPG","This is a dep:","","",""
"html-keyboard-response","355","932732","0.0-7.0-0.36","LF","581oqcuhue","1366","768","0","0","0","6009c2eda21be3026447d80e","","null","","","learningBlock2","","","","This is a tob:","null","","","","","",""
"image-keyboard-response","356","933080","0.0-7.0-1.36","LF","581oqcuhue","1366","768","0","0","0","6009c2eda21be3026447d80e","","null","","","","","","","learning/Slide117.JPG","null","","","","","",""
"html-keyboard-response","357","934088","0.0-7.0-2.36","LF","581oqcuhue","1366","768","0","0","0","6009c2eda21be3026447d80e","","null","","","learningBlock2","","","","<div style=""font-size:60px;""> </div>","null","LF","learning/Slide117.JPG","This is a tob:","","",""
"html-keyboard-response","358","935103","0.0-7.0-0.37","LF","581oqcuhue","1366","768","0","0","0","6009c2eda21be3026447d80e","","null","","","learningBlock2","","","","This is a dep:","null","","","","","",""
"image-keyboard-response","359","935450","0.0-7.0-1.37","LF","581oqcuhue","1366","768","0","0","0","6009c2eda21be3026447d80e","","null","","","","","","","learning/Slide118.JPG","null","","","","","",""
"html-keyboard-response","360","936458","0.0-7.0-2.37","LF","581oqcuhue","1366","768","0","0","0","6009c2eda21be3026447d80e","","null","","","learningBlock2","","","","<div style=""font-size:60px;""> </div>","null","LF","learning/Slide118.JPG","This is a dep:","","",""
"html-keyboard-response","361","937474","0.0-7.0-0.38","LF","581oqcuhue","1366","768","0","0","0","6009c2eda21be3026447d80e","","null","","","learningBlock2","","","","This is a wug:","null","","","","","",""
"image-keyboard-response","362","937818","0.0-7.0-1.38","LF","581oqcuhue","1366","768","0","0","0","6009c2eda21be3026447d80e","","null","","","","","","","learning/Slide119.JPG","null","","","","","",""
"html-keyboard-response","363","938822","0.0-7.0-2.38","LF","581oqcuhue","1366","768","0","0","0","6009c2eda21be3026447d80e","","null","","","learningBlock2","","","","<div style=""font-size:60px;""> </div>","null","LF","learning/Slide119.JPG","This is a wug:","","",""
"html-keyboard-response","364","939834","0.0-7.0-0.39","LF","581oqcuhue","1366","768","0","0","0","6009c2eda21be3026447d80e","","null","","","learningBlock2","","","","This is a dep:","null","","","","","",""
"image-keyboard-response","365","940171","0.0-7.0-1.39","LF","581oqcuhue","1366","768","0","0","0","6009c2eda21be3026447d80e","","null","","","","","","","learning/Slide120.JPG","null","","","","","",""
"html-keyboard-response","366","941182","0.0-7.0-2.39","LF","581oqcuhue","1366","768","0","0","0","6009c2eda21be3026447d80e","","null","","","learningBlock2","","","","<div style=""font-size:60px;""> </div>","null","LF","learning/Slide120.JPG","This is a dep:","","",""
"html-keyboard-response","367","942185","0.0-7.0-0.40","LF","581oqcuhue","1366","768","0","0","0","6009c2eda21be3026447d80e","","null","","","learningBlock2","","","","This is a bim:","null","","","","","",""
"image-keyboard-response","368","942529","0.0-7.0-1.40","LF","581oqcuhue","1366","768","0","0","0","6009c2eda21be3026447d80e","","null","","","","","","","learning/Slide121.JPG","null","","","","","",""
"html-keyboard-response","369","943538","0.0-7.0-2.40","LF","581oqcuhue","1366","768","0","0","0","6009c2eda21be3026447d80e","","null","","","learningBlock2","","","","<div style=""font-size:60px;""> </div>","null","LF","learning/Slide121.JPG","This is a bim:","","",""
"html-keyboard-response","370","944546","0.0-7.0-0.41","LF","581oqcuhue","1366","768","0","0","0","6009c2eda21be3026447d80e","","null","","","learningBlock2","","","","This is a wug:","null","","","","","",""
"image-keyboard-response","371","944883","0.0-7.0-1.41","LF","581oqcuhue","1366","768","0","0","0","6009c2eda21be3026447d80e","","null","","","","","","","learning/Slide122.JPG","null","","","","","",""
"html-keyboard-response","372","945893","0.0-7.0-2.41","LF","581oqcuhue","1366","768","0","0","0","6009c2eda21be3026447d80e","","null","","","learningBlock2","","","","<div style=""font-size:60px;""> </div>","null","LF","learning/Slide122.JPG","This is a wug:","","",""
"html-keyboard-response","373","946902","0.0-7.0-0.42","LF","581oqcuhue","1366","768","0","0","0","6009c2eda21be3026447d80e","","null","","","learningBlock2","","","","This is a bim:","null","","","","","",""
"image-keyboard-response","374","947253","0.0-7.0-1.42","LF","581oqcuhue","1366","768","0","0","0","6009c2eda21be3026447d80e","","null","","","","","","","learning/Slide123.JPG","null","","","","","",""
"html-keyboard-response","375","948259","0.0-7.0-2.42","LF","581oqcuhue","1366","768","0","0","0","6009c2eda21be3026447d80e","","null","","","learningBlock2","","","","<div style=""font-size:60px;""> </div>","null","LF","learning/Slide123.JPG","This is a bim:","","",""
"html-keyboard-response","376","949262","0.0-7.0-0.43","LF","581oqcuhue","1366","768","0","0","0","6009c2eda21be3026447d80e","","null","","","learningBlock2","","","","This is a tob:","null","","","","","",""
"image-keyboard-response","377","949617","0.0-7.0-1.43","LF","581oqcuhue","1366","768","0","0","0","6009c2eda21be3026447d80e","","null","","","","","","","learning/Slide124.JPG","null","","","","","",""
"html-keyboard-response","378","950634","0.0-7.0-2.43","LF","581oqcuhue","1366","768","0","0","0","6009c2eda21be3026447d80e","","null","","","learningBlock2","","","","<div style=""font-size:60px;""> </div>","null","LF","learning/Slide124.JPG","This is a tob:","","",""
"html-keyboard-response","379","951643","0.0-7.0-0.44","LF","581oqcuhue","1366","768","0","0","0","6009c2eda21be3026447d80e","","null","","","learningBlock2","","","","This is a bim:","null","","","","","",""
"image-keyboard-response","380","951995","0.0-7.0-1.44","LF","581oqcuhue","1366","768","0","0","0","6009c2eda21be3026447d80e","","null","","","","","","","learning/Slide125.JPG","null","","","","","",""
"html-keyboard-response","381","953005","0.0-7.0-2.44","LF","581oqcuhue","1366","768","0","0","0","6009c2eda21be3026447d80e","","null","","","learningBlock2","","","","<div style=""font-size:60px;""> </div>","null","LF","learning/Slide125.JPG","This is a bim:","","",""
"html-keyboard-response","382","954013","0.0-7.0-0.45","LF","581oqcuhue","1366","768","0","0","0","6009c2eda21be3026447d80e","","null","","","learningBlock2","","","","This is a tob:","null","","","","","",""
"image-keyboard-response","383","954356","0.0-7.0-1.45","LF","581oqcuhue","1366","768","0","0","0","6009c2eda21be3026447d80e","","null","","","","","","","learning/Slide126.JPG","null","","","","","",""
"html-keyboard-response","384","955365","0.0-7.0-2.45","LF","581oqcuhue","1366","768","0","0","0","6009c2eda21be3026447d80e","","null","","","learningBlock2","","","","<div style=""font-size:60px;""> </div>","null","LF","learning/Slide126.JPG","This is a tob:","","",""
"html-keyboard-response","385","956378","0.0-7.0-0.46","LF","581oqcuhue","1366","768","0","0","0","6009c2eda21be3026447d80e","","null","","","learningBlock2","","","","This is a dep:","null","","","","","",""
"image-keyboard-response","386","956717","0.0-7.0-1.46","LF","581oqcuhue","1366","768","0","0","0","6009c2eda21be3026447d80e","","null","","","","","","","learning/Slide127.JPG","null","","","","","",""
"html-keyboard-response","387","957733","0.0-7.0-2.46","LF","581oqcuhue","1366","768","0","0","0","6009c2eda21be3026447d80e","","null","","","learningBlock2","","","","<div style=""font-size:60px;""> </div>","null","LF","learning/Slide127.JPG","This is a dep:","","",""
"html-keyboard-response","388","958746","0.0-7.0-0.47","LF","581oqcuhue","1366","768","0","0","0","6009c2eda21be3026447d80e","","null","","","learningBlock2","","","","This is a wug:","null","","","","","",""
"image-keyboard-response","389","959080","0.0-7.0-1.47","LF","581oqcuhue","1366","768","0","0","0","6009c2eda21be3026447d80e","","null","","","","","","","learning/Slide128.JPG","null","","","","","",""
"html-keyboard-response","390","960095","0.0-7.0-2.47","LF","581oqcuhue","1366","768","0","0","0","6009c2eda21be3026447d80e","","null","","","learningBlock2","","","","<div style=""font-size:60px;""> </div>","null","LF","learning/Slide128.JPG","This is a wug:","","",""
"html-keyboard-response","391","961107","0.0-7.0-0.48","LF","581oqcuhue","1366","768","0","0","0","6009c2eda21be3026447d80e","","null","","","learningBlock2","","","","This is a tob:","null","","","","","",""
"image-keyboard-response","392","961457","0.0-7.0-1.48","LF","581oqcuhue","1366","768","0","0","0","6009c2eda21be3026447d80e","","null","","","","","","","learning/Slide129.JPG","null","","","","","",""
"html-keyboard-response","393","962477","0.0-7.0-2.48","LF","581oqcuhue","1366","768","0","0","0","6009c2eda21be3026447d80e","","null","","","learningBlock2","","","","<div style=""font-size:60px;""> </div>","null","LF","learning/Slide129.JPG","This is a tob:","","",""
"html-keyboard-response","394","963488","0.0-7.0-0.49","LF","581oqcuhue","1366","768","0","0","0","6009c2eda21be3026447d80e","","null","","","learningBlock2","","","","This is a wug:","null","","","","","",""
"image-keyboard-response","395","963817","0.0-7.0-1.49","LF","581oqcuhue","1366","768","0","0","0","6009c2eda21be3026447d80e","","null","","","","","","","learning/Slide130.JPG","null","","","","","",""
"html-keyboard-response","396","964823","0.0-7.0-2.49","LF","581oqcuhue","1366","768","0","0","0","6009c2eda21be3026447d80e","","null","","","learningBlock2","","","","<div style=""font-size:60px;""> </div>","null","LF","learning/Slide130.JPG","This is a wug:","","",""
"html-keyboard-response","397","965837","0.0-7.0-0.50","LF","581oqcuhue","1366","768","0","0","0","6009c2eda21be3026447d80e","","null","","","learningBlock2","","","","This is a bim:","null","","","","","",""
"image-keyboard-response","398","966165","0.0-7.0-1.50","LF","581oqcuhue","1366","768","0","0","0","6009c2eda21be3026447d80e","","null","","","","","","","learning/Slide131.JPG","null","","","","","",""
"html-keyboard-response","399","967167","0.0-7.0-2.50","LF","581oqcuhue","1366","768","0","0","0","6009c2eda21be3026447d80e","","null","","","learningBlock2","","","","<div style=""font-size:60px;""> </div>","null","LF","learning/Slide131.JPG","This is a bim:","","",""
"html-keyboard-response","400","968173","0.0-7.0-0.51","LF","581oqcuhue","1366","768","0","0","0","6009c2eda21be3026447d80e","","null","","","learningBlock2","","","","This is a dep:","null","","","","","",""
"image-keyboard-response","401","968521","0.0-7.0-1.51","LF","581oqcuhue","1366","768","0","0","0","6009c2eda21be3026447d80e","","null","","","","","","","learning/Slide132.JPG","null","","","","","",""
"html-keyboard-response","402","969532","0.0-7.0-2.51","LF","581oqcuhue","1366","768","0","0","0","6009c2eda21be3026447d80e","","null","","","learningBlock2","","","","<div style=""font-size:60px;""> </div>","null","LF","learning/Slide132.JPG","This is a dep:","","",""
"html-keyboard-response","403","970547","0.0-7.0-0.52","LF","581oqcuhue","1366","768","0","0","0","6009c2eda21be3026447d80e","","null","","","learningBlock2","","","","This is a tob:","null","","","","","",""
"image-keyboard-response","404","970896","0.0-7.0-1.52","LF","581oqcuhue","1366","768","0","0","0","6009c2eda21be3026447d80e","","null","","","","","","","learning/Slide133.JPG","null","","","","","",""
"html-keyboard-response","405","971902","0.0-7.0-2.52","LF","581oqcuhue","1366","768","0","0","0","6009c2eda21be3026447d80e","","null","","","learningBlock2","","","","<div style=""font-size:60px;""> </div>","null","LF","learning/Slide133.JPG","This is a tob:","","",""
"html-keyboard-response","406","972918","0.0-7.0-0.53","LF","581oqcuhue","1366","768","0","0","0","6009c2eda21be3026447d80e","","null","","","learningBlock2","","","","This is a dep:","null","","","","","",""
"image-keyboard-response","407","973267","0.0-7.0-1.53","LF","581oqcuhue","1366","768","0","0","0","6009c2eda21be3026447d80e","","null","","","","","","","learning/Slide134.JPG","null","","","","","",""
"html-keyboard-response","408","974283","0.0-7.0-2.53","LF","581oqcuhue","1366","768","0","0","0","6009c2eda21be3026447d80e","","null","","","learningBlock2","","","","<div style=""font-size:60px;""> </div>","null","LF","learning/Slide134.JPG","This is a dep:","","",""
"html-keyboard-response","409","975286","0.0-7.0-0.54","LF","581oqcuhue","1366","768","0","0","0","6009c2eda21be3026447d80e","","null","","","learningBlock2","","","","This is a tob:","null","","","","","",""
"image-keyboard-response","410","975635","0.0-7.0-1.54","LF","581oqcuhue","1366","768","0","0","0","6009c2eda21be3026447d80e","","null","","","","","","","learning/Slide135.JPG","null","","","","","",""
"html-keyboard-response","411","976643","0.0-7.0-2.54","LF","581oqcuhue","1366","768","0","0","0","6009c2eda21be3026447d80e","","null","","","learningBlock2","","","","<div style=""font-size:60px;""> </div>","null","LF","learning/Slide135.JPG","This is a tob:","","",""
"html-keyboard-response","412","977650","0.0-7.0-0.55","LF","581oqcuhue","1366","768","0","0","0","6009c2eda21be3026447d80e","","null","","","learningBlock2","","","","This is a wug:","null","","","","","",""
"image-keyboard-response","413","977987","0.0-7.0-1.55","LF","581oqcuhue","1366","768","0","0","0","6009c2eda21be3026447d80e","","null","","","","","","","learning/Slide136.JPG","null","","","","","",""
"html-keyboard-response","414","978999","0.0-7.0-2.55","LF","581oqcuhue","1366","768","0","0","0","6009c2eda21be3026447d80e","","null","","","learningBlock2","","","","<div style=""font-size:60px;""> </div>","null","LF","learning/Slide136.JPG","This is a wug:","","",""
"html-keyboard-response","415","980009","0.0-7.0-0.56","LF","581oqcuhue","1366","768","0","0","0","6009c2eda21be3026447d80e","","null","","","learningBlock2","","","","This is a tob:","null","","","","","",""
"image-keyboard-response","416","980357","0.0-7.0-1.56","LF","581oqcuhue","1366","768","0","0","0","6009c2eda21be3026447d80e","","null","","","","","","","learning/Slide137.JPG","null","","","","","",""
"html-keyboard-response","417","981365","0.0-7.0-2.56","LF","581oqcuhue","1366","768","0","0","0","6009c2eda21be3026447d80e","","null","","","learningBlock2","","","","<div style=""font-size:60px;""> </div>","null","LF","learning/Slide137.JPG","This is a tob:","","",""
"html-keyboard-response","418","982369","0.0-7.0-0.57","LF","581oqcuhue","1366","768","0","0","0","6009c2eda21be3026447d80e","","null","","","learningBlock2","","","","This is a bim:","null","","","","","",""
"image-keyboard-response","419","982713","0.0-7.0-1.57","LF","581oqcuhue","1366","768","0","0","0","6009c2eda21be3026447d80e","","null","","","","","","","learning/Slide138.JPG","null","","","","","",""
"html-keyboard-response","420","983725","0.0-7.0-2.57","LF","581oqcuhue","1366","768","0","0","0","6009c2eda21be3026447d80e","","null","","","learningBlock2","","","","<div style=""font-size:60px;""> </div>","null","LF","learning/Slide138.JPG","This is a bim:","","",""
"html-keyboard-response","421","984737","0.0-7.0-0.58","LF","581oqcuhue","1366","768","0","0","0","6009c2eda21be3026447d80e","","null","","","learningBlock2","","","","This is a wug:","null","","","","","",""
"image-keyboard-response","422","985075","0.0-7.0-1.58","LF","581oqcuhue","1366","768","0","0","0","6009c2eda21be3026447d80e","","null","","","","","","","learning/Slide139.JPG","null","","","","","",""
"html-keyboard-response","423","986083","0.0-7.0-2.58","LF","581oqcuhue","1366","768","0","0","0","6009c2eda21be3026447d80e","","null","","","learningBlock2","","","","<div style=""font-size:60px;""> </div>","null","LF","learning/Slide139.JPG","This is a wug:","","",""
"html-keyboard-response","424","987086","0.0-7.0-0.59","LF","581oqcuhue","1366","768","0","0","0","6009c2eda21be3026447d80e","","null","","","learningBlock2","","","","This is a dep:","null","","","","","",""
"image-keyboard-response","425","987428","0.0-7.0-1.59","LF","581oqcuhue","1366","768","0","0","0","6009c2eda21be3026447d80e","","null","","","","","","","learning/Slide140.JPG","null","","","","","",""
"html-keyboard-response","426","988438","0.0-7.0-2.59","LF","581oqcuhue","1366","768","0","0","0","6009c2eda21be3026447d80e","","null","","","learningBlock2","","","","<div style=""font-size:60px;""> </div>","null","LF","learning/Slide140.JPG","This is a dep:","","",""
"html-keyboard-response","427","989445","0.0-7.0-0.60","LF","581oqcuhue","1366","768","0","0","0","6009c2eda21be3026447d80e","","null","","","learningBlock2","","","","This is a tob:","null","","","","","",""
"image-keyboard-response","428","989798","0.0-7.0-1.60","LF","581oqcuhue","1366","768","0","0","0","6009c2eda21be3026447d80e","","null","","","","","","","learning/Slide141.JPG","null","","","","","",""
"html-keyboard-response","429","990807","0.0-7.0-2.60","LF","581oqcuhue","1366","768","0","0","0","6009c2eda21be3026447d80e","","null","","","learningBlock2","","","","<div style=""font-size:60px;""> </div>","null","LF","learning/Slide141.JPG","This is a tob:","","",""
"html-keyboard-response","430","991818","0.0-7.0-0.61","LF","581oqcuhue","1366","768","0","0","0","6009c2eda21be3026447d80e","","null","","","learningBlock2","","","","This is a wug:","null","","","","","",""
"image-keyboard-response","431","992167","0.0-7.0-1.61","LF","581oqcuhue","1366","768","0","0","0","6009c2eda21be3026447d80e","","null","","","","","","","learning/Slide142.JPG","null","","","","","",""
"html-keyboard-response","432","993173","0.0-7.0-2.61","LF","581oqcuhue","1366","768","0","0","0","6009c2eda21be3026447d80e","","null","","","learningBlock2","","","","<div style=""font-size:60px;""> </div>","null","LF","learning/Slide142.JPG","This is a wug:","","",""
"html-keyboard-response","433","994178","0.0-7.0-0.62","LF","581oqcuhue","1366","768","0","0","0","6009c2eda21be3026447d80e","","null","","","learningBlock2","","","","This is a bim:","null","","","","","",""
"image-keyboard-response","434","994517","0.0-7.0-1.62","LF","581oqcuhue","1366","768","0","0","0","6009c2eda21be3026447d80e","","null","","","","","","","learning/Slide143.JPG","null","","","","","",""
"html-keyboard-response","435","995522","0.0-7.0-2.62","LF","581oqcuhue","1366","768","0","0","0","6009c2eda21be3026447d80e","","null","","","learningBlock2","","","","<div style=""font-size:60px;""> </div>","null","LF","learning/Slide143.JPG","This is a bim:","","",""
"html-keyboard-response","436","996527","0.0-7.0-0.63","LF","581oqcuhue","1366","768","0","0","0","6009c2eda21be3026447d80e","","null","","","learningBlock2","","","","This is a dep:","null","","","","","",""
"image-keyboard-response","437","996877","0.0-7.0-1.63","LF","581oqcuhue","1366","768","0","0","0","6009c2eda21be3026447d80e","","null","","","","","","","learning/Slide144.JPG","null","","","","","",""
