"trial_type","trial_index","time_elapsed","internal_node_id","condition","subject","screen_width","screen_height","attention","distraction","conscientious","prolificID","success","rt","url","view_history","test_part","final_height_px","final_width_px","scale_factor","stimulus","key_press","learningType","presentedImage","presentedLabel","button_pressed","response","responses"
"pavlovia","0","16","0.0-0.0","FL","oqwgn1zhn1","1920","1080","0","1","0","5eb5cb8ddef42c4ad1456dd9","","","","","","","","","","","","","","","",""
"fullscreen","1","13438","0.0-1.0","FL","oqwgn1zhn1","1920","1080","0","1","0","5eb5cb8ddef42c4ad1456dd9","true","","","","","","","","","","","","","","",""
"external-html","2","37599","0.0-2.0-0.0","FL","oqwgn1zhn1","1920","1080","0","1","0","5eb5cb8ddef42c4ad1456dd9","","24071","text/information_english.html","","","","","","","","","","","","",""
"external-html","3","52475","0.0-2.0-1.0","FL","oqwgn1zhn1","1920","1080","0","1","0","5eb5cb8ddef42c4ad1456dd9","","14795","text/consent_english.html","","","","","","","","","","","","",""
"instructions","4","62846","0.0-3.0","FL","oqwgn1zhn1","1920","1080","0","1","0","5eb5cb8ddef42c4ad1456dd9","","NA","","[{""page_index"":0,""viewing_time"":1871},{""page_index"":1,""viewing_time"":8499}]","instructions","","","","","","","","","","",""
"resize","5","104238","0.0-4.0","FL","oqwgn1zhn1","1920","1080","0","1","0","5eb5cb8ddef42c4ad1456dd9","","","","","","","312","1.9809523809523808","","","","","","","",""
"image-keyboard-response","6","104422","0.0-5.0-0.0","FL","oqwgn1zhn1","1920","1080","0","1","0","5eb5cb8ddef42c4ad1456dd9","","null","","","","","","","learning/Slide1.JPG","null","","","","","",""
"html-keyboard-response","7","105600","0.0-5.0-1.0","FL","oqwgn1zhn1","1920","1080","0","1","0","5eb5cb8ddef42c4ad1456dd9","","null","","","learningBlock1","","","","That was a tob.","null","","","","","",""
"html-keyboard-response","8","106617","0.0-5.0-2.0","FL","oqwgn1zhn1","1920","1080","0","1","0","5eb5cb8ddef42c4ad1456dd9","","null","","","learningBlock1","","","","<div style=""font-size:60px;""> </div>","null","FL","learning/Slide1.JPG","That was a tob.","","",""
"image-keyboard-response","9","106801","0.0-5.0-0.1","FL","oqwgn1zhn1","1920","1080","0","1","0","5eb5cb8ddef42c4ad1456dd9","","null","","","","","","","learning/Slide2.JPG","null","","","","","",""
"html-keyboard-response","10","107981","0.0-5.0-1.1","FL","oqwgn1zhn1","1920","1080","0","1","0","5eb5cb8ddef42c4ad1456dd9","","null","","","learningBlock1","","","","That was a wug.","null","","","","","",""
"html-keyboard-response","11","109001","0.0-5.0-2.1","FL","oqwgn1zhn1","1920","1080","0","1","0","5eb5cb8ddef42c4ad1456dd9","","null","","","learningBlock1","","","","<div style=""font-size:60px;""> </div>","null","FL","learning/Slide2.JPG","That was a wug.","","",""
"image-keyboard-response","12","109181","0.0-5.0-0.2","FL","oqwgn1zhn1","1920","1080","0","1","0","5eb5cb8ddef42c4ad1456dd9","","null","","","","","","","learning/Slide3.JPG","null","","","","","",""
"html-keyboard-response","13","110361","0.0-5.0-1.2","FL","oqwgn1zhn1","1920","1080","0","1","0","5eb5cb8ddef42c4ad1456dd9","","null","","","learningBlock1","","","","That was a bim.","null","","","","","",""
"html-keyboard-response","14","111380","0.0-5.0-2.2","FL","oqwgn1zhn1","1920","1080","0","1","0","5eb5cb8ddef42c4ad1456dd9","","null","","","learningBlock1","","","","<div style=""font-size:60px;""> </div>","null","FL","learning/Slide3.JPG","That was a bim.","","",""
"image-keyboard-response","15","111561","0.0-5.0-0.3","FL","oqwgn1zhn1","1920","1080","0","1","0","5eb5cb8ddef42c4ad1456dd9","","null","","","","","","","learning/Slide4.JPG","null","","","","","",""
"html-keyboard-response","16","112741","0.0-5.0-1.3","FL","oqwgn1zhn1","1920","1080","0","1","0","5eb5cb8ddef42c4ad1456dd9","","null","","","learningBlock1","","","","That was a dep.","null","","","","","",""
"html-keyboard-response","17","113760","0.0-5.0-2.3","FL","oqwgn1zhn1","1920","1080","0","1","0","5eb5cb8ddef42c4ad1456dd9","","null","","","learningBlock1","","","","<div style=""font-size:60px;""> </div>","null","FL","learning/Slide4.JPG","That was a dep.","","",""
"image-keyboard-response","18","113941","0.0-5.0-0.4","FL","oqwgn1zhn1","1920","1080","0","1","0","5eb5cb8ddef42c4ad1456dd9","","null","","","","","","","learning/Slide5.JPG","null","","","","","",""
"html-keyboard-response","19","115120","0.0-5.0-1.4","FL","oqwgn1zhn1","1920","1080","0","1","0","5eb5cb8ddef42c4ad1456dd9","","null","","","learningBlock1","","","","That was a wug.","null","","","","","",""
"html-keyboard-response","20","116141","0.0-5.0-2.4","FL","oqwgn1zhn1","1920","1080","0","1","0","5eb5cb8ddef42c4ad1456dd9","","null","","","learningBlock1","","","","<div style=""font-size:60px;""> </div>","null","FL","learning/Slide5.JPG","That was a wug.","","",""
"image-keyboard-response","21","116321","0.0-5.0-0.5","FL","oqwgn1zhn1","1920","1080","0","1","0","5eb5cb8ddef42c4ad1456dd9","","null","","","","","","","learning/Slide6.JPG","null","","","","","",""
"html-keyboard-response","22","117501","0.0-5.0-1.5","FL","oqwgn1zhn1","1920","1080","0","1","0","5eb5cb8ddef42c4ad1456dd9","","null","","","learningBlock1","","","","That was a dep.","null","","","","","",""
"html-keyboard-response","23","118521","0.0-5.0-2.5","FL","oqwgn1zhn1","1920","1080","0","1","0","5eb5cb8ddef42c4ad1456dd9","","null","","","learningBlock1","","","","<div style=""font-size:60px;""> </div>","null","FL","learning/Slide6.JPG","That was a dep.","","",""
"image-keyboard-response","24","118701","0.0-5.0-0.6","FL","oqwgn1zhn1","1920","1080","0","1","0","5eb5cb8ddef42c4ad1456dd9","","null","","","","","","","learning/Slide7.JPG","null","","","","","",""
"html-keyboard-response","25","119881","0.0-5.0-1.6","FL","oqwgn1zhn1","1920","1080","0","1","0","5eb5cb8ddef42c4ad1456dd9","","null","","","learningBlock1","","","","That was a wug.","null","","","","","",""
"html-keyboard-response","26","120895","0.0-5.0-2.6","FL","oqwgn1zhn1","1920","1080","0","1","0","5eb5cb8ddef42c4ad1456dd9","","null","","","learningBlock1","","","","<div style=""font-size:60px;""> </div>","null","FL","learning/Slide7.JPG","That was a wug.","","",""
"image-keyboard-response","27","121080","0.0-5.0-0.7","FL","oqwgn1zhn1","1920","1080","0","1","0","5eb5cb8ddef42c4ad1456dd9","","null","","","","","","","learning/Slide8.JPG","null","","","","","",""
"html-keyboard-response","28","122241","0.0-5.0-1.7","FL","oqwgn1zhn1","1920","1080","0","1","0","5eb5cb8ddef42c4ad1456dd9","","null","","","learningBlock1","","","","That was a bim.","null","","","","","",""
"html-keyboard-response","29","123251","0.0-5.0-2.7","FL","oqwgn1zhn1","1920","1080","0","1","0","5eb5cb8ddef42c4ad1456dd9","","null","","","learningBlock1","","","","<div style=""font-size:60px;""> </div>","null","FL","learning/Slide8.JPG","That was a bim.","","",""
"image-keyboard-response","30","123431","0.0-5.0-0.8","FL","oqwgn1zhn1","1920","1080","0","1","0","5eb5cb8ddef42c4ad1456dd9","","null","","","","","","","learning/Slide9.JPG","null","","","","","",""
"html-keyboard-response","31","124610","0.0-5.0-1.8","FL","oqwgn1zhn1","1920","1080","0","1","0","5eb5cb8ddef42c4ad1456dd9","","null","","","learningBlock1","","","","That was a wug.","null","","","","","",""
"html-keyboard-response","32","125630","0.0-5.0-2.8","FL","oqwgn1zhn1","1920","1080","0","1","0","5eb5cb8ddef42c4ad1456dd9","","null","","","learningBlock1","","","","<div style=""font-size:60px;""> </div>","null","FL","learning/Slide9.JPG","That was a wug.","","",""
"image-keyboard-response","33","125811","0.0-5.0-0.9","FL","oqwgn1zhn1","1920","1080","0","1","0","5eb5cb8ddef42c4ad1456dd9","","null","","","","","","","learning/Slide10.JPG","null","","","","","",""
"html-keyboard-response","34","126980","0.0-5.0-1.9","FL","oqwgn1zhn1","1920","1080","0","1","0","5eb5cb8ddef42c4ad1456dd9","","null","","","learningBlock1","","","","That was a dep.","null","","","","","",""
"html-keyboard-response","35","128001","0.0-5.0-2.9","FL","oqwgn1zhn1","1920","1080","0","1","0","5eb5cb8ddef42c4ad1456dd9","","null","","","learningBlock1","","","","<div style=""font-size:60px;""> </div>","null","FL","learning/Slide10.JPG","That was a dep.","","",""
"image-keyboard-response","36","128181","0.0-5.0-0.10","FL","oqwgn1zhn1","1920","1080","0","1","0","5eb5cb8ddef42c4ad1456dd9","","null","","","","","","","learning/Slide11.JPG","null","","","","","",""
"html-keyboard-response","37","129360","0.0-5.0-1.10","FL","oqwgn1zhn1","1920","1080","0","1","0","5eb5cb8ddef42c4ad1456dd9","","null","","","learningBlock1","","","","That was a tob.","null","","","","","",""
"html-keyboard-response","38","130380","0.0-5.0-2.10","FL","oqwgn1zhn1","1920","1080","0","1","0","5eb5cb8ddef42c4ad1456dd9","","null","","","learningBlock1","","","","<div style=""font-size:60px;""> </div>","null","FL","learning/Slide11.JPG","That was a tob.","","",""
"image-keyboard-response","39","130558","0.0-5.0-0.11","FL","oqwgn1zhn1","1920","1080","0","1","0","5eb5cb8ddef42c4ad1456dd9","","null","","","","","","","learning/Slide12.JPG","null","","","","","",""
"html-keyboard-response","40","131726","0.0-5.0-1.11","FL","oqwgn1zhn1","1920","1080","0","1","0","5eb5cb8ddef42c4ad1456dd9","","null","","","learningBlock1","","","","That was a dep.","null","","","","","",""
"html-keyboard-response","41","132740","0.0-5.0-2.11","FL","oqwgn1zhn1","1920","1080","0","1","0","5eb5cb8ddef42c4ad1456dd9","","null","","","learningBlock1","","","","<div style=""font-size:60px;""> </div>","null","FL","learning/Slide12.JPG","That was a dep.","","",""
"image-keyboard-response","42","132921","0.0-5.0-0.12","FL","oqwgn1zhn1","1920","1080","0","1","0","5eb5cb8ddef42c4ad1456dd9","","null","","","","","","","learning/Slide13.JPG","null","","","","","",""
"html-keyboard-response","43","134100","0.0-5.0-1.12","FL","oqwgn1zhn1","1920","1080","0","1","0","5eb5cb8ddef42c4ad1456dd9","","null","","","learningBlock1","","","","That was a bim.","null","","","","","",""
"html-keyboard-response","44","135100","0.0-5.0-2.12","FL","oqwgn1zhn1","1920","1080","0","1","0","5eb5cb8ddef42c4ad1456dd9","","null","","","learningBlock1","","","","<div style=""font-size:60px;""> </div>","null","FL","learning/Slide13.JPG","That was a bim.","","",""
"image-keyboard-response","45","135280","0.0-5.0-0.13","FL","oqwgn1zhn1","1920","1080","0","1","0","5eb5cb8ddef42c4ad1456dd9","","null","","","","","","","learning/Slide14.JPG","null","","","","","",""
"html-keyboard-response","46","136461","0.0-5.0-1.13","FL","oqwgn1zhn1","1920","1080","0","1","0","5eb5cb8ddef42c4ad1456dd9","","null","","","learningBlock1","","","","That was a wug.","null","","","","","",""
"html-keyboard-response","47","137481","0.0-5.0-2.13","FL","oqwgn1zhn1","1920","1080","0","1","0","5eb5cb8ddef42c4ad1456dd9","","null","","","learningBlock1","","","","<div style=""font-size:60px;""> </div>","null","FL","learning/Slide14.JPG","That was a wug.","","",""
"image-keyboard-response","48","137661","0.0-5.0-0.14","FL","oqwgn1zhn1","1920","1080","0","1","0","5eb5cb8ddef42c4ad1456dd9","","null","","","","","","","learning/Slide15.JPG","null","","","","","",""
"html-keyboard-response","49","138841","0.0-5.0-1.14","FL","oqwgn1zhn1","1920","1080","0","1","0","5eb5cb8ddef42c4ad1456dd9","","null","","","learningBlock1","","","","That was a tob.","null","","","","","",""
"html-keyboard-response","50","139860","0.0-5.0-2.14","FL","oqwgn1zhn1","1920","1080","0","1","0","5eb5cb8ddef42c4ad1456dd9","","null","","","learningBlock1","","","","<div style=""font-size:60px;""> </div>","null","FL","learning/Slide15.JPG","That was a tob.","","",""
"image-keyboard-response","51","140041","0.0-5.0-0.15","FL","oqwgn1zhn1","1920","1080","0","1","0","5eb5cb8ddef42c4ad1456dd9","","null","","","","","","","learning/Slide16.JPG","null","","","","","",""
"html-keyboard-response","52","141221","0.0-5.0-1.15","FL","oqwgn1zhn1","1920","1080","0","1","0","5eb5cb8ddef42c4ad1456dd9","","null","","","learningBlock1","","","","That was a dep.","null","","","","","",""
"html-keyboard-response","53","142240","0.0-5.0-2.15","FL","oqwgn1zhn1","1920","1080","0","1","0","5eb5cb8ddef42c4ad1456dd9","","null","","","learningBlock1","","","","<div style=""font-size:60px;""> </div>","null","FL","learning/Slide16.JPG","That was a dep.","","",""
"image-keyboard-response","54","142421","0.0-5.0-0.16","FL","oqwgn1zhn1","1920","1080","0","1","0","5eb5cb8ddef42c4ad1456dd9","","null","","","","","","","learning/Slide17.JPG","null","","","","","",""
"html-keyboard-response","55","143591","0.0-5.0-1.16","FL","oqwgn1zhn1","1920","1080","0","1","0","5eb5cb8ddef42c4ad1456dd9","","null","","","learningBlock1","","","","That was a bim.","null","","","","","",""
"html-keyboard-response","56","144610","0.0-5.0-2.16","FL","oqwgn1zhn1","1920","1080","0","1","0","5eb5cb8ddef42c4ad1456dd9","","null","","","learningBlock1","","","","<div style=""font-size:60px;""> </div>","null","FL","learning/Slide17.JPG","That was a bim.","","",""
"image-keyboard-response","57","144791","0.0-5.0-0.17","FL","oqwgn1zhn1","1920","1080","0","1","0","5eb5cb8ddef42c4ad1456dd9","","null","","","","","","","learning/Slide18.JPG","null","","","","","",""
"html-keyboard-response","58","145971","0.0-5.0-1.17","FL","oqwgn1zhn1","1920","1080","0","1","0","5eb5cb8ddef42c4ad1456dd9","","null","","","learningBlock1","","","","That was a tob.","null","","","","","",""
"html-keyboard-response","59","146991","0.0-5.0-2.17","FL","oqwgn1zhn1","1920","1080","0","1","0","5eb5cb8ddef42c4ad1456dd9","","null","","","learningBlock1","","","","<div style=""font-size:60px;""> </div>","null","FL","learning/Slide18.JPG","That was a tob.","","",""
"image-keyboard-response","60","147171","0.0-5.0-0.18","FL","oqwgn1zhn1","1920","1080","0","1","0","5eb5cb8ddef42c4ad1456dd9","","null","","","","","","","learning/Slide19.JPG","null","","","","","",""
"html-keyboard-response","61","148351","0.0-5.0-1.18","FL","oqwgn1zhn1","1920","1080","0","1","0","5eb5cb8ddef42c4ad1456dd9","","null","","","learningBlock1","","","","That was a wug.","null","","","","","",""
"html-keyboard-response","62","149370","0.0-5.0-2.18","FL","oqwgn1zhn1","1920","1080","0","1","0","5eb5cb8ddef42c4ad1456dd9","","null","","","learningBlock1","","","","<div style=""font-size:60px;""> </div>","null","FL","learning/Slide19.JPG","That was a wug.","","",""
"image-keyboard-response","63","149551","0.0-5.0-0.19","FL","oqwgn1zhn1","1920","1080","0","1","0","5eb5cb8ddef42c4ad1456dd9","","null","","","","","","","learning/Slide20.JPG","null","","","","","",""
"html-keyboard-response","64","150730","0.0-5.0-1.19","FL","oqwgn1zhn1","1920","1080","0","1","0","5eb5cb8ddef42c4ad1456dd9","","null","","","learningBlock1","","","","That was a bim.","null","","","","","",""
"html-keyboard-response","65","151751","0.0-5.0-2.19","FL","oqwgn1zhn1","1920","1080","0","1","0","5eb5cb8ddef42c4ad1456dd9","","null","","","learningBlock1","","","","<div style=""font-size:60px;""> </div>","null","FL","learning/Slide20.JPG","That was a bim.","","",""
"image-keyboard-response","66","151929","0.0-5.0-0.20","FL","oqwgn1zhn1","1920","1080","0","1","0","5eb5cb8ddef42c4ad1456dd9","","null","","","","","","","learning/Slide21.JPG","null","","","","","",""
"html-keyboard-response","67","153111","0.0-5.0-1.20","FL","oqwgn1zhn1","1920","1080","0","1","0","5eb5cb8ddef42c4ad1456dd9","","null","","","learningBlock1","","","","That was a dep.","null","","","","","",""
"html-keyboard-response","68","154130","0.0-5.0-2.20","FL","oqwgn1zhn1","1920","1080","0","1","0","5eb5cb8ddef42c4ad1456dd9","","null","","","learningBlock1","","","","<div style=""font-size:60px;""> </div>","null","FL","learning/Slide21.JPG","That was a dep.","","",""
"image-keyboard-response","69","154311","0.0-5.0-0.21","FL","oqwgn1zhn1","1920","1080","0","1","0","5eb5cb8ddef42c4ad1456dd9","","null","","","","","","","learning/Slide22.JPG","null","","","","","",""
"html-keyboard-response","70","155483","0.0-5.0-1.21","FL","oqwgn1zhn1","1920","1080","0","1","0","5eb5cb8ddef42c4ad1456dd9","","null","","","learningBlock1","","","","That was a bim.","null","","","","","",""
"html-keyboard-response","71","156490","0.0-5.0-2.21","FL","oqwgn1zhn1","1920","1080","0","1","0","5eb5cb8ddef42c4ad1456dd9","","null","","","learningBlock1","","","","<div style=""font-size:60px;""> </div>","null","FL","learning/Slide22.JPG","That was a bim.","","",""
"image-keyboard-response","72","156671","0.0-5.0-0.22","FL","oqwgn1zhn1","1920","1080","0","1","0","5eb5cb8ddef42c4ad1456dd9","","null","","","","","","","learning/Slide23.JPG","null","","","","","",""
"html-keyboard-response","73","157851","0.0-5.0-1.22","FL","oqwgn1zhn1","1920","1080","0","1","0","5eb5cb8ddef42c4ad1456dd9","","null","","","learningBlock1","","","","That was a tob.","null","","","","","",""
"html-keyboard-response","74","158871","0.0-5.0-2.22","FL","oqwgn1zhn1","1920","1080","0","1","0","5eb5cb8ddef42c4ad1456dd9","","null","","","learningBlock1","","","","<div style=""font-size:60px;""> </div>","null","FL","learning/Slide23.JPG","That was a tob.","","",""
"image-keyboard-response","75","159050","0.0-5.0-0.23","FL","oqwgn1zhn1","1920","1080","0","1","0","5eb5cb8ddef42c4ad1456dd9","","null","","","","","","","learning/Slide24.JPG","null","","","","","",""
"html-keyboard-response","76","160226","0.0-5.0-1.23","FL","oqwgn1zhn1","1920","1080","0","1","0","5eb5cb8ddef42c4ad1456dd9","","null","","","learningBlock1","","","","That was a wug.","null","","","","","",""
"html-keyboard-response","77","161250","0.0-5.0-2.23","FL","oqwgn1zhn1","1920","1080","0","1","0","5eb5cb8ddef42c4ad1456dd9","","null","","","learningBlock1","","","","<div style=""font-size:60px;""> </div>","null","FL","learning/Slide24.JPG","That was a wug.","","",""
"image-keyboard-response","78","161451","0.0-5.0-0.24","FL","oqwgn1zhn1","1920","1080","0","1","0","5eb5cb8ddef42c4ad1456dd9","","null","","","","","","","learning/Slide25.JPG","null","","","","","",""
"html-keyboard-response","79","162623","0.0-5.0-1.24","FL","oqwgn1zhn1","1920","1080","0","1","0","5eb5cb8ddef42c4ad1456dd9","","null","","","learningBlock1","","","","That was a dep.","null","","","","","",""
"html-keyboard-response","80","163640","0.0-5.0-2.24","FL","oqwgn1zhn1","1920","1080","0","1","0","5eb5cb8ddef42c4ad1456dd9","","null","","","learningBlock1","","","","<div style=""font-size:60px;""> </div>","null","FL","learning/Slide25.JPG","That was a dep.","","",""
"image-keyboard-response","81","163821","0.0-5.0-0.25","FL","oqwgn1zhn1","1920","1080","0","1","0","5eb5cb8ddef42c4ad1456dd9","","null","","","","","","","learning/Slide26.JPG","null","","","","","",""
"html-keyboard-response","82","165000","0.0-5.0-1.25","FL","oqwgn1zhn1","1920","1080","0","1","0","5eb5cb8ddef42c4ad1456dd9","","null","","","learningBlock1","","","","That was a wug.","null","","","","","",""
"html-keyboard-response","83","166021","0.0-5.0-2.25","FL","oqwgn1zhn1","1920","1080","0","1","0","5eb5cb8ddef42c4ad1456dd9","","null","","","learningBlock1","","","","<div style=""font-size:60px;""> </div>","null","FL","learning/Slide26.JPG","That was a wug.","","",""
"image-keyboard-response","84","166201","0.0-5.0-0.26","FL","oqwgn1zhn1","1920","1080","0","1","0","5eb5cb8ddef42c4ad1456dd9","","null","","","","","","","learning/Slide27.JPG","null","","","","","",""
"html-keyboard-response","85","167381","0.0-5.0-1.26","FL","oqwgn1zhn1","1920","1080","0","1","0","5eb5cb8ddef42c4ad1456dd9","","null","","","learningBlock1","","","","That was a bim.","null","","","","","",""
"html-keyboard-response","86","168401","0.0-5.0-2.26","FL","oqwgn1zhn1","1920","1080","0","1","0","5eb5cb8ddef42c4ad1456dd9","","null","","","learningBlock1","","","","<div style=""font-size:60px;""> </div>","null","FL","learning/Slide27.JPG","That was a bim.","","",""
"image-keyboard-response","87","168581","0.0-5.0-0.27","FL","oqwgn1zhn1","1920","1080","0","1","0","5eb5cb8ddef42c4ad1456dd9","","null","","","","","","","learning/Slide28.JPG","null","","","","","",""
"html-keyboard-response","88","169761","0.0-5.0-1.27","FL","oqwgn1zhn1","1920","1080","0","1","0","5eb5cb8ddef42c4ad1456dd9","","null","","","learningBlock1","","","","That was a dep.","null","","","","","",""
"html-keyboard-response","89","170780","0.0-5.0-2.27","FL","oqwgn1zhn1","1920","1080","0","1","0","5eb5cb8ddef42c4ad1456dd9","","null","","","learningBlock1","","","","<div style=""font-size:60px;""> </div>","null","FL","learning/Slide28.JPG","That was a dep.","","",""
"image-keyboard-response","90","170960","0.0-5.0-0.28","FL","oqwgn1zhn1","1920","1080","0","1","0","5eb5cb8ddef42c4ad1456dd9","","null","","","","","","","learning/Slide29.JPG","null","","","","","",""
"html-keyboard-response","91","172130","0.0-5.0-1.28","FL","oqwgn1zhn1","1920","1080","0","1","0","5eb5cb8ddef42c4ad1456dd9","","null","","","learningBlock1","","","","That was a tob.","null","","","","","",""
"html-keyboard-response","92","173133","0.0-5.0-2.28","FL","oqwgn1zhn1","1920","1080","0","1","0","5eb5cb8ddef42c4ad1456dd9","","null","","","learningBlock1","","","","<div style=""font-size:60px;""> </div>","null","FL","learning/Slide29.JPG","That was a tob.","","",""
"image-keyboard-response","93","173311","0.0-5.0-0.29","FL","oqwgn1zhn1","1920","1080","0","1","0","5eb5cb8ddef42c4ad1456dd9","","null","","","","","","","learning/Slide30.JPG","null","","","","","",""
"html-keyboard-response","94","174490","0.0-5.0-1.29","FL","oqwgn1zhn1","1920","1080","0","1","0","5eb5cb8ddef42c4ad1456dd9","","null","","","learningBlock1","","","","That was a dep.","null","","","","","",""
"html-keyboard-response","95","175510","0.0-5.0-2.29","FL","oqwgn1zhn1","1920","1080","0","1","0","5eb5cb8ddef42c4ad1456dd9","","null","","","learningBlock1","","","","<div style=""font-size:60px;""> </div>","null","FL","learning/Slide30.JPG","That was a dep.","","",""
"image-keyboard-response","96","175691","0.0-5.0-0.30","FL","oqwgn1zhn1","1920","1080","0","1","0","5eb5cb8ddef42c4ad1456dd9","","null","","","","","","","learning/Slide31.JPG","null","","","","","",""
"html-keyboard-response","97","176851","0.0-5.0-1.30","FL","oqwgn1zhn1","1920","1080","0","1","0","5eb5cb8ddef42c4ad1456dd9","","null","","","learningBlock1","","","","That was a wug.","null","","","","","",""
"html-keyboard-response","98","177871","0.0-5.0-2.30","FL","oqwgn1zhn1","1920","1080","0","1","0","5eb5cb8ddef42c4ad1456dd9","","null","","","learningBlock1","","","","<div style=""font-size:60px;""> </div>","null","FL","learning/Slide31.JPG","That was a wug.","","",""
"image-keyboard-response","99","178051","0.0-5.0-0.31","FL","oqwgn1zhn1","1920","1080","0","1","0","5eb5cb8ddef42c4ad1456dd9","","null","","","","","","","learning/Slide32.JPG","null","","","","","",""
"html-keyboard-response","100","179211","0.0-5.0-1.31","FL","oqwgn1zhn1","1920","1080","0","1","0","5eb5cb8ddef42c4ad1456dd9","","null","","","learningBlock1","","","","That was a tob.","null","","","","","",""
"html-keyboard-response","101","180230","0.0-5.0-2.31","FL","oqwgn1zhn1","1920","1080","0","1","0","5eb5cb8ddef42c4ad1456dd9","","null","","","learningBlock1","","","","<div style=""font-size:60px;""> </div>","null","FL","learning/Slide32.JPG","That was a tob.","","",""
"image-keyboard-response","102","180411","0.0-5.0-0.32","FL","oqwgn1zhn1","1920","1080","0","1","0","5eb5cb8ddef42c4ad1456dd9","","null","","","","","","","learning/Slide33.JPG","null","","","","","",""
"html-keyboard-response","103","181590","0.0-5.0-1.32","FL","oqwgn1zhn1","1920","1080","0","1","0","5eb5cb8ddef42c4ad1456dd9","","null","","","learningBlock1","","","","That was a bim.","null","","","","","",""
"html-keyboard-response","104","182610","0.0-5.0-2.32","FL","oqwgn1zhn1","1920","1080","0","1","0","5eb5cb8ddef42c4ad1456dd9","","null","","","learningBlock1","","","","<div style=""font-size:60px;""> </div>","null","FL","learning/Slide33.JPG","That was a bim.","","",""
"image-keyboard-response","105","182790","0.0-5.0-0.33","FL","oqwgn1zhn1","1920","1080","0","1","0","5eb5cb8ddef42c4ad1456dd9","","null","","","","","","","learning/Slide34.JPG","null","","","","","",""
"html-keyboard-response","106","183970","0.0-5.0-1.33","FL","oqwgn1zhn1","1920","1080","0","1","0","5eb5cb8ddef42c4ad1456dd9","","null","","","learningBlock1","","","","That was a tob.","null","","","","","",""
"html-keyboard-response","107","184980","0.0-5.0-2.33","FL","oqwgn1zhn1","1920","1080","0","1","0","5eb5cb8ddef42c4ad1456dd9","","null","","","learningBlock1","","","","<div style=""font-size:60px;""> </div>","null","FL","learning/Slide34.JPG","That was a tob.","","",""
"image-keyboard-response","108","185167","0.0-5.0-0.34","FL","oqwgn1zhn1","1920","1080","0","1","0","5eb5cb8ddef42c4ad1456dd9","","null","","","","","","","learning/Slide35.JPG","null","","","","","",""
"html-keyboard-response","109","186321","0.0-5.0-1.34","FL","oqwgn1zhn1","1920","1080","0","1","0","5eb5cb8ddef42c4ad1456dd9","","null","","","learningBlock1","","","","That was a bim.","null","","","","","",""
"html-keyboard-response","110","187341","0.0-5.0-2.34","FL","oqwgn1zhn1","1920","1080","0","1","0","5eb5cb8ddef42c4ad1456dd9","","null","","","learningBlock1","","","","<div style=""font-size:60px;""> </div>","null","FL","learning/Slide35.JPG","That was a bim.","","",""
"image-keyboard-response","111","187520","0.0-5.0-0.35","FL","oqwgn1zhn1","1920","1080","0","1","0","5eb5cb8ddef42c4ad1456dd9","","null","","","","","","","learning/Slide36.JPG","null","","","","","",""
"html-keyboard-response","112","188700","0.0-5.0-1.35","FL","oqwgn1zhn1","1920","1080","0","1","0","5eb5cb8ddef42c4ad1456dd9","","null","","","learningBlock1","","","","That was a dep.","null","","","","","",""
"html-keyboard-response","113","189721","0.0-5.0-2.35","FL","oqwgn1zhn1","1920","1080","0","1","0","5eb5cb8ddef42c4ad1456dd9","","null","","","learningBlock1","","","","<div style=""font-size:60px;""> </div>","null","FL","learning/Slide36.JPG","That was a dep.","","",""
"image-keyboard-response","114","189900","0.0-5.0-0.36","FL","oqwgn1zhn1","1920","1080","0","1","0","5eb5cb8ddef42c4ad1456dd9","","null","","","","","","","learning/Slide37.JPG","null","","","","","",""
"html-keyboard-response","115","191081","0.0-5.0-1.36","FL","oqwgn1zhn1","1920","1080","0","1","0","5eb5cb8ddef42c4ad1456dd9","","null","","","learningBlock1","","","","That was a tob.","null","","","","","",""
"html-keyboard-response","116","192087","0.0-5.0-2.36","FL","oqwgn1zhn1","1920","1080","0","1","0","5eb5cb8ddef42c4ad1456dd9","","null","","","learningBlock1","","","","<div style=""font-size:60px;""> </div>","null","FL","learning/Slide37.JPG","That was a tob.","","",""
"image-keyboard-response","117","192281","0.0-5.0-0.37","FL","oqwgn1zhn1","1920","1080","0","1","0","5eb5cb8ddef42c4ad1456dd9","","null","","","","","","","learning/Slide38.JPG","null","","","","","",""
"html-keyboard-response","118","193440","0.0-5.0-1.37","FL","oqwgn1zhn1","1920","1080","0","1","0","5eb5cb8ddef42c4ad1456dd9","","null","","","learningBlock1","","","","That was a wug.","null","","","","","",""
"html-keyboard-response","119","194460","0.0-5.0-2.37","FL","oqwgn1zhn1","1920","1080","0","1","0","5eb5cb8ddef42c4ad1456dd9","","null","","","learningBlock1","","","","<div style=""font-size:60px;""> </div>","null","FL","learning/Slide38.JPG","That was a wug.","","",""
"image-keyboard-response","120","194640","0.0-5.0-0.38","FL","oqwgn1zhn1","1920","1080","0","1","0","5eb5cb8ddef42c4ad1456dd9","","null","","","","","","","learning/Slide39.JPG","null","","","","","",""
"html-keyboard-response","121","195810","0.0-5.0-1.38","FL","oqwgn1zhn1","1920","1080","0","1","0","5eb5cb8ddef42c4ad1456dd9","","null","","","learningBlock1","","","","That was a bim.","null","","","","","",""
"html-keyboard-response","122","196824","0.0-5.0-2.38","FL","oqwgn1zhn1","1920","1080","0","1","0","5eb5cb8ddef42c4ad1456dd9","","null","","","learningBlock1","","","","<div style=""font-size:60px;""> </div>","null","FL","learning/Slide39.JPG","That was a bim.","","",""
"image-keyboard-response","123","197007","0.0-5.0-0.39","FL","oqwgn1zhn1","1920","1080","0","1","0","5eb5cb8ddef42c4ad1456dd9","","null","","","","","","","learning/Slide40.JPG","null","","","","","",""
"html-keyboard-response","124","198170","0.0-5.0-1.39","FL","oqwgn1zhn1","1920","1080","0","1","0","5eb5cb8ddef42c4ad1456dd9","","null","","","learningBlock1","","","","That was a tob.","null","","","","","",""
"html-keyboard-response","125","199191","0.0-5.0-2.39","FL","oqwgn1zhn1","1920","1080","0","1","0","5eb5cb8ddef42c4ad1456dd9","","null","","","learningBlock1","","","","<div style=""font-size:60px;""> </div>","null","FL","learning/Slide40.JPG","That was a tob.","","",""
"image-keyboard-response","126","199370","0.0-5.0-0.40","FL","oqwgn1zhn1","1920","1080","0","1","0","5eb5cb8ddef42c4ad1456dd9","","null","","","","","","","learning/Slide41.JPG","null","","","","","",""
"html-keyboard-response","127","200540","0.0-5.0-1.40","FL","oqwgn1zhn1","1920","1080","0","1","0","5eb5cb8ddef42c4ad1456dd9","","null","","","learningBlock1","","","","That was a bim.","null","","","","","",""
"html-keyboard-response","128","201561","0.0-5.0-2.40","FL","oqwgn1zhn1","1920","1080","0","1","0","5eb5cb8ddef42c4ad1456dd9","","null","","","learningBlock1","","","","<div style=""font-size:60px;""> </div>","null","FL","learning/Slide41.JPG","That was a bim.","","",""
"image-keyboard-response","129","201740","0.0-5.0-0.41","FL","oqwgn1zhn1","1920","1080","0","1","0","5eb5cb8ddef42c4ad1456dd9","","null","","","","","","","learning/Slide42.JPG","null","","","","","",""
"html-keyboard-response","130","202920","0.0-5.0-1.41","FL","oqwgn1zhn1","1920","1080","0","1","0","5eb5cb8ddef42c4ad1456dd9","","null","","","learningBlock1","","","","That was a dep.","null","","","","","",""
"html-keyboard-response","131","203940","0.0-5.0-2.41","FL","oqwgn1zhn1","1920","1080","0","1","0","5eb5cb8ddef42c4ad1456dd9","","null","","","learningBlock1","","","","<div style=""font-size:60px;""> </div>","null","FL","learning/Slide42.JPG","That was a dep.","","",""
"image-keyboard-response","132","204120","0.0-5.0-0.42","FL","oqwgn1zhn1","1920","1080","0","1","0","5eb5cb8ddef42c4ad1456dd9","","null","","","","","","","learning/Slide43.JPG","null","","","","","",""
"html-keyboard-response","133","205301","0.0-5.0-1.42","FL","oqwgn1zhn1","1920","1080","0","1","0","5eb5cb8ddef42c4ad1456dd9","","null","","","learningBlock1","","","","That was a wug.","null","","","","","",""
"html-keyboard-response","134","206321","0.0-5.0-2.42","FL","oqwgn1zhn1","1920","1080","0","1","0","5eb5cb8ddef42c4ad1456dd9","","null","","","learningBlock1","","","","<div style=""font-size:60px;""> </div>","null","FL","learning/Slide43.JPG","That was a wug.","","",""
"image-keyboard-response","135","206500","0.0-5.0-0.43","FL","oqwgn1zhn1","1920","1080","0","1","0","5eb5cb8ddef42c4ad1456dd9","","null","","","","","","","learning/Slide44.JPG","null","","","","","",""
"html-keyboard-response","136","207680","0.0-5.0-1.43","FL","oqwgn1zhn1","1920","1080","0","1","0","5eb5cb8ddef42c4ad1456dd9","","null","","","learningBlock1","","","","That was a bim.","null","","","","","",""
"html-keyboard-response","137","208700","0.0-5.0-2.43","FL","oqwgn1zhn1","1920","1080","0","1","0","5eb5cb8ddef42c4ad1456dd9","","null","","","learningBlock1","","","","<div style=""font-size:60px;""> </div>","null","FL","learning/Slide44.JPG","That was a bim.","","",""
"image-keyboard-response","138","208881","0.0-5.0-0.44","FL","oqwgn1zhn1","1920","1080","0","1","0","5eb5cb8ddef42c4ad1456dd9","","null","","","","","","","learning/Slide45.JPG","null","","","","","",""
"html-keyboard-response","139","210060","0.0-5.0-1.44","FL","oqwgn1zhn1","1920","1080","0","1","0","5eb5cb8ddef42c4ad1456dd9","","null","","","learningBlock1","","","","That was a wug.","null","","","","","",""
"html-keyboard-response","140","211080","0.0-5.0-2.44","FL","oqwgn1zhn1","1920","1080","0","1","0","5eb5cb8ddef42c4ad1456dd9","","null","","","learningBlock1","","","","<div style=""font-size:60px;""> </div>","null","FL","learning/Slide45.JPG","That was a wug.","","",""
"image-keyboard-response","141","211261","0.0-5.0-0.45","FL","oqwgn1zhn1","1920","1080","0","1","0","5eb5cb8ddef42c4ad1456dd9","","null","","","","","","","learning/Slide46.JPG","null","","","","","",""
"html-keyboard-response","142","212441","0.0-5.0-1.45","FL","oqwgn1zhn1","1920","1080","0","1","0","5eb5cb8ddef42c4ad1456dd9","","null","","","learningBlock1","","","","That was a dep.","null","","","","","",""
"html-keyboard-response","143","213461","0.0-5.0-2.45","FL","oqwgn1zhn1","1920","1080","0","1","0","5eb5cb8ddef42c4ad1456dd9","","null","","","learningBlock1","","","","<div style=""font-size:60px;""> </div>","null","FL","learning/Slide46.JPG","That was a dep.","","",""
"image-keyboard-response","144","213640","0.0-5.0-0.46","FL","oqwgn1zhn1","1920","1080","0","1","0","5eb5cb8ddef42c4ad1456dd9","","null","","","","","","","learning/Slide47.JPG","null","","","","","",""
"html-keyboard-response","145","214820","0.0-5.0-1.46","FL","oqwgn1zhn1","1920","1080","0","1","0","5eb5cb8ddef42c4ad1456dd9","","null","","","learningBlock1","","","","That was a tob.","null","","","","","",""
"html-keyboard-response","146","215840","0.0-5.0-2.46","FL","oqwgn1zhn1","1920","1080","0","1","0","5eb5cb8ddef42c4ad1456dd9","","null","","","learningBlock1","","","","<div style=""font-size:60px;""> </div>","null","FL","learning/Slide47.JPG","That was a tob.","","",""
"image-keyboard-response","147","216020","0.0-5.0-0.47","FL","oqwgn1zhn1","1920","1080","0","1","0","5eb5cb8ddef42c4ad1456dd9","","null","","","","","","","learning/Slide48.JPG","null","","","","","",""
"html-keyboard-response","148","217200","0.0-5.0-1.47","FL","oqwgn1zhn1","1920","1080","0","1","0","5eb5cb8ddef42c4ad1456dd9","","null","","","learningBlock1","","","","That was a bim.","null","","","","","",""
"html-keyboard-response","149","218220","0.0-5.0-2.47","FL","oqwgn1zhn1","1920","1080","0","1","0","5eb5cb8ddef42c4ad1456dd9","","null","","","learningBlock1","","","","<div style=""font-size:60px;""> </div>","null","FL","learning/Slide48.JPG","That was a bim.","","",""
"image-keyboard-response","150","218400","0.0-5.0-0.48","FL","oqwgn1zhn1","1920","1080","0","1","0","5eb5cb8ddef42c4ad1456dd9","","null","","","","","","","learning/Slide49.JPG","null","","","","","",""
"html-keyboard-response","151","219561","0.0-5.0-1.48","FL","oqwgn1zhn1","1920","1080","0","1","0","5eb5cb8ddef42c4ad1456dd9","","null","","","learningBlock1","","","","That was a dep.","null","","","","","",""
"html-keyboard-response","152","220581","0.0-5.0-2.48","FL","oqwgn1zhn1","1920","1080","0","1","0","5eb5cb8ddef42c4ad1456dd9","","null","","","learningBlock1","","","","<div style=""font-size:60px;""> </div>","null","FL","learning/Slide49.JPG","That was a dep.","","",""
"image-keyboard-response","153","220760","0.0-5.0-0.49","FL","oqwgn1zhn1","1920","1080","0","1","0","5eb5cb8ddef42c4ad1456dd9","","null","","","","","","","learning/Slide50.JPG","null","","","","","",""
"html-keyboard-response","154","221940","0.0-5.0-1.49","FL","oqwgn1zhn1","1920","1080","0","1","0","5eb5cb8ddef42c4ad1456dd9","","null","","","learningBlock1","","","","That was a tob.","null","","","","","",""
"html-keyboard-response","155","222961","0.0-5.0-2.49","FL","oqwgn1zhn1","1920","1080","0","1","0","5eb5cb8ddef42c4ad1456dd9","","null","","","learningBlock1","","","","<div style=""font-size:60px;""> </div>","null","FL","learning/Slide50.JPG","That was a tob.","","",""
"image-keyboard-response","156","223141","0.0-5.0-0.50","FL","oqwgn1zhn1","1920","1080","0","1","0","5eb5cb8ddef42c4ad1456dd9","","null","","","","","","","learning/Slide51.JPG","null","","","","","",""
"html-keyboard-response","157","224321","0.0-5.0-1.50","FL","oqwgn1zhn1","1920","1080","0","1","0","5eb5cb8ddef42c4ad1456dd9","","null","","","learningBlock1","","","","That was a bim.","null","","","","","",""
"html-keyboard-response","158","225340","0.0-5.0-2.50","FL","oqwgn1zhn1","1920","1080","0","1","0","5eb5cb8ddef42c4ad1456dd9","","null","","","learningBlock1","","","","<div style=""font-size:60px;""> </div>","null","FL","learning/Slide51.JPG","That was a bim.","","",""
"image-keyboard-response","159","225520","0.0-5.0-0.51","FL","oqwgn1zhn1","1920","1080","0","1","0","5eb5cb8ddef42c4ad1456dd9","","null","","","","","","","learning/Slide52.JPG","null","","","","","",""
"html-keyboard-response","160","226701","0.0-5.0-1.51","FL","oqwgn1zhn1","1920","1080","0","1","0","5eb5cb8ddef42c4ad1456dd9","","null","","","learningBlock1","","","","That was a wug.","null","","","","","",""
"html-keyboard-response","161","227721","0.0-5.0-2.51","FL","oqwgn1zhn1","1920","1080","0","1","0","5eb5cb8ddef42c4ad1456dd9","","null","","","learningBlock1","","","","<div style=""font-size:60px;""> </div>","null","FL","learning/Slide52.JPG","That was a wug.","","",""
"image-keyboard-response","162","227900","0.0-5.0-0.52","FL","oqwgn1zhn1","1920","1080","0","1","0","5eb5cb8ddef42c4ad1456dd9","","null","","","","","","","learning/Slide53.JPG","null","","","","","",""
"html-keyboard-response","163","229081","0.0-5.0-1.52","FL","oqwgn1zhn1","1920","1080","0","1","0","5eb5cb8ddef42c4ad1456dd9","","null","","","learningBlock1","","","","That was a tob.","null","","","","","",""
"html-keyboard-response","164","230100","0.0-5.0-2.52","FL","oqwgn1zhn1","1920","1080","0","1","0","5eb5cb8ddef42c4ad1456dd9","","null","","","learningBlock1","","","","<div style=""font-size:60px;""> </div>","null","FL","learning/Slide53.JPG","That was a tob.","","",""
"image-keyboard-response","165","230280","0.0-5.0-0.53","FL","oqwgn1zhn1","1920","1080","0","1","0","5eb5cb8ddef42c4ad1456dd9","","null","","","","","","","learning/Slide54.JPG","null","","","","","",""
"html-keyboard-response","166","231461","0.0-5.0-1.53","FL","oqwgn1zhn1","1920","1080","0","1","0","5eb5cb8ddef42c4ad1456dd9","","null","","","learningBlock1","","","","That was a dep.","null","","","","","",""
"html-keyboard-response","167","232481","0.0-5.0-2.53","FL","oqwgn1zhn1","1920","1080","0","1","0","5eb5cb8ddef42c4ad1456dd9","","null","","","learningBlock1","","","","<div style=""font-size:60px;""> </div>","null","FL","learning/Slide54.JPG","That was a dep.","","",""
"image-keyboard-response","168","232660","0.0-5.0-0.54","FL","oqwgn1zhn1","1920","1080","0","1","0","5eb5cb8ddef42c4ad1456dd9","","null","","","","","","","learning/Slide55.JPG","null","","","","","",""
"html-keyboard-response","169","233830","0.0-5.0-1.54","FL","oqwgn1zhn1","1920","1080","0","1","0","5eb5cb8ddef42c4ad1456dd9","","null","","","learningBlock1","","","","That was a bim.","null","","","","","",""
"html-keyboard-response","170","234850","0.0-5.0-2.54","FL","oqwgn1zhn1","1920","1080","0","1","0","5eb5cb8ddef42c4ad1456dd9","","null","","","learningBlock1","","","","<div style=""font-size:60px;""> </div>","null","FL","learning/Slide55.JPG","That was a bim.","","",""
"image-keyboard-response","171","235031","0.0-5.0-0.55","FL","oqwgn1zhn1","1920","1080","0","1","0","5eb5cb8ddef42c4ad1456dd9","","null","","","","","","","learning/Slide56.JPG","null","","","","","",""
"html-keyboard-response","172","236200","0.0-5.0-1.55","FL","oqwgn1zhn1","1920","1080","0","1","0","5eb5cb8ddef42c4ad1456dd9","","null","","","learningBlock1","","","","That was a tob.","null","","","","","",""
"html-keyboard-response","173","237221","0.0-5.0-2.55","FL","oqwgn1zhn1","1920","1080","0","1","0","5eb5cb8ddef42c4ad1456dd9","","null","","","learningBlock1","","","","<div style=""font-size:60px;""> </div>","null","FL","learning/Slide56.JPG","That was a tob.","","",""
"image-keyboard-response","174","237401","0.0-5.0-0.56","FL","oqwgn1zhn1","1920","1080","0","1","0","5eb5cb8ddef42c4ad1456dd9","","null","","","","","","","learning/Slide57.JPG","null","","","","","",""
"html-keyboard-response","175","238579","0.0-5.0-1.56","FL","oqwgn1zhn1","1920","1080","0","1","0","5eb5cb8ddef42c4ad1456dd9","","null","","","learningBlock1","","","","That was a dep.","null","","","","","",""
"html-keyboard-response","176","239600","0.0-5.0-2.56","FL","oqwgn1zhn1","1920","1080","0","1","0","5eb5cb8ddef42c4ad1456dd9","","null","","","learningBlock1","","","","<div style=""font-size:60px;""> </div>","null","FL","learning/Slide57.JPG","That was a dep.","","",""
"image-keyboard-response","177","239791","0.0-5.0-0.57","FL","oqwgn1zhn1","1920","1080","0","1","0","5eb5cb8ddef42c4ad1456dd9","","null","","","","","","","learning/Slide58.JPG","null","","","","","",""
"html-keyboard-response","178","240970","0.0-5.0-1.57","FL","oqwgn1zhn1","1920","1080","0","1","0","5eb5cb8ddef42c4ad1456dd9","","null","","","learningBlock1","","","","That was a wug.","null","","","","","",""
"html-keyboard-response","179","241991","0.0-5.0-2.57","FL","oqwgn1zhn1","1920","1080","0","1","0","5eb5cb8ddef42c4ad1456dd9","","null","","","learningBlock1","","","","<div style=""font-size:60px;""> </div>","null","FL","learning/Slide58.JPG","That was a wug.","","",""
"image-keyboard-response","180","242171","0.0-5.0-0.58","FL","oqwgn1zhn1","1920","1080","0","1","0","5eb5cb8ddef42c4ad1456dd9","","null","","","","","","","learning/Slide59.JPG","null","","","","","",""
"html-keyboard-response","181","243330","0.0-5.0-1.58","FL","oqwgn1zhn1","1920","1080","0","1","0","5eb5cb8ddef42c4ad1456dd9","","null","","","learningBlock1","","","","That was a dep.","null","","","","","",""
"html-keyboard-response","182","244351","0.0-5.0-2.58","FL","oqwgn1zhn1","1920","1080","0","1","0","5eb5cb8ddef42c4ad1456dd9","","null","","","learningBlock1","","","","<div style=""font-size:60px;""> </div>","null","FL","learning/Slide59.JPG","That was a dep.","","",""
"image-keyboard-response","183","244540","0.0-5.0-0.59","FL","oqwgn1zhn1","1920","1080","0","1","0","5eb5cb8ddef42c4ad1456dd9","","null","","","","","","","learning/Slide60.JPG","null","","","","","",""
"html-keyboard-response","184","245721","0.0-5.0-1.59","FL","oqwgn1zhn1","1920","1080","0","1","0","5eb5cb8ddef42c4ad1456dd9","","null","","","learningBlock1","","","","That was a wug.","null","","","","","",""
"html-keyboard-response","185","246741","0.0-5.0-2.59","FL","oqwgn1zhn1","1920","1080","0","1","0","5eb5cb8ddef42c4ad1456dd9","","null","","","learningBlock1","","","","<div style=""font-size:60px;""> </div>","null","FL","learning/Slide60.JPG","That was a wug.","","",""
"image-keyboard-response","186","246920","0.0-5.0-0.60","FL","oqwgn1zhn1","1920","1080","0","1","0","5eb5cb8ddef42c4ad1456dd9","","null","","","","","","","learning/Slide61.JPG","null","","","","","",""
"html-keyboard-response","187","248100","0.0-5.0-1.60","FL","oqwgn1zhn1","1920","1080","0","1","0","5eb5cb8ddef42c4ad1456dd9","","null","","","learningBlock1","","","","That was a bim.","null","","","","","",""
"html-keyboard-response","188","249120","0.0-5.0-2.60","FL","oqwgn1zhn1","1920","1080","0","1","0","5eb5cb8ddef42c4ad1456dd9","","null","","","learningBlock1","","","","<div style=""font-size:60px;""> </div>","null","FL","learning/Slide61.JPG","That was a bim.","","",""
"image-keyboard-response","189","249301","0.0-5.0-0.61","FL","oqwgn1zhn1","1920","1080","0","1","0","5eb5cb8ddef42c4ad1456dd9","","null","","","","","","","learning/Slide62.JPG","null","","","","","",""
"html-keyboard-response","190","250480","0.0-5.0-1.61","FL","oqwgn1zhn1","1920","1080","0","1","0","5eb5cb8ddef42c4ad1456dd9","","null","","","learningBlock1","","","","That was a dep.","null","","","","","",""
"html-keyboard-response","191","251500","0.0-5.0-2.61","FL","oqwgn1zhn1","1920","1080","0","1","0","5eb5cb8ddef42c4ad1456dd9","","null","","","learningBlock1","","","","<div style=""font-size:60px;""> </div>","null","FL","learning/Slide62.JPG","That was a dep.","","",""
"image-keyboard-response","192","251680","0.0-5.0-0.62","FL","oqwgn1zhn1","1920","1080","0","1","0","5eb5cb8ddef42c4ad1456dd9","","null","","","","","","","learning/Slide63.JPG","null","","","","","",""
"html-keyboard-response","193","252860","0.0-5.0-1.62","FL","oqwgn1zhn1","1920","1080","0","1","0","5eb5cb8ddef42c4ad1456dd9","","null","","","learningBlock1","","","","That was a bim.","null","","","","","",""
"html-keyboard-response","194","253871","0.0-5.0-2.62","FL","oqwgn1zhn1","1920","1080","0","1","0","5eb5cb8ddef42c4ad1456dd9","","null","","","learningBlock1","","","","<div style=""font-size:60px;""> </div>","null","FL","learning/Slide63.JPG","That was a bim.","","",""
"image-keyboard-response","195","254050","0.0-5.0-0.63","FL","oqwgn1zhn1","1920","1080","0","1","0","5eb5cb8ddef42c4ad1456dd9","","null","","","","","","","learning/Slide64.JPG","null","","","","","",""
"html-keyboard-response","196","255211","0.0-5.0-1.63","FL","oqwgn1zhn1","1920","1080","0","1","0","5eb5cb8ddef42c4ad1456dd9","","null","","","learningBlock1","","","","That was a tob.","null","","","","","",""
"html-keyboard-response","197","256230","0.0-5.0-2.63","FL","oqwgn1zhn1","1920","1080","0","1","0","5eb5cb8ddef42c4ad1456dd9","","null","","","learningBlock1","","","","<div style=""font-size:60px;""> </div>","null","FL","learning/Slide64.JPG","That was a tob.","","",""
"image-keyboard-response","198","256411","0.0-5.0-0.64","FL","oqwgn1zhn1","1920","1080","0","1","0","5eb5cb8ddef42c4ad1456dd9","","null","","","","","","","learning/Slide65.JPG","null","","","","","",""
"html-keyboard-response","199","257590","0.0-5.0-1.64","FL","oqwgn1zhn1","1920","1080","0","1","0","5eb5cb8ddef42c4ad1456dd9","","null","","","learningBlock1","","","","That was a wug.","null","","","","","",""
"html-keyboard-response","200","258611","0.0-5.0-2.64","FL","oqwgn1zhn1","1920","1080","0","1","0","5eb5cb8ddef42c4ad1456dd9","","null","","","learningBlock1","","","","<div style=""font-size:60px;""> </div>","null","FL","learning/Slide65.JPG","That was a wug.","","",""
"image-keyboard-response","201","258791","0.0-5.0-0.65","FL","oqwgn1zhn1","1920","1080","0","1","0","5eb5cb8ddef42c4ad1456dd9","","null","","","","","","","learning/Slide66.JPG","null","","","","","",""
"html-keyboard-response","202","259970","0.0-5.0-1.65","FL","oqwgn1zhn1","1920","1080","0","1","0","5eb5cb8ddef42c4ad1456dd9","","null","","","learningBlock1","","","","That was a dep.","null","","","","","",""
"html-keyboard-response","203","260990","0.0-5.0-2.65","FL","oqwgn1zhn1","1920","1080","0","1","0","5eb5cb8ddef42c4ad1456dd9","","null","","","learningBlock1","","","","<div style=""font-size:60px;""> </div>","null","FL","learning/Slide66.JPG","That was a dep.","","",""
"image-keyboard-response","204","261171","0.0-5.0-0.66","FL","oqwgn1zhn1","1920","1080","0","1","0","5eb5cb8ddef42c4ad1456dd9","","null","","","","","","","learning/Slide67.JPG","null","","","","","",""
"html-keyboard-response","205","262351","0.0-5.0-1.66","FL","oqwgn1zhn1","1920","1080","0","1","0","5eb5cb8ddef42c4ad1456dd9","","null","","","learningBlock1","","","","That was a tob.","null","","","","","",""
"html-keyboard-response","206","263370","0.0-5.0-2.66","FL","oqwgn1zhn1","1920","1080","0","1","0","5eb5cb8ddef42c4ad1456dd9","","null","","","learningBlock1","","","","<div style=""font-size:60px;""> </div>","null","FL","learning/Slide67.JPG","That was a tob.","","",""
"image-keyboard-response","207","263550","0.0-5.0-0.67","FL","oqwgn1zhn1","1920","1080","0","1","0","5eb5cb8ddef42c4ad1456dd9","","null","","","","","","","learning/Slide68.JPG","null","","","","","",""
"html-keyboard-response","208","264731","0.0-5.0-1.67","FL","oqwgn1zhn1","1920","1080","0","1","0","5eb5cb8ddef42c4ad1456dd9","","null","","","learningBlock1","","","","That was a wug.","null","","","","","",""
"html-keyboard-response","209","265750","0.0-5.0-2.67","FL","oqwgn1zhn1","1920","1080","0","1","0","5eb5cb8ddef42c4ad1456dd9","","null","","","learningBlock1","","","","<div style=""font-size:60px;""> </div>","null","FL","learning/Slide68.JPG","That was a wug.","","",""
"image-keyboard-response","210","265930","0.0-5.0-0.68","FL","oqwgn1zhn1","1920","1080","0","1","0","5eb5cb8ddef42c4ad1456dd9","","null","","","","","","","learning/Slide69.JPG","null","","","","","",""
"html-keyboard-response","211","267111","0.0-5.0-1.68","FL","oqwgn1zhn1","1920","1080","0","1","0","5eb5cb8ddef42c4ad1456dd9","","null","","","learningBlock1","","","","That was a tob.","null","","","","","",""
"html-keyboard-response","212","268130","0.0-5.0-2.68","FL","oqwgn1zhn1","1920","1080","0","1","0","5eb5cb8ddef42c4ad1456dd9","","null","","","learningBlock1","","","","<div style=""font-size:60px;""> </div>","null","FL","learning/Slide69.JPG","That was a tob.","","",""
"image-keyboard-response","213","268311","0.0-5.0-0.69","FL","oqwgn1zhn1","1920","1080","0","1","0","5eb5cb8ddef42c4ad1456dd9","","null","","","","","","","learning/Slide70.JPG","null","","","","","",""
"html-keyboard-response","214","269490","0.0-5.0-1.69","FL","oqwgn1zhn1","1920","1080","0","1","0","5eb5cb8ddef42c4ad1456dd9","","null","","","learningBlock1","","","","That was a dep.","null","","","","","",""
"html-keyboard-response","215","270507","0.0-5.0-2.69","FL","oqwgn1zhn1","1920","1080","0","1","0","5eb5cb8ddef42c4ad1456dd9","","null","","","learningBlock1","","","","<div style=""font-size:60px;""> </div>","null","FL","learning/Slide70.JPG","That was a dep.","","",""
"image-keyboard-response","216","270690","0.0-5.0-0.70","FL","oqwgn1zhn1","1920","1080","0","1","0","5eb5cb8ddef42c4ad1456dd9","","null","","","","","","","learning/Slide71.JPG","null","","","","","",""
"html-keyboard-response","217","271871","0.0-5.0-1.70","FL","oqwgn1zhn1","1920","1080","0","1","0","5eb5cb8ddef42c4ad1456dd9","","null","","","learningBlock1","","","","That was a wug.","null","","","","","",""
"html-keyboard-response","218","272891","0.0-5.0-2.70","FL","oqwgn1zhn1","1920","1080","0","1","0","5eb5cb8ddef42c4ad1456dd9","","null","","","learningBlock1","","","","<div style=""font-size:60px;""> </div>","null","FL","learning/Slide71.JPG","That was a wug.","","",""
"image-keyboard-response","219","273090","0.0-5.0-0.71","FL","oqwgn1zhn1","1920","1080","0","1","0","5eb5cb8ddef42c4ad1456dd9","","null","","","","","","","learning/Slide72.JPG","null","","","","","",""
"html-keyboard-response","220","274270","0.0-5.0-1.71","FL","oqwgn1zhn1","1920","1080","0","1","0","5eb5cb8ddef42c4ad1456dd9","","null","","","learningBlock1","","","","That was a bim.","null","","","","","",""
"html-keyboard-response","221","275290","0.0-5.0-2.71","FL","oqwgn1zhn1","1920","1080","0","1","0","5eb5cb8ddef42c4ad1456dd9","","null","","","learningBlock1","","","","<div style=""font-size:60px;""> </div>","null","FL","learning/Slide72.JPG","That was a bim.","","",""
"image-keyboard-response","222","275470","0.0-5.0-0.72","FL","oqwgn1zhn1","1920","1080","0","1","0","5eb5cb8ddef42c4ad1456dd9","","null","","","","","","","learning/Slide73.JPG","null","","","","","",""
"html-keyboard-response","223","276651","0.0-5.0-1.72","FL","oqwgn1zhn1","1920","1080","0","1","0","5eb5cb8ddef42c4ad1456dd9","","null","","","learningBlock1","","","","That was a wug.","null","","","","","",""
"html-keyboard-response","224","277670","0.0-5.0-2.72","FL","oqwgn1zhn1","1920","1080","0","1","0","5eb5cb8ddef42c4ad1456dd9","","null","","","learningBlock1","","","","<div style=""font-size:60px;""> </div>","null","FL","learning/Slide73.JPG","That was a wug.","","",""
"image-keyboard-response","225","277851","0.0-5.0-0.73","FL","oqwgn1zhn1","1920","1080","0","1","0","5eb5cb8ddef42c4ad1456dd9","","null","","","","","","","learning/Slide74.JPG","null","","","","","",""
"html-keyboard-response","226","279031","0.0-5.0-1.73","FL","oqwgn1zhn1","1920","1080","0","1","0","5eb5cb8ddef42c4ad1456dd9","","null","","","learningBlock1","","","","That was a dep.","null","","","","","",""
"html-keyboard-response","227","280041","0.0-5.0-2.73","FL","oqwgn1zhn1","1920","1080","0","1","0","5eb5cb8ddef42c4ad1456dd9","","null","","","learningBlock1","","","","<div style=""font-size:60px;""> </div>","null","FL","learning/Slide74.JPG","That was a dep.","","",""
"image-keyboard-response","228","280221","0.0-5.0-0.74","FL","oqwgn1zhn1","1920","1080","0","1","0","5eb5cb8ddef42c4ad1456dd9","","null","","","","","","","learning/Slide75.JPG","null","","","","","",""
"html-keyboard-response","229","281390","0.0-5.0-1.74","FL","oqwgn1zhn1","1920","1080","0","1","0","5eb5cb8ddef42c4ad1456dd9","","null","","","learningBlock1","","","","That was a tob.","null","","","","","",""
"html-keyboard-response","230","282410","0.0-5.0-2.74","FL","oqwgn1zhn1","1920","1080","0","1","0","5eb5cb8ddef42c4ad1456dd9","","null","","","learningBlock1","","","","<div style=""font-size:60px;""> </div>","null","FL","learning/Slide75.JPG","That was a tob.","","",""
"image-keyboard-response","231","282590","0.0-5.0-0.75","FL","oqwgn1zhn1","1920","1080","0","1","0","5eb5cb8ddef42c4ad1456dd9","","null","","","","","","","learning/Slide76.JPG","null","","","","","",""
"html-keyboard-response","232","283777","0.0-5.0-1.75","FL","oqwgn1zhn1","1920","1080","0","1","0","5eb5cb8ddef42c4ad1456dd9","","null","","","learningBlock1","","","","That was a bim.","null","","","","","",""
"html-keyboard-response","233","284790","0.0-5.0-2.75","FL","oqwgn1zhn1","1920","1080","0","1","0","5eb5cb8ddef42c4ad1456dd9","","null","","","learningBlock1","","","","<div style=""font-size:60px;""> </div>","null","FL","learning/Slide76.JPG","That was a bim.","","",""
"image-keyboard-response","234","284971","0.0-5.0-0.76","FL","oqwgn1zhn1","1920","1080","0","1","0","5eb5cb8ddef42c4ad1456dd9","","null","","","","","","","learning/Slide77.JPG","null","","","","","",""
"html-keyboard-response","235","286151","0.0-5.0-1.76","FL","oqwgn1zhn1","1920","1080","0","1","0","5eb5cb8ddef42c4ad1456dd9","","null","","","learningBlock1","","","","That was a tob.","null","","","","","",""
"html-keyboard-response","236","287171","0.0-5.0-2.76","FL","oqwgn1zhn1","1920","1080","0","1","0","5eb5cb8ddef42c4ad1456dd9","","null","","","learningBlock1","","","","<div style=""font-size:60px;""> </div>","null","FL","learning/Slide77.JPG","That was a tob.","","",""
"image-keyboard-response","237","287351","0.0-5.0-0.77","FL","oqwgn1zhn1","1920","1080","0","1","0","5eb5cb8ddef42c4ad1456dd9","","null","","","","","","","learning/Slide78.JPG","null","","","","","",""
"html-keyboard-response","238","288530","0.0-5.0-1.77","FL","oqwgn1zhn1","1920","1080","0","1","0","5eb5cb8ddef42c4ad1456dd9","","null","","","learningBlock1","","","","That was a wug.","null","","","","","",""
"html-keyboard-response","239","289551","0.0-5.0-2.77","FL","oqwgn1zhn1","1920","1080","0","1","0","5eb5cb8ddef42c4ad1456dd9","","null","","","learningBlock1","","","","<div style=""font-size:60px;""> </div>","null","FL","learning/Slide78.JPG","That was a wug.","","",""
"image-keyboard-response","240","289730","0.0-5.0-0.78","FL","oqwgn1zhn1","1920","1080","0","1","0","5eb5cb8ddef42c4ad1456dd9","","null","","","","","","","learning/Slide79.JPG","null","","","","","",""
"html-keyboard-response","241","290911","0.0-5.0-1.78","FL","oqwgn1zhn1","1920","1080","0","1","0","5eb5cb8ddef42c4ad1456dd9","","null","","","learningBlock1","","","","That was a bim.","null","","","","","",""
"html-keyboard-response","242","291930","0.0-5.0-2.78","FL","oqwgn1zhn1","1920","1080","0","1","0","5eb5cb8ddef42c4ad1456dd9","","null","","","learningBlock1","","","","<div style=""font-size:60px;""> </div>","null","FL","learning/Slide79.JPG","That was a bim.","","",""
"image-keyboard-response","243","292110","0.0-5.0-0.79","FL","oqwgn1zhn1","1920","1080","0","1","0","5eb5cb8ddef42c4ad1456dd9","","null","","","","","","","learning/Slide80.JPG","null","","","","","",""
"html-keyboard-response","244","293280","0.0-5.0-1.79","FL","oqwgn1zhn1","1920","1080","0","1","0","5eb5cb8ddef42c4ad1456dd9","","null","","","learningBlock1","","","","That was a tob.","null","","","","","",""
"html-keyboard-response","245","294300","0.0-5.0-2.79","FL","oqwgn1zhn1","1920","1080","0","1","0","5eb5cb8ddef42c4ad1456dd9","","null","","","learningBlock1","","","","<div style=""font-size:60px;""> </div>","null","FL","learning/Slide80.JPG","That was a tob.","","",""
"instructions","246","299190","0.0-6.0","FL","oqwgn1zhn1","1920","1080","0","1","0","5eb5cb8ddef42c4ad1456dd9","","NA","","[{""page_index"":0,""viewing_time"":4887}]","instructions","","","","","","","","","","",""
"image-keyboard-response","247","299380","0.0-7.0-0.0","FL","oqwgn1zhn1","1920","1080","0","1","0","5eb5cb8ddef42c4ad1456dd9","","null","","","","","","","learning/Slide81.JPG","null","","","","","",""
"html-keyboard-response","248","300541","0.0-7.0-1.0","FL","oqwgn1zhn1","1920","1080","0","1","0","5eb5cb8ddef42c4ad1456dd9","","null","","","learningBlock2","","","","That was a wug.","null","","","","","",""
"html-keyboard-response","249","301560","0.0-7.0-2.0","FL","oqwgn1zhn1","1920","1080","0","1","0","5eb5cb8ddef42c4ad1456dd9","","null","","","learningBlock2","","","","<div style=""font-size:60px;""> </div>","null","FL","learning/Slide81.JPG","That was a wug.","","",""
"image-keyboard-response","250","301741","0.0-7.0-0.1","FL","oqwgn1zhn1","1920","1080","0","1","0","5eb5cb8ddef42c4ad1456dd9","","null","","","","","","","learning/Slide82.JPG","null","","","","","",""
"html-keyboard-response","251","302921","0.0-7.0-1.1","FL","oqwgn1zhn1","1920","1080","0","1","0","5eb5cb8ddef42c4ad1456dd9","","null","","","learningBlock2","","","","That was a bim.","null","","","","","",""
"html-keyboard-response","252","303940","0.0-7.0-2.1","FL","oqwgn1zhn1","1920","1080","0","1","0","5eb5cb8ddef42c4ad1456dd9","","null","","","learningBlock2","","","","<div style=""font-size:60px;""> </div>","null","FL","learning/Slide82.JPG","That was a bim.","","",""
"image-keyboard-response","253","304121","0.0-7.0-0.2","FL","oqwgn1zhn1","1920","1080","0","1","0","5eb5cb8ddef42c4ad1456dd9","","null","","","","","","","learning/Slide83.JPG","null","","","","","",""
"html-keyboard-response","254","305300","0.0-7.0-1.2","FL","oqwgn1zhn1","1920","1080","0","1","0","5eb5cb8ddef42c4ad1456dd9","","null","","","learningBlock2","","","","That was a wug.","null","","","","","",""
"html-keyboard-response","255","306321","0.0-7.0-2.2","FL","oqwgn1zhn1","1920","1080","0","1","0","5eb5cb8ddef42c4ad1456dd9","","null","","","learningBlock2","","","","<div style=""font-size:60px;""> </div>","null","FL","learning/Slide83.JPG","That was a wug.","","",""
"image-keyboard-response","256","306501","0.0-7.0-0.3","FL","oqwgn1zhn1","1920","1080","0","1","0","5eb5cb8ddef42c4ad1456dd9","","null","","","","","","","learning/Slide84.JPG","null","","","","","",""
"html-keyboard-response","257","307680","0.0-7.0-1.3","FL","oqwgn1zhn1","1920","1080","0","1","0","5eb5cb8ddef42c4ad1456dd9","","null","","","learningBlock2","","","","That was a dep.","null","","","","","",""
"html-keyboard-response","258","308690","0.0-7.0-2.3","FL","oqwgn1zhn1","1920","1080","0","1","0","5eb5cb8ddef42c4ad1456dd9","","null","","","learningBlock2","","","","<div style=""font-size:60px;""> </div>","null","FL","learning/Slide84.JPG","That was a dep.","","",""
"image-keyboard-response","259","308870","0.0-7.0-0.4","FL","oqwgn1zhn1","1920","1080","0","1","0","5eb5cb8ddef42c4ad1456dd9","","null","","","","","","","learning/Slide85.JPG","null","","","","","",""
"html-keyboard-response","260","310051","0.0-7.0-1.4","FL","oqwgn1zhn1","1920","1080","0","1","0","5eb5cb8ddef42c4ad1456dd9","","null","","","learningBlock2","","","","That was a bim.","null","","","","","",""
"html-keyboard-response","261","311055","0.0-7.0-2.4","FL","oqwgn1zhn1","1920","1080","0","1","0","5eb5cb8ddef42c4ad1456dd9","","null","","","learningBlock2","","","","<div style=""font-size:60px;""> </div>","null","FL","learning/Slide85.JPG","That was a bim.","","",""
"image-keyboard-response","262","311251","0.0-7.0-0.5","FL","oqwgn1zhn1","1920","1080","0","1","0","5eb5cb8ddef42c4ad1456dd9","","null","","","","","","","learning/Slide86.JPG","null","","","","","",""
"html-keyboard-response","263","312430","0.0-7.0-1.5","FL","oqwgn1zhn1","1920","1080","0","1","0","5eb5cb8ddef42c4ad1456dd9","","null","","","learningBlock2","","","","That was a tob.","null","","","","","",""
"html-keyboard-response","264","313450","0.0-7.0-2.5","FL","oqwgn1zhn1","1920","1080","0","1","0","5eb5cb8ddef42c4ad1456dd9","","null","","","learningBlock2","","","","<div style=""font-size:60px;""> </div>","null","FL","learning/Slide86.JPG","That was a tob.","","",""
"image-keyboard-response","265","313634","0.0-7.0-0.6","FL","oqwgn1zhn1","1920","1080","0","1","0","5eb5cb8ddef42c4ad1456dd9","","null","","","","","","","learning/Slide87.JPG","null","","","","","",""
"html-keyboard-response","266","314800","0.0-7.0-1.6","FL","oqwgn1zhn1","1920","1080","0","1","0","5eb5cb8ddef42c4ad1456dd9","","null","","","learningBlock2","","","","That was a wug.","null","","","","","",""
"html-keyboard-response","267","315820","0.0-7.0-2.6","FL","oqwgn1zhn1","1920","1080","0","1","0","5eb5cb8ddef42c4ad1456dd9","","null","","","learningBlock2","","","","<div style=""font-size:60px;""> </div>","null","FL","learning/Slide87.JPG","That was a wug.","","",""
"image-keyboard-response","268","316001","0.0-7.0-0.7","FL","oqwgn1zhn1","1920","1080","0","1","0","5eb5cb8ddef42c4ad1456dd9","","null","","","","","","","learning/Slide88.JPG","null","","","","","",""
"html-keyboard-response","269","317180","0.0-7.0-1.7","FL","oqwgn1zhn1","1920","1080","0","1","0","5eb5cb8ddef42c4ad1456dd9","","null","","","learningBlock2","","","","That was a tob.","null","","","","","",""
"html-keyboard-response","270","318200","0.0-7.0-2.7","FL","oqwgn1zhn1","1920","1080","0","1","0","5eb5cb8ddef42c4ad1456dd9","","null","","","learningBlock2","","","","<div style=""font-size:60px;""> </div>","null","FL","learning/Slide88.JPG","That was a tob.","","",""
"image-keyboard-response","271","318380","0.0-7.0-0.8","FL","oqwgn1zhn1","1920","1080","0","1","0","5eb5cb8ddef42c4ad1456dd9","","null","","","","","","","learning/Slide89.JPG","null","","","","","",""
"html-keyboard-response","272","319560","0.0-7.0-1.8","FL","oqwgn1zhn1","1920","1080","0","1","0","5eb5cb8ddef42c4ad1456dd9","","null","","","learningBlock2","","","","That was a bim.","null","","","","","",""
"html-keyboard-response","273","320581","0.0-7.0-2.8","FL","oqwgn1zhn1","1920","1080","0","1","0","5eb5cb8ddef42c4ad1456dd9","","null","","","learningBlock2","","","","<div style=""font-size:60px;""> </div>","null","FL","learning/Slide89.JPG","That was a bim.","","",""
"image-keyboard-response","274","320761","0.0-7.0-0.9","FL","oqwgn1zhn1","1920","1080","0","1","0","5eb5cb8ddef42c4ad1456dd9","","null","","","","","","","learning/Slide90.JPG","null","","","","","",""
"html-keyboard-response","275","321941","0.0-7.0-1.9","FL","oqwgn1zhn1","1920","1080","0","1","0","5eb5cb8ddef42c4ad1456dd9","","null","","","learningBlock2","","","","That was a dep.","null","","","","","",""
"html-keyboard-response","276","322960","0.0-7.0-2.9","FL","oqwgn1zhn1","1920","1080","0","1","0","5eb5cb8ddef42c4ad1456dd9","","null","","","learningBlock2","","","","<div style=""font-size:60px;""> </div>","null","FL","learning/Slide90.JPG","That was a dep.","","",""
"image-keyboard-response","277","323141","0.0-7.0-0.10","FL","oqwgn1zhn1","1920","1080","0","1","0","5eb5cb8ddef42c4ad1456dd9","","null","","","","","","","learning/Slide91.JPG","null","","","","","",""
"html-keyboard-response","278","324311","0.0-7.0-1.10","FL","oqwgn1zhn1","1920","1080","0","1","0","5eb5cb8ddef42c4ad1456dd9","","null","","","learningBlock2","","","","That was a wug.","null","","","","","",""
"html-keyboard-response","279","325331","0.0-7.0-2.10","FL","oqwgn1zhn1","1920","1080","0","1","0","5eb5cb8ddef42c4ad1456dd9","","null","","","learningBlock2","","","","<div style=""font-size:60px;""> </div>","null","FL","learning/Slide91.JPG","That was a wug.","","",""
"image-keyboard-response","280","325510","0.0-7.0-0.11","FL","oqwgn1zhn1","1920","1080","0","1","0","5eb5cb8ddef42c4ad1456dd9","","null","","","","","","","learning/Slide92.JPG","null","","","","","",""
"html-keyboard-response","281","326690","0.0-7.0-1.11","FL","oqwgn1zhn1","1920","1080","0","1","0","5eb5cb8ddef42c4ad1456dd9","","null","","","learningBlock2","","","","That was a tob.","null","","","","","",""
"html-keyboard-response","282","327711","0.0-7.0-2.11","FL","oqwgn1zhn1","1920","1080","0","1","0","5eb5cb8ddef42c4ad1456dd9","","null","","","learningBlock2","","","","<div style=""font-size:60px;""> </div>","null","FL","learning/Slide92.JPG","That was a tob.","","",""
"image-keyboard-response","283","327891","0.0-7.0-0.12","FL","oqwgn1zhn1","1920","1080","0","1","0","5eb5cb8ddef42c4ad1456dd9","","null","","","","","","","learning/Slide93.JPG","null","","","","","",""
"html-keyboard-response","284","329071","0.0-7.0-1.12","FL","oqwgn1zhn1","1920","1080","0","1","0","5eb5cb8ddef42c4ad1456dd9","","null","","","learningBlock2","","","","That was a bim.","null","","","","","",""
"html-keyboard-response","285","330091","0.0-7.0-2.12","FL","oqwgn1zhn1","1920","1080","0","1","0","5eb5cb8ddef42c4ad1456dd9","","null","","","learningBlock2","","","","<div style=""font-size:60px;""> </div>","null","FL","learning/Slide93.JPG","That was a bim.","","",""
"image-keyboard-response","286","330270","0.0-7.0-0.13","FL","oqwgn1zhn1","1920","1080","0","1","0","5eb5cb8ddef42c4ad1456dd9","","null","","","","","","","learning/Slide94.JPG","null","","","","","",""
"html-keyboard-response","287","331450","0.0-7.0-1.13","FL","oqwgn1zhn1","1920","1080","0","1","0","5eb5cb8ddef42c4ad1456dd9","","null","","","learningBlock2","","","","That was a tob.","null","","","","","",""
"html-keyboard-response","288","332458","0.0-7.0-2.13","FL","oqwgn1zhn1","1920","1080","0","1","0","5eb5cb8ddef42c4ad1456dd9","","null","","","learningBlock2","","","","<div style=""font-size:60px;""> </div>","null","FL","learning/Slide94.JPG","That was a tob.","","",""
"image-keyboard-response","289","332641","0.0-7.0-0.14","FL","oqwgn1zhn1","1920","1080","0","1","0","5eb5cb8ddef42c4ad1456dd9","","null","","","","","","","learning/Slide95.JPG","null","","","","","",""
"html-keyboard-response","290","333820","0.0-7.0-1.14","FL","oqwgn1zhn1","1920","1080","0","1","0","5eb5cb8ddef42c4ad1456dd9","","null","","","learningBlock2","","","","That was a wug.","null","","","","","",""
"html-keyboard-response","291","334831","0.0-7.0-2.14","FL","oqwgn1zhn1","1920","1080","0","1","0","5eb5cb8ddef42c4ad1456dd9","","null","","","learningBlock2","","","","<div style=""font-size:60px;""> </div>","null","FL","learning/Slide95.JPG","That was a wug.","","",""
"image-keyboard-response","292","335010","0.0-7.0-0.15","FL","oqwgn1zhn1","1920","1080","0","1","0","5eb5cb8ddef42c4ad1456dd9","","null","","","","","","","learning/Slide96.JPG","null","","","","","",""
"html-keyboard-response","293","336171","0.0-7.0-1.15","FL","oqwgn1zhn1","1920","1080","0","1","0","5eb5cb8ddef42c4ad1456dd9","","null","","","learningBlock2","","","","That was a tob.","null","","","","","",""
"html-keyboard-response","294","337191","0.0-7.0-2.15","FL","oqwgn1zhn1","1920","1080","0","1","0","5eb5cb8ddef42c4ad1456dd9","","null","","","learningBlock2","","","","<div style=""font-size:60px;""> </div>","null","FL","learning/Slide96.JPG","That was a tob.","","",""
"image-keyboard-response","295","337370","0.0-7.0-0.16","FL","oqwgn1zhn1","1920","1080","0","1","0","5eb5cb8ddef42c4ad1456dd9","","null","","","","","","","learning/Slide97.JPG","null","","","","","",""
"html-keyboard-response","296","338550","0.0-7.0-1.16","FL","oqwgn1zhn1","1920","1080","0","1","0","5eb5cb8ddef42c4ad1456dd9","","null","","","learningBlock2","","","","That was a dep.","null","","","","","",""
"html-keyboard-response","297","339571","0.0-7.0-2.16","FL","oqwgn1zhn1","1920","1080","0","1","0","5eb5cb8ddef42c4ad1456dd9","","null","","","learningBlock2","","","","<div style=""font-size:60px;""> </div>","null","FL","learning/Slide97.JPG","That was a dep.","","",""
"image-keyboard-response","298","339750","0.0-7.0-0.17","FL","oqwgn1zhn1","1920","1080","0","1","0","5eb5cb8ddef42c4ad1456dd9","","null","","","","","","","learning/Slide98.JPG","null","","","","","",""
"html-keyboard-response","299","340930","0.0-7.0-1.17","FL","oqwgn1zhn1","1920","1080","0","1","0","5eb5cb8ddef42c4ad1456dd9","","null","","","learningBlock2","","","","That was a bim.","null","","","","","",""
"html-keyboard-response","300","341951","0.0-7.0-2.17","FL","oqwgn1zhn1","1920","1080","0","1","0","5eb5cb8ddef42c4ad1456dd9","","null","","","learningBlock2","","","","<div style=""font-size:60px;""> </div>","null","FL","learning/Slide98.JPG","That was a bim.","","",""
"image-keyboard-response","301","342131","0.0-7.0-0.18","FL","oqwgn1zhn1","1920","1080","0","1","0","5eb5cb8ddef42c4ad1456dd9","","null","","","","","","","learning/Slide99.JPG","null","","","","","",""
"html-keyboard-response","302","343311","0.0-7.0-1.18","FL","oqwgn1zhn1","1920","1080","0","1","0","5eb5cb8ddef42c4ad1456dd9","","null","","","learningBlock2","","","","That was a dep.","null","","","","","",""
"html-keyboard-response","303","344331","0.0-7.0-2.18","FL","oqwgn1zhn1","1920","1080","0","1","0","5eb5cb8ddef42c4ad1456dd9","","null","","","learningBlock2","","","","<div style=""font-size:60px;""> </div>","null","FL","learning/Slide99.JPG","That was a dep.","","",""
"image-keyboard-response","304","344511","0.0-7.0-0.19","FL","oqwgn1zhn1","1920","1080","0","1","0","5eb5cb8ddef42c4ad1456dd9","","null","","","","","","","learning/Slide100.JPG","null","","","","","",""
"html-keyboard-response","305","345690","0.0-7.0-1.19","FL","oqwgn1zhn1","1920","1080","0","1","0","5eb5cb8ddef42c4ad1456dd9","","null","","","learningBlock2","","","","That was a bim.","null","","","","","",""
"html-keyboard-response","306","346710","0.0-7.0-2.19","FL","oqwgn1zhn1","1920","1080","0","1","0","5eb5cb8ddef42c4ad1456dd9","","null","","","learningBlock2","","","","<div style=""font-size:60px;""> </div>","null","FL","learning/Slide100.JPG","That was a bim.","","",""
"image-keyboard-response","307","346890","0.0-7.0-0.20","FL","oqwgn1zhn1","1920","1080","0","1","0","5eb5cb8ddef42c4ad1456dd9","","null","","","","","","","learning/Slide101.JPG","null","","","","","",""
"html-keyboard-response","308","348066","0.0-7.0-1.20","FL","oqwgn1zhn1","1920","1080","0","1","0","5eb5cb8ddef42c4ad1456dd9","","null","","","learningBlock2","","","","That was a tob.","null","","","","","",""
"html-keyboard-response","309","349090","0.0-7.0-2.20","FL","oqwgn1zhn1","1920","1080","0","1","0","5eb5cb8ddef42c4ad1456dd9","","null","","","learningBlock2","","","","<div style=""font-size:60px;""> </div>","null","FL","learning/Slide101.JPG","That was a tob.","","",""
"image-keyboard-response","310","349270","0.0-7.0-0.21","FL","oqwgn1zhn1","1920","1080","0","1","0","5eb5cb8ddef42c4ad1456dd9","","null","","","","","","","learning/Slide102.JPG","null","","","","","",""
"html-keyboard-response","311","350450","0.0-7.0-1.21","FL","oqwgn1zhn1","1920","1080","0","1","0","5eb5cb8ddef42c4ad1456dd9","","null","","","learningBlock2","","","","That was a bim.","null","","","","","",""
"html-keyboard-response","312","351470","0.0-7.0-2.21","FL","oqwgn1zhn1","1920","1080","0","1","0","5eb5cb8ddef42c4ad1456dd9","","null","","","learningBlock2","","","","<div style=""font-size:60px;""> </div>","null","FL","learning/Slide102.JPG","That was a bim.","","",""
"image-keyboard-response","313","351651","0.0-7.0-0.22","FL","oqwgn1zhn1","1920","1080","0","1","0","5eb5cb8ddef42c4ad1456dd9","","null","","","","","","","learning/Slide103.JPG","null","","","","","",""
"html-keyboard-response","314","352830","0.0-7.0-1.22","FL","oqwgn1zhn1","1920","1080","0","1","0","5eb5cb8ddef42c4ad1456dd9","","null","","","learningBlock2","","","","That was a dep.","null","","","","","",""
"html-keyboard-response","315","353850","0.0-7.0-2.22","FL","oqwgn1zhn1","1920","1080","0","1","0","5eb5cb8ddef42c4ad1456dd9","","null","","","learningBlock2","","","","<div style=""font-size:60px;""> </div>","null","FL","learning/Slide103.JPG","That was a dep.","","",""
"image-keyboard-response","316","354031","0.0-7.0-0.23","FL","oqwgn1zhn1","1920","1080","0","1","0","5eb5cb8ddef42c4ad1456dd9","","null","","","","","","","learning/Slide104.JPG","null","","","","","",""
"html-keyboard-response","317","355210","0.0-7.0-1.23","FL","oqwgn1zhn1","1920","1080","0","1","0","5eb5cb8ddef42c4ad1456dd9","","null","","","learningBlock2","","","","That was a tob.","null","","","","","",""
"html-keyboard-response","318","356221","0.0-7.0-2.23","FL","oqwgn1zhn1","1920","1080","0","1","0","5eb5cb8ddef42c4ad1456dd9","","null","","","learningBlock2","","","","<div style=""font-size:60px;""> </div>","null","FL","learning/Slide104.JPG","That was a tob.","","",""
"image-keyboard-response","319","356401","0.0-7.0-0.24","FL","oqwgn1zhn1","1920","1080","0","1","0","5eb5cb8ddef42c4ad1456dd9","","null","","","","","","","learning/Slide105.JPG","null","","","","","",""
"html-keyboard-response","320","357570","0.0-7.0-1.24","FL","oqwgn1zhn1","1920","1080","0","1","0","5eb5cb8ddef42c4ad1456dd9","","null","","","learningBlock2","","","","That was a dep.","null","","","","","",""
"html-keyboard-response","321","358577","0.0-7.0-2.24","FL","oqwgn1zhn1","1920","1080","0","1","0","5eb5cb8ddef42c4ad1456dd9","","null","","","learningBlock2","","","","<div style=""font-size:60px;""> </div>","null","FL","learning/Slide105.JPG","That was a dep.","","",""
"image-keyboard-response","322","358760","0.0-7.0-0.25","FL","oqwgn1zhn1","1920","1080","0","1","0","5eb5cb8ddef42c4ad1456dd9","","null","","","","","","","learning/Slide106.JPG","null","","","","","",""
"html-keyboard-response","323","359940","0.0-7.0-1.25","FL","oqwgn1zhn1","1920","1080","0","1","0","5eb5cb8ddef42c4ad1456dd9","","null","","","learningBlock2","","","","That was a wug.","null","","","","","",""
"html-keyboard-response","324","360960","0.0-7.0-2.25","FL","oqwgn1zhn1","1920","1080","0","1","0","5eb5cb8ddef42c4ad1456dd9","","null","","","learningBlock2","","","","<div style=""font-size:60px;""> </div>","null","FL","learning/Slide106.JPG","That was a wug.","","",""
"image-keyboard-response","325","361140","0.0-7.0-0.26","FL","oqwgn1zhn1","1920","1080","0","1","0","5eb5cb8ddef42c4ad1456dd9","","null","","","","","","","learning/Slide107.JPG","null","","","","","",""
"html-keyboard-response","326","362320","0.0-7.0-1.26","FL","oqwgn1zhn1","1920","1080","0","1","0","5eb5cb8ddef42c4ad1456dd9","","null","","","learningBlock2","","","","That was a bim.","null","","","","","",""
"html-keyboard-response","327","363331","0.0-7.0-2.26","FL","oqwgn1zhn1","1920","1080","0","1","0","5eb5cb8ddef42c4ad1456dd9","","null","","","learningBlock2","","","","<div style=""font-size:60px;""> </div>","null","FL","learning/Slide107.JPG","That was a bim.","","",""
"image-keyboard-response","328","363511","0.0-7.0-0.27","FL","oqwgn1zhn1","1920","1080","0","1","0","5eb5cb8ddef42c4ad1456dd9","","null","","","","","","","learning/Slide108.JPG","null","","","","","",""
"html-keyboard-response","329","364670","0.0-7.0-1.27","FL","oqwgn1zhn1","1920","1080","0","1","0","5eb5cb8ddef42c4ad1456dd9","","null","","","learningBlock2","","","","That was a dep.","null","","","","","",""
"html-keyboard-response","330","365680","0.0-7.0-2.27","FL","oqwgn1zhn1","1920","1080","0","1","0","5eb5cb8ddef42c4ad1456dd9","","null","","","learningBlock2","","","","<div style=""font-size:60px;""> </div>","null","FL","learning/Slide108.JPG","That was a dep.","","",""
"image-keyboard-response","331","365861","0.0-7.0-0.28","FL","oqwgn1zhn1","1920","1080","0","1","0","5eb5cb8ddef42c4ad1456dd9","","null","","","","","","","learning/Slide109.JPG","null","","","","","",""
"html-keyboard-response","332","367041","0.0-7.0-1.28","FL","oqwgn1zhn1","1920","1080","0","1","0","5eb5cb8ddef42c4ad1456dd9","","null","","","learningBlock2","","","","That was a wug.","null","","","","","",""
"html-keyboard-response","333","368060","0.0-7.0-2.28","FL","oqwgn1zhn1","1920","1080","0","1","0","5eb5cb8ddef42c4ad1456dd9","","null","","","learningBlock2","","","","<div style=""font-size:60px;""> </div>","null","FL","learning/Slide109.JPG","That was a wug.","","",""
"image-keyboard-response","334","368241","0.0-7.0-0.29","FL","oqwgn1zhn1","1920","1080","0","1","0","5eb5cb8ddef42c4ad1456dd9","","null","","","","","","","learning/Slide110.JPG","null","","","","","",""
"html-keyboard-response","335","369420","0.0-7.0-1.29","FL","oqwgn1zhn1","1920","1080","0","1","0","5eb5cb8ddef42c4ad1456dd9","","null","","","learningBlock2","","","","That was a bim.","null","","","","","",""
"html-keyboard-response","336","370441","0.0-7.0-2.29","FL","oqwgn1zhn1","1920","1080","0","1","0","5eb5cb8ddef42c4ad1456dd9","","null","","","learningBlock2","","","","<div style=""font-size:60px;""> </div>","null","FL","learning/Slide110.JPG","That was a bim.","","",""
"image-keyboard-response","337","370621","0.0-7.0-0.30","FL","oqwgn1zhn1","1920","1080","0","1","0","5eb5cb8ddef42c4ad1456dd9","","null","","","","","","","learning/Slide111.JPG","null","","","","","",""
"html-keyboard-response","338","371801","0.0-7.0-1.30","FL","oqwgn1zhn1","1920","1080","0","1","0","5eb5cb8ddef42c4ad1456dd9","","null","","","learningBlock2","","","","That was a tob.","null","","","","","",""
"html-keyboard-response","339","372820","0.0-7.0-2.30","FL","oqwgn1zhn1","1920","1080","0","1","0","5eb5cb8ddef42c4ad1456dd9","","null","","","learningBlock2","","","","<div style=""font-size:60px;""> </div>","null","FL","learning/Slide111.JPG","That was a tob.","","",""
"image-keyboard-response","340","373001","0.0-7.0-0.31","FL","oqwgn1zhn1","1920","1080","0","1","0","5eb5cb8ddef42c4ad1456dd9","","null","","","","","","","learning/Slide112.JPG","null","","","","","",""
"html-keyboard-response","341","374180","0.0-7.0-1.31","FL","oqwgn1zhn1","1920","1080","0","1","0","5eb5cb8ddef42c4ad1456dd9","","null","","","learningBlock2","","","","That was a wug.","null","","","","","",""
"html-keyboard-response","342","375191","0.0-7.0-2.31","FL","oqwgn1zhn1","1920","1080","0","1","0","5eb5cb8ddef42c4ad1456dd9","","null","","","learningBlock2","","","","<div style=""font-size:60px;""> </div>","null","FL","learning/Slide112.JPG","That was a wug.","","",""
"image-keyboard-response","343","375371","0.0-7.0-0.32","FL","oqwgn1zhn1","1920","1080","0","1","0","5eb5cb8ddef42c4ad1456dd9","","null","","","","","","","learning/Slide113.JPG","null","","","","","",""
"html-keyboard-response","344","376551","0.0-7.0-1.32","FL","oqwgn1zhn1","1920","1080","0","1","0","5eb5cb8ddef42c4ad1456dd9","","null","","","learningBlock2","","","","That was a tob.","null","","","","","",""
"html-keyboard-response","345","377571","0.0-7.0-2.32","FL","oqwgn1zhn1","1920","1080","0","1","0","5eb5cb8ddef42c4ad1456dd9","","null","","","learningBlock2","","","","<div style=""font-size:60px;""> </div>","null","FL","learning/Slide113.JPG","That was a tob.","","",""
"image-keyboard-response","346","377750","0.0-7.0-0.33","FL","oqwgn1zhn1","1920","1080","0","1","0","5eb5cb8ddef42c4ad1456dd9","","null","","","","","","","learning/Slide114.JPG","null","","","","","",""
"html-keyboard-response","347","378931","0.0-7.0-1.33","FL","oqwgn1zhn1","1920","1080","0","1","0","5eb5cb8ddef42c4ad1456dd9","","null","","","learningBlock2","","","","That was a wug.","null","","","","","",""
"html-keyboard-response","348","379950","0.0-7.0-2.33","FL","oqwgn1zhn1","1920","1080","0","1","0","5eb5cb8ddef42c4ad1456dd9","","null","","","learningBlock2","","","","<div style=""font-size:60px;""> </div>","null","FL","learning/Slide114.JPG","That was a wug.","","",""
"image-keyboard-response","349","380131","0.0-7.0-0.34","FL","oqwgn1zhn1","1920","1080","0","1","0","5eb5cb8ddef42c4ad1456dd9","","null","","","","","","","learning/Slide115.JPG","null","","","","","",""
"html-keyboard-response","350","381296","0.0-7.0-1.34","FL","oqwgn1zhn1","1920","1080","0","1","0","5eb5cb8ddef42c4ad1456dd9","","null","","","learningBlock2","","","","That was a bim.","null","","","","","",""
"html-keyboard-response","351","382297","0.0-7.0-2.34","FL","oqwgn1zhn1","1920","1080","0","1","0","5eb5cb8ddef42c4ad1456dd9","","null","","","learningBlock2","","","","<div style=""font-size:60px;""> </div>","null","FL","learning/Slide115.JPG","That was a bim.","","",""
"image-keyboard-response","352","382480","0.0-7.0-0.35","FL","oqwgn1zhn1","1920","1080","0","1","0","5eb5cb8ddef42c4ad1456dd9","","null","","","","","","","learning/Slide116.JPG","null","","","","","",""
"html-keyboard-response","353","383660","0.0-7.0-1.35","FL","oqwgn1zhn1","1920","1080","0","1","0","5eb5cb8ddef42c4ad1456dd9","","null","","","learningBlock2","","","","That was a dep.","null","","","","","",""
"html-keyboard-response","354","384681","0.0-7.0-2.35","FL","oqwgn1zhn1","1920","1080","0","1","0","5eb5cb8ddef42c4ad1456dd9","","null","","","learningBlock2","","","","<div style=""font-size:60px;""> </div>","null","FL","learning/Slide116.JPG","That was a dep.","","",""
"image-keyboard-response","355","384860","0.0-7.0-0.36","FL","oqwgn1zhn1","1920","1080","0","1","0","5eb5cb8ddef42c4ad1456dd9","","null","","","","","","","learning/Slide117.JPG","null","","","","","",""
"html-keyboard-response","356","386040","0.0-7.0-1.36","FL","oqwgn1zhn1","1920","1080","0","1","0","5eb5cb8ddef42c4ad1456dd9","","null","","","learningBlock2","","","","That was a tob.","null","","","","","",""
"html-keyboard-response","357","387060","0.0-7.0-2.36","FL","oqwgn1zhn1","1920","1080","0","1","0","5eb5cb8ddef42c4ad1456dd9","","null","","","learningBlock2","","","","<div style=""font-size:60px;""> </div>","null","FL","learning/Slide117.JPG","That was a tob.","","",""
"image-keyboard-response","358","387241","0.0-7.0-0.37","FL","oqwgn1zhn1","1920","1080","0","1","0","5eb5cb8ddef42c4ad1456dd9","","null","","","","","","","learning/Slide118.JPG","null","","","","","",""
"html-keyboard-response","359","388421","0.0-7.0-1.37","FL","oqwgn1zhn1","1920","1080","0","1","0","5eb5cb8ddef42c4ad1456dd9","","null","","","learningBlock2","","","","That was a dep.","null","","","","","",""
"html-keyboard-response","360","389440","0.0-7.0-2.37","FL","oqwgn1zhn1","1920","1080","0","1","0","5eb5cb8ddef42c4ad1456dd9","","null","","","learningBlock2","","","","<div style=""font-size:60px;""> </div>","null","FL","learning/Slide118.JPG","That was a dep.","","",""
"image-keyboard-response","361","389620","0.0-7.0-0.38","FL","oqwgn1zhn1","1920","1080","0","1","0","5eb5cb8ddef42c4ad1456dd9","","null","","","","","","","learning/Slide119.JPG","null","","","","","",""
"html-keyboard-response","362","390800","0.0-7.0-1.38","FL","oqwgn1zhn1","1920","1080","0","1","0","5eb5cb8ddef42c4ad1456dd9","","null","","","learningBlock2","","","","That was a wug.","null","","","","","",""
"html-keyboard-response","363","391820","0.0-7.0-2.38","FL","oqwgn1zhn1","1920","1080","0","1","0","5eb5cb8ddef42c4ad1456dd9","","null","","","learningBlock2","","","","<div style=""font-size:60px;""> </div>","null","FL","learning/Slide119.JPG","That was a wug.","","",""
"image-keyboard-response","364","392000","0.0-7.0-0.39","FL","oqwgn1zhn1","1920","1080","0","1","0","5eb5cb8ddef42c4ad1456dd9","","null","","","","","","","learning/Slide120.JPG","null","","","","","",""
"html-keyboard-response","365","393180","0.0-7.0-1.39","FL","oqwgn1zhn1","1920","1080","0","1","0","5eb5cb8ddef42c4ad1456dd9","","null","","","learningBlock2","","","","That was a dep.","null","","","","","",""
"html-keyboard-response","366","394200","0.0-7.0-2.39","FL","oqwgn1zhn1","1920","1080","0","1","0","5eb5cb8ddef42c4ad1456dd9","","null","","","learningBlock2","","","","<div style=""font-size:60px;""> </div>","null","FL","learning/Slide120.JPG","That was a dep.","","",""
"image-keyboard-response","367","394380","0.0-7.0-0.40","FL","oqwgn1zhn1","1920","1080","0","1","0","5eb5cb8ddef42c4ad1456dd9","","null","","","","","","","learning/Slide121.JPG","null","","","","","",""
"html-keyboard-response","368","395560","0.0-7.0-1.40","FL","oqwgn1zhn1","1920","1080","0","1","0","5eb5cb8ddef42c4ad1456dd9","","null","","","learningBlock2","","","","That was a bim.","null","","","","","",""
"html-keyboard-response","369","396580","0.0-7.0-2.40","FL","oqwgn1zhn1","1920","1080","0","1","0","5eb5cb8ddef42c4ad1456dd9","","null","","","learningBlock2","","","","<div style=""font-size:60px;""> </div>","null","FL","learning/Slide121.JPG","That was a bim.","","",""
"image-keyboard-response","370","396760","0.0-7.0-0.41","FL","oqwgn1zhn1","1920","1080","0","1","0","5eb5cb8ddef42c4ad1456dd9","","null","","","","","","","learning/Slide122.JPG","null","","","","","",""
"html-keyboard-response","371","397940","0.0-7.0-1.41","FL","oqwgn1zhn1","1920","1080","0","1","0","5eb5cb8ddef42c4ad1456dd9","","null","","","learningBlock2","","","","That was a wug.","null","","","","","",""
"html-keyboard-response","372","398960","0.0-7.0-2.41","FL","oqwgn1zhn1","1920","1080","0","1","0","5eb5cb8ddef42c4ad1456dd9","","null","","","learningBlock2","","","","<div style=""font-size:60px;""> </div>","null","FL","learning/Slide122.JPG","That was a wug.","","",""
"image-keyboard-response","373","399140","0.0-7.0-0.42","FL","oqwgn1zhn1","1920","1080","0","1","0","5eb5cb8ddef42c4ad1456dd9","","null","","","","","","","learning/Slide123.JPG","null","","","","","",""
"html-keyboard-response","374","400300","0.0-7.0-1.42","FL","oqwgn1zhn1","1920","1080","0","1","0","5eb5cb8ddef42c4ad1456dd9","","null","","","learningBlock2","","","","That was a bim.","null","","","","","",""
"html-keyboard-response","375","401320","0.0-7.0-2.42","FL","oqwgn1zhn1","1920","1080","0","1","0","5eb5cb8ddef42c4ad1456dd9","","null","","","learningBlock2","","","","<div style=""font-size:60px;""> </div>","null","FL","learning/Slide123.JPG","That was a bim.","","",""
"image-keyboard-response","376","401501","0.0-7.0-0.43","FL","oqwgn1zhn1","1920","1080","0","1","0","5eb5cb8ddef42c4ad1456dd9","","null","","","","","","","learning/Slide124.JPG","null","","","","","",""
"html-keyboard-response","377","402680","0.0-7.0-1.43","FL","oqwgn1zhn1","1920","1080","0","1","0","5eb5cb8ddef42c4ad1456dd9","","null","","","learningBlock2","","","","That was a tob.","null","","","","","",""
"html-keyboard-response","378","403700","0.0-7.0-2.43","FL","oqwgn1zhn1","1920","1080","0","1","0","5eb5cb8ddef42c4ad1456dd9","","null","","","learningBlock2","","","","<div style=""font-size:60px;""> </div>","null","FL","learning/Slide124.JPG","That was a tob.","","",""
"image-keyboard-response","379","403881","0.0-7.0-0.44","FL","oqwgn1zhn1","1920","1080","0","1","0","5eb5cb8ddef42c4ad1456dd9","","null","","","","","","","learning/Slide125.JPG","null","","","","","",""
"html-keyboard-response","380","405050","0.0-7.0-1.44","FL","oqwgn1zhn1","1920","1080","0","1","0","5eb5cb8ddef42c4ad1456dd9","","null","","","learningBlock2","","","","That was a bim.","null","","","","","",""
"html-keyboard-response","381","406065","0.0-7.0-2.44","FL","oqwgn1zhn1","1920","1080","0","1","0","5eb5cb8ddef42c4ad1456dd9","","null","","","learningBlock2","","","","<div style=""font-size:60px;""> </div>","null","FL","learning/Slide125.JPG","That was a bim.","","",""
"image-keyboard-response","382","406261","0.0-7.0-0.45","FL","oqwgn1zhn1","1920","1080","0","1","0","5eb5cb8ddef42c4ad1456dd9","","null","","","","","","","learning/Slide126.JPG","null","","","","","",""
"html-keyboard-response","383","407417","0.0-7.0-1.45","FL","oqwgn1zhn1","1920","1080","0","1","0","5eb5cb8ddef42c4ad1456dd9","","null","","","learningBlock2","","","","That was a tob.","null","","","","","",""
"html-keyboard-response","384","408440","0.0-7.0-2.45","FL","oqwgn1zhn1","1920","1080","0","1","0","5eb5cb8ddef42c4ad1456dd9","","null","","","learningBlock2","","","","<div style=""font-size:60px;""> </div>","null","FL","learning/Slide126.JPG","That was a tob.","","",""
"image-keyboard-response","385","408618","0.0-7.0-0.46","FL","oqwgn1zhn1","1920","1080","0","1","0","5eb5cb8ddef42c4ad1456dd9","","null","","","","","","","learning/Slide127.JPG","null","","","","","",""
"html-keyboard-response","386","409801","0.0-7.0-1.46","FL","oqwgn1zhn1","1920","1080","0","1","0","5eb5cb8ddef42c4ad1456dd9","","null","","","learningBlock2","","","","That was a dep.","null","","","","","",""
"html-keyboard-response","387","410820","0.0-7.0-2.46","FL","oqwgn1zhn1","1920","1080","0","1","0","5eb5cb8ddef42c4ad1456dd9","","null","","","learningBlock2","","","","<div style=""font-size:60px;""> </div>","null","FL","learning/Slide127.JPG","That was a dep.","","",""
"image-keyboard-response","388","411000","0.0-7.0-0.47","FL","oqwgn1zhn1","1920","1080","0","1","0","5eb5cb8ddef42c4ad1456dd9","","null","","","","","","","learning/Slide128.JPG","null","","","","","",""
"html-keyboard-response","389","412180","0.0-7.0-1.47","FL","oqwgn1zhn1","1920","1080","0","1","0","5eb5cb8ddef42c4ad1456dd9","","null","","","learningBlock2","","","","That was a wug.","null","","","","","",""
"html-keyboard-response","390","413200","0.0-7.0-2.47","FL","oqwgn1zhn1","1920","1080","0","1","0","5eb5cb8ddef42c4ad1456dd9","","null","","","learningBlock2","","","","<div style=""font-size:60px;""> </div>","null","FL","learning/Slide128.JPG","That was a wug.","","",""
"image-keyboard-response","391","413380","0.0-7.0-0.48","FL","oqwgn1zhn1","1920","1080","0","1","0","5eb5cb8ddef42c4ad1456dd9","","null","","","","","","","learning/Slide129.JPG","null","","","","","",""
"html-keyboard-response","392","414561","0.0-7.0-1.48","FL","oqwgn1zhn1","1920","1080","0","1","0","5eb5cb8ddef42c4ad1456dd9","","null","","","learningBlock2","","","","That was a tob.","null","","","","","",""
"html-keyboard-response","393","415580","0.0-7.0-2.48","FL","oqwgn1zhn1","1920","1080","0","1","0","5eb5cb8ddef42c4ad1456dd9","","null","","","learningBlock2","","","","<div style=""font-size:60px;""> </div>","null","FL","learning/Slide129.JPG","That was a tob.","","",""
"image-keyboard-response","394","415760","0.0-7.0-0.49","FL","oqwgn1zhn1","1920","1080","0","1","0","5eb5cb8ddef42c4ad1456dd9","","null","","","","","","","learning/Slide130.JPG","null","","","","","",""
"html-keyboard-response","395","416940","0.0-7.0-1.49","FL","oqwgn1zhn1","1920","1080","0","1","0","5eb5cb8ddef42c4ad1456dd9","","null","","","learningBlock2","","","","That was a wug.","null","","","","","",""
"html-keyboard-response","396","417961","0.0-7.0-2.49","FL","oqwgn1zhn1","1920","1080","0","1","0","5eb5cb8ddef42c4ad1456dd9","","null","","","learningBlock2","","","","<div style=""font-size:60px;""> </div>","null","FL","learning/Slide130.JPG","That was a wug.","","",""
"image-keyboard-response","397","418141","0.0-7.0-0.50","FL","oqwgn1zhn1","1920","1080","0","1","0","5eb5cb8ddef42c4ad1456dd9","","null","","","","","","","learning/Slide131.JPG","null","","","","","",""
"html-keyboard-response","398","419320","0.0-7.0-1.50","FL","oqwgn1zhn1","1920","1080","0","1","0","5eb5cb8ddef42c4ad1456dd9","","null","","","learningBlock2","","","","That was a bim.","null","","","","","",""
"html-keyboard-response","399","420340","0.0-7.0-2.50","FL","oqwgn1zhn1","1920","1080","0","1","0","5eb5cb8ddef42c4ad1456dd9","","null","","","learningBlock2","","","","<div style=""font-size:60px;""> </div>","null","FL","learning/Slide131.JPG","That was a bim.","","",""
"image-keyboard-response","400","420521","0.0-7.0-0.51","FL","oqwgn1zhn1","1920","1080","0","1","0","5eb5cb8ddef42c4ad1456dd9","","null","","","","","","","learning/Slide132.JPG","null","","","","","",""
"html-keyboard-response","401","421700","0.0-7.0-1.51","FL","oqwgn1zhn1","1920","1080","0","1","0","5eb5cb8ddef42c4ad1456dd9","","null","","","learningBlock2","","","","That was a dep.","null","","","","","",""
"html-keyboard-response","402","422721","0.0-7.0-2.51","FL","oqwgn1zhn1","1920","1080","0","1","0","5eb5cb8ddef42c4ad1456dd9","","null","","","learningBlock2","","","","<div style=""font-size:60px;""> </div>","null","FL","learning/Slide132.JPG","That was a dep.","","",""
"image-keyboard-response","403","422901","0.0-7.0-0.52","FL","oqwgn1zhn1","1920","1080","0","1","0","5eb5cb8ddef42c4ad1456dd9","","null","","","","","","","learning/Slide133.JPG","null","","","","","",""
"html-keyboard-response","404","424080","0.0-7.0-1.52","FL","oqwgn1zhn1","1920","1080","0","1","0","5eb5cb8ddef42c4ad1456dd9","","null","","","learningBlock2","","","","That was a tob.","null","","","","","",""
"html-keyboard-response","405","425101","0.0-7.0-2.52","FL","oqwgn1zhn1","1920","1080","0","1","0","5eb5cb8ddef42c4ad1456dd9","","null","","","learningBlock2","","","","<div style=""font-size:60px;""> </div>","null","FL","learning/Slide133.JPG","That was a tob.","","",""
"image-keyboard-response","406","425281","0.0-7.0-0.53","FL","oqwgn1zhn1","1920","1080","0","1","0","5eb5cb8ddef42c4ad1456dd9","","null","","","","","","","learning/Slide134.JPG","null","","","","","",""
"html-keyboard-response","407","426460","0.0-7.0-1.53","FL","oqwgn1zhn1","1920","1080","0","1","0","5eb5cb8ddef42c4ad1456dd9","","null","","","learningBlock2","","","","That was a dep.","null","","","","","",""
"html-keyboard-response","408","427481","0.0-7.0-2.53","FL","oqwgn1zhn1","1920","1080","0","1","0","5eb5cb8ddef42c4ad1456dd9","","null","","","learningBlock2","","","","<div style=""font-size:60px;""> </div>","null","FL","learning/Slide134.JPG","That was a dep.","","",""
"image-keyboard-response","409","427660","0.0-7.0-0.54","FL","oqwgn1zhn1","1920","1080","0","1","0","5eb5cb8ddef42c4ad1456dd9","","null","","","","","","","learning/Slide135.JPG","null","","","","","",""
"html-keyboard-response","410","428840","0.0-7.0-1.54","FL","oqwgn1zhn1","1920","1080","0","1","0","5eb5cb8ddef42c4ad1456dd9","","null","","","learningBlock2","","","","That was a tob.","null","","","","","",""
"html-keyboard-response","411","429860","0.0-7.0-2.54","FL","oqwgn1zhn1","1920","1080","0","1","0","5eb5cb8ddef42c4ad1456dd9","","null","","","learningBlock2","","","","<div style=""font-size:60px;""> </div>","null","FL","learning/Slide135.JPG","That was a tob.","","",""
"image-keyboard-response","412","430040","0.0-7.0-0.55","FL","oqwgn1zhn1","1920","1080","0","1","0","5eb5cb8ddef42c4ad1456dd9","","null","","","","","","","learning/Slide136.JPG","null","","","","","",""
"html-keyboard-response","413","431220","0.0-7.0-1.55","FL","oqwgn1zhn1","1920","1080","0","1","0","5eb5cb8ddef42c4ad1456dd9","","null","","","learningBlock2","","","","That was a wug.","null","","","","","",""
"html-keyboard-response","414","432236","0.0-7.0-2.55","FL","oqwgn1zhn1","1920","1080","0","1","0","5eb5cb8ddef42c4ad1456dd9","","null","","","learningBlock2","","","","<div style=""font-size:60px;""> </div>","null","FL","learning/Slide136.JPG","That was a wug.","","",""
"image-keyboard-response","415","432421","0.0-7.0-0.56","FL","oqwgn1zhn1","1920","1080","0","1","0","5eb5cb8ddef42c4ad1456dd9","","null","","","","","","","learning/Slide137.JPG","null","","","","","",""
"html-keyboard-response","416","433600","0.0-7.0-1.56","FL","oqwgn1zhn1","1920","1080","0","1","0","5eb5cb8ddef42c4ad1456dd9","","null","","","learningBlock2","","","","That was a tob.","null","","","","","",""
"html-keyboard-response","417","434621","0.0-7.0-2.56","FL","oqwgn1zhn1","1920","1080","0","1","0","5eb5cb8ddef42c4ad1456dd9","","null","","","learningBlock2","","","","<div style=""font-size:60px;""> </div>","null","FL","learning/Slide137.JPG","That was a tob.","","",""
"image-keyboard-response","418","434801","0.0-7.0-0.57","FL","oqwgn1zhn1","1920","1080","0","1","0","5eb5cb8ddef42c4ad1456dd9","","null","","","","","","","learning/Slide138.JPG","null","","","","","",""
"html-keyboard-response","419","435980","0.0-7.0-1.57","FL","oqwgn1zhn1","1920","1080","0","1","0","5eb5cb8ddef42c4ad1456dd9","","null","","","learningBlock2","","","","That was a bim.","null","","","","","",""
"html-keyboard-response","420","437000","0.0-7.0-2.57","FL","oqwgn1zhn1","1920","1080","0","1","0","5eb5cb8ddef42c4ad1456dd9","","null","","","learningBlock2","","","","<div style=""font-size:60px;""> </div>","null","FL","learning/Slide138.JPG","That was a bim.","","",""
"image-keyboard-response","421","437180","0.0-7.0-0.58","FL","oqwgn1zhn1","1920","1080","0","1","0","5eb5cb8ddef42c4ad1456dd9","","null","","","","","","","learning/Slide139.JPG","null","","","","","",""
"html-keyboard-response","422","438350","0.0-7.0-1.58","FL","oqwgn1zhn1","1920","1080","0","1","0","5eb5cb8ddef42c4ad1456dd9","","null","","","learningBlock2","","","","That was a wug.","null","","","","","",""
"html-keyboard-response","423","439370","0.0-7.0-2.58","FL","oqwgn1zhn1","1920","1080","0","1","0","5eb5cb8ddef42c4ad1456dd9","","null","","","learningBlock2","","","","<div style=""font-size:60px;""> </div>","null","FL","learning/Slide139.JPG","That was a wug.","","",""
"image-keyboard-response","424","439550","0.0-7.0-0.59","FL","oqwgn1zhn1","1920","1080","0","1","0","5eb5cb8ddef42c4ad1456dd9","","null","","","","","","","learning/Slide140.JPG","null","","","","","",""
"html-keyboard-response","425","440730","0.0-7.0-1.59","FL","oqwgn1zhn1","1920","1080","0","1","0","5eb5cb8ddef42c4ad1456dd9","","null","","","learningBlock2","","","","That was a dep.","null","","","","","",""
"html-keyboard-response","426","441751","0.0-7.0-2.59","FL","oqwgn1zhn1","1920","1080","0","1","0","5eb5cb8ddef42c4ad1456dd9","","null","","","learningBlock2","","","","<div style=""font-size:60px;""> </div>","null","FL","learning/Slide140.JPG","That was a dep.","","",""
"image-keyboard-response","427","441930","0.0-7.0-0.60","FL","oqwgn1zhn1","1920","1080","0","1","0","5eb5cb8ddef42c4ad1456dd9","","null","","","","","","","learning/Slide141.JPG","null","","","","","",""
"html-keyboard-response","428","443110","0.0-7.0-1.60","FL","oqwgn1zhn1","1920","1080","0","1","0","5eb5cb8ddef42c4ad1456dd9","","null","","","learningBlock2","","","","That was a tob.","null","","","","","",""
"html-keyboard-response","429","444130","0.0-7.0-2.60","FL","oqwgn1zhn1","1920","1080","0","1","0","5eb5cb8ddef42c4ad1456dd9","","null","","","learningBlock2","","","","<div style=""font-size:60px;""> </div>","null","FL","learning/Slide141.JPG","That was a tob.","","",""
"image-keyboard-response","430","444310","0.0-7.0-0.61","FL","oqwgn1zhn1","1920","1080","0","1","0","5eb5cb8ddef42c4ad1456dd9","","null","","","","","","","learning/Slide142.JPG","null","","","","","",""
"html-keyboard-response","431","445480","0.0-7.0-1.61","FL","oqwgn1zhn1","1920","1080","0","1","0","5eb5cb8ddef42c4ad1456dd9","","null","","","learningBlock2","","","","That was a wug.","null","","","","","",""
"html-keyboard-response","432","446501","0.0-7.0-2.61","FL","oqwgn1zhn1","1920","1080","0","1","0","5eb5cb8ddef42c4ad1456dd9","","null","","","learningBlock2","","","","<div style=""font-size:60px;""> </div>","null","FL","learning/Slide142.JPG","That was a wug.","","",""
"image-keyboard-response","433","446680","0.0-7.0-0.62","FL","oqwgn1zhn1","1920","1080","0","1","0","5eb5cb8ddef42c4ad1456dd9","","null","","","","","","","learning/Slide143.JPG","null","","","","","",""
"html-keyboard-response","434","447860","0.0-7.0-1.62","FL","oqwgn1zhn1","1920","1080","0","1","0","5eb5cb8ddef42c4ad1456dd9","","null","","","learningBlock2","","","","That was a bim.","null","","","","","",""
