"trial_type","trial_index","time_elapsed","internal_node_id","condition","subject","screen_width","screen_height","attention","distraction","conscientious","prolificID","success","rt","url","view_history","test_part","final_height_px","final_width_px","scale_factor","stimulus","key_press","learningType","presentedImage","presentedLabel","button_pressed","response","responses"
"pavlovia","0","255","0.0-0.0","FL","xtbpfv8d5p","1920","1080","0","1","0","5fbade0c4594d6b7c7d96ca9","","","","","","","","","","","","","","","",""
"fullscreen","1","1925698","0.0-1.0","FL","xtbpfv8d5p","1920","1080","0","1","0","5fbade0c4594d6b7c7d96ca9","true","","","","","","","","","","","","","","",""
"external-html","2","1966239","0.0-2.0-0.0","FL","xtbpfv8d5p","1920","1080","0","1","0","5fbade0c4594d6b7c7d96ca9","","40326.714999973774","text/information_english.html","","","","","","","","","","","","",""
"external-html","3","1990309","0.0-2.0-1.0","FL","xtbpfv8d5p","1920","1080","0","1","0","5fbade0c4594d6b7c7d96ca9","","24006.1299999943","text/consent_english.html","","","","","","","","","","","","",""
"instructions","4","2049333","0.0-3.0","FL","xtbpfv8d5p","1920","1080","0","1","0","5fbade0c4594d6b7c7d96ca9","","NA","","[{""page_index"":0,""viewing_time"":26493.020000023535},{""page_index"":1,""viewing_time"":32525.82499998971}]","instructions","","","","","","","","","","",""
"resize","5","2108111","0.0-4.0","FL","xtbpfv8d5p","1920","1080","0","1","0","5fbade0c4594d6b7c7d96ca9","","","","","","","364","2.311111111111111","","","","","","","",""
"image-keyboard-response","6","2108289","0.0-5.0-0.0","FL","xtbpfv8d5p","1920","1080","0","1","0","5fbade0c4594d6b7c7d96ca9","","null","","","","","","","learning/Slide1.JPG","null","","","","","",""
"html-keyboard-response","7","2109442","0.0-5.0-1.0","FL","xtbpfv8d5p","1920","1080","0","1","0","5fbade0c4594d6b7c7d96ca9","","null","","","learningBlock1","","","","That was a tob.","null","","","","","",""
"html-keyboard-response","8","2110444","0.0-5.0-2.0","FL","xtbpfv8d5p","1920","1080","0","1","0","5fbade0c4594d6b7c7d96ca9","","null","","","learningBlock1","","","","<div style=""font-size:60px;""> </div>","null","FL","learning/Slide1.JPG","That was a tob.","","",""
"image-keyboard-response","9","2110623","0.0-5.0-0.1","FL","xtbpfv8d5p","1920","1080","0","1","0","5fbade0c4594d6b7c7d96ca9","","null","","","","","","","learning/Slide2.JPG","null","","","","","",""
"html-keyboard-response","10","2111775","0.0-5.0-1.1","FL","xtbpfv8d5p","1920","1080","0","1","0","5fbade0c4594d6b7c7d96ca9","","null","","","learningBlock1","","","","That was a wug.","null","","","","","",""
"html-keyboard-response","11","2112777","0.0-5.0-2.1","FL","xtbpfv8d5p","1920","1080","0","1","0","5fbade0c4594d6b7c7d96ca9","","null","","","learningBlock1","","","","<div style=""font-size:60px;""> </div>","null","FL","learning/Slide2.JPG","That was a wug.","","",""
"image-keyboard-response","12","2112955","0.0-5.0-0.2","FL","xtbpfv8d5p","1920","1080","0","1","0","5fbade0c4594d6b7c7d96ca9","","null","","","","","","","learning/Slide3.JPG","null","","","","","",""
"html-keyboard-response","13","2114108","0.0-5.0-1.2","FL","xtbpfv8d5p","1920","1080","0","1","0","5fbade0c4594d6b7c7d96ca9","","null","","","learningBlock1","","","","That was a bim.","null","","","","","",""
"html-keyboard-response","14","2115111","0.0-5.0-2.2","FL","xtbpfv8d5p","1920","1080","0","1","0","5fbade0c4594d6b7c7d96ca9","","null","","","learningBlock1","","","","<div style=""font-size:60px;""> </div>","null","FL","learning/Slide3.JPG","That was a bim.","","",""
"image-keyboard-response","15","2115290","0.0-5.0-0.3","FL","xtbpfv8d5p","1920","1080","0","1","0","5fbade0c4594d6b7c7d96ca9","","null","","","","","","","learning/Slide4.JPG","null","","","","","",""
"html-keyboard-response","16","2116443","0.0-5.0-1.3","FL","xtbpfv8d5p","1920","1080","0","1","0","5fbade0c4594d6b7c7d96ca9","","null","","","learningBlock1","","","","That was a dep.","null","","","","","",""
"html-keyboard-response","17","2117445","0.0-5.0-2.3","FL","xtbpfv8d5p","1920","1080","0","1","0","5fbade0c4594d6b7c7d96ca9","","null","","","learningBlock1","","","","<div style=""font-size:60px;""> </div>","null","FL","learning/Slide4.JPG","That was a dep.","","",""
"image-keyboard-response","18","2117622","0.0-5.0-0.4","FL","xtbpfv8d5p","1920","1080","0","1","0","5fbade0c4594d6b7c7d96ca9","","null","","","","","","","learning/Slide5.JPG","null","","","","","",""
"html-keyboard-response","19","2118775","0.0-5.0-1.4","FL","xtbpfv8d5p","1920","1080","0","1","0","5fbade0c4594d6b7c7d96ca9","","null","","","learningBlock1","","","","That was a wug.","null","","","","","",""
"html-keyboard-response","20","2119777","0.0-5.0-2.4","FL","xtbpfv8d5p","1920","1080","0","1","0","5fbade0c4594d6b7c7d96ca9","","null","","","learningBlock1","","","","<div style=""font-size:60px;""> </div>","null","FL","learning/Slide5.JPG","That was a wug.","","",""
"image-keyboard-response","21","2119954","0.0-5.0-0.5","FL","xtbpfv8d5p","1920","1080","0","1","0","5fbade0c4594d6b7c7d96ca9","","null","","","","","","","learning/Slide6.JPG","null","","","","","",""
"html-keyboard-response","22","2121108","0.0-5.0-1.5","FL","xtbpfv8d5p","1920","1080","0","1","0","5fbade0c4594d6b7c7d96ca9","","null","","","learningBlock1","","","","That was a dep.","null","","","","","",""
"html-keyboard-response","23","2122111","0.0-5.0-2.5","FL","xtbpfv8d5p","1920","1080","0","1","0","5fbade0c4594d6b7c7d96ca9","","null","","","learningBlock1","","","","<div style=""font-size:60px;""> </div>","null","FL","learning/Slide6.JPG","That was a dep.","","",""
"image-keyboard-response","24","2122288","0.0-5.0-0.6","FL","xtbpfv8d5p","1920","1080","0","1","0","5fbade0c4594d6b7c7d96ca9","","null","","","","","","","learning/Slide7.JPG","null","","","","","",""
"html-keyboard-response","25","2123441","0.0-5.0-1.6","FL","xtbpfv8d5p","1920","1080","0","1","0","5fbade0c4594d6b7c7d96ca9","","null","","","learningBlock1","","","","That was a wug.","null","","","","","",""
"html-keyboard-response","26","2124444","0.0-5.0-2.6","FL","xtbpfv8d5p","1920","1080","0","1","0","5fbade0c4594d6b7c7d96ca9","","null","","","learningBlock1","","","","<div style=""font-size:60px;""> </div>","null","FL","learning/Slide7.JPG","That was a wug.","","",""
"image-keyboard-response","27","2124622","0.0-5.0-0.7","FL","xtbpfv8d5p","1920","1080","0","1","0","5fbade0c4594d6b7c7d96ca9","","null","","","","","","","learning/Slide8.JPG","null","","","","","",""
"html-keyboard-response","28","2125773","0.0-5.0-1.7","FL","xtbpfv8d5p","1920","1080","0","1","0","5fbade0c4594d6b7c7d96ca9","","null","","","learningBlock1","","","","That was a bim.","null","","","","","",""
"html-keyboard-response","29","2126775","0.0-5.0-2.7","FL","xtbpfv8d5p","1920","1080","0","1","0","5fbade0c4594d6b7c7d96ca9","","null","","","learningBlock1","","","","<div style=""font-size:60px;""> </div>","null","FL","learning/Slide8.JPG","That was a bim.","","",""
"image-keyboard-response","30","2126953","0.0-5.0-0.8","FL","xtbpfv8d5p","1920","1080","0","1","0","5fbade0c4594d6b7c7d96ca9","","null","","","","","","","learning/Slide9.JPG","null","","","","","",""
"html-keyboard-response","31","2128106","0.0-5.0-1.8","FL","xtbpfv8d5p","1920","1080","0","1","0","5fbade0c4594d6b7c7d96ca9","","null","","","learningBlock1","","","","That was a wug.","null","","","","","",""
"html-keyboard-response","32","2129108","0.0-5.0-2.8","FL","xtbpfv8d5p","1920","1080","0","1","0","5fbade0c4594d6b7c7d96ca9","","null","","","learningBlock1","","","","<div style=""font-size:60px;""> </div>","null","FL","learning/Slide9.JPG","That was a wug.","","",""
"image-keyboard-response","33","2129286","0.0-5.0-0.9","FL","xtbpfv8d5p","1920","1080","0","1","0","5fbade0c4594d6b7c7d96ca9","","null","","","","","","","learning/Slide10.JPG","null","","","","","",""
"html-keyboard-response","34","2130438","0.0-5.0-1.9","FL","xtbpfv8d5p","1920","1080","0","1","0","5fbade0c4594d6b7c7d96ca9","","null","","","learningBlock1","","","","That was a dep.","null","","","","","",""
"html-keyboard-response","35","2131441","0.0-5.0-2.9","FL","xtbpfv8d5p","1920","1080","0","1","0","5fbade0c4594d6b7c7d96ca9","","null","","","learningBlock1","","","","<div style=""font-size:60px;""> </div>","null","FL","learning/Slide10.JPG","That was a dep.","","",""
"image-keyboard-response","36","2131620","0.0-5.0-0.10","FL","xtbpfv8d5p","1920","1080","0","1","0","5fbade0c4594d6b7c7d96ca9","","null","","","","","","","learning/Slide11.JPG","null","","","","","",""
"html-keyboard-response","37","2132773","0.0-5.0-1.10","FL","xtbpfv8d5p","1920","1080","0","1","0","5fbade0c4594d6b7c7d96ca9","","null","","","learningBlock1","","","","That was a tob.","null","","","","","",""
"html-keyboard-response","38","2133775","0.0-5.0-2.10","FL","xtbpfv8d5p","1920","1080","0","1","0","5fbade0c4594d6b7c7d96ca9","","null","","","learningBlock1","","","","<div style=""font-size:60px;""> </div>","null","FL","learning/Slide11.JPG","That was a tob.","","",""
"image-keyboard-response","39","2133953","0.0-5.0-0.11","FL","xtbpfv8d5p","1920","1080","0","1","0","5fbade0c4594d6b7c7d96ca9","","null","","","","","","","learning/Slide12.JPG","null","","","","","",""
"html-keyboard-response","40","2135105","0.0-5.0-1.11","FL","xtbpfv8d5p","1920","1080","0","1","0","5fbade0c4594d6b7c7d96ca9","","null","","","learningBlock1","","","","That was a dep.","null","","","","","",""
"html-keyboard-response","41","2136107","0.0-5.0-2.11","FL","xtbpfv8d5p","1920","1080","0","1","0","5fbade0c4594d6b7c7d96ca9","","null","","","learningBlock1","","","","<div style=""font-size:60px;""> </div>","null","FL","learning/Slide12.JPG","That was a dep.","","",""
"image-keyboard-response","42","2136284","0.0-5.0-0.12","FL","xtbpfv8d5p","1920","1080","0","1","0","5fbade0c4594d6b7c7d96ca9","","null","","","","","","","learning/Slide13.JPG","null","","","","","",""
"html-keyboard-response","43","2137436","0.0-5.0-1.12","FL","xtbpfv8d5p","1920","1080","0","1","0","5fbade0c4594d6b7c7d96ca9","","null","","","learningBlock1","","","","That was a bim.","null","","","","","",""
"html-keyboard-response","44","2138439","0.0-5.0-2.12","FL","xtbpfv8d5p","1920","1080","0","1","0","5fbade0c4594d6b7c7d96ca9","","null","","","learningBlock1","","","","<div style=""font-size:60px;""> </div>","null","FL","learning/Slide13.JPG","That was a bim.","","",""
"image-keyboard-response","45","2138616","0.0-5.0-0.13","FL","xtbpfv8d5p","1920","1080","0","1","0","5fbade0c4594d6b7c7d96ca9","","null","","","","","","","learning/Slide14.JPG","null","","","","","",""
"html-keyboard-response","46","2139768","0.0-5.0-1.13","FL","xtbpfv8d5p","1920","1080","0","1","0","5fbade0c4594d6b7c7d96ca9","","null","","","learningBlock1","","","","That was a wug.","null","","","","","",""
"html-keyboard-response","47","2140770","0.0-5.0-2.13","FL","xtbpfv8d5p","1920","1080","0","1","0","5fbade0c4594d6b7c7d96ca9","","null","","","learningBlock1","","","","<div style=""font-size:60px;""> </div>","null","FL","learning/Slide14.JPG","That was a wug.","","",""
"image-keyboard-response","48","2140948","0.0-5.0-0.14","FL","xtbpfv8d5p","1920","1080","0","1","0","5fbade0c4594d6b7c7d96ca9","","null","","","","","","","learning/Slide15.JPG","null","","","","","",""
"html-keyboard-response","49","2142101","0.0-5.0-1.14","FL","xtbpfv8d5p","1920","1080","0","1","0","5fbade0c4594d6b7c7d96ca9","","null","","","learningBlock1","","","","That was a tob.","null","","","","","",""
"html-keyboard-response","50","2143102","0.0-5.0-2.14","FL","xtbpfv8d5p","1920","1080","0","1","0","5fbade0c4594d6b7c7d96ca9","","null","","","learningBlock1","","","","<div style=""font-size:60px;""> </div>","null","FL","learning/Slide15.JPG","That was a tob.","","",""
"image-keyboard-response","51","2143280","0.0-5.0-0.15","FL","xtbpfv8d5p","1920","1080","0","1","0","5fbade0c4594d6b7c7d96ca9","","null","","","","","","","learning/Slide16.JPG","null","","","","","",""
"html-keyboard-response","52","2144434","0.0-5.0-1.15","FL","xtbpfv8d5p","1920","1080","0","1","0","5fbade0c4594d6b7c7d96ca9","","null","","","learningBlock1","","","","That was a dep.","null","","","","","",""
"html-keyboard-response","53","2145436","0.0-5.0-2.15","FL","xtbpfv8d5p","1920","1080","0","1","0","5fbade0c4594d6b7c7d96ca9","","null","","","learningBlock1","","","","<div style=""font-size:60px;""> </div>","null","FL","learning/Slide16.JPG","That was a dep.","","",""
"image-keyboard-response","54","2145614","0.0-5.0-0.16","FL","xtbpfv8d5p","1920","1080","0","1","0","5fbade0c4594d6b7c7d96ca9","","null","","","","","","","learning/Slide17.JPG","null","","","","","",""
"html-keyboard-response","55","2146767","0.0-5.0-1.16","FL","xtbpfv8d5p","1920","1080","0","1","0","5fbade0c4594d6b7c7d96ca9","","null","","","learningBlock1","","","","That was a bim.","null","","","","","",""
"html-keyboard-response","56","2147770","0.0-5.0-2.16","FL","xtbpfv8d5p","1920","1080","0","1","0","5fbade0c4594d6b7c7d96ca9","","null","","","learningBlock1","","","","<div style=""font-size:60px;""> </div>","null","FL","learning/Slide17.JPG","That was a bim.","","",""
"image-keyboard-response","57","2147948","0.0-5.0-0.17","FL","xtbpfv8d5p","1920","1080","0","1","0","5fbade0c4594d6b7c7d96ca9","","null","","","","","","","learning/Slide18.JPG","null","","","","","",""
"html-keyboard-response","58","2149101","0.0-5.0-1.17","FL","xtbpfv8d5p","1920","1080","0","1","0","5fbade0c4594d6b7c7d96ca9","","null","","","learningBlock1","","","","That was a tob.","null","","","","","",""
"html-keyboard-response","59","2150103","0.0-5.0-2.17","FL","xtbpfv8d5p","1920","1080","0","1","0","5fbade0c4594d6b7c7d96ca9","","null","","","learningBlock1","","","","<div style=""font-size:60px;""> </div>","null","FL","learning/Slide18.JPG","That was a tob.","","",""
"image-keyboard-response","60","2150280","0.0-5.0-0.18","FL","xtbpfv8d5p","1920","1080","0","1","0","5fbade0c4594d6b7c7d96ca9","","null","","","","","","","learning/Slide19.JPG","null","","","","","",""
"html-keyboard-response","61","2151432","0.0-5.0-1.18","FL","xtbpfv8d5p","1920","1080","0","1","0","5fbade0c4594d6b7c7d96ca9","","null","","","learningBlock1","","","","That was a wug.","null","","","","","",""
"html-keyboard-response","62","2152435","0.0-5.0-2.18","FL","xtbpfv8d5p","1920","1080","0","1","0","5fbade0c4594d6b7c7d96ca9","","null","","","learningBlock1","","","","<div style=""font-size:60px;""> </div>","null","FL","learning/Slide19.JPG","That was a wug.","","",""
"image-keyboard-response","63","2152613","0.0-5.0-0.19","FL","xtbpfv8d5p","1920","1080","0","1","0","5fbade0c4594d6b7c7d96ca9","","null","","","","","","","learning/Slide20.JPG","null","","","","","",""
"html-keyboard-response","64","2153766","0.0-5.0-1.19","FL","xtbpfv8d5p","1920","1080","0","1","0","5fbade0c4594d6b7c7d96ca9","","null","","","learningBlock1","","","","That was a bim.","null","","","","","",""
"html-keyboard-response","65","2154768","0.0-5.0-2.19","FL","xtbpfv8d5p","1920","1080","0","1","0","5fbade0c4594d6b7c7d96ca9","","null","","","learningBlock1","","","","<div style=""font-size:60px;""> </div>","null","FL","learning/Slide20.JPG","That was a bim.","","",""
"image-keyboard-response","66","2154945","0.0-5.0-0.20","FL","xtbpfv8d5p","1920","1080","0","1","0","5fbade0c4594d6b7c7d96ca9","","null","","","","","","","learning/Slide21.JPG","null","","","","","",""
"html-keyboard-response","67","2156100","0.0-5.0-1.20","FL","xtbpfv8d5p","1920","1080","0","1","0","5fbade0c4594d6b7c7d96ca9","","null","","","learningBlock1","","","","That was a dep.","null","","","","","",""
"html-keyboard-response","68","2157102","0.0-5.0-2.20","FL","xtbpfv8d5p","1920","1080","0","1","0","5fbade0c4594d6b7c7d96ca9","","null","","","learningBlock1","","","","<div style=""font-size:60px;""> </div>","null","FL","learning/Slide21.JPG","That was a dep.","","",""
"image-keyboard-response","69","2157283","0.0-5.0-0.21","FL","xtbpfv8d5p","1920","1080","0","1","0","5fbade0c4594d6b7c7d96ca9","","null","","","","","","","learning/Slide22.JPG","null","","","","","",""
"html-keyboard-response","70","2158436","0.0-5.0-1.21","FL","xtbpfv8d5p","1920","1080","0","1","0","5fbade0c4594d6b7c7d96ca9","","null","","","learningBlock1","","","","That was a bim.","null","","","","","",""
"html-keyboard-response","71","2159438","0.0-5.0-2.21","FL","xtbpfv8d5p","1920","1080","0","1","0","5fbade0c4594d6b7c7d96ca9","","null","","","learningBlock1","","","","<div style=""font-size:60px;""> </div>","null","FL","learning/Slide22.JPG","That was a bim.","","",""
"image-keyboard-response","72","2159616","0.0-5.0-0.22","FL","xtbpfv8d5p","1920","1080","0","1","0","5fbade0c4594d6b7c7d96ca9","","null","","","","","","","learning/Slide23.JPG","null","","","","","",""
"html-keyboard-response","73","2160769","0.0-5.0-1.22","FL","xtbpfv8d5p","1920","1080","0","1","0","5fbade0c4594d6b7c7d96ca9","","null","","","learningBlock1","","","","That was a tob.","null","","","","","",""
"html-keyboard-response","74","2161772","0.0-5.0-2.22","FL","xtbpfv8d5p","1920","1080","0","1","0","5fbade0c4594d6b7c7d96ca9","","null","","","learningBlock1","","","","<div style=""font-size:60px;""> </div>","null","FL","learning/Slide23.JPG","That was a tob.","","",""
"image-keyboard-response","75","2161950","0.0-5.0-0.23","FL","xtbpfv8d5p","1920","1080","0","1","0","5fbade0c4594d6b7c7d96ca9","","null","","","","","","","learning/Slide24.JPG","null","","","","","",""
"html-keyboard-response","76","2163103","0.0-5.0-1.23","FL","xtbpfv8d5p","1920","1080","0","1","0","5fbade0c4594d6b7c7d96ca9","","null","","","learningBlock1","","","","That was a wug.","null","","","","","",""
"html-keyboard-response","77","2164105","0.0-5.0-2.23","FL","xtbpfv8d5p","1920","1080","0","1","0","5fbade0c4594d6b7c7d96ca9","","null","","","learningBlock1","","","","<div style=""font-size:60px;""> </div>","null","FL","learning/Slide24.JPG","That was a wug.","","",""
"image-keyboard-response","78","2164283","0.0-5.0-0.24","FL","xtbpfv8d5p","1920","1080","0","1","0","5fbade0c4594d6b7c7d96ca9","","null","","","","","","","learning/Slide25.JPG","null","","","","","",""
"html-keyboard-response","79","2165435","0.0-5.0-1.24","FL","xtbpfv8d5p","1920","1080","0","1","0","5fbade0c4594d6b7c7d96ca9","","null","","","learningBlock1","","","","That was a dep.","null","","","","","",""
"html-keyboard-response","80","2166437","0.0-5.0-2.24","FL","xtbpfv8d5p","1920","1080","0","1","0","5fbade0c4594d6b7c7d96ca9","","null","","","learningBlock1","","","","<div style=""font-size:60px;""> </div>","null","FL","learning/Slide25.JPG","That was a dep.","","",""
"image-keyboard-response","81","2166615","0.0-5.0-0.25","FL","xtbpfv8d5p","1920","1080","0","1","0","5fbade0c4594d6b7c7d96ca9","","null","","","","","","","learning/Slide26.JPG","null","","","","","",""
"html-keyboard-response","82","2167769","0.0-5.0-1.25","FL","xtbpfv8d5p","1920","1080","0","1","0","5fbade0c4594d6b7c7d96ca9","","null","","","learningBlock1","","","","That was a wug.","null","","","","","",""
"html-keyboard-response","83","2168772","0.0-5.0-2.25","FL","xtbpfv8d5p","1920","1080","0","1","0","5fbade0c4594d6b7c7d96ca9","","null","","","learningBlock1","","","","<div style=""font-size:60px;""> </div>","null","FL","learning/Slide26.JPG","That was a wug.","","",""
"image-keyboard-response","84","2168949","0.0-5.0-0.26","FL","xtbpfv8d5p","1920","1080","0","1","0","5fbade0c4594d6b7c7d96ca9","","null","","","","","","","learning/Slide27.JPG","null","","","","","",""
"html-keyboard-response","85","2170102","0.0-5.0-1.26","FL","xtbpfv8d5p","1920","1080","0","1","0","5fbade0c4594d6b7c7d96ca9","","null","","","learningBlock1","","","","That was a bim.","null","","","","","",""
"html-keyboard-response","86","2171105","0.0-5.0-2.26","FL","xtbpfv8d5p","1920","1080","0","1","0","5fbade0c4594d6b7c7d96ca9","","null","","","learningBlock1","","","","<div style=""font-size:60px;""> </div>","null","FL","learning/Slide27.JPG","That was a bim.","","",""
"image-keyboard-response","87","2171283","0.0-5.0-0.27","FL","xtbpfv8d5p","1920","1080","0","1","0","5fbade0c4594d6b7c7d96ca9","","null","","","","","","","learning/Slide28.JPG","null","","","","","",""
"html-keyboard-response","88","2172437","0.0-5.0-1.27","FL","xtbpfv8d5p","1920","1080","0","1","0","5fbade0c4594d6b7c7d96ca9","","null","","","learningBlock1","","","","That was a dep.","null","","","","","",""
"html-keyboard-response","89","2173440","0.0-5.0-2.27","FL","xtbpfv8d5p","1920","1080","0","1","0","5fbade0c4594d6b7c7d96ca9","","null","","","learningBlock1","","","","<div style=""font-size:60px;""> </div>","null","FL","learning/Slide28.JPG","That was a dep.","","",""
"image-keyboard-response","90","2173617","0.0-5.0-0.28","FL","xtbpfv8d5p","1920","1080","0","1","0","5fbade0c4594d6b7c7d96ca9","","null","","","","","","","learning/Slide29.JPG","null","","","","","",""
"html-keyboard-response","91","2174769","0.0-5.0-1.28","FL","xtbpfv8d5p","1920","1080","0","1","0","5fbade0c4594d6b7c7d96ca9","","null","","","learningBlock1","","","","That was a tob.","null","","","","","",""
"html-keyboard-response","92","2175770","0.0-5.0-2.28","FL","xtbpfv8d5p","1920","1080","0","1","0","5fbade0c4594d6b7c7d96ca9","","null","","","learningBlock1","","","","<div style=""font-size:60px;""> </div>","null","FL","learning/Slide29.JPG","That was a tob.","","",""
"image-keyboard-response","93","2175946","0.0-5.0-0.29","FL","xtbpfv8d5p","1920","1080","0","1","0","5fbade0c4594d6b7c7d96ca9","","null","","","","","","","learning/Slide30.JPG","null","","","","","",""
"html-keyboard-response","94","2177098","0.0-5.0-1.29","FL","xtbpfv8d5p","1920","1080","0","1","0","5fbade0c4594d6b7c7d96ca9","","null","","","learningBlock1","","","","That was a dep.","null","","","","","",""
"html-keyboard-response","95","2178101","0.0-5.0-2.29","FL","xtbpfv8d5p","1920","1080","0","1","0","5fbade0c4594d6b7c7d96ca9","","null","","","learningBlock1","","","","<div style=""font-size:60px;""> </div>","null","FL","learning/Slide30.JPG","That was a dep.","","",""
"image-keyboard-response","96","2178278","0.0-5.0-0.30","FL","xtbpfv8d5p","1920","1080","0","1","0","5fbade0c4594d6b7c7d96ca9","","null","","","","","","","learning/Slide31.JPG","null","","","","","",""
"html-keyboard-response","97","2179432","0.0-5.0-1.30","FL","xtbpfv8d5p","1920","1080","0","1","0","5fbade0c4594d6b7c7d96ca9","","null","","","learningBlock1","","","","That was a wug.","null","","","","","",""
"html-keyboard-response","98","2180434","0.0-5.0-2.30","FL","xtbpfv8d5p","1920","1080","0","1","0","5fbade0c4594d6b7c7d96ca9","","null","","","learningBlock1","","","","<div style=""font-size:60px;""> </div>","null","FL","learning/Slide31.JPG","That was a wug.","","",""
"image-keyboard-response","99","2180611","0.0-5.0-0.31","FL","xtbpfv8d5p","1920","1080","0","1","0","5fbade0c4594d6b7c7d96ca9","","null","","","","","","","learning/Slide32.JPG","null","","","","","",""
"html-keyboard-response","100","2181765","0.0-5.0-1.31","FL","xtbpfv8d5p","1920","1080","0","1","0","5fbade0c4594d6b7c7d96ca9","","null","","","learningBlock1","","","","That was a tob.","null","","","","","",""
"html-keyboard-response","101","2182767","0.0-5.0-2.31","FL","xtbpfv8d5p","1920","1080","0","1","0","5fbade0c4594d6b7c7d96ca9","","null","","","learningBlock1","","","","<div style=""font-size:60px;""> </div>","null","FL","learning/Slide32.JPG","That was a tob.","","",""
"image-keyboard-response","102","2182944","0.0-5.0-0.32","FL","xtbpfv8d5p","1920","1080","0","1","0","5fbade0c4594d6b7c7d96ca9","","null","","","","","","","learning/Slide33.JPG","null","","","","","",""
"html-keyboard-response","103","2184096","0.0-5.0-1.32","FL","xtbpfv8d5p","1920","1080","0","1","0","5fbade0c4594d6b7c7d96ca9","","null","","","learningBlock1","","","","That was a bim.","null","","","","","",""
"html-keyboard-response","104","2185099","0.0-5.0-2.32","FL","xtbpfv8d5p","1920","1080","0","1","0","5fbade0c4594d6b7c7d96ca9","","null","","","learningBlock1","","","","<div style=""font-size:60px;""> </div>","null","FL","learning/Slide33.JPG","That was a bim.","","",""
"image-keyboard-response","105","2185277","0.0-5.0-0.33","FL","xtbpfv8d5p","1920","1080","0","1","0","5fbade0c4594d6b7c7d96ca9","","null","","","","","","","learning/Slide34.JPG","null","","","","","",""
"html-keyboard-response","106","2186428","0.0-5.0-1.33","FL","xtbpfv8d5p","1920","1080","0","1","0","5fbade0c4594d6b7c7d96ca9","","null","","","learningBlock1","","","","That was a tob.","null","","","","","",""
"html-keyboard-response","107","2187430","0.0-5.0-2.33","FL","xtbpfv8d5p","1920","1080","0","1","0","5fbade0c4594d6b7c7d96ca9","","null","","","learningBlock1","","","","<div style=""font-size:60px;""> </div>","null","FL","learning/Slide34.JPG","That was a tob.","","",""
"image-keyboard-response","108","2187607","0.0-5.0-0.34","FL","xtbpfv8d5p","1920","1080","0","1","0","5fbade0c4594d6b7c7d96ca9","","null","","","","","","","learning/Slide35.JPG","null","","","","","",""
"html-keyboard-response","109","2188761","0.0-5.0-1.34","FL","xtbpfv8d5p","1920","1080","0","1","0","5fbade0c4594d6b7c7d96ca9","","null","","","learningBlock1","","","","That was a bim.","null","","","","","",""
"html-keyboard-response","110","2189763","0.0-5.0-2.34","FL","xtbpfv8d5p","1920","1080","0","1","0","5fbade0c4594d6b7c7d96ca9","","null","","","learningBlock1","","","","<div style=""font-size:60px;""> </div>","null","FL","learning/Slide35.JPG","That was a bim.","","",""
"image-keyboard-response","111","2189941","0.0-5.0-0.35","FL","xtbpfv8d5p","1920","1080","0","1","0","5fbade0c4594d6b7c7d96ca9","","null","","","","","","","learning/Slide36.JPG","null","","","","","",""
"html-keyboard-response","112","2191094","0.0-5.0-1.35","FL","xtbpfv8d5p","1920","1080","0","1","0","5fbade0c4594d6b7c7d96ca9","","null","","","learningBlock1","","","","That was a dep.","null","","","","","",""
"html-keyboard-response","113","2192096","0.0-5.0-2.35","FL","xtbpfv8d5p","1920","1080","0","1","0","5fbade0c4594d6b7c7d96ca9","","null","","","learningBlock1","","","","<div style=""font-size:60px;""> </div>","null","FL","learning/Slide36.JPG","That was a dep.","","",""
"image-keyboard-response","114","2192273","0.0-5.0-0.36","FL","xtbpfv8d5p","1920","1080","0","1","0","5fbade0c4594d6b7c7d96ca9","","null","","","","","","","learning/Slide37.JPG","null","","","","","",""
"html-keyboard-response","115","2193425","0.0-5.0-1.36","FL","xtbpfv8d5p","1920","1080","0","1","0","5fbade0c4594d6b7c7d96ca9","","null","","","learningBlock1","","","","That was a tob.","null","","","","","",""
"html-keyboard-response","116","2194427","0.0-5.0-2.36","FL","xtbpfv8d5p","1920","1080","0","1","0","5fbade0c4594d6b7c7d96ca9","","null","","","learningBlock1","","","","<div style=""font-size:60px;""> </div>","null","FL","learning/Slide37.JPG","That was a tob.","","",""
"image-keyboard-response","117","2194605","0.0-5.0-0.37","FL","xtbpfv8d5p","1920","1080","0","1","0","5fbade0c4594d6b7c7d96ca9","","null","","","","","","","learning/Slide38.JPG","null","","","","","",""
"html-keyboard-response","118","2195759","0.0-5.0-1.37","FL","xtbpfv8d5p","1920","1080","0","1","0","5fbade0c4594d6b7c7d96ca9","","null","","","learningBlock1","","","","That was a wug.","null","","","","","",""
"html-keyboard-response","119","2196761","0.0-5.0-2.37","FL","xtbpfv8d5p","1920","1080","0","1","0","5fbade0c4594d6b7c7d96ca9","","null","","","learningBlock1","","","","<div style=""font-size:60px;""> </div>","null","FL","learning/Slide38.JPG","That was a wug.","","",""
"image-keyboard-response","120","2196937","0.0-5.0-0.38","FL","xtbpfv8d5p","1920","1080","0","1","0","5fbade0c4594d6b7c7d96ca9","","null","","","","","","","learning/Slide39.JPG","null","","","","","",""
"html-keyboard-response","121","2198091","0.0-5.0-1.38","FL","xtbpfv8d5p","1920","1080","0","1","0","5fbade0c4594d6b7c7d96ca9","","null","","","learningBlock1","","","","That was a bim.","null","","","","","",""
"html-keyboard-response","122","2199092","0.0-5.0-2.38","FL","xtbpfv8d5p","1920","1080","0","1","0","5fbade0c4594d6b7c7d96ca9","","null","","","learningBlock1","","","","<div style=""font-size:60px;""> </div>","null","FL","learning/Slide39.JPG","That was a bim.","","",""
"image-keyboard-response","123","2199269","0.0-5.0-0.39","FL","xtbpfv8d5p","1920","1080","0","1","0","5fbade0c4594d6b7c7d96ca9","","null","","","","","","","learning/Slide40.JPG","null","","","","","",""
"html-keyboard-response","124","2200421","0.0-5.0-1.39","FL","xtbpfv8d5p","1920","1080","0","1","0","5fbade0c4594d6b7c7d96ca9","","null","","","learningBlock1","","","","That was a tob.","null","","","","","",""
"html-keyboard-response","125","2201423","0.0-5.0-2.39","FL","xtbpfv8d5p","1920","1080","0","1","0","5fbade0c4594d6b7c7d96ca9","","null","","","learningBlock1","","","","<div style=""font-size:60px;""> </div>","null","FL","learning/Slide40.JPG","That was a tob.","","",""
"image-keyboard-response","126","2201600","0.0-5.0-0.40","FL","xtbpfv8d5p","1920","1080","0","1","0","5fbade0c4594d6b7c7d96ca9","","null","","","","","","","learning/Slide41.JPG","null","","","","","",""
"html-keyboard-response","127","2202753","0.0-5.0-1.40","FL","xtbpfv8d5p","1920","1080","0","1","0","5fbade0c4594d6b7c7d96ca9","","null","","","learningBlock1","","","","That was a bim.","null","","","","","",""
"html-keyboard-response","128","2203756","0.0-5.0-2.40","FL","xtbpfv8d5p","1920","1080","0","1","0","5fbade0c4594d6b7c7d96ca9","","null","","","learningBlock1","","","","<div style=""font-size:60px;""> </div>","null","FL","learning/Slide41.JPG","That was a bim.","","",""
"image-keyboard-response","129","2203933","0.0-5.0-0.41","FL","xtbpfv8d5p","1920","1080","0","1","0","5fbade0c4594d6b7c7d96ca9","","null","","","","","","","learning/Slide42.JPG","null","","","","","",""
"html-keyboard-response","130","2205086","0.0-5.0-1.41","FL","xtbpfv8d5p","1920","1080","0","1","0","5fbade0c4594d6b7c7d96ca9","","null","","","learningBlock1","","","","That was a dep.","null","","","","","",""
"html-keyboard-response","131","2206088","0.0-5.0-2.41","FL","xtbpfv8d5p","1920","1080","0","1","0","5fbade0c4594d6b7c7d96ca9","","null","","","learningBlock1","","","","<div style=""font-size:60px;""> </div>","null","FL","learning/Slide42.JPG","That was a dep.","","",""
"image-keyboard-response","132","2206266","0.0-5.0-0.42","FL","xtbpfv8d5p","1920","1080","0","1","0","5fbade0c4594d6b7c7d96ca9","","null","","","","","","","learning/Slide43.JPG","null","","","","","",""
"html-keyboard-response","133","2207419","0.0-5.0-1.42","FL","xtbpfv8d5p","1920","1080","0","1","0","5fbade0c4594d6b7c7d96ca9","","null","","","learningBlock1","","","","That was a wug.","null","","","","","",""
"html-keyboard-response","134","2208421","0.0-5.0-2.42","FL","xtbpfv8d5p","1920","1080","0","1","0","5fbade0c4594d6b7c7d96ca9","","null","","","learningBlock1","","","","<div style=""font-size:60px;""> </div>","null","FL","learning/Slide43.JPG","That was a wug.","","",""
"image-keyboard-response","135","2208599","0.0-5.0-0.43","FL","xtbpfv8d5p","1920","1080","0","1","0","5fbade0c4594d6b7c7d96ca9","","null","","","","","","","learning/Slide44.JPG","null","","","","","",""
"html-keyboard-response","136","2209751","0.0-5.0-1.43","FL","xtbpfv8d5p","1920","1080","0","1","0","5fbade0c4594d6b7c7d96ca9","","null","","","learningBlock1","","","","That was a bim.","null","","","","","",""
"html-keyboard-response","137","2210754","0.0-5.0-2.43","FL","xtbpfv8d5p","1920","1080","0","1","0","5fbade0c4594d6b7c7d96ca9","","null","","","learningBlock1","","","","<div style=""font-size:60px;""> </div>","null","FL","learning/Slide44.JPG","That was a bim.","","",""
"image-keyboard-response","138","2210933","0.0-5.0-0.44","FL","xtbpfv8d5p","1920","1080","0","1","0","5fbade0c4594d6b7c7d96ca9","","null","","","","","","","learning/Slide45.JPG","null","","","","","",""
"html-keyboard-response","139","2212087","0.0-5.0-1.44","FL","xtbpfv8d5p","1920","1080","0","1","0","5fbade0c4594d6b7c7d96ca9","","null","","","learningBlock1","","","","That was a wug.","null","","","","","",""
"html-keyboard-response","140","2213089","0.0-5.0-2.44","FL","xtbpfv8d5p","1920","1080","0","1","0","5fbade0c4594d6b7c7d96ca9","","null","","","learningBlock1","","","","<div style=""font-size:60px;""> </div>","null","FL","learning/Slide45.JPG","That was a wug.","","",""
"image-keyboard-response","141","2213267","0.0-5.0-0.45","FL","xtbpfv8d5p","1920","1080","0","1","0","5fbade0c4594d6b7c7d96ca9","","null","","","","","","","learning/Slide46.JPG","null","","","","","",""
"html-keyboard-response","142","2214421","0.0-5.0-1.45","FL","xtbpfv8d5p","1920","1080","0","1","0","5fbade0c4594d6b7c7d96ca9","","null","","","learningBlock1","","","","That was a dep.","null","","","","","",""
"html-keyboard-response","143","2215423","0.0-5.0-2.45","FL","xtbpfv8d5p","1920","1080","0","1","0","5fbade0c4594d6b7c7d96ca9","","null","","","learningBlock1","","","","<div style=""font-size:60px;""> </div>","null","FL","learning/Slide46.JPG","That was a dep.","","",""
"image-keyboard-response","144","2215601","0.0-5.0-0.46","FL","xtbpfv8d5p","1920","1080","0","1","0","5fbade0c4594d6b7c7d96ca9","","null","","","","","","","learning/Slide47.JPG","null","","","","","",""
"html-keyboard-response","145","2216754","0.0-5.0-1.46","FL","xtbpfv8d5p","1920","1080","0","1","0","5fbade0c4594d6b7c7d96ca9","","null","","","learningBlock1","","","","That was a tob.","null","","","","","",""
"html-keyboard-response","146","2217757","0.0-5.0-2.46","FL","xtbpfv8d5p","1920","1080","0","1","0","5fbade0c4594d6b7c7d96ca9","","null","","","learningBlock1","","","","<div style=""font-size:60px;""> </div>","null","FL","learning/Slide47.JPG","That was a tob.","","",""
"image-keyboard-response","147","2217936","0.0-5.0-0.47","FL","xtbpfv8d5p","1920","1080","0","1","0","5fbade0c4594d6b7c7d96ca9","","null","","","","","","","learning/Slide48.JPG","null","","","","","",""
"html-keyboard-response","148","2219088","0.0-5.0-1.47","FL","xtbpfv8d5p","1920","1080","0","1","0","5fbade0c4594d6b7c7d96ca9","","null","","","learningBlock1","","","","That was a bim.","null","","","","","",""
"html-keyboard-response","149","2220089","0.0-5.0-2.47","FL","xtbpfv8d5p","1920","1080","0","1","0","5fbade0c4594d6b7c7d96ca9","","null","","","learningBlock1","","","","<div style=""font-size:60px;""> </div>","null","FL","learning/Slide48.JPG","That was a bim.","","",""
"image-keyboard-response","150","2220266","0.0-5.0-0.48","FL","xtbpfv8d5p","1920","1080","0","1","0","5fbade0c4594d6b7c7d96ca9","","null","","","","","","","learning/Slide49.JPG","null","","","","","",""
"html-keyboard-response","151","2221419","0.0-5.0-1.48","FL","xtbpfv8d5p","1920","1080","0","1","0","5fbade0c4594d6b7c7d96ca9","","null","","","learningBlock1","","","","That was a dep.","null","","","","","",""
"html-keyboard-response","152","2222421","0.0-5.0-2.48","FL","xtbpfv8d5p","1920","1080","0","1","0","5fbade0c4594d6b7c7d96ca9","","null","","","learningBlock1","","","","<div style=""font-size:60px;""> </div>","null","FL","learning/Slide49.JPG","That was a dep.","","",""
"image-keyboard-response","153","2222600","0.0-5.0-0.49","FL","xtbpfv8d5p","1920","1080","0","1","0","5fbade0c4594d6b7c7d96ca9","","null","","","","","","","learning/Slide50.JPG","null","","","","","",""
"html-keyboard-response","154","2223753","0.0-5.0-1.49","FL","xtbpfv8d5p","1920","1080","0","1","0","5fbade0c4594d6b7c7d96ca9","","null","","","learningBlock1","","","","That was a tob.","null","","","","","",""
"html-keyboard-response","155","2224756","0.0-5.0-2.49","FL","xtbpfv8d5p","1920","1080","0","1","0","5fbade0c4594d6b7c7d96ca9","","null","","","learningBlock1","","","","<div style=""font-size:60px;""> </div>","null","FL","learning/Slide50.JPG","That was a tob.","","",""
"image-keyboard-response","156","2224933","0.0-5.0-0.50","FL","xtbpfv8d5p","1920","1080","0","1","0","5fbade0c4594d6b7c7d96ca9","","null","","","","","","","learning/Slide51.JPG","null","","","","","",""
"html-keyboard-response","157","2226086","0.0-5.0-1.50","FL","xtbpfv8d5p","1920","1080","0","1","0","5fbade0c4594d6b7c7d96ca9","","null","","","learningBlock1","","","","That was a bim.","null","","","","","",""
"html-keyboard-response","158","2227087","0.0-5.0-2.50","FL","xtbpfv8d5p","1920","1080","0","1","0","5fbade0c4594d6b7c7d96ca9","","null","","","learningBlock1","","","","<div style=""font-size:60px;""> </div>","null","FL","learning/Slide51.JPG","That was a bim.","","",""
"image-keyboard-response","159","2227265","0.0-5.0-0.51","FL","xtbpfv8d5p","1920","1080","0","1","0","5fbade0c4594d6b7c7d96ca9","","null","","","","","","","learning/Slide52.JPG","null","","","","","",""
"html-keyboard-response","160","2228418","0.0-5.0-1.51","FL","xtbpfv8d5p","1920","1080","0","1","0","5fbade0c4594d6b7c7d96ca9","","null","","","learningBlock1","","","","That was a wug.","null","","","","","",""
"html-keyboard-response","161","2229421","0.0-5.0-2.51","FL","xtbpfv8d5p","1920","1080","0","1","0","5fbade0c4594d6b7c7d96ca9","","null","","","learningBlock1","","","","<div style=""font-size:60px;""> </div>","null","FL","learning/Slide52.JPG","That was a wug.","","",""
"image-keyboard-response","162","2229600","0.0-5.0-0.52","FL","xtbpfv8d5p","1920","1080","0","1","0","5fbade0c4594d6b7c7d96ca9","","null","","","","","","","learning/Slide53.JPG","null","","","","","",""
"html-keyboard-response","163","2230753","0.0-5.0-1.52","FL","xtbpfv8d5p","1920","1080","0","1","0","5fbade0c4594d6b7c7d96ca9","","null","","","learningBlock1","","","","That was a tob.","null","","","","","",""
"html-keyboard-response","164","2231755","0.0-5.0-2.52","FL","xtbpfv8d5p","1920","1080","0","1","0","5fbade0c4594d6b7c7d96ca9","","null","","","learningBlock1","","","","<div style=""font-size:60px;""> </div>","null","FL","learning/Slide53.JPG","That was a tob.","","",""
"image-keyboard-response","165","2231932","0.0-5.0-0.53","FL","xtbpfv8d5p","1920","1080","0","1","0","5fbade0c4594d6b7c7d96ca9","","null","","","","","","","learning/Slide54.JPG","null","","","","","",""
"html-keyboard-response","166","2233086","0.0-5.0-1.53","FL","xtbpfv8d5p","1920","1080","0","1","0","5fbade0c4594d6b7c7d96ca9","","null","","","learningBlock1","","","","That was a dep.","null","","","","","",""
"html-keyboard-response","167","2234088","0.0-5.0-2.53","FL","xtbpfv8d5p","1920","1080","0","1","0","5fbade0c4594d6b7c7d96ca9","","null","","","learningBlock1","","","","<div style=""font-size:60px;""> </div>","null","FL","learning/Slide54.JPG","That was a dep.","","",""
"image-keyboard-response","168","2234266","0.0-5.0-0.54","FL","xtbpfv8d5p","1920","1080","0","1","0","5fbade0c4594d6b7c7d96ca9","","null","","","","","","","learning/Slide55.JPG","null","","","","","",""
"html-keyboard-response","169","2235422","0.0-5.0-1.54","FL","xtbpfv8d5p","1920","1080","0","1","0","5fbade0c4594d6b7c7d96ca9","","null","","","learningBlock1","","","","That was a bim.","null","","","","","",""
"html-keyboard-response","170","2236424","0.0-5.0-2.54","FL","xtbpfv8d5p","1920","1080","0","1","0","5fbade0c4594d6b7c7d96ca9","","null","","","learningBlock1","","","","<div style=""font-size:60px;""> </div>","null","FL","learning/Slide55.JPG","That was a bim.","","",""
"image-keyboard-response","171","2236601","0.0-5.0-0.55","FL","xtbpfv8d5p","1920","1080","0","1","0","5fbade0c4594d6b7c7d96ca9","","null","","","","","","","learning/Slide56.JPG","null","","","","","",""
"html-keyboard-response","172","2237754","0.0-5.0-1.55","FL","xtbpfv8d5p","1920","1080","0","1","0","5fbade0c4594d6b7c7d96ca9","","null","","","learningBlock1","","","","That was a tob.","null","","","","","",""
"html-keyboard-response","173","2238756","0.0-5.0-2.55","FL","xtbpfv8d5p","1920","1080","0","1","0","5fbade0c4594d6b7c7d96ca9","","null","","","learningBlock1","","","","<div style=""font-size:60px;""> </div>","null","FL","learning/Slide56.JPG","That was a tob.","","",""
"image-keyboard-response","174","2238935","0.0-5.0-0.56","FL","xtbpfv8d5p","1920","1080","0","1","0","5fbade0c4594d6b7c7d96ca9","","null","","","","","","","learning/Slide57.JPG","null","","","","","",""
"html-keyboard-response","175","2240088","0.0-5.0-1.56","FL","xtbpfv8d5p","1920","1080","0","1","0","5fbade0c4594d6b7c7d96ca9","","null","","","learningBlock1","","","","That was a dep.","null","","","","","",""
"html-keyboard-response","176","2241090","0.0-5.0-2.56","FL","xtbpfv8d5p","1920","1080","0","1","0","5fbade0c4594d6b7c7d96ca9","","null","","","learningBlock1","","","","<div style=""font-size:60px;""> </div>","null","FL","learning/Slide57.JPG","That was a dep.","","",""
"image-keyboard-response","177","2241267","0.0-5.0-0.57","FL","xtbpfv8d5p","1920","1080","0","1","0","5fbade0c4594d6b7c7d96ca9","","null","","","","","","","learning/Slide58.JPG","null","","","","","",""
"html-keyboard-response","178","2242420","0.0-5.0-1.57","FL","xtbpfv8d5p","1920","1080","0","1","0","5fbade0c4594d6b7c7d96ca9","","null","","","learningBlock1","","","","That was a wug.","null","","","","","",""
"html-keyboard-response","179","2243423","0.0-5.0-2.57","FL","xtbpfv8d5p","1920","1080","0","1","0","5fbade0c4594d6b7c7d96ca9","","null","","","learningBlock1","","","","<div style=""font-size:60px;""> </div>","null","FL","learning/Slide58.JPG","That was a wug.","","",""
"image-keyboard-response","180","2243600","0.0-5.0-0.58","FL","xtbpfv8d5p","1920","1080","0","1","0","5fbade0c4594d6b7c7d96ca9","","null","","","","","","","learning/Slide59.JPG","null","","","","","",""
"html-keyboard-response","181","2244757","0.0-5.0-1.58","FL","xtbpfv8d5p","1920","1080","0","1","0","5fbade0c4594d6b7c7d96ca9","","null","","","learningBlock1","","","","That was a dep.","null","","","","","",""
"html-keyboard-response","182","2245763","0.0-5.0-2.58","FL","xtbpfv8d5p","1920","1080","0","1","0","5fbade0c4594d6b7c7d96ca9","","null","","","learningBlock1","","","","<div style=""font-size:60px;""> </div>","null","FL","learning/Slide59.JPG","That was a dep.","","",""
"image-keyboard-response","183","2245941","0.0-5.0-0.59","FL","xtbpfv8d5p","1920","1080","0","1","0","5fbade0c4594d6b7c7d96ca9","","null","","","","","","","learning/Slide60.JPG","null","","","","","",""
"html-keyboard-response","184","2247094","0.0-5.0-1.59","FL","xtbpfv8d5p","1920","1080","0","1","0","5fbade0c4594d6b7c7d96ca9","","null","","","learningBlock1","","","","That was a wug.","null","","","","","",""
"html-keyboard-response","185","2248095","0.0-5.0-2.59","FL","xtbpfv8d5p","1920","1080","0","1","0","5fbade0c4594d6b7c7d96ca9","","null","","","learningBlock1","","","","<div style=""font-size:60px;""> </div>","null","FL","learning/Slide60.JPG","That was a wug.","","",""
"image-keyboard-response","186","2248272","0.0-5.0-0.60","FL","xtbpfv8d5p","1920","1080","0","1","0","5fbade0c4594d6b7c7d96ca9","","null","","","","","","","learning/Slide61.JPG","null","","","","","",""
"html-keyboard-response","187","2249425","0.0-5.0-1.60","FL","xtbpfv8d5p","1920","1080","0","1","0","5fbade0c4594d6b7c7d96ca9","","null","","","learningBlock1","","","","That was a bim.","null","","","","","",""
"html-keyboard-response","188","2250428","0.0-5.0-2.60","FL","xtbpfv8d5p","1920","1080","0","1","0","5fbade0c4594d6b7c7d96ca9","","null","","","learningBlock1","","","","<div style=""font-size:60px;""> </div>","null","FL","learning/Slide61.JPG","That was a bim.","","",""
"image-keyboard-response","189","2250605","0.0-5.0-0.61","FL","xtbpfv8d5p","1920","1080","0","1","0","5fbade0c4594d6b7c7d96ca9","","null","","","","","","","learning/Slide62.JPG","null","","","","","",""
"html-keyboard-response","190","2251759","0.0-5.0-1.61","FL","xtbpfv8d5p","1920","1080","0","1","0","5fbade0c4594d6b7c7d96ca9","","null","","","learningBlock1","","","","That was a dep.","null","","","","","",""
"html-keyboard-response","191","2252760","0.0-5.0-2.61","FL","xtbpfv8d5p","1920","1080","0","1","0","5fbade0c4594d6b7c7d96ca9","","null","","","learningBlock1","","","","<div style=""font-size:60px;""> </div>","null","FL","learning/Slide62.JPG","That was a dep.","","",""
"image-keyboard-response","192","2252938","0.0-5.0-0.62","FL","xtbpfv8d5p","1920","1080","0","1","0","5fbade0c4594d6b7c7d96ca9","","null","","","","","","","learning/Slide63.JPG","null","","","","","",""
"html-keyboard-response","193","2254091","0.0-5.0-1.62","FL","xtbpfv8d5p","1920","1080","0","1","0","5fbade0c4594d6b7c7d96ca9","","null","","","learningBlock1","","","","That was a bim.","null","","","","","",""
"html-keyboard-response","194","2255093","0.0-5.0-2.62","FL","xtbpfv8d5p","1920","1080","0","1","0","5fbade0c4594d6b7c7d96ca9","","null","","","learningBlock1","","","","<div style=""font-size:60px;""> </div>","null","FL","learning/Slide63.JPG","That was a bim.","","",""
"image-keyboard-response","195","2255272","0.0-5.0-0.63","FL","xtbpfv8d5p","1920","1080","0","1","0","5fbade0c4594d6b7c7d96ca9","","null","","","","","","","learning/Slide64.JPG","null","","","","","",""
"html-keyboard-response","196","2256424","0.0-5.0-1.63","FL","xtbpfv8d5p","1920","1080","0","1","0","5fbade0c4594d6b7c7d96ca9","","null","","","learningBlock1","","","","That was a tob.","null","","","","","",""
"html-keyboard-response","197","2257427","0.0-5.0-2.63","FL","xtbpfv8d5p","1920","1080","0","1","0","5fbade0c4594d6b7c7d96ca9","","null","","","learningBlock1","","","","<div style=""font-size:60px;""> </div>","null","FL","learning/Slide64.JPG","That was a tob.","","",""
"image-keyboard-response","198","2257605","0.0-5.0-0.64","FL","xtbpfv8d5p","1920","1080","0","1","0","5fbade0c4594d6b7c7d96ca9","","null","","","","","","","learning/Slide65.JPG","null","","","","","",""
"html-keyboard-response","199","2258758","0.0-5.0-1.64","FL","xtbpfv8d5p","1920","1080","0","1","0","5fbade0c4594d6b7c7d96ca9","","null","","","learningBlock1","","","","That was a wug.","null","","","","","",""
"html-keyboard-response","200","2259760","0.0-5.0-2.64","FL","xtbpfv8d5p","1920","1080","0","1","0","5fbade0c4594d6b7c7d96ca9","","null","","","learningBlock1","","","","<div style=""font-size:60px;""> </div>","null","FL","learning/Slide65.JPG","That was a wug.","","",""
"image-keyboard-response","201","2259937","0.0-5.0-0.65","FL","xtbpfv8d5p","1920","1080","0","1","0","5fbade0c4594d6b7c7d96ca9","","null","","","","","","","learning/Slide66.JPG","null","","","","","",""
"html-keyboard-response","202","2261090","0.0-5.0-1.65","FL","xtbpfv8d5p","1920","1080","0","1","0","5fbade0c4594d6b7c7d96ca9","","null","","","learningBlock1","","","","That was a dep.","null","","","","","",""
"html-keyboard-response","203","2262092","0.0-5.0-2.65","FL","xtbpfv8d5p","1920","1080","0","1","0","5fbade0c4594d6b7c7d96ca9","","null","","","learningBlock1","","","","<div style=""font-size:60px;""> </div>","null","FL","learning/Slide66.JPG","That was a dep.","","",""
"image-keyboard-response","204","2262269","0.0-5.0-0.66","FL","xtbpfv8d5p","1920","1080","0","1","0","5fbade0c4594d6b7c7d96ca9","","null","","","","","","","learning/Slide67.JPG","null","","","","","",""
"html-keyboard-response","205","2263421","0.0-5.0-1.66","FL","xtbpfv8d5p","1920","1080","0","1","0","5fbade0c4594d6b7c7d96ca9","","null","","","learningBlock1","","","","That was a tob.","null","","","","","",""
"html-keyboard-response","206","2264423","0.0-5.0-2.66","FL","xtbpfv8d5p","1920","1080","0","1","0","5fbade0c4594d6b7c7d96ca9","","null","","","learningBlock1","","","","<div style=""font-size:60px;""> </div>","null","FL","learning/Slide67.JPG","That was a tob.","","",""
"image-keyboard-response","207","2264601","0.0-5.0-0.67","FL","xtbpfv8d5p","1920","1080","0","1","0","5fbade0c4594d6b7c7d96ca9","","null","","","","","","","learning/Slide68.JPG","null","","","","","",""
"html-keyboard-response","208","2265754","0.0-5.0-1.67","FL","xtbpfv8d5p","1920","1080","0","1","0","5fbade0c4594d6b7c7d96ca9","","null","","","learningBlock1","","","","That was a wug.","null","","","","","",""
"html-keyboard-response","209","2266756","0.0-5.0-2.67","FL","xtbpfv8d5p","1920","1080","0","1","0","5fbade0c4594d6b7c7d96ca9","","null","","","learningBlock1","","","","<div style=""font-size:60px;""> </div>","null","FL","learning/Slide68.JPG","That was a wug.","","",""
"image-keyboard-response","210","2266933","0.0-5.0-0.68","FL","xtbpfv8d5p","1920","1080","0","1","0","5fbade0c4594d6b7c7d96ca9","","null","","","","","","","learning/Slide69.JPG","null","","","","","",""
"html-keyboard-response","211","2268085","0.0-5.0-1.68","FL","xtbpfv8d5p","1920","1080","0","1","0","5fbade0c4594d6b7c7d96ca9","","null","","","learningBlock1","","","","That was a tob.","null","","","","","",""
"html-keyboard-response","212","2269087","0.0-5.0-2.68","FL","xtbpfv8d5p","1920","1080","0","1","0","5fbade0c4594d6b7c7d96ca9","","null","","","learningBlock1","","","","<div style=""font-size:60px;""> </div>","null","FL","learning/Slide69.JPG","That was a tob.","","",""
"image-keyboard-response","213","2269265","0.0-5.0-0.69","FL","xtbpfv8d5p","1920","1080","0","1","0","5fbade0c4594d6b7c7d96ca9","","null","","","","","","","learning/Slide70.JPG","null","","","","","",""
"html-keyboard-response","214","2270417","0.0-5.0-1.69","FL","xtbpfv8d5p","1920","1080","0","1","0","5fbade0c4594d6b7c7d96ca9","","null","","","learningBlock1","","","","That was a dep.","null","","","","","",""
"html-keyboard-response","215","2271418","0.0-5.0-2.69","FL","xtbpfv8d5p","1920","1080","0","1","0","5fbade0c4594d6b7c7d96ca9","","null","","","learningBlock1","","","","<div style=""font-size:60px;""> </div>","null","FL","learning/Slide70.JPG","That was a dep.","","",""
"image-keyboard-response","216","2271596","0.0-5.0-0.70","FL","xtbpfv8d5p","1920","1080","0","1","0","5fbade0c4594d6b7c7d96ca9","","null","","","","","","","learning/Slide71.JPG","null","","","","","",""
"html-keyboard-response","217","2272749","0.0-5.0-1.70","FL","xtbpfv8d5p","1920","1080","0","1","0","5fbade0c4594d6b7c7d96ca9","","null","","","learningBlock1","","","","That was a wug.","null","","","","","",""
"html-keyboard-response","218","2273751","0.0-5.0-2.70","FL","xtbpfv8d5p","1920","1080","0","1","0","5fbade0c4594d6b7c7d96ca9","","null","","","learningBlock1","","","","<div style=""font-size:60px;""> </div>","null","FL","learning/Slide71.JPG","That was a wug.","","",""
"image-keyboard-response","219","2273929","0.0-5.0-0.71","FL","xtbpfv8d5p","1920","1080","0","1","0","5fbade0c4594d6b7c7d96ca9","","null","","","","","","","learning/Slide72.JPG","null","","","","","",""
"html-keyboard-response","220","2275082","0.0-5.0-1.71","FL","xtbpfv8d5p","1920","1080","0","1","0","5fbade0c4594d6b7c7d96ca9","","null","","","learningBlock1","","","","That was a bim.","null","","","","","",""
"html-keyboard-response","221","2276084","0.0-5.0-2.71","FL","xtbpfv8d5p","1920","1080","0","1","0","5fbade0c4594d6b7c7d96ca9","","null","","","learningBlock1","","","","<div style=""font-size:60px;""> </div>","null","FL","learning/Slide72.JPG","That was a bim.","","",""
"image-keyboard-response","222","2276262","0.0-5.0-0.72","FL","xtbpfv8d5p","1920","1080","0","1","0","5fbade0c4594d6b7c7d96ca9","","null","","","","","","","learning/Slide73.JPG","null","","","","","",""
"html-keyboard-response","223","2277416","0.0-5.0-1.72","FL","xtbpfv8d5p","1920","1080","0","1","0","5fbade0c4594d6b7c7d96ca9","","null","","","learningBlock1","","","","That was a wug.","null","","","","","",""
"html-keyboard-response","224","2278418","0.0-5.0-2.72","FL","xtbpfv8d5p","1920","1080","0","1","0","5fbade0c4594d6b7c7d96ca9","","null","","","learningBlock1","","","","<div style=""font-size:60px;""> </div>","null","FL","learning/Slide73.JPG","That was a wug.","","",""
"image-keyboard-response","225","2278595","0.0-5.0-0.73","FL","xtbpfv8d5p","1920","1080","0","1","0","5fbade0c4594d6b7c7d96ca9","","null","","","","","","","learning/Slide74.JPG","null","","","","","",""
"html-keyboard-response","226","2279748","0.0-5.0-1.73","FL","xtbpfv8d5p","1920","1080","0","1","0","5fbade0c4594d6b7c7d96ca9","","null","","","learningBlock1","","","","That was a dep.","null","","","","","",""
"html-keyboard-response","227","2280750","0.0-5.0-2.73","FL","xtbpfv8d5p","1920","1080","0","1","0","5fbade0c4594d6b7c7d96ca9","","null","","","learningBlock1","","","","<div style=""font-size:60px;""> </div>","null","FL","learning/Slide74.JPG","That was a dep.","","",""
"image-keyboard-response","228","2280927","0.0-5.0-0.74","FL","xtbpfv8d5p","1920","1080","0","1","0","5fbade0c4594d6b7c7d96ca9","","null","","","","","","","learning/Slide75.JPG","null","","","","","",""
"html-keyboard-response","229","2282080","0.0-5.0-1.74","FL","xtbpfv8d5p","1920","1080","0","1","0","5fbade0c4594d6b7c7d96ca9","","null","","","learningBlock1","","","","That was a tob.","null","","","","","",""
"html-keyboard-response","230","2283082","0.0-5.0-2.74","FL","xtbpfv8d5p","1920","1080","0","1","0","5fbade0c4594d6b7c7d96ca9","","null","","","learningBlock1","","","","<div style=""font-size:60px;""> </div>","null","FL","learning/Slide75.JPG","That was a tob.","","",""
"image-keyboard-response","231","2283261","0.0-5.0-0.75","FL","xtbpfv8d5p","1920","1080","0","1","0","5fbade0c4594d6b7c7d96ca9","","null","","","","","","","learning/Slide76.JPG","null","","","","","",""
"html-keyboard-response","232","2284415","0.0-5.0-1.75","FL","xtbpfv8d5p","1920","1080","0","1","0","5fbade0c4594d6b7c7d96ca9","","null","","","learningBlock1","","","","That was a bim.","null","","","","","",""
"html-keyboard-response","233","2285417","0.0-5.0-2.75","FL","xtbpfv8d5p","1920","1080","0","1","0","5fbade0c4594d6b7c7d96ca9","","null","","","learningBlock1","","","","<div style=""font-size:60px;""> </div>","null","FL","learning/Slide76.JPG","That was a bim.","","",""
"image-keyboard-response","234","2285596","0.0-5.0-0.76","FL","xtbpfv8d5p","1920","1080","0","1","0","5fbade0c4594d6b7c7d96ca9","","null","","","","","","","learning/Slide77.JPG","null","","","","","",""
"html-keyboard-response","235","2286749","0.0-5.0-1.76","FL","xtbpfv8d5p","1920","1080","0","1","0","5fbade0c4594d6b7c7d96ca9","","null","","","learningBlock1","","","","That was a tob.","null","","","","","",""
"html-keyboard-response","236","2287751","0.0-5.0-2.76","FL","xtbpfv8d5p","1920","1080","0","1","0","5fbade0c4594d6b7c7d96ca9","","null","","","learningBlock1","","","","<div style=""font-size:60px;""> </div>","null","FL","learning/Slide77.JPG","That was a tob.","","",""
"image-keyboard-response","237","2287930","0.0-5.0-0.77","FL","xtbpfv8d5p","1920","1080","0","1","0","5fbade0c4594d6b7c7d96ca9","","null","","","","","","","learning/Slide78.JPG","null","","","","","",""
"html-keyboard-response","238","2289084","0.0-5.0-1.77","FL","xtbpfv8d5p","1920","1080","0","1","0","5fbade0c4594d6b7c7d96ca9","","null","","","learningBlock1","","","","That was a wug.","null","","","","","",""
"html-keyboard-response","239","2290086","0.0-5.0-2.77","FL","xtbpfv8d5p","1920","1080","0","1","0","5fbade0c4594d6b7c7d96ca9","","null","","","learningBlock1","","","","<div style=""font-size:60px;""> </div>","null","FL","learning/Slide78.JPG","That was a wug.","","",""
"image-keyboard-response","240","2290264","0.0-5.0-0.78","FL","xtbpfv8d5p","1920","1080","0","1","0","5fbade0c4594d6b7c7d96ca9","","null","","","","","","","learning/Slide79.JPG","null","","","","","",""
"html-keyboard-response","241","2291417","0.0-5.0-1.78","FL","xtbpfv8d5p","1920","1080","0","1","0","5fbade0c4594d6b7c7d96ca9","","null","","","learningBlock1","","","","That was a bim.","null","","","","","",""
"html-keyboard-response","242","2292419","0.0-5.0-2.78","FL","xtbpfv8d5p","1920","1080","0","1","0","5fbade0c4594d6b7c7d96ca9","","null","","","learningBlock1","","","","<div style=""font-size:60px;""> </div>","null","FL","learning/Slide79.JPG","That was a bim.","","",""
"image-keyboard-response","243","2292597","0.0-5.0-0.79","FL","xtbpfv8d5p","1920","1080","0","1","0","5fbade0c4594d6b7c7d96ca9","","null","","","","","","","learning/Slide80.JPG","null","","","","","",""
"html-keyboard-response","244","2293751","0.0-5.0-1.79","FL","xtbpfv8d5p","1920","1080","0","1","0","5fbade0c4594d6b7c7d96ca9","","null","","","learningBlock1","","","","That was a tob.","null","","","","","",""
"html-keyboard-response","245","2294753","0.0-5.0-2.79","FL","xtbpfv8d5p","1920","1080","0","1","0","5fbade0c4594d6b7c7d96ca9","","null","","","learningBlock1","","","","<div style=""font-size:60px;""> </div>","null","FL","learning/Slide80.JPG","That was a tob.","","",""
"instructions","246","2299064","0.0-6.0","FL","xtbpfv8d5p","1920","1080","0","1","0","5fbade0c4594d6b7c7d96ca9","","NA","","[{""page_index"":0,""viewing_time"":4309.760000003502}]","instructions","","","","","","","","","","",""
"image-keyboard-response","247","2299241","0.0-7.0-0.0","FL","xtbpfv8d5p","1920","1080","0","1","0","5fbade0c4594d6b7c7d96ca9","","null","","","","","","","learning/Slide81.JPG","null","","","","","",""
"html-keyboard-response","248","2300395","0.0-7.0-1.0","FL","xtbpfv8d5p","1920","1080","0","1","0","5fbade0c4594d6b7c7d96ca9","","null","","","learningBlock2","","","","That was a wug.","null","","","","","",""
"html-keyboard-response","249","2301398","0.0-7.0-2.0","FL","xtbpfv8d5p","1920","1080","0","1","0","5fbade0c4594d6b7c7d96ca9","","null","","","learningBlock2","","","","<div style=""font-size:60px;""> </div>","null","FL","learning/Slide81.JPG","That was a wug.","","",""
"image-keyboard-response","250","2301576","0.0-7.0-0.1","FL","xtbpfv8d5p","1920","1080","0","1","0","5fbade0c4594d6b7c7d96ca9","","null","","","","","","","learning/Slide82.JPG","null","","","","","",""
"html-keyboard-response","251","2302727","0.0-7.0-1.1","FL","xtbpfv8d5p","1920","1080","0","1","0","5fbade0c4594d6b7c7d96ca9","","null","","","learningBlock2","","","","That was a bim.","null","","","","","",""
"html-keyboard-response","252","2303730","0.0-7.0-2.1","FL","xtbpfv8d5p","1920","1080","0","1","0","5fbade0c4594d6b7c7d96ca9","","null","","","learningBlock2","","","","<div style=""font-size:60px;""> </div>","null","FL","learning/Slide82.JPG","That was a bim.","","",""
"image-keyboard-response","253","2303908","0.0-7.0-0.2","FL","xtbpfv8d5p","1920","1080","0","1","0","5fbade0c4594d6b7c7d96ca9","","null","","","","","","","learning/Slide83.JPG","null","","","","","",""
"html-keyboard-response","254","2305061","0.0-7.0-1.2","FL","xtbpfv8d5p","1920","1080","0","1","0","5fbade0c4594d6b7c7d96ca9","","null","","","learningBlock2","","","","That was a wug.","null","","","","","",""
"html-keyboard-response","255","2306062","0.0-7.0-2.2","FL","xtbpfv8d5p","1920","1080","0","1","0","5fbade0c4594d6b7c7d96ca9","","null","","","learningBlock2","","","","<div style=""font-size:60px;""> </div>","null","FL","learning/Slide83.JPG","That was a wug.","","",""
"image-keyboard-response","256","2306241","0.0-7.0-0.3","FL","xtbpfv8d5p","1920","1080","0","1","0","5fbade0c4594d6b7c7d96ca9","","null","","","","","","","learning/Slide84.JPG","null","","","","","",""
"html-keyboard-response","257","2307395","0.0-7.0-1.3","FL","xtbpfv8d5p","1920","1080","0","1","0","5fbade0c4594d6b7c7d96ca9","","null","","","learningBlock2","","","","That was a dep.","null","","","","","",""
"html-keyboard-response","258","2308397","0.0-7.0-2.3","FL","xtbpfv8d5p","1920","1080","0","1","0","5fbade0c4594d6b7c7d96ca9","","null","","","learningBlock2","","","","<div style=""font-size:60px;""> </div>","null","FL","learning/Slide84.JPG","That was a dep.","","",""
"image-keyboard-response","259","2308574","0.0-7.0-0.4","FL","xtbpfv8d5p","1920","1080","0","1","0","5fbade0c4594d6b7c7d96ca9","","null","","","","","","","learning/Slide85.JPG","null","","","","","",""
"html-keyboard-response","260","2309728","0.0-7.0-1.4","FL","xtbpfv8d5p","1920","1080","0","1","0","5fbade0c4594d6b7c7d96ca9","","null","","","learningBlock2","","","","That was a bim.","null","","","","","",""
"html-keyboard-response","261","2310730","0.0-7.0-2.4","FL","xtbpfv8d5p","1920","1080","0","1","0","5fbade0c4594d6b7c7d96ca9","","null","","","learningBlock2","","","","<div style=""font-size:60px;""> </div>","null","FL","learning/Slide85.JPG","That was a bim.","","",""
"image-keyboard-response","262","2310907","0.0-7.0-0.5","FL","xtbpfv8d5p","1920","1080","0","1","0","5fbade0c4594d6b7c7d96ca9","","null","","","","","","","learning/Slide86.JPG","null","","","","","",""
"html-keyboard-response","263","2312060","0.0-7.0-1.5","FL","xtbpfv8d5p","1920","1080","0","1","0","5fbade0c4594d6b7c7d96ca9","","null","","","learningBlock2","","","","That was a tob.","null","","","","","",""
"html-keyboard-response","264","2313062","0.0-7.0-2.5","FL","xtbpfv8d5p","1920","1080","0","1","0","5fbade0c4594d6b7c7d96ca9","","null","","","learningBlock2","","","","<div style=""font-size:60px;""> </div>","null","FL","learning/Slide86.JPG","That was a tob.","","",""
"image-keyboard-response","265","2313239","0.0-7.0-0.6","FL","xtbpfv8d5p","1920","1080","0","1","0","5fbade0c4594d6b7c7d96ca9","","null","","","","","","","learning/Slide87.JPG","null","","","","","",""
"html-keyboard-response","266","2314392","0.0-7.0-1.6","FL","xtbpfv8d5p","1920","1080","0","1","0","5fbade0c4594d6b7c7d96ca9","","null","","","learningBlock2","","","","That was a wug.","null","","","","","",""
"html-keyboard-response","267","2315394","0.0-7.0-2.6","FL","xtbpfv8d5p","1920","1080","0","1","0","5fbade0c4594d6b7c7d96ca9","","null","","","learningBlock2","","","","<div style=""font-size:60px;""> </div>","null","FL","learning/Slide87.JPG","That was a wug.","","",""
"image-keyboard-response","268","2315571","0.0-7.0-0.7","FL","xtbpfv8d5p","1920","1080","0","1","0","5fbade0c4594d6b7c7d96ca9","","null","","","","","","","learning/Slide88.JPG","null","","","","","",""
"html-keyboard-response","269","2316724","0.0-7.0-1.7","FL","xtbpfv8d5p","1920","1080","0","1","0","5fbade0c4594d6b7c7d96ca9","","null","","","learningBlock2","","","","That was a tob.","null","","","","","",""
"html-keyboard-response","270","2317726","0.0-7.0-2.7","FL","xtbpfv8d5p","1920","1080","0","1","0","5fbade0c4594d6b7c7d96ca9","","null","","","learningBlock2","","","","<div style=""font-size:60px;""> </div>","null","FL","learning/Slide88.JPG","That was a tob.","","",""
"image-keyboard-response","271","2317903","0.0-7.0-0.8","FL","xtbpfv8d5p","1920","1080","0","1","0","5fbade0c4594d6b7c7d96ca9","","null","","","","","","","learning/Slide89.JPG","null","","","","","",""
"html-keyboard-response","272","2319056","0.0-7.0-1.8","FL","xtbpfv8d5p","1920","1080","0","1","0","5fbade0c4594d6b7c7d96ca9","","null","","","learningBlock2","","","","That was a bim.","null","","","","","",""
"html-keyboard-response","273","2320059","0.0-7.0-2.8","FL","xtbpfv8d5p","1920","1080","0","1","0","5fbade0c4594d6b7c7d96ca9","","null","","","learningBlock2","","","","<div style=""font-size:60px;""> </div>","null","FL","learning/Slide89.JPG","That was a bim.","","",""
"image-keyboard-response","274","2320237","0.0-7.0-0.9","FL","xtbpfv8d5p","1920","1080","0","1","0","5fbade0c4594d6b7c7d96ca9","","null","","","","","","","learning/Slide90.JPG","null","","","","","",""
"html-keyboard-response","275","2321391","0.0-7.0-1.9","FL","xtbpfv8d5p","1920","1080","0","1","0","5fbade0c4594d6b7c7d96ca9","","null","","","learningBlock2","","","","That was a dep.","null","","","","","",""
"html-keyboard-response","276","2322393","0.0-7.0-2.9","FL","xtbpfv8d5p","1920","1080","0","1","0","5fbade0c4594d6b7c7d96ca9","","null","","","learningBlock2","","","","<div style=""font-size:60px;""> </div>","null","FL","learning/Slide90.JPG","That was a dep.","","",""
"image-keyboard-response","277","2322570","0.0-7.0-0.10","FL","xtbpfv8d5p","1920","1080","0","1","0","5fbade0c4594d6b7c7d96ca9","","null","","","","","","","learning/Slide91.JPG","null","","","","","",""
"html-keyboard-response","278","2323723","0.0-7.0-1.10","FL","xtbpfv8d5p","1920","1080","0","1","0","5fbade0c4594d6b7c7d96ca9","","null","","","learningBlock2","","","","That was a wug.","null","","","","","",""
"html-keyboard-response","279","2324726","0.0-7.0-2.10","FL","xtbpfv8d5p","1920","1080","0","1","0","5fbade0c4594d6b7c7d96ca9","","null","","","learningBlock2","","","","<div style=""font-size:60px;""> </div>","null","FL","learning/Slide91.JPG","That was a wug.","","",""
"image-keyboard-response","280","2324903","0.0-7.0-0.11","FL","xtbpfv8d5p","1920","1080","0","1","0","5fbade0c4594d6b7c7d96ca9","","null","","","","","","","learning/Slide92.JPG","null","","","","","",""
"html-keyboard-response","281","2326057","0.0-7.0-1.11","FL","xtbpfv8d5p","1920","1080","0","1","0","5fbade0c4594d6b7c7d96ca9","","null","","","learningBlock2","","","","That was a tob.","null","","","","","",""
"html-keyboard-response","282","2327060","0.0-7.0-2.11","FL","xtbpfv8d5p","1920","1080","0","1","0","5fbade0c4594d6b7c7d96ca9","","null","","","learningBlock2","","","","<div style=""font-size:60px;""> </div>","null","FL","learning/Slide92.JPG","That was a tob.","","",""
"image-keyboard-response","283","2327238","0.0-7.0-0.12","FL","xtbpfv8d5p","1920","1080","0","1","0","5fbade0c4594d6b7c7d96ca9","","null","","","","","","","learning/Slide93.JPG","null","","","","","",""
"html-keyboard-response","284","2328391","0.0-7.0-1.12","FL","xtbpfv8d5p","1920","1080","0","1","0","5fbade0c4594d6b7c7d96ca9","","null","","","learningBlock2","","","","That was a bim.","null","","","","","",""
"html-keyboard-response","285","2329392","0.0-7.0-2.12","FL","xtbpfv8d5p","1920","1080","0","1","0","5fbade0c4594d6b7c7d96ca9","","null","","","learningBlock2","","","","<div style=""font-size:60px;""> </div>","null","FL","learning/Slide93.JPG","That was a bim.","","",""
"image-keyboard-response","286","2329569","0.0-7.0-0.13","FL","xtbpfv8d5p","1920","1080","0","1","0","5fbade0c4594d6b7c7d96ca9","","null","","","","","","","learning/Slide94.JPG","null","","","","","",""
"html-keyboard-response","287","2330722","0.0-7.0-1.13","FL","xtbpfv8d5p","1920","1080","0","1","0","5fbade0c4594d6b7c7d96ca9","","null","","","learningBlock2","","","","That was a tob.","null","","","","","",""
"html-keyboard-response","288","2331723","0.0-7.0-2.13","FL","xtbpfv8d5p","1920","1080","0","1","0","5fbade0c4594d6b7c7d96ca9","","null","","","learningBlock2","","","","<div style=""font-size:60px;""> </div>","null","FL","learning/Slide94.JPG","That was a tob.","","",""
"image-keyboard-response","289","2331900","0.0-7.0-0.14","FL","xtbpfv8d5p","1920","1080","0","1","0","5fbade0c4594d6b7c7d96ca9","","null","","","","","","","learning/Slide95.JPG","null","","","","","",""
"html-keyboard-response","290","2333052","0.0-7.0-1.14","FL","xtbpfv8d5p","1920","1080","0","1","0","5fbade0c4594d6b7c7d96ca9","","null","","","learningBlock2","","","","That was a wug.","null","","","","","",""
"html-keyboard-response","291","2334053","0.0-7.0-2.14","FL","xtbpfv8d5p","1920","1080","0","1","0","5fbade0c4594d6b7c7d96ca9","","null","","","learningBlock2","","","","<div style=""font-size:60px;""> </div>","null","FL","learning/Slide95.JPG","That was a wug.","","",""
"image-keyboard-response","292","2334230","0.0-7.0-0.15","FL","xtbpfv8d5p","1920","1080","0","1","0","5fbade0c4594d6b7c7d96ca9","","null","","","","","","","learning/Slide96.JPG","null","","","","","",""
"html-keyboard-response","293","2335384","0.0-7.0-1.15","FL","xtbpfv8d5p","1920","1080","0","1","0","5fbade0c4594d6b7c7d96ca9","","null","","","learningBlock2","","","","That was a tob.","null","","","","","",""
"html-keyboard-response","294","2336386","0.0-7.0-2.15","FL","xtbpfv8d5p","1920","1080","0","1","0","5fbade0c4594d6b7c7d96ca9","","null","","","learningBlock2","","","","<div style=""font-size:60px;""> </div>","null","FL","learning/Slide96.JPG","That was a tob.","","",""
"image-keyboard-response","295","2336563","0.0-7.0-0.16","FL","xtbpfv8d5p","1920","1080","0","1","0","5fbade0c4594d6b7c7d96ca9","","null","","","","","","","learning/Slide97.JPG","null","","","","","",""
"html-keyboard-response","296","2337715","0.0-7.0-1.16","FL","xtbpfv8d5p","1920","1080","0","1","0","5fbade0c4594d6b7c7d96ca9","","null","","","learningBlock2","","","","That was a dep.","null","","","","","",""
"html-keyboard-response","297","2338717","0.0-7.0-2.16","FL","xtbpfv8d5p","1920","1080","0","1","0","5fbade0c4594d6b7c7d96ca9","","null","","","learningBlock2","","","","<div style=""font-size:60px;""> </div>","null","FL","learning/Slide97.JPG","That was a dep.","","",""
"image-keyboard-response","298","2338893","0.0-7.0-0.17","FL","xtbpfv8d5p","1920","1080","0","1","0","5fbade0c4594d6b7c7d96ca9","","null","","","","","","","learning/Slide98.JPG","null","","","","","",""
"html-keyboard-response","299","2340047","0.0-7.0-1.17","FL","xtbpfv8d5p","1920","1080","0","1","0","5fbade0c4594d6b7c7d96ca9","","null","","","learningBlock2","","","","That was a bim.","null","","","","","",""
"html-keyboard-response","300","2341049","0.0-7.0-2.17","FL","xtbpfv8d5p","1920","1080","0","1","0","5fbade0c4594d6b7c7d96ca9","","null","","","learningBlock2","","","","<div style=""font-size:60px;""> </div>","null","FL","learning/Slide98.JPG","That was a bim.","","",""
"image-keyboard-response","301","2341227","0.0-7.0-0.18","FL","xtbpfv8d5p","1920","1080","0","1","0","5fbade0c4594d6b7c7d96ca9","","null","","","","","","","learning/Slide99.JPG","null","","","","","",""
"html-keyboard-response","302","2342379","0.0-7.0-1.18","FL","xtbpfv8d5p","1920","1080","0","1","0","5fbade0c4594d6b7c7d96ca9","","null","","","learningBlock2","","","","That was a dep.","null","","","","","",""
"html-keyboard-response","303","2343380","0.0-7.0-2.18","FL","xtbpfv8d5p","1920","1080","0","1","0","5fbade0c4594d6b7c7d96ca9","","null","","","learningBlock2","","","","<div style=""font-size:60px;""> </div>","null","FL","learning/Slide99.JPG","That was a dep.","","",""
"image-keyboard-response","304","2343557","0.0-7.0-0.19","FL","xtbpfv8d5p","1920","1080","0","1","0","5fbade0c4594d6b7c7d96ca9","","null","","","","","","","learning/Slide100.JPG","null","","","","","",""
"html-keyboard-response","305","2344710","0.0-7.0-1.19","FL","xtbpfv8d5p","1920","1080","0","1","0","5fbade0c4594d6b7c7d96ca9","","null","","","learningBlock2","","","","That was a bim.","null","","","","","",""
"html-keyboard-response","306","2345713","0.0-7.0-2.19","FL","xtbpfv8d5p","1920","1080","0","1","0","5fbade0c4594d6b7c7d96ca9","","null","","","learningBlock2","","","","<div style=""font-size:60px;""> </div>","null","FL","learning/Slide100.JPG","That was a bim.","","",""
"image-keyboard-response","307","2345890","0.0-7.0-0.20","FL","xtbpfv8d5p","1920","1080","0","1","0","5fbade0c4594d6b7c7d96ca9","","null","","","","","","","learning/Slide101.JPG","null","","","","","",""
"html-keyboard-response","308","2347042","0.0-7.0-1.20","FL","xtbpfv8d5p","1920","1080","0","1","0","5fbade0c4594d6b7c7d96ca9","","null","","","learningBlock2","","","","That was a tob.","null","","","","","",""
"html-keyboard-response","309","2348045","0.0-7.0-2.20","FL","xtbpfv8d5p","1920","1080","0","1","0","5fbade0c4594d6b7c7d96ca9","","null","","","learningBlock2","","","","<div style=""font-size:60px;""> </div>","null","FL","learning/Slide101.JPG","That was a tob.","","",""
"image-keyboard-response","310","2348222","0.0-7.0-0.21","FL","xtbpfv8d5p","1920","1080","0","1","0","5fbade0c4594d6b7c7d96ca9","","null","","","","","","","learning/Slide102.JPG","null","","","","","",""
"html-keyboard-response","311","2349374","0.0-7.0-1.21","FL","xtbpfv8d5p","1920","1080","0","1","0","5fbade0c4594d6b7c7d96ca9","","null","","","learningBlock2","","","","That was a bim.","null","","","","","",""
"html-keyboard-response","312","2350376","0.0-7.0-2.21","FL","xtbpfv8d5p","1920","1080","0","1","0","5fbade0c4594d6b7c7d96ca9","","null","","","learningBlock2","","","","<div style=""font-size:60px;""> </div>","null","FL","learning/Slide102.JPG","That was a bim.","","",""
"image-keyboard-response","313","2350553","0.0-7.0-0.22","FL","xtbpfv8d5p","1920","1080","0","1","0","5fbade0c4594d6b7c7d96ca9","","null","","","","","","","learning/Slide103.JPG","null","","","","","",""
"html-keyboard-response","314","2351706","0.0-7.0-1.22","FL","xtbpfv8d5p","1920","1080","0","1","0","5fbade0c4594d6b7c7d96ca9","","null","","","learningBlock2","","","","That was a dep.","null","","","","","",""
"html-keyboard-response","315","2352709","0.0-7.0-2.22","FL","xtbpfv8d5p","1920","1080","0","1","0","5fbade0c4594d6b7c7d96ca9","","null","","","learningBlock2","","","","<div style=""font-size:60px;""> </div>","null","FL","learning/Slide103.JPG","That was a dep.","","",""
"image-keyboard-response","316","2352887","0.0-7.0-0.23","FL","xtbpfv8d5p","1920","1080","0","1","0","5fbade0c4594d6b7c7d96ca9","","null","","","","","","","learning/Slide104.JPG","null","","","","","",""
"html-keyboard-response","317","2354039","0.0-7.0-1.23","FL","xtbpfv8d5p","1920","1080","0","1","0","5fbade0c4594d6b7c7d96ca9","","null","","","learningBlock2","","","","That was a tob.","null","","","","","",""
"html-keyboard-response","318","2355041","0.0-7.0-2.23","FL","xtbpfv8d5p","1920","1080","0","1","0","5fbade0c4594d6b7c7d96ca9","","null","","","learningBlock2","","","","<div style=""font-size:60px;""> </div>","null","FL","learning/Slide104.JPG","That was a tob.","","",""
"image-keyboard-response","319","2355219","0.0-7.0-0.24","FL","xtbpfv8d5p","1920","1080","0","1","0","5fbade0c4594d6b7c7d96ca9","","null","","","","","","","learning/Slide105.JPG","null","","","","","",""
"html-keyboard-response","320","2356372","0.0-7.0-1.24","FL","xtbpfv8d5p","1920","1080","0","1","0","5fbade0c4594d6b7c7d96ca9","","null","","","learningBlock2","","","","That was a dep.","null","","","","","",""
"html-keyboard-response","321","2357376","0.0-7.0-2.24","FL","xtbpfv8d5p","1920","1080","0","1","0","5fbade0c4594d6b7c7d96ca9","","null","","","learningBlock2","","","","<div style=""font-size:60px;""> </div>","null","FL","learning/Slide105.JPG","That was a dep.","","",""
"image-keyboard-response","322","2357553","0.0-7.0-0.25","FL","xtbpfv8d5p","1920","1080","0","1","0","5fbade0c4594d6b7c7d96ca9","","null","","","","","","","learning/Slide106.JPG","null","","","","","",""
"html-keyboard-response","323","2358706","0.0-7.0-1.25","FL","xtbpfv8d5p","1920","1080","0","1","0","5fbade0c4594d6b7c7d96ca9","","null","","","learningBlock2","","","","That was a wug.","null","","","","","",""
"html-keyboard-response","324","2359708","0.0-7.0-2.25","FL","xtbpfv8d5p","1920","1080","0","1","0","5fbade0c4594d6b7c7d96ca9","","null","","","learningBlock2","","","","<div style=""font-size:60px;""> </div>","null","FL","learning/Slide106.JPG","That was a wug.","","",""
"image-keyboard-response","325","2359886","0.0-7.0-0.26","FL","xtbpfv8d5p","1920","1080","0","1","0","5fbade0c4594d6b7c7d96ca9","","null","","","","","","","learning/Slide107.JPG","null","","","","","",""
"html-keyboard-response","326","2361039","0.0-7.0-1.26","FL","xtbpfv8d5p","1920","1080","0","1","0","5fbade0c4594d6b7c7d96ca9","","null","","","learningBlock2","","","","That was a bim.","null","","","","","",""
"html-keyboard-response","327","2362042","0.0-7.0-2.26","FL","xtbpfv8d5p","1920","1080","0","1","0","5fbade0c4594d6b7c7d96ca9","","null","","","learningBlock2","","","","<div style=""font-size:60px;""> </div>","null","FL","learning/Slide107.JPG","That was a bim.","","",""
"image-keyboard-response","328","2362219","0.0-7.0-0.27","FL","xtbpfv8d5p","1920","1080","0","1","0","5fbade0c4594d6b7c7d96ca9","","null","","","","","","","learning/Slide108.JPG","null","","","","","",""
"html-keyboard-response","329","2363373","0.0-7.0-1.27","FL","xtbpfv8d5p","1920","1080","0","1","0","5fbade0c4594d6b7c7d96ca9","","null","","","learningBlock2","","","","That was a dep.","null","","","","","",""
"html-keyboard-response","330","2364375","0.0-7.0-2.27","FL","xtbpfv8d5p","1920","1080","0","1","0","5fbade0c4594d6b7c7d96ca9","","null","","","learningBlock2","","","","<div style=""font-size:60px;""> </div>","null","FL","learning/Slide108.JPG","That was a dep.","","",""
"image-keyboard-response","331","2364551","0.0-7.0-0.28","FL","xtbpfv8d5p","1920","1080","0","1","0","5fbade0c4594d6b7c7d96ca9","","null","","","","","","","learning/Slide109.JPG","null","","","","","",""
"html-keyboard-response","332","2365705","0.0-7.0-1.28","FL","xtbpfv8d5p","1920","1080","0","1","0","5fbade0c4594d6b7c7d96ca9","","null","","","learningBlock2","","","","That was a wug.","null","","","","","",""
"html-keyboard-response","333","2366708","0.0-7.0-2.28","FL","xtbpfv8d5p","1920","1080","0","1","0","5fbade0c4594d6b7c7d96ca9","","null","","","learningBlock2","","","","<div style=""font-size:60px;""> </div>","null","FL","learning/Slide109.JPG","That was a wug.","","",""
"image-keyboard-response","334","2366885","0.0-7.0-0.29","FL","xtbpfv8d5p","1920","1080","0","1","0","5fbade0c4594d6b7c7d96ca9","","null","","","","","","","learning/Slide110.JPG","null","","","","","",""
"html-keyboard-response","335","2368038","0.0-7.0-1.29","FL","xtbpfv8d5p","1920","1080","0","1","0","5fbade0c4594d6b7c7d96ca9","","null","","","learningBlock2","","","","That was a bim.","null","","","","","",""
"html-keyboard-response","336","2369040","0.0-7.0-2.29","FL","xtbpfv8d5p","1920","1080","0","1","0","5fbade0c4594d6b7c7d96ca9","","null","","","learningBlock2","","","","<div style=""font-size:60px;""> </div>","null","FL","learning/Slide110.JPG","That was a bim.","","",""
"image-keyboard-response","337","2369217","0.0-7.0-0.30","FL","xtbpfv8d5p","1920","1080","0","1","0","5fbade0c4594d6b7c7d96ca9","","null","","","","","","","learning/Slide111.JPG","null","","","","","",""
"html-keyboard-response","338","2370370","0.0-7.0-1.30","FL","xtbpfv8d5p","1920","1080","0","1","0","5fbade0c4594d6b7c7d96ca9","","null","","","learningBlock2","","","","That was a tob.","null","","","","","",""
"html-keyboard-response","339","2371373","0.0-7.0-2.30","FL","xtbpfv8d5p","1920","1080","0","1","0","5fbade0c4594d6b7c7d96ca9","","null","","","learningBlock2","","","","<div style=""font-size:60px;""> </div>","null","FL","learning/Slide111.JPG","That was a tob.","","",""
"image-keyboard-response","340","2371551","0.0-7.0-0.31","FL","xtbpfv8d5p","1920","1080","0","1","0","5fbade0c4594d6b7c7d96ca9","","null","","","","","","","learning/Slide112.JPG","null","","","","","",""
"html-keyboard-response","341","2372702","0.0-7.0-1.31","FL","xtbpfv8d5p","1920","1080","0","1","0","5fbade0c4594d6b7c7d96ca9","","null","","","learningBlock2","","","","That was a wug.","null","","","","","",""
"html-keyboard-response","342","2373704","0.0-7.0-2.31","FL","xtbpfv8d5p","1920","1080","0","1","0","5fbade0c4594d6b7c7d96ca9","","null","","","learningBlock2","","","","<div style=""font-size:60px;""> </div>","null","FL","learning/Slide112.JPG","That was a wug.","","",""
"image-keyboard-response","343","2373882","0.0-7.0-0.32","FL","xtbpfv8d5p","1920","1080","0","1","0","5fbade0c4594d6b7c7d96ca9","","null","","","","","","","learning/Slide113.JPG","null","","","","","",""
"html-keyboard-response","344","2375037","0.0-7.0-1.32","FL","xtbpfv8d5p","1920","1080","0","1","0","5fbade0c4594d6b7c7d96ca9","","null","","","learningBlock2","","","","That was a tob.","null","","","","","",""
"html-keyboard-response","345","2376040","0.0-7.0-2.32","FL","xtbpfv8d5p","1920","1080","0","1","0","5fbade0c4594d6b7c7d96ca9","","null","","","learningBlock2","","","","<div style=""font-size:60px;""> </div>","null","FL","learning/Slide113.JPG","That was a tob.","","",""
"image-keyboard-response","346","2376218","0.0-7.0-0.33","FL","xtbpfv8d5p","1920","1080","0","1","0","5fbade0c4594d6b7c7d96ca9","","null","","","","","","","learning/Slide114.JPG","null","","","","","",""
"html-keyboard-response","347","2377371","0.0-7.0-1.33","FL","xtbpfv8d5p","1920","1080","0","1","0","5fbade0c4594d6b7c7d96ca9","","null","","","learningBlock2","","","","That was a wug.","null","","","","","",""
"html-keyboard-response","348","2378373","0.0-7.0-2.33","FL","xtbpfv8d5p","1920","1080","0","1","0","5fbade0c4594d6b7c7d96ca9","","null","","","learningBlock2","","","","<div style=""font-size:60px;""> </div>","null","FL","learning/Slide114.JPG","That was a wug.","","",""
"image-keyboard-response","349","2378551","0.0-7.0-0.34","FL","xtbpfv8d5p","1920","1080","0","1","0","5fbade0c4594d6b7c7d96ca9","","null","","","","","","","learning/Slide115.JPG","null","","","","","",""
"html-keyboard-response","350","2379703","0.0-7.0-1.34","FL","xtbpfv8d5p","1920","1080","0","1","0","5fbade0c4594d6b7c7d96ca9","","null","","","learningBlock2","","","","That was a bim.","null","","","","","",""
"html-keyboard-response","351","2380705","0.0-7.0-2.34","FL","xtbpfv8d5p","1920","1080","0","1","0","5fbade0c4594d6b7c7d96ca9","","null","","","learningBlock2","","","","<div style=""font-size:60px;""> </div>","null","FL","learning/Slide115.JPG","That was a bim.","","",""
"image-keyboard-response","352","2380884","0.0-7.0-0.35","FL","xtbpfv8d5p","1920","1080","0","1","0","5fbade0c4594d6b7c7d96ca9","","null","","","","","","","learning/Slide116.JPG","null","","","","","",""
"html-keyboard-response","353","2382037","0.0-7.0-1.35","FL","xtbpfv8d5p","1920","1080","0","1","0","5fbade0c4594d6b7c7d96ca9","","null","","","learningBlock2","","","","That was a dep.","null","","","","","",""
"html-keyboard-response","354","2383038","0.0-7.0-2.35","FL","xtbpfv8d5p","1920","1080","0","1","0","5fbade0c4594d6b7c7d96ca9","","null","","","learningBlock2","","","","<div style=""font-size:60px;""> </div>","null","FL","learning/Slide116.JPG","That was a dep.","","",""
"image-keyboard-response","355","2383214","0.0-7.0-0.36","FL","xtbpfv8d5p","1920","1080","0","1","0","5fbade0c4594d6b7c7d96ca9","","null","","","","","","","learning/Slide117.JPG","null","","","","","",""
"html-keyboard-response","356","2384366","0.0-7.0-1.36","FL","xtbpfv8d5p","1920","1080","0","1","0","5fbade0c4594d6b7c7d96ca9","","null","","","learningBlock2","","","","That was a tob.","null","","","","","",""
"html-keyboard-response","357","2385369","0.0-7.0-2.36","FL","xtbpfv8d5p","1920","1080","0","1","0","5fbade0c4594d6b7c7d96ca9","","null","","","learningBlock2","","","","<div style=""font-size:60px;""> </div>","null","FL","learning/Slide117.JPG","That was a tob.","","",""
"image-keyboard-response","358","2385546","0.0-7.0-0.37","FL","xtbpfv8d5p","1920","1080","0","1","0","5fbade0c4594d6b7c7d96ca9","","null","","","","","","","learning/Slide118.JPG","null","","","","","",""
"html-keyboard-response","359","2386699","0.0-7.0-1.37","FL","xtbpfv8d5p","1920","1080","0","1","0","5fbade0c4594d6b7c7d96ca9","","null","","","learningBlock2","","","","That was a dep.","null","","","","","",""
"html-keyboard-response","360","2387701","0.0-7.0-2.37","FL","xtbpfv8d5p","1920","1080","0","1","0","5fbade0c4594d6b7c7d96ca9","","null","","","learningBlock2","","","","<div style=""font-size:60px;""> </div>","null","FL","learning/Slide118.JPG","That was a dep.","","",""
"image-keyboard-response","361","2387879","0.0-7.0-0.38","FL","xtbpfv8d5p","1920","1080","0","1","0","5fbade0c4594d6b7c7d96ca9","","null","","","","","","","learning/Slide119.JPG","null","","","","","",""
"html-keyboard-response","362","2389032","0.0-7.0-1.38","FL","xtbpfv8d5p","1920","1080","0","1","0","5fbade0c4594d6b7c7d96ca9","","null","","","learningBlock2","","","","That was a wug.","null","","","","","",""
"html-keyboard-response","363","2390034","0.0-7.0-2.38","FL","xtbpfv8d5p","1920","1080","0","1","0","5fbade0c4594d6b7c7d96ca9","","null","","","learningBlock2","","","","<div style=""font-size:60px;""> </div>","null","FL","learning/Slide119.JPG","That was a wug.","","",""
"image-keyboard-response","364","2390213","0.0-7.0-0.39","FL","xtbpfv8d5p","1920","1080","0","1","0","5fbade0c4594d6b7c7d96ca9","","null","","","","","","","learning/Slide120.JPG","null","","","","","",""
"html-keyboard-response","365","2391365","0.0-7.0-1.39","FL","xtbpfv8d5p","1920","1080","0","1","0","5fbade0c4594d6b7c7d96ca9","","null","","","learningBlock2","","","","That was a dep.","null","","","","","",""
"html-keyboard-response","366","2392366","0.0-7.0-2.39","FL","xtbpfv8d5p","1920","1080","0","1","0","5fbade0c4594d6b7c7d96ca9","","null","","","learningBlock2","","","","<div style=""font-size:60px;""> </div>","null","FL","learning/Slide120.JPG","That was a dep.","","",""
"image-keyboard-response","367","2392544","0.0-7.0-0.40","FL","xtbpfv8d5p","1920","1080","0","1","0","5fbade0c4594d6b7c7d96ca9","","null","","","","","","","learning/Slide121.JPG","null","","","","","",""
"html-keyboard-response","368","2393696","0.0-7.0-1.40","FL","xtbpfv8d5p","1920","1080","0","1","0","5fbade0c4594d6b7c7d96ca9","","null","","","learningBlock2","","","","That was a bim.","null","","","","","",""
"html-keyboard-response","369","2394698","0.0-7.0-2.40","FL","xtbpfv8d5p","1920","1080","0","1","0","5fbade0c4594d6b7c7d96ca9","","null","","","learningBlock2","","","","<div style=""font-size:60px;""> </div>","null","FL","learning/Slide121.JPG","That was a bim.","","",""
"image-keyboard-response","370","2394876","0.0-7.0-0.41","FL","xtbpfv8d5p","1920","1080","0","1","0","5fbade0c4594d6b7c7d96ca9","","null","","","","","","","learning/Slide122.JPG","null","","","","","",""
"html-keyboard-response","371","2396029","0.0-7.0-1.41","FL","xtbpfv8d5p","1920","1080","0","1","0","5fbade0c4594d6b7c7d96ca9","","null","","","learningBlock2","","","","That was a wug.","null","","","","","",""
"html-keyboard-response","372","2397031","0.0-7.0-2.41","FL","xtbpfv8d5p","1920","1080","0","1","0","5fbade0c4594d6b7c7d96ca9","","null","","","learningBlock2","","","","<div style=""font-size:60px;""> </div>","null","FL","learning/Slide122.JPG","That was a wug.","","",""
"image-keyboard-response","373","2397208","0.0-7.0-0.42","FL","xtbpfv8d5p","1920","1080","0","1","0","5fbade0c4594d6b7c7d96ca9","","null","","","","","","","learning/Slide123.JPG","null","","","","","",""
"html-keyboard-response","374","2398362","0.0-7.0-1.42","FL","xtbpfv8d5p","1920","1080","0","1","0","5fbade0c4594d6b7c7d96ca9","","null","","","learningBlock2","","","","That was a bim.","null","","","","","",""
"html-keyboard-response","375","2399365","0.0-7.0-2.42","FL","xtbpfv8d5p","1920","1080","0","1","0","5fbade0c4594d6b7c7d96ca9","","null","","","learningBlock2","","","","<div style=""font-size:60px;""> </div>","null","FL","learning/Slide123.JPG","That was a bim.","","",""
"image-keyboard-response","376","2399543","0.0-7.0-0.43","FL","xtbpfv8d5p","1920","1080","0","1","0","5fbade0c4594d6b7c7d96ca9","","null","","","","","","","learning/Slide124.JPG","null","","","","","",""
"html-keyboard-response","377","2400695","0.0-7.0-1.43","FL","xtbpfv8d5p","1920","1080","0","1","0","5fbade0c4594d6b7c7d96ca9","","null","","","learningBlock2","","","","That was a tob.","null","","","","","",""
"html-keyboard-response","378","2401697","0.0-7.0-2.43","FL","xtbpfv8d5p","1920","1080","0","1","0","5fbade0c4594d6b7c7d96ca9","","null","","","learningBlock2","","","","<div style=""font-size:60px;""> </div>","null","FL","learning/Slide124.JPG","That was a tob.","","",""
"image-keyboard-response","379","2401875","0.0-7.0-0.44","FL","xtbpfv8d5p","1920","1080","0","1","0","5fbade0c4594d6b7c7d96ca9","","null","","","","","","","learning/Slide125.JPG","null","","","","","",""
"html-keyboard-response","380","2403029","0.0-7.0-1.44","FL","xtbpfv8d5p","1920","1080","0","1","0","5fbade0c4594d6b7c7d96ca9","","null","","","learningBlock2","","","","That was a bim.","null","","","","","",""
"html-keyboard-response","381","2404032","0.0-7.0-2.44","FL","xtbpfv8d5p","1920","1080","0","1","0","5fbade0c4594d6b7c7d96ca9","","null","","","learningBlock2","","","","<div style=""font-size:60px;""> </div>","null","FL","learning/Slide125.JPG","That was a bim.","","",""
"image-keyboard-response","382","2404209","0.0-7.0-0.45","FL","xtbpfv8d5p","1920","1080","0","1","0","5fbade0c4594d6b7c7d96ca9","","null","","","","","","","learning/Slide126.JPG","null","","","","","",""
"html-keyboard-response","383","2405362","0.0-7.0-1.45","FL","xtbpfv8d5p","1920","1080","0","1","0","5fbade0c4594d6b7c7d96ca9","","null","","","learningBlock2","","","","That was a tob.","null","","","","","",""
"html-keyboard-response","384","2406363","0.0-7.0-2.45","FL","xtbpfv8d5p","1920","1080","0","1","0","5fbade0c4594d6b7c7d96ca9","","null","","","learningBlock2","","","","<div style=""font-size:60px;""> </div>","null","FL","learning/Slide126.JPG","That was a tob.","","",""
"image-keyboard-response","385","2406542","0.0-7.0-0.46","FL","xtbpfv8d5p","1920","1080","0","1","0","5fbade0c4594d6b7c7d96ca9","","null","","","","","","","learning/Slide127.JPG","null","","","","","",""
"html-keyboard-response","386","2407694","0.0-7.0-1.46","FL","xtbpfv8d5p","1920","1080","0","1","0","5fbade0c4594d6b7c7d96ca9","","null","","","learningBlock2","","","","That was a dep.","null","","","","","",""
"html-keyboard-response","387","2408697","0.0-7.0-2.46","FL","xtbpfv8d5p","1920","1080","0","1","0","5fbade0c4594d6b7c7d96ca9","","null","","","learningBlock2","","","","<div style=""font-size:60px;""> </div>","null","FL","learning/Slide127.JPG","That was a dep.","","",""
"image-keyboard-response","388","2408873","0.0-7.0-0.47","FL","xtbpfv8d5p","1920","1080","0","1","0","5fbade0c4594d6b7c7d96ca9","","null","","","","","","","learning/Slide128.JPG","null","","","","","",""
"html-keyboard-response","389","2410026","0.0-7.0-1.47","FL","xtbpfv8d5p","1920","1080","0","1","0","5fbade0c4594d6b7c7d96ca9","","null","","","learningBlock2","","","","That was a wug.","null","","","","","",""
"html-keyboard-response","390","2411028","0.0-7.0-2.47","FL","xtbpfv8d5p","1920","1080","0","1","0","5fbade0c4594d6b7c7d96ca9","","null","","","learningBlock2","","","","<div style=""font-size:60px;""> </div>","null","FL","learning/Slide128.JPG","That was a wug.","","",""
"image-keyboard-response","391","2411206","0.0-7.0-0.48","FL","xtbpfv8d5p","1920","1080","0","1","0","5fbade0c4594d6b7c7d96ca9","","null","","","","","","","learning/Slide129.JPG","null","","","","","",""
"html-keyboard-response","392","2412359","0.0-7.0-1.48","FL","xtbpfv8d5p","1920","1080","0","1","0","5fbade0c4594d6b7c7d96ca9","","null","","","learningBlock2","","","","That was a tob.","null","","","","","",""
"html-keyboard-response","393","2413362","0.0-7.0-2.48","FL","xtbpfv8d5p","1920","1080","0","1","0","5fbade0c4594d6b7c7d96ca9","","null","","","learningBlock2","","","","<div style=""font-size:60px;""> </div>","null","FL","learning/Slide129.JPG","That was a tob.","","",""
"image-keyboard-response","394","2413540","0.0-7.0-0.49","FL","xtbpfv8d5p","1920","1080","0","1","0","5fbade0c4594d6b7c7d96ca9","","null","","","","","","","learning/Slide130.JPG","null","","","","","",""
"html-keyboard-response","395","2414694","0.0-7.0-1.49","FL","xtbpfv8d5p","1920","1080","0","1","0","5fbade0c4594d6b7c7d96ca9","","null","","","learningBlock2","","","","That was a wug.","null","","","","","",""
"html-keyboard-response","396","2415696","0.0-7.0-2.49","FL","xtbpfv8d5p","1920","1080","0","1","0","5fbade0c4594d6b7c7d96ca9","","null","","","learningBlock2","","","","<div style=""font-size:60px;""> </div>","null","FL","learning/Slide130.JPG","That was a wug.","","",""
"image-keyboard-response","397","2415873","0.0-7.0-0.50","FL","xtbpfv8d5p","1920","1080","0","1","0","5fbade0c4594d6b7c7d96ca9","","null","","","","","","","learning/Slide131.JPG","null","","","","","",""
"html-keyboard-response","398","2417027","0.0-7.0-1.50","FL","xtbpfv8d5p","1920","1080","0","1","0","5fbade0c4594d6b7c7d96ca9","","null","","","learningBlock2","","","","That was a bim.","null","","","","","",""
"html-keyboard-response","399","2418030","0.0-7.0-2.50","FL","xtbpfv8d5p","1920","1080","0","1","0","5fbade0c4594d6b7c7d96ca9","","null","","","learningBlock2","","","","<div style=""font-size:60px;""> </div>","null","FL","learning/Slide131.JPG","That was a bim.","","",""
"image-keyboard-response","400","2418207","0.0-7.0-0.51","FL","xtbpfv8d5p","1920","1080","0","1","0","5fbade0c4594d6b7c7d96ca9","","null","","","","","","","learning/Slide132.JPG","null","","","","","",""
"html-keyboard-response","401","2419360","0.0-7.0-1.51","FL","xtbpfv8d5p","1920","1080","0","1","0","5fbade0c4594d6b7c7d96ca9","","null","","","learningBlock2","","","","That was a dep.","null","","","","","",""
"html-keyboard-response","402","2420363","0.0-7.0-2.51","FL","xtbpfv8d5p","1920","1080","0","1","0","5fbade0c4594d6b7c7d96ca9","","null","","","learningBlock2","","","","<div style=""font-size:60px;""> </div>","null","FL","learning/Slide132.JPG","That was a dep.","","",""
"image-keyboard-response","403","2420540","0.0-7.0-0.52","FL","xtbpfv8d5p","1920","1080","0","1","0","5fbade0c4594d6b7c7d96ca9","","null","","","","","","","learning/Slide133.JPG","null","","","","","",""
"html-keyboard-response","404","2421696","0.0-7.0-1.52","FL","xtbpfv8d5p","1920","1080","0","1","0","5fbade0c4594d6b7c7d96ca9","","null","","","learningBlock2","","","","That was a tob.","null","","","","","",""
"html-keyboard-response","405","2422701","0.0-7.0-2.52","FL","xtbpfv8d5p","1920","1080","0","1","0","5fbade0c4594d6b7c7d96ca9","","null","","","learningBlock2","","","","<div style=""font-size:60px;""> </div>","null","FL","learning/Slide133.JPG","That was a tob.","","",""
"image-keyboard-response","406","2422878","0.0-7.0-0.53","FL","xtbpfv8d5p","1920","1080","0","1","0","5fbade0c4594d6b7c7d96ca9","","null","","","","","","","learning/Slide134.JPG","null","","","","","",""
"html-keyboard-response","407","2424031","0.0-7.0-1.53","FL","xtbpfv8d5p","1920","1080","0","1","0","5fbade0c4594d6b7c7d96ca9","","null","","","learningBlock2","","","","That was a dep.","null","","","","","",""
"html-keyboard-response","408","2425033","0.0-7.0-2.53","FL","xtbpfv8d5p","1920","1080","0","1","0","5fbade0c4594d6b7c7d96ca9","","null","","","learningBlock2","","","","<div style=""font-size:60px;""> </div>","null","FL","learning/Slide134.JPG","That was a dep.","","",""
"image-keyboard-response","409","2425210","0.0-7.0-0.54","FL","xtbpfv8d5p","1920","1080","0","1","0","5fbade0c4594d6b7c7d96ca9","","null","","","","","","","learning/Slide135.JPG","null","","","","","",""
"html-keyboard-response","410","2426362","0.0-7.0-1.54","FL","xtbpfv8d5p","1920","1080","0","1","0","5fbade0c4594d6b7c7d96ca9","","null","","","learningBlock2","","","","That was a tob.","null","","","","","",""
"html-keyboard-response","411","2427363","0.0-7.0-2.54","FL","xtbpfv8d5p","1920","1080","0","1","0","5fbade0c4594d6b7c7d96ca9","","null","","","learningBlock2","","","","<div style=""font-size:60px;""> </div>","null","FL","learning/Slide135.JPG","That was a tob.","","",""
"image-keyboard-response","412","2427542","0.0-7.0-0.55","FL","xtbpfv8d5p","1920","1080","0","1","0","5fbade0c4594d6b7c7d96ca9","","null","","","","","","","learning/Slide136.JPG","null","","","","","",""
"html-keyboard-response","413","2428697","0.0-7.0-1.55","FL","xtbpfv8d5p","1920","1080","0","1","0","5fbade0c4594d6b7c7d96ca9","","null","","","learningBlock2","","","","That was a wug.","null","","","","","",""
"html-keyboard-response","414","2429701","0.0-7.0-2.55","FL","xtbpfv8d5p","1920","1080","0","1","0","5fbade0c4594d6b7c7d96ca9","","null","","","learningBlock2","","","","<div style=""font-size:60px;""> </div>","null","FL","learning/Slide136.JPG","That was a wug.","","",""
"image-keyboard-response","415","2429878","0.0-7.0-0.56","FL","xtbpfv8d5p","1920","1080","0","1","0","5fbade0c4594d6b7c7d96ca9","","null","","","","","","","learning/Slide137.JPG","null","","","","","",""
"html-keyboard-response","416","2431031","0.0-7.0-1.56","FL","xtbpfv8d5p","1920","1080","0","1","0","5fbade0c4594d6b7c7d96ca9","","null","","","learningBlock2","","","","That was a tob.","null","","","","","",""
"html-keyboard-response","417","2432033","0.0-7.0-2.56","FL","xtbpfv8d5p","1920","1080","0","1","0","5fbade0c4594d6b7c7d96ca9","","null","","","learningBlock2","","","","<div style=""font-size:60px;""> </div>","null","FL","learning/Slide137.JPG","That was a tob.","","",""
"image-keyboard-response","418","2432210","0.0-7.0-0.57","FL","xtbpfv8d5p","1920","1080","0","1","0","5fbade0c4594d6b7c7d96ca9","","null","","","","","","","learning/Slide138.JPG","null","","","","","",""
"html-keyboard-response","419","2433363","0.0-7.0-1.57","FL","xtbpfv8d5p","1920","1080","0","1","0","5fbade0c4594d6b7c7d96ca9","","null","","","learningBlock2","","","","That was a bim.","null","","","","","",""
"html-keyboard-response","420","2434365","0.0-7.0-2.57","FL","xtbpfv8d5p","1920","1080","0","1","0","5fbade0c4594d6b7c7d96ca9","","null","","","learningBlock2","","","","<div style=""font-size:60px;""> </div>","null","FL","learning/Slide138.JPG","That was a bim.","","",""
"image-keyboard-response","421","2434542","0.0-7.0-0.58","FL","xtbpfv8d5p","1920","1080","0","1","0","5fbade0c4594d6b7c7d96ca9","","null","","","","","","","learning/Slide139.JPG","null","","","","","",""
"html-keyboard-response","422","2435696","0.0-7.0-1.58","FL","xtbpfv8d5p","1920","1080","0","1","0","5fbade0c4594d6b7c7d96ca9","","null","","","learningBlock2","","","","That was a wug.","null","","","","","",""
"html-keyboard-response","423","2436698","0.0-7.0-2.58","FL","xtbpfv8d5p","1920","1080","0","1","0","5fbade0c4594d6b7c7d96ca9","","null","","","learningBlock2","","","","<div style=""font-size:60px;""> </div>","null","FL","learning/Slide139.JPG","That was a wug.","","",""
"image-keyboard-response","424","2436874","0.0-7.0-0.59","FL","xtbpfv8d5p","1920","1080","0","1","0","5fbade0c4594d6b7c7d96ca9","","null","","","","","","","learning/Slide140.JPG","null","","","","","",""
"html-keyboard-response","425","2438028","0.0-7.0-1.59","FL","xtbpfv8d5p","1920","1080","0","1","0","5fbade0c4594d6b7c7d96ca9","","null","","","learningBlock2","","","","That was a dep.","null","","","","","",""
"html-keyboard-response","426","2439030","0.0-7.0-2.59","FL","xtbpfv8d5p","1920","1080","0","1","0","5fbade0c4594d6b7c7d96ca9","","null","","","learningBlock2","","","","<div style=""font-size:60px;""> </div>","null","FL","learning/Slide140.JPG","That was a dep.","","",""
"image-keyboard-response","427","2439208","0.0-7.0-0.60","FL","xtbpfv8d5p","1920","1080","0","1","0","5fbade0c4594d6b7c7d96ca9","","null","","","","","","","learning/Slide141.JPG","null","","","","","",""
"html-keyboard-response","428","2440361","0.0-7.0-1.60","FL","xtbpfv8d5p","1920","1080","0","1","0","5fbade0c4594d6b7c7d96ca9","","null","","","learningBlock2","","","","That was a tob.","null","","","","","",""
"html-keyboard-response","429","2441363","0.0-7.0-2.60","FL","xtbpfv8d5p","1920","1080","0","1","0","5fbade0c4594d6b7c7d96ca9","","null","","","learningBlock2","","","","<div style=""font-size:60px;""> </div>","null","FL","learning/Slide141.JPG","That was a tob.","","",""
"image-keyboard-response","430","2441541","0.0-7.0-0.61","FL","xtbpfv8d5p","1920","1080","0","1","0","5fbade0c4594d6b7c7d96ca9","","null","","","","","","","learning/Slide142.JPG","null","","","","","",""
"html-keyboard-response","431","2442694","0.0-7.0-1.61","FL","xtbpfv8d5p","1920","1080","0","1","0","5fbade0c4594d6b7c7d96ca9","","null","","","learningBlock2","","","","That was a wug.","null","","","","","",""
"html-keyboard-response","432","2443696","0.0-7.0-2.61","FL","xtbpfv8d5p","1920","1080","0","1","0","5fbade0c4594d6b7c7d96ca9","","null","","","learningBlock2","","","","<div style=""font-size:60px;""> </div>","null","FL","learning/Slide142.JPG","That was a wug.","","",""
