"trial_type","trial_index","time_elapsed","internal_node_id","condition","subject","screen_width","screen_height","attention","distraction","conscientious","prolificID","success","rt","url","view_history","test_part","final_height_px","final_width_px","scale_factor","stimulus","key_press","learningType","presentedImage","presentedLabel","button_pressed","response","responses"
"pavlovia","0","23","0.0-0.0","FL","x8lrz32hbv","1920","1080","0","1","0","5e7b899a6b890e0659e5e82e","","","","","","","","","","","","","","","",""
"fullscreen","1","61332","0.0-1.0","FL","x8lrz32hbv","1920","1080","0","1","0","5e7b899a6b890e0659e5e82e","true","","","","","","","","","","","","","","",""
"external-html","2","82891","0.0-2.0-0.0","FL","x8lrz32hbv","1920","1080","0","1","0","5e7b899a6b890e0659e5e82e","","21355.610000000073","text/information_english.html","","","","","","","","","","","","",""
"external-html","3","88964","0.0-2.0-1.0","FL","x8lrz32hbv","1920","1080","0","1","0","5e7b899a6b890e0659e5e82e","","5870.920000000304","text/consent_english.html","","","","","","","","","","","","",""
"instructions","4","114988","0.0-3.0","FL","x8lrz32hbv","1920","1080","0","1","0","5e7b899a6b890e0659e5e82e","","NA","","[{""page_index"":0,""viewing_time"":8242.835000000021},{""page_index"":1,""viewing_time"":17776.014999999912}]","instructions","","","","","","","","","","",""
"resize","5","204939","0.0-4.0","FL","x8lrz32hbv","1920","1080","0","1","0","5e7b899a6b890e0659e5e82e","","","","","","","352","2.234920634920635","","","","","","","",""
"image-keyboard-response","6","205118","0.0-5.0-0.0","FL","x8lrz32hbv","1920","1080","0","1","0","5e7b899a6b890e0659e5e82e","","null","","","","","","","learning/Slide1.JPG","null","","","","","",""
"html-keyboard-response","7","206275","0.0-5.0-1.0","FL","x8lrz32hbv","1920","1080","0","1","0","5e7b899a6b890e0659e5e82e","","null","","","learningBlock1","","","","That was a tob.","null","","","","","",""
"html-keyboard-response","8","207291","0.0-5.0-2.0","FL","x8lrz32hbv","1920","1080","0","1","0","5e7b899a6b890e0659e5e82e","","null","","","learningBlock1","","","","<div style=""font-size:60px;""> </div>","null","FL","learning/Slide1.JPG","That was a tob.","","",""
"image-keyboard-response","9","207468","0.0-5.0-0.1","FL","x8lrz32hbv","1920","1080","0","1","0","5e7b899a6b890e0659e5e82e","","null","","","","","","","learning/Slide2.JPG","null","","","","","",""
"html-keyboard-response","10","208622","0.0-5.0-1.1","FL","x8lrz32hbv","1920","1080","0","1","0","5e7b899a6b890e0659e5e82e","","null","","","learningBlock1","","","","That was a wug.","null","","","","","",""
"html-keyboard-response","11","209624","0.0-5.0-2.1","FL","x8lrz32hbv","1920","1080","0","1","0","5e7b899a6b890e0659e5e82e","","null","","","learningBlock1","","","","<div style=""font-size:60px;""> </div>","null","FL","learning/Slide2.JPG","That was a wug.","","",""
"image-keyboard-response","12","209801","0.0-5.0-0.2","FL","x8lrz32hbv","1920","1080","0","1","0","5e7b899a6b890e0659e5e82e","","null","","","","","","","learning/Slide3.JPG","null","","","","","",""
"html-keyboard-response","13","210981","0.0-5.0-1.2","FL","x8lrz32hbv","1920","1080","0","1","0","5e7b899a6b890e0659e5e82e","","null","","","learningBlock1","","","","That was a bim.","null","","","","","",""
"html-keyboard-response","14","211984","0.0-5.0-2.2","FL","x8lrz32hbv","1920","1080","0","1","0","5e7b899a6b890e0659e5e82e","","null","","","learningBlock1","","","","<div style=""font-size:60px;""> </div>","null","FL","learning/Slide3.JPG","That was a bim.","","",""
"image-keyboard-response","15","212169","0.0-5.0-0.3","FL","x8lrz32hbv","1920","1080","0","1","0","5e7b899a6b890e0659e5e82e","","null","","","","","","","learning/Slide4.JPG","null","","","","","",""
"html-keyboard-response","16","213324","0.0-5.0-1.3","FL","x8lrz32hbv","1920","1080","0","1","0","5e7b899a6b890e0659e5e82e","","null","","","learningBlock1","","","","That was a dep.","null","","","","","",""
"html-keyboard-response","17","214340","0.0-5.0-2.3","FL","x8lrz32hbv","1920","1080","0","1","0","5e7b899a6b890e0659e5e82e","","null","","","learningBlock1","","","","<div style=""font-size:60px;""> </div>","null","FL","learning/Slide4.JPG","That was a dep.","","",""
"image-keyboard-response","18","214518","0.0-5.0-0.4","FL","x8lrz32hbv","1920","1080","0","1","0","5e7b899a6b890e0659e5e82e","","null","","","","","","","learning/Slide5.JPG","null","","","","","",""
"html-keyboard-response","19","215672","0.0-5.0-1.4","FL","x8lrz32hbv","1920","1080","0","1","0","5e7b899a6b890e0659e5e82e","","null","","","learningBlock1","","","","That was a wug.","null","","","","","",""
"html-keyboard-response","20","216676","0.0-5.0-2.4","FL","x8lrz32hbv","1920","1080","0","1","0","5e7b899a6b890e0659e5e82e","","null","","","learningBlock1","","","","<div style=""font-size:60px;""> </div>","null","FL","learning/Slide5.JPG","That was a wug.","","",""
"image-keyboard-response","21","216853","0.0-5.0-0.5","FL","x8lrz32hbv","1920","1080","0","1","0","5e7b899a6b890e0659e5e82e","","null","","","","","","","learning/Slide6.JPG","null","","","","","",""
"html-keyboard-response","22","218005","0.0-5.0-1.5","FL","x8lrz32hbv","1920","1080","0","1","0","5e7b899a6b890e0659e5e82e","","null","","","learningBlock1","","","","That was a dep.","null","","","","","",""
"html-keyboard-response","23","219010","0.0-5.0-2.5","FL","x8lrz32hbv","1920","1080","0","1","0","5e7b899a6b890e0659e5e82e","","null","","","learningBlock1","","","","<div style=""font-size:60px;""> </div>","null","FL","learning/Slide6.JPG","That was a dep.","","",""
"image-keyboard-response","24","219193","0.0-5.0-0.6","FL","x8lrz32hbv","1920","1080","0","1","0","5e7b899a6b890e0659e5e82e","","null","","","","","","","learning/Slide7.JPG","null","","","","","",""
"html-keyboard-response","25","220363","0.0-5.0-1.6","FL","x8lrz32hbv","1920","1080","0","1","0","5e7b899a6b890e0659e5e82e","","null","","","learningBlock1","","","","That was a wug.","null","","","","","",""
"html-keyboard-response","26","221377","0.0-5.0-2.6","FL","x8lrz32hbv","1920","1080","0","1","0","5e7b899a6b890e0659e5e82e","","null","","","learningBlock1","","","","<div style=""font-size:60px;""> </div>","null","FL","learning/Slide7.JPG","That was a wug.","","",""
"image-keyboard-response","27","221557","0.0-5.0-0.7","FL","x8lrz32hbv","1920","1080","0","1","0","5e7b899a6b890e0659e5e82e","","null","","","","","","","learning/Slide8.JPG","null","","","","","",""
"html-keyboard-response","28","222711","0.0-5.0-1.7","FL","x8lrz32hbv","1920","1080","0","1","0","5e7b899a6b890e0659e5e82e","","null","","","learningBlock1","","","","That was a bim.","null","","","","","",""
"html-keyboard-response","29","223726","0.0-5.0-2.7","FL","x8lrz32hbv","1920","1080","0","1","0","5e7b899a6b890e0659e5e82e","","null","","","learningBlock1","","","","<div style=""font-size:60px;""> </div>","null","FL","learning/Slide8.JPG","That was a bim.","","",""
"image-keyboard-response","30","223911","0.0-5.0-0.8","FL","x8lrz32hbv","1920","1080","0","1","0","5e7b899a6b890e0659e5e82e","","null","","","","","","","learning/Slide9.JPG","null","","","","","",""
"html-keyboard-response","31","225075","0.0-5.0-1.8","FL","x8lrz32hbv","1920","1080","0","1","0","5e7b899a6b890e0659e5e82e","","null","","","learningBlock1","","","","That was a wug.","null","","","","","",""
"html-keyboard-response","32","226078","0.0-5.0-2.8","FL","x8lrz32hbv","1920","1080","0","1","0","5e7b899a6b890e0659e5e82e","","null","","","learningBlock1","","","","<div style=""font-size:60px;""> </div>","null","FL","learning/Slide9.JPG","That was a wug.","","",""
"image-keyboard-response","33","226263","0.0-5.0-0.9","FL","x8lrz32hbv","1920","1080","0","1","0","5e7b899a6b890e0659e5e82e","","null","","","","","","","learning/Slide10.JPG","null","","","","","",""
"html-keyboard-response","34","227432","0.0-5.0-1.9","FL","x8lrz32hbv","1920","1080","0","1","0","5e7b899a6b890e0659e5e82e","","null","","","learningBlock1","","","","That was a dep.","null","","","","","",""
"html-keyboard-response","35","228434","0.0-5.0-2.9","FL","x8lrz32hbv","1920","1080","0","1","0","5e7b899a6b890e0659e5e82e","","null","","","learningBlock1","","","","<div style=""font-size:60px;""> </div>","null","FL","learning/Slide10.JPG","That was a dep.","","",""
"image-keyboard-response","36","228611","0.0-5.0-0.10","FL","x8lrz32hbv","1920","1080","0","1","0","5e7b899a6b890e0659e5e82e","","null","","","","","","","learning/Slide11.JPG","null","","","","","",""
"html-keyboard-response","37","229781","0.0-5.0-1.10","FL","x8lrz32hbv","1920","1080","0","1","0","5e7b899a6b890e0659e5e82e","","null","","","learningBlock1","","","","That was a tob.","null","","","","","",""
"html-keyboard-response","38","230797","0.0-5.0-2.10","FL","x8lrz32hbv","1920","1080","0","1","0","5e7b899a6b890e0659e5e82e","","null","","","learningBlock1","","","","<div style=""font-size:60px;""> </div>","null","FL","learning/Slide11.JPG","That was a tob.","","",""
"image-keyboard-response","39","230982","0.0-5.0-0.11","FL","x8lrz32hbv","1920","1080","0","1","0","5e7b899a6b890e0659e5e82e","","null","","","","","","","learning/Slide12.JPG","null","","","","","",""
"html-keyboard-response","40","232152","0.0-5.0-1.11","FL","x8lrz32hbv","1920","1080","0","1","0","5e7b899a6b890e0659e5e82e","","null","","","learningBlock1","","","","That was a dep.","null","","","","","",""
"html-keyboard-response","41","233169","0.0-5.0-2.11","FL","x8lrz32hbv","1920","1080","0","1","0","5e7b899a6b890e0659e5e82e","","null","","","learningBlock1","","","","<div style=""font-size:60px;""> </div>","null","FL","learning/Slide12.JPG","That was a dep.","","",""
"image-keyboard-response","42","233361","0.0-5.0-0.12","FL","x8lrz32hbv","1920","1080","0","1","0","5e7b899a6b890e0659e5e82e","","null","","","","","","","learning/Slide13.JPG","null","","","","","",""
"html-keyboard-response","43","234526","0.0-5.0-1.12","FL","x8lrz32hbv","1920","1080","0","1","0","5e7b899a6b890e0659e5e82e","","null","","","learningBlock1","","","","That was a bim.","null","","","","","",""
"html-keyboard-response","44","235528","0.0-5.0-2.12","FL","x8lrz32hbv","1920","1080","0","1","0","5e7b899a6b890e0659e5e82e","","null","","","learningBlock1","","","","<div style=""font-size:60px;""> </div>","null","FL","learning/Slide13.JPG","That was a bim.","","",""
"image-keyboard-response","45","235712","0.0-5.0-0.13","FL","x8lrz32hbv","1920","1080","0","1","0","5e7b899a6b890e0659e5e82e","","null","","","","","","","learning/Slide14.JPG","null","","","","","",""
"html-keyboard-response","46","236867","0.0-5.0-1.13","FL","x8lrz32hbv","1920","1080","0","1","0","5e7b899a6b890e0659e5e82e","","null","","","learningBlock1","","","","That was a wug.","null","","","","","",""
"html-keyboard-response","47","237877","0.0-5.0-2.13","FL","x8lrz32hbv","1920","1080","0","1","0","5e7b899a6b890e0659e5e82e","","null","","","learningBlock1","","","","<div style=""font-size:60px;""> </div>","null","FL","learning/Slide14.JPG","That was a wug.","","",""
"image-keyboard-response","48","238062","0.0-5.0-0.14","FL","x8lrz32hbv","1920","1080","0","1","0","5e7b899a6b890e0659e5e82e","","null","","","","","","","learning/Slide15.JPG","null","","","","","",""
"html-keyboard-response","49","239230","0.0-5.0-1.14","FL","x8lrz32hbv","1920","1080","0","1","0","5e7b899a6b890e0659e5e82e","","null","","","learningBlock1","","","","That was a tob.","null","","","","","",""
"html-keyboard-response","50","240246","0.0-5.0-2.14","FL","x8lrz32hbv","1920","1080","0","1","0","5e7b899a6b890e0659e5e82e","","null","","","learningBlock1","","","","<div style=""font-size:60px;""> </div>","null","FL","learning/Slide15.JPG","That was a tob.","","",""
"image-keyboard-response","51","240434","0.0-5.0-0.15","FL","x8lrz32hbv","1920","1080","0","1","0","5e7b899a6b890e0659e5e82e","","null","","","","","","","learning/Slide16.JPG","null","","","","","",""
"html-keyboard-response","52","241596","0.0-5.0-1.15","FL","x8lrz32hbv","1920","1080","0","1","0","5e7b899a6b890e0659e5e82e","","null","","","learningBlock1","","","","That was a dep.","null","","","","","",""
"html-keyboard-response","53","242619","0.0-5.0-2.15","FL","x8lrz32hbv","1920","1080","0","1","0","5e7b899a6b890e0659e5e82e","","null","","","learningBlock1","","","","<div style=""font-size:60px;""> </div>","null","FL","learning/Slide16.JPG","That was a dep.","","",""
"image-keyboard-response","54","242797","0.0-5.0-0.16","FL","x8lrz32hbv","1920","1080","0","1","0","5e7b899a6b890e0659e5e82e","","null","","","","","","","learning/Slide17.JPG","null","","","","","",""
"html-keyboard-response","55","243966","0.0-5.0-1.16","FL","x8lrz32hbv","1920","1080","0","1","0","5e7b899a6b890e0659e5e82e","","null","","","learningBlock1","","","","That was a bim.","null","","","","","",""
"html-keyboard-response","56","244977","0.0-5.0-2.16","FL","x8lrz32hbv","1920","1080","0","1","0","5e7b899a6b890e0659e5e82e","","null","","","learningBlock1","","","","<div style=""font-size:60px;""> </div>","null","FL","learning/Slide17.JPG","That was a bim.","","",""
"image-keyboard-response","57","245162","0.0-5.0-0.17","FL","x8lrz32hbv","1920","1080","0","1","0","5e7b899a6b890e0659e5e82e","","null","","","","","","","learning/Slide18.JPG","null","","","","","",""
"html-keyboard-response","58","246326","0.0-5.0-1.17","FL","x8lrz32hbv","1920","1080","0","1","0","5e7b899a6b890e0659e5e82e","","null","","","learningBlock1","","","","That was a tob.","null","","","","","",""
"html-keyboard-response","59","247330","0.0-5.0-2.17","FL","x8lrz32hbv","1920","1080","0","1","0","5e7b899a6b890e0659e5e82e","","null","","","learningBlock1","","","","<div style=""font-size:60px;""> </div>","null","FL","learning/Slide18.JPG","That was a tob.","","",""
"image-keyboard-response","60","247517","0.0-5.0-0.18","FL","x8lrz32hbv","1920","1080","0","1","0","5e7b899a6b890e0659e5e82e","","null","","","","","","","learning/Slide19.JPG","null","","","","","",""
"html-keyboard-response","61","248669","0.0-5.0-1.18","FL","x8lrz32hbv","1920","1080","0","1","0","5e7b899a6b890e0659e5e82e","","null","","","learningBlock1","","","","That was a wug.","null","","","","","",""
"html-keyboard-response","62","249671","0.0-5.0-2.18","FL","x8lrz32hbv","1920","1080","0","1","0","5e7b899a6b890e0659e5e82e","","null","","","learningBlock1","","","","<div style=""font-size:60px;""> </div>","null","FL","learning/Slide19.JPG","That was a wug.","","",""
"image-keyboard-response","63","249866","0.0-5.0-0.19","FL","x8lrz32hbv","1920","1080","0","1","0","5e7b899a6b890e0659e5e82e","","null","","","","","","","learning/Slide20.JPG","null","","","","","",""
"html-keyboard-response","64","251028","0.0-5.0-1.19","FL","x8lrz32hbv","1920","1080","0","1","0","5e7b899a6b890e0659e5e82e","","null","","","learningBlock1","","","","That was a bim.","null","","","","","",""
"html-keyboard-response","65","252038","0.0-5.0-2.19","FL","x8lrz32hbv","1920","1080","0","1","0","5e7b899a6b890e0659e5e82e","","null","","","learningBlock1","","","","<div style=""font-size:60px;""> </div>","null","FL","learning/Slide20.JPG","That was a bim.","","",""
"image-keyboard-response","66","252228","0.0-5.0-0.20","FL","x8lrz32hbv","1920","1080","0","1","0","5e7b899a6b890e0659e5e82e","","null","","","","","","","learning/Slide21.JPG","null","","","","","",""
"html-keyboard-response","67","253382","0.0-5.0-1.20","FL","x8lrz32hbv","1920","1080","0","1","0","5e7b899a6b890e0659e5e82e","","null","","","learningBlock1","","","","That was a dep.","null","","","","","",""
"html-keyboard-response","68","254384","0.0-5.0-2.20","FL","x8lrz32hbv","1920","1080","0","1","0","5e7b899a6b890e0659e5e82e","","null","","","learningBlock1","","","","<div style=""font-size:60px;""> </div>","null","FL","learning/Slide21.JPG","That was a dep.","","",""
"image-keyboard-response","69","254585","0.0-5.0-0.21","FL","x8lrz32hbv","1920","1080","0","1","0","5e7b899a6b890e0659e5e82e","","null","","","","","","","learning/Slide22.JPG","null","","","","","",""
"html-keyboard-response","70","255750","0.0-5.0-1.21","FL","x8lrz32hbv","1920","1080","0","1","0","5e7b899a6b890e0659e5e82e","","null","","","learningBlock1","","","","That was a bim.","null","","","","","",""
"html-keyboard-response","71","256753","0.0-5.0-2.21","FL","x8lrz32hbv","1920","1080","0","1","0","5e7b899a6b890e0659e5e82e","","null","","","learningBlock1","","","","<div style=""font-size:60px;""> </div>","null","FL","learning/Slide22.JPG","That was a bim.","","",""
"image-keyboard-response","72","256931","0.0-5.0-0.22","FL","x8lrz32hbv","1920","1080","0","1","0","5e7b899a6b890e0659e5e82e","","null","","","","","","","learning/Slide23.JPG","null","","","","","",""
"html-keyboard-response","73","258086","0.0-5.0-1.22","FL","x8lrz32hbv","1920","1080","0","1","0","5e7b899a6b890e0659e5e82e","","null","","","learningBlock1","","","","That was a tob.","null","","","","","",""
"html-keyboard-response","74","259091","0.0-5.0-2.22","FL","x8lrz32hbv","1920","1080","0","1","0","5e7b899a6b890e0659e5e82e","","null","","","learningBlock1","","","","<div style=""font-size:60px;""> </div>","null","FL","learning/Slide23.JPG","That was a tob.","","",""
"image-keyboard-response","75","259278","0.0-5.0-0.23","FL","x8lrz32hbv","1920","1080","0","1","0","5e7b899a6b890e0659e5e82e","","null","","","","","","","learning/Slide24.JPG","null","","","","","",""
"html-keyboard-response","76","260439","0.0-5.0-1.23","FL","x8lrz32hbv","1920","1080","0","1","0","5e7b899a6b890e0659e5e82e","","null","","","learningBlock1","","","","That was a wug.","null","","","","","",""
"html-keyboard-response","77","261455","0.0-5.0-2.23","FL","x8lrz32hbv","1920","1080","0","1","0","5e7b899a6b890e0659e5e82e","","null","","","learningBlock1","","","","<div style=""font-size:60px;""> </div>","null","FL","learning/Slide24.JPG","That was a wug.","","",""
"image-keyboard-response","78","261642","0.0-5.0-0.24","FL","x8lrz32hbv","1920","1080","0","1","0","5e7b899a6b890e0659e5e82e","","null","","","","","","","learning/Slide25.JPG","null","","","","","",""
"html-keyboard-response","79","262804","0.0-5.0-1.24","FL","x8lrz32hbv","1920","1080","0","1","0","5e7b899a6b890e0659e5e82e","","null","","","learningBlock1","","","","That was a dep.","null","","","","","",""
"html-keyboard-response","80","263809","0.0-5.0-2.24","FL","x8lrz32hbv","1920","1080","0","1","0","5e7b899a6b890e0659e5e82e","","null","","","learningBlock1","","","","<div style=""font-size:60px;""> </div>","null","FL","learning/Slide25.JPG","That was a dep.","","",""
"image-keyboard-response","81","263994","0.0-5.0-0.25","FL","x8lrz32hbv","1920","1080","0","1","0","5e7b899a6b890e0659e5e82e","","null","","","","","","","learning/Slide26.JPG","null","","","","","",""
"html-keyboard-response","82","265150","0.0-5.0-1.25","FL","x8lrz32hbv","1920","1080","0","1","0","5e7b899a6b890e0659e5e82e","","null","","","learningBlock1","","","","That was a wug.","null","","","","","",""
"html-keyboard-response","83","266152","0.0-5.0-2.25","FL","x8lrz32hbv","1920","1080","0","1","0","5e7b899a6b890e0659e5e82e","","null","","","learningBlock1","","","","<div style=""font-size:60px;""> </div>","null","FL","learning/Slide26.JPG","That was a wug.","","",""
"image-keyboard-response","84","266331","0.0-5.0-0.26","FL","x8lrz32hbv","1920","1080","0","1","0","5e7b899a6b890e0659e5e82e","","null","","","","","","","learning/Slide27.JPG","null","","","","","",""
"html-keyboard-response","85","267485","0.0-5.0-1.26","FL","x8lrz32hbv","1920","1080","0","1","0","5e7b899a6b890e0659e5e82e","","null","","","learningBlock1","","","","That was a bim.","null","","","","","",""
"html-keyboard-response","86","268487","0.0-5.0-2.26","FL","x8lrz32hbv","1920","1080","0","1","0","5e7b899a6b890e0659e5e82e","","null","","","learningBlock1","","","","<div style=""font-size:60px;""> </div>","null","FL","learning/Slide27.JPG","That was a bim.","","",""
"image-keyboard-response","87","268672","0.0-5.0-0.27","FL","x8lrz32hbv","1920","1080","0","1","0","5e7b899a6b890e0659e5e82e","","null","","","","","","","learning/Slide28.JPG","null","","","","","",""
"html-keyboard-response","88","269842","0.0-5.0-1.27","FL","x8lrz32hbv","1920","1080","0","1","0","5e7b899a6b890e0659e5e82e","","null","","","learningBlock1","","","","That was a dep.","null","","","","","",""
"html-keyboard-response","89","270849","0.0-5.0-2.27","FL","x8lrz32hbv","1920","1080","0","1","0","5e7b899a6b890e0659e5e82e","","null","","","learningBlock1","","","","<div style=""font-size:60px;""> </div>","null","FL","learning/Slide28.JPG","That was a dep.","","",""
"image-keyboard-response","90","271035","0.0-5.0-0.28","FL","x8lrz32hbv","1920","1080","0","1","0","5e7b899a6b890e0659e5e82e","","null","","","","","","","learning/Slide29.JPG","null","","","","","",""
"html-keyboard-response","91","272197","0.0-5.0-1.28","FL","x8lrz32hbv","1920","1080","0","1","0","5e7b899a6b890e0659e5e82e","","null","","","learningBlock1","","","","That was a tob.","null","","","","","",""
"html-keyboard-response","92","273199","0.0-5.0-2.28","FL","x8lrz32hbv","1920","1080","0","1","0","5e7b899a6b890e0659e5e82e","","null","","","learningBlock1","","","","<div style=""font-size:60px;""> </div>","null","FL","learning/Slide29.JPG","That was a tob.","","",""
"image-keyboard-response","93","273377","0.0-5.0-0.29","FL","x8lrz32hbv","1920","1080","0","1","0","5e7b899a6b890e0659e5e82e","","null","","","","","","","learning/Slide30.JPG","null","","","","","",""
"html-keyboard-response","94","274533","0.0-5.0-1.29","FL","x8lrz32hbv","1920","1080","0","1","0","5e7b899a6b890e0659e5e82e","","null","","","learningBlock1","","","","That was a dep.","null","","","","","",""
"html-keyboard-response","95","275545","0.0-5.0-2.29","FL","x8lrz32hbv","1920","1080","0","1","0","5e7b899a6b890e0659e5e82e","","null","","","learningBlock1","","","","<div style=""font-size:60px;""> </div>","null","FL","learning/Slide30.JPG","That was a dep.","","",""
"image-keyboard-response","96","275725","0.0-5.0-0.30","FL","x8lrz32hbv","1920","1080","0","1","0","5e7b899a6b890e0659e5e82e","","null","","","","","","","learning/Slide31.JPG","null","","","","","",""
"html-keyboard-response","97","276879","0.0-5.0-1.30","FL","x8lrz32hbv","1920","1080","0","1","0","5e7b899a6b890e0659e5e82e","","null","","","learningBlock1","","","","That was a wug.","null","","","","","",""
"html-keyboard-response","98","277881","0.0-5.0-2.30","FL","x8lrz32hbv","1920","1080","0","1","0","5e7b899a6b890e0659e5e82e","","null","","","learningBlock1","","","","<div style=""font-size:60px;""> </div>","null","FL","learning/Slide31.JPG","That was a wug.","","",""
"image-keyboard-response","99","278066","0.0-5.0-0.31","FL","x8lrz32hbv","1920","1080","0","1","0","5e7b899a6b890e0659e5e82e","","null","","","","","","","learning/Slide32.JPG","null","","","","","",""
"html-keyboard-response","100","279231","0.0-5.0-1.31","FL","x8lrz32hbv","1920","1080","0","1","0","5e7b899a6b890e0659e5e82e","","null","","","learningBlock1","","","","That was a tob.","null","","","","","",""
"html-keyboard-response","101","280246","0.0-5.0-2.31","FL","x8lrz32hbv","1920","1080","0","1","0","5e7b899a6b890e0659e5e82e","","null","","","learningBlock1","","","","<div style=""font-size:60px;""> </div>","null","FL","learning/Slide32.JPG","That was a tob.","","",""
"image-keyboard-response","102","280428","0.0-5.0-0.32","FL","x8lrz32hbv","1920","1080","0","1","0","5e7b899a6b890e0659e5e82e","","null","","","","","","","learning/Slide33.JPG","null","","","","","",""
"html-keyboard-response","103","281583","0.0-5.0-1.32","FL","x8lrz32hbv","1920","1080","0","1","0","5e7b899a6b890e0659e5e82e","","null","","","learningBlock1","","","","That was a bim.","null","","","","","",""
"html-keyboard-response","104","282599","0.0-5.0-2.32","FL","x8lrz32hbv","1920","1080","0","1","0","5e7b899a6b890e0659e5e82e","","null","","","learningBlock1","","","","<div style=""font-size:60px;""> </div>","null","FL","learning/Slide33.JPG","That was a bim.","","",""
"image-keyboard-response","105","282783","0.0-5.0-0.33","FL","x8lrz32hbv","1920","1080","0","1","0","5e7b899a6b890e0659e5e82e","","null","","","","","","","learning/Slide34.JPG","null","","","","","",""
"html-keyboard-response","106","283969","0.0-5.0-1.33","FL","x8lrz32hbv","1920","1080","0","1","0","5e7b899a6b890e0659e5e82e","","null","","","learningBlock1","","","","That was a tob.","null","","","","","",""
"html-keyboard-response","107","284986","0.0-5.0-2.33","FL","x8lrz32hbv","1920","1080","0","1","0","5e7b899a6b890e0659e5e82e","","null","","","learningBlock1","","","","<div style=""font-size:60px;""> </div>","null","FL","learning/Slide34.JPG","That was a tob.","","",""
"image-keyboard-response","108","285162","0.0-5.0-0.34","FL","x8lrz32hbv","1920","1080","0","1","0","5e7b899a6b890e0659e5e82e","","null","","","","","","","learning/Slide35.JPG","null","","","","","",""
"html-keyboard-response","109","286326","0.0-5.0-1.34","FL","x8lrz32hbv","1920","1080","0","1","0","5e7b899a6b890e0659e5e82e","","null","","","learningBlock1","","","","That was a bim.","null","","","","","",""
"html-keyboard-response","110","287332","0.0-5.0-2.34","FL","x8lrz32hbv","1920","1080","0","1","0","5e7b899a6b890e0659e5e82e","","null","","","learningBlock1","","","","<div style=""font-size:60px;""> </div>","null","FL","learning/Slide35.JPG","That was a bim.","","",""
"image-keyboard-response","111","287517","0.0-5.0-0.35","FL","x8lrz32hbv","1920","1080","0","1","0","5e7b899a6b890e0659e5e82e","","null","","","","","","","learning/Slide36.JPG","null","","","","","",""
"html-keyboard-response","112","288703","0.0-5.0-1.35","FL","x8lrz32hbv","1920","1080","0","1","0","5e7b899a6b890e0659e5e82e","","null","","","learningBlock1","","","","That was a dep.","null","","","","","",""
"html-keyboard-response","113","289704","0.0-5.0-2.35","FL","x8lrz32hbv","1920","1080","0","1","0","5e7b899a6b890e0659e5e82e","","null","","","learningBlock1","","","","<div style=""font-size:60px;""> </div>","null","FL","learning/Slide36.JPG","That was a dep.","","",""
"image-keyboard-response","114","289889","0.0-5.0-0.36","FL","x8lrz32hbv","1920","1080","0","1","0","5e7b899a6b890e0659e5e82e","","null","","","","","","","learning/Slide37.JPG","null","","","","","",""
"html-keyboard-response","115","291054","0.0-5.0-1.36","FL","x8lrz32hbv","1920","1080","0","1","0","5e7b899a6b890e0659e5e82e","","null","","","learningBlock1","","","","That was a tob.","null","","","","","",""
"html-keyboard-response","116","292067","0.0-5.0-2.36","FL","x8lrz32hbv","1920","1080","0","1","0","5e7b899a6b890e0659e5e82e","","null","","","learningBlock1","","","","<div style=""font-size:60px;""> </div>","null","FL","learning/Slide37.JPG","That was a tob.","","",""
"image-keyboard-response","117","292253","0.0-5.0-0.37","FL","x8lrz32hbv","1920","1080","0","1","0","5e7b899a6b890e0659e5e82e","","null","","","","","","","learning/Slide38.JPG","null","","","","","",""
"html-keyboard-response","118","293410","0.0-5.0-1.37","FL","x8lrz32hbv","1920","1080","0","1","0","5e7b899a6b890e0659e5e82e","","null","","","learningBlock1","","","","That was a wug.","null","","","","","",""
"html-keyboard-response","119","294427","0.0-5.0-2.37","FL","x8lrz32hbv","1920","1080","0","1","0","5e7b899a6b890e0659e5e82e","","null","","","learningBlock1","","","","<div style=""font-size:60px;""> </div>","null","FL","learning/Slide38.JPG","That was a wug.","","",""
"image-keyboard-response","120","294612","0.0-5.0-0.38","FL","x8lrz32hbv","1920","1080","0","1","0","5e7b899a6b890e0659e5e82e","","null","","","","","","","learning/Slide39.JPG","null","","","","","",""
"html-keyboard-response","121","295784","0.0-5.0-1.38","FL","x8lrz32hbv","1920","1080","0","1","0","5e7b899a6b890e0659e5e82e","","null","","","learningBlock1","","","","That was a bim.","null","","","","","",""
"html-keyboard-response","122","296794","0.0-5.0-2.38","FL","x8lrz32hbv","1920","1080","0","1","0","5e7b899a6b890e0659e5e82e","","null","","","learningBlock1","","","","<div style=""font-size:60px;""> </div>","null","FL","learning/Slide39.JPG","That was a bim.","","",""
"image-keyboard-response","123","296979","0.0-5.0-0.39","FL","x8lrz32hbv","1920","1080","0","1","0","5e7b899a6b890e0659e5e82e","","null","","","","","","","learning/Slide40.JPG","null","","","","","",""
"html-keyboard-response","124","298151","0.0-5.0-1.39","FL","x8lrz32hbv","1920","1080","0","1","0","5e7b899a6b890e0659e5e82e","","null","","","learningBlock1","","","","That was a tob.","null","","","","","",""
"html-keyboard-response","125","299167","0.0-5.0-2.39","FL","x8lrz32hbv","1920","1080","0","1","0","5e7b899a6b890e0659e5e82e","","null","","","learningBlock1","","","","<div style=""font-size:60px;""> </div>","null","FL","learning/Slide40.JPG","That was a tob.","","",""
"image-keyboard-response","126","299352","0.0-5.0-0.40","FL","x8lrz32hbv","1920","1080","0","1","0","5e7b899a6b890e0659e5e82e","","null","","","","","","","learning/Slide41.JPG","null","","","","","",""
"html-keyboard-response","127","300518","0.0-5.0-1.40","FL","x8lrz32hbv","1920","1080","0","1","0","5e7b899a6b890e0659e5e82e","","null","","","learningBlock1","","","","That was a bim.","null","","","","","",""
"html-keyboard-response","128","301520","0.0-5.0-2.40","FL","x8lrz32hbv","1920","1080","0","1","0","5e7b899a6b890e0659e5e82e","","null","","","learningBlock1","","","","<div style=""font-size:60px;""> </div>","null","FL","learning/Slide41.JPG","That was a bim.","","",""
"image-keyboard-response","129","301705","0.0-5.0-0.41","FL","x8lrz32hbv","1920","1080","0","1","0","5e7b899a6b890e0659e5e82e","","null","","","","","","","learning/Slide42.JPG","null","","","","","",""
"html-keyboard-response","130","302861","0.0-5.0-1.41","FL","x8lrz32hbv","1920","1080","0","1","0","5e7b899a6b890e0659e5e82e","","null","","","learningBlock1","","","","That was a dep.","null","","","","","",""
"html-keyboard-response","131","303864","0.0-5.0-2.41","FL","x8lrz32hbv","1920","1080","0","1","0","5e7b899a6b890e0659e5e82e","","null","","","learningBlock1","","","","<div style=""font-size:60px;""> </div>","null","FL","learning/Slide42.JPG","That was a dep.","","",""
"image-keyboard-response","132","304043","0.0-5.0-0.42","FL","x8lrz32hbv","1920","1080","0","1","0","5e7b899a6b890e0659e5e82e","","null","","","","","","","learning/Slide43.JPG","null","","","","","",""
"html-keyboard-response","133","305197","0.0-5.0-1.42","FL","x8lrz32hbv","1920","1080","0","1","0","5e7b899a6b890e0659e5e82e","","null","","","learningBlock1","","","","That was a wug.","null","","","","","",""
"html-keyboard-response","134","306214","0.0-5.0-2.42","FL","x8lrz32hbv","1920","1080","0","1","0","5e7b899a6b890e0659e5e82e","","null","","","learningBlock1","","","","<div style=""font-size:60px;""> </div>","null","FL","learning/Slide43.JPG","That was a wug.","","",""
"image-keyboard-response","135","306402","0.0-5.0-0.43","FL","x8lrz32hbv","1920","1080","0","1","0","5e7b899a6b890e0659e5e82e","","null","","","","","","","learning/Slide44.JPG","null","","","","","",""
"html-keyboard-response","136","307588","0.0-5.0-1.43","FL","x8lrz32hbv","1920","1080","0","1","0","5e7b899a6b890e0659e5e82e","","null","","","learningBlock1","","","","That was a bim.","null","","","","","",""
"html-keyboard-response","137","308593","0.0-5.0-2.43","FL","x8lrz32hbv","1920","1080","0","1","0","5e7b899a6b890e0659e5e82e","","null","","","learningBlock1","","","","<div style=""font-size:60px;""> </div>","null","FL","learning/Slide44.JPG","That was a bim.","","",""
"image-keyboard-response","138","308778","0.0-5.0-0.44","FL","x8lrz32hbv","1920","1080","0","1","0","5e7b899a6b890e0659e5e82e","","null","","","","","","","learning/Slide45.JPG","null","","","","","",""
"html-keyboard-response","139","309943","0.0-5.0-1.44","FL","x8lrz32hbv","1920","1080","0","1","0","5e7b899a6b890e0659e5e82e","","null","","","learningBlock1","","","","That was a wug.","null","","","","","",""
"html-keyboard-response","140","310960","0.0-5.0-2.44","FL","x8lrz32hbv","1920","1080","0","1","0","5e7b899a6b890e0659e5e82e","","null","","","learningBlock1","","","","<div style=""font-size:60px;""> </div>","null","FL","learning/Slide45.JPG","That was a wug.","","",""
"image-keyboard-response","141","311145","0.0-5.0-0.45","FL","x8lrz32hbv","1920","1080","0","1","0","5e7b899a6b890e0659e5e82e","","null","","","","","","","learning/Slide46.JPG","null","","","","","",""
"html-keyboard-response","142","312306","0.0-5.0-1.45","FL","x8lrz32hbv","1920","1080","0","1","0","5e7b899a6b890e0659e5e82e","","null","","","learningBlock1","","","","That was a dep.","null","","","","","",""
"html-keyboard-response","143","313308","0.0-5.0-2.45","FL","x8lrz32hbv","1920","1080","0","1","0","5e7b899a6b890e0659e5e82e","","null","","","learningBlock1","","","","<div style=""font-size:60px;""> </div>","null","FL","learning/Slide46.JPG","That was a dep.","","",""
"image-keyboard-response","144","313493","0.0-5.0-0.46","FL","x8lrz32hbv","1920","1080","0","1","0","5e7b899a6b890e0659e5e82e","","null","","","","","","","learning/Slide47.JPG","null","","","","","",""
"html-keyboard-response","145","314660","0.0-5.0-1.46","FL","x8lrz32hbv","1920","1080","0","1","0","5e7b899a6b890e0659e5e82e","","null","","","learningBlock1","","","","That was a tob.","null","","","","","",""
"html-keyboard-response","146","315661","0.0-5.0-2.46","FL","x8lrz32hbv","1920","1080","0","1","0","5e7b899a6b890e0659e5e82e","","null","","","learningBlock1","","","","<div style=""font-size:60px;""> </div>","null","FL","learning/Slide47.JPG","That was a tob.","","",""
"image-keyboard-response","147","315837","0.0-5.0-0.47","FL","x8lrz32hbv","1920","1080","0","1","0","5e7b899a6b890e0659e5e82e","","null","","","","","","","learning/Slide48.JPG","null","","","","","",""
"html-keyboard-response","148","316988","0.0-5.0-1.47","FL","x8lrz32hbv","1920","1080","0","1","0","5e7b899a6b890e0659e5e82e","","null","","","learningBlock1","","","","That was a bim.","null","","","","","",""
"html-keyboard-response","149","317990","0.0-5.0-2.47","FL","x8lrz32hbv","1920","1080","0","1","0","5e7b899a6b890e0659e5e82e","","null","","","learningBlock1","","","","<div style=""font-size:60px;""> </div>","null","FL","learning/Slide48.JPG","That was a bim.","","",""
"image-keyboard-response","150","318167","0.0-5.0-0.48","FL","x8lrz32hbv","1920","1080","0","1","0","5e7b899a6b890e0659e5e82e","","null","","","","","","","learning/Slide49.JPG","null","","","","","",""
"html-keyboard-response","151","319326","0.0-5.0-1.48","FL","x8lrz32hbv","1920","1080","0","1","0","5e7b899a6b890e0659e5e82e","","null","","","learningBlock1","","","","That was a dep.","null","","","","","",""
"html-keyboard-response","152","320342","0.0-5.0-2.48","FL","x8lrz32hbv","1920","1080","0","1","0","5e7b899a6b890e0659e5e82e","","null","","","learningBlock1","","","","<div style=""font-size:60px;""> </div>","null","FL","learning/Slide49.JPG","That was a dep.","","",""
"image-keyboard-response","153","320526","0.0-5.0-0.49","FL","x8lrz32hbv","1920","1080","0","1","0","5e7b899a6b890e0659e5e82e","","null","","","","","","","learning/Slide50.JPG","null","","","","","",""
"html-keyboard-response","154","321706","0.0-5.0-1.49","FL","x8lrz32hbv","1920","1080","0","1","0","5e7b899a6b890e0659e5e82e","","null","","","learningBlock1","","","","That was a tob.","null","","","","","",""
"html-keyboard-response","155","322711","0.0-5.0-2.49","FL","x8lrz32hbv","1920","1080","0","1","0","5e7b899a6b890e0659e5e82e","","null","","","learningBlock1","","","","<div style=""font-size:60px;""> </div>","null","FL","learning/Slide50.JPG","That was a tob.","","",""
"image-keyboard-response","156","322896","0.0-5.0-0.50","FL","x8lrz32hbv","1920","1080","0","1","0","5e7b899a6b890e0659e5e82e","","null","","","","","","","learning/Slide51.JPG","null","","","","","",""
"html-keyboard-response","157","324064","0.0-5.0-1.50","FL","x8lrz32hbv","1920","1080","0","1","0","5e7b899a6b890e0659e5e82e","","null","","","learningBlock1","","","","That was a bim.","null","","","","","",""
"html-keyboard-response","158","325100","0.0-5.0-2.50","FL","x8lrz32hbv","1920","1080","0","1","0","5e7b899a6b890e0659e5e82e","","null","","","learningBlock1","","","","<div style=""font-size:60px;""> </div>","null","FL","learning/Slide51.JPG","That was a bim.","","",""
"image-keyboard-response","159","325296","0.0-5.0-0.51","FL","x8lrz32hbv","1920","1080","0","1","0","5e7b899a6b890e0659e5e82e","","null","","","","","","","learning/Slide52.JPG","null","","","","","",""
"html-keyboard-response","160","326452","0.0-5.0-1.51","FL","x8lrz32hbv","1920","1080","0","1","0","5e7b899a6b890e0659e5e82e","","null","","","learningBlock1","","","","That was a wug.","null","","","","","",""
"html-keyboard-response","161","327459","0.0-5.0-2.51","FL","x8lrz32hbv","1920","1080","0","1","0","5e7b899a6b890e0659e5e82e","","null","","","learningBlock1","","","","<div style=""font-size:60px;""> </div>","null","FL","learning/Slide52.JPG","That was a wug.","","",""
"image-keyboard-response","162","327635","0.0-5.0-0.52","FL","x8lrz32hbv","1920","1080","0","1","0","5e7b899a6b890e0659e5e82e","","null","","","","","","","learning/Slide53.JPG","null","","","","","",""
"html-keyboard-response","163","328787","0.0-5.0-1.52","FL","x8lrz32hbv","1920","1080","0","1","0","5e7b899a6b890e0659e5e82e","","null","","","learningBlock1","","","","That was a tob.","null","","","","","",""
"html-keyboard-response","164","329801","0.0-5.0-2.52","FL","x8lrz32hbv","1920","1080","0","1","0","5e7b899a6b890e0659e5e82e","","null","","","learningBlock1","","","","<div style=""font-size:60px;""> </div>","null","FL","learning/Slide53.JPG","That was a tob.","","",""
"image-keyboard-response","165","329986","0.0-5.0-0.53","FL","x8lrz32hbv","1920","1080","0","1","0","5e7b899a6b890e0659e5e82e","","null","","","","","","","learning/Slide54.JPG","null","","","","","",""
"html-keyboard-response","166","331143","0.0-5.0-1.53","FL","x8lrz32hbv","1920","1080","0","1","0","5e7b899a6b890e0659e5e82e","","null","","","learningBlock1","","","","That was a dep.","null","","","","","",""
"html-keyboard-response","167","332160","0.0-5.0-2.53","FL","x8lrz32hbv","1920","1080","0","1","0","5e7b899a6b890e0659e5e82e","","null","","","learningBlock1","","","","<div style=""font-size:60px;""> </div>","null","FL","learning/Slide54.JPG","That was a dep.","","",""
"image-keyboard-response","168","332337","0.0-5.0-0.54","FL","x8lrz32hbv","1920","1080","0","1","0","5e7b899a6b890e0659e5e82e","","null","","","","","","","learning/Slide55.JPG","null","","","","","",""
"html-keyboard-response","169","333503","0.0-5.0-1.54","FL","x8lrz32hbv","1920","1080","0","1","0","5e7b899a6b890e0659e5e82e","","null","","","learningBlock1","","","","That was a bim.","null","","","","","",""
"html-keyboard-response","170","334505","0.0-5.0-2.54","FL","x8lrz32hbv","1920","1080","0","1","0","5e7b899a6b890e0659e5e82e","","null","","","learningBlock1","","","","<div style=""font-size:60px;""> </div>","null","FL","learning/Slide55.JPG","That was a bim.","","",""
"image-keyboard-response","171","334683","0.0-5.0-0.55","FL","x8lrz32hbv","1920","1080","0","1","0","5e7b899a6b890e0659e5e82e","","null","","","","","","","learning/Slide56.JPG","null","","","","","",""
"html-keyboard-response","172","335852","0.0-5.0-1.55","FL","x8lrz32hbv","1920","1080","0","1","0","5e7b899a6b890e0659e5e82e","","null","","","learningBlock1","","","","That was a tob.","null","","","","","",""
"html-keyboard-response","173","336855","0.0-5.0-2.55","FL","x8lrz32hbv","1920","1080","0","1","0","5e7b899a6b890e0659e5e82e","","null","","","learningBlock1","","","","<div style=""font-size:60px;""> </div>","null","FL","learning/Slide56.JPG","That was a tob.","","",""
"image-keyboard-response","174","337043","0.0-5.0-0.56","FL","x8lrz32hbv","1920","1080","0","1","0","5e7b899a6b890e0659e5e82e","","null","","","","","","","learning/Slide57.JPG","null","","","","","",""
"html-keyboard-response","175","338233","0.0-5.0-1.56","FL","x8lrz32hbv","1920","1080","0","1","0","5e7b899a6b890e0659e5e82e","","null","","","learningBlock1","","","","That was a dep.","null","","","","","",""
"html-keyboard-response","176","339241","0.0-5.0-2.56","FL","x8lrz32hbv","1920","1080","0","1","0","5e7b899a6b890e0659e5e82e","","null","","","learningBlock1","","","","<div style=""font-size:60px;""> </div>","null","FL","learning/Slide57.JPG","That was a dep.","","",""
"image-keyboard-response","177","339417","0.0-5.0-0.57","FL","x8lrz32hbv","1920","1080","0","1","0","5e7b899a6b890e0659e5e82e","","null","","","","","","","learning/Slide58.JPG","null","","","","","",""
"html-keyboard-response","178","340572","0.0-5.0-1.57","FL","x8lrz32hbv","1920","1080","0","1","0","5e7b899a6b890e0659e5e82e","","null","","","learningBlock1","","","","That was a wug.","null","","","","","",""
"html-keyboard-response","179","341606","0.0-5.0-2.57","FL","x8lrz32hbv","1920","1080","0","1","0","5e7b899a6b890e0659e5e82e","","null","","","learningBlock1","","","","<div style=""font-size:60px;""> </div>","null","FL","learning/Slide58.JPG","That was a wug.","","",""
"image-keyboard-response","180","341803","0.0-5.0-0.58","FL","x8lrz32hbv","1920","1080","0","1","0","5e7b899a6b890e0659e5e82e","","null","","","","","","","learning/Slide59.JPG","null","","","","","",""
"html-keyboard-response","181","342974","0.0-5.0-1.58","FL","x8lrz32hbv","1920","1080","0","1","0","5e7b899a6b890e0659e5e82e","","null","","","learningBlock1","","","","That was a dep.","null","","","","","",""
"html-keyboard-response","182","343977","0.0-5.0-2.58","FL","x8lrz32hbv","1920","1080","0","1","0","5e7b899a6b890e0659e5e82e","","null","","","learningBlock1","","","","<div style=""font-size:60px;""> </div>","null","FL","learning/Slide59.JPG","That was a dep.","","",""
"image-keyboard-response","183","344156","0.0-5.0-0.59","FL","x8lrz32hbv","1920","1080","0","1","0","5e7b899a6b890e0659e5e82e","","null","","","","","","","learning/Slide60.JPG","null","","","","","",""
"html-keyboard-response","184","345312","0.0-5.0-1.59","FL","x8lrz32hbv","1920","1080","0","1","0","5e7b899a6b890e0659e5e82e","","null","","","learningBlock1","","","","That was a wug.","null","","","","","",""
"html-keyboard-response","185","346321","0.0-5.0-2.59","FL","x8lrz32hbv","1920","1080","0","1","0","5e7b899a6b890e0659e5e82e","","null","","","learningBlock1","","","","<div style=""font-size:60px;""> </div>","null","FL","learning/Slide60.JPG","That was a wug.","","",""
"image-keyboard-response","186","346499","0.0-5.0-0.60","FL","x8lrz32hbv","1920","1080","0","1","0","5e7b899a6b890e0659e5e82e","","null","","","","","","","learning/Slide61.JPG","null","","","","","",""
"html-keyboard-response","187","347664","0.0-5.0-1.60","FL","x8lrz32hbv","1920","1080","0","1","0","5e7b899a6b890e0659e5e82e","","null","","","learningBlock1","","","","That was a bim.","null","","","","","",""
"html-keyboard-response","188","348674","0.0-5.0-2.60","FL","x8lrz32hbv","1920","1080","0","1","0","5e7b899a6b890e0659e5e82e","","null","","","learningBlock1","","","","<div style=""font-size:60px;""> </div>","null","FL","learning/Slide61.JPG","That was a bim.","","",""
"image-keyboard-response","189","348859","0.0-5.0-0.61","FL","x8lrz32hbv","1920","1080","0","1","0","5e7b899a6b890e0659e5e82e","","null","","","","","","","learning/Slide62.JPG","null","","","","","",""
"html-keyboard-response","190","350016","0.0-5.0-1.61","FL","x8lrz32hbv","1920","1080","0","1","0","5e7b899a6b890e0659e5e82e","","null","","","learningBlock1","","","","That was a dep.","null","","","","","",""
"html-keyboard-response","191","351018","0.0-5.0-2.61","FL","x8lrz32hbv","1920","1080","0","1","0","5e7b899a6b890e0659e5e82e","","null","","","learningBlock1","","","","<div style=""font-size:60px;""> </div>","null","FL","learning/Slide62.JPG","That was a dep.","","",""
"image-keyboard-response","192","351203","0.0-5.0-0.62","FL","x8lrz32hbv","1920","1080","0","1","0","5e7b899a6b890e0659e5e82e","","null","","","","","","","learning/Slide63.JPG","null","","","","","",""
"html-keyboard-response","193","352382","0.0-5.0-1.62","FL","x8lrz32hbv","1920","1080","0","1","0","5e7b899a6b890e0659e5e82e","","null","","","learningBlock1","","","","That was a bim.","null","","","","","",""
"html-keyboard-response","194","353384","0.0-5.0-2.62","FL","x8lrz32hbv","1920","1080","0","1","0","5e7b899a6b890e0659e5e82e","","null","","","learningBlock1","","","","<div style=""font-size:60px;""> </div>","null","FL","learning/Slide63.JPG","That was a bim.","","",""
"image-keyboard-response","195","353567","0.0-5.0-0.63","FL","x8lrz32hbv","1920","1080","0","1","0","5e7b899a6b890e0659e5e82e","","null","","","","","","","learning/Slide64.JPG","null","","","","","",""
"html-keyboard-response","196","354727","0.0-5.0-1.63","FL","x8lrz32hbv","1920","1080","0","1","0","5e7b899a6b890e0659e5e82e","","null","","","learningBlock1","","","","That was a tob.","null","","","","","",""
"html-keyboard-response","197","355729","0.0-5.0-2.63","FL","x8lrz32hbv","1920","1080","0","1","0","5e7b899a6b890e0659e5e82e","","null","","","learningBlock1","","","","<div style=""font-size:60px;""> </div>","null","FL","learning/Slide64.JPG","That was a tob.","","",""
"image-keyboard-response","198","355908","0.0-5.0-0.64","FL","x8lrz32hbv","1920","1080","0","1","0","5e7b899a6b890e0659e5e82e","","null","","","","","","","learning/Slide65.JPG","null","","","","","",""
"html-keyboard-response","199","357061","0.0-5.0-1.64","FL","x8lrz32hbv","1920","1080","0","1","0","5e7b899a6b890e0659e5e82e","","null","","","learningBlock1","","","","That was a wug.","null","","","","","",""
"html-keyboard-response","200","358063","0.0-5.0-2.64","FL","x8lrz32hbv","1920","1080","0","1","0","5e7b899a6b890e0659e5e82e","","null","","","learningBlock1","","","","<div style=""font-size:60px;""> </div>","null","FL","learning/Slide65.JPG","That was a wug.","","",""
"image-keyboard-response","201","358247","0.0-5.0-0.65","FL","x8lrz32hbv","1920","1080","0","1","0","5e7b899a6b890e0659e5e82e","","null","","","","","","","learning/Slide66.JPG","null","","","","","",""
"html-keyboard-response","202","359402","0.0-5.0-1.65","FL","x8lrz32hbv","1920","1080","0","1","0","5e7b899a6b890e0659e5e82e","","null","","","learningBlock1","","","","That was a dep.","null","","","","","",""
"html-keyboard-response","203","360424","0.0-5.0-2.65","FL","x8lrz32hbv","1920","1080","0","1","0","5e7b899a6b890e0659e5e82e","","null","","","learningBlock1","","","","<div style=""font-size:60px;""> </div>","null","FL","learning/Slide66.JPG","That was a dep.","","",""
"image-keyboard-response","204","360601","0.0-5.0-0.66","FL","x8lrz32hbv","1920","1080","0","1","0","5e7b899a6b890e0659e5e82e","","null","","","","","","","learning/Slide67.JPG","null","","","","","",""
"html-keyboard-response","205","361754","0.0-5.0-1.66","FL","x8lrz32hbv","1920","1080","0","1","0","5e7b899a6b890e0659e5e82e","","null","","","learningBlock1","","","","That was a tob.","null","","","","","",""
"html-keyboard-response","206","362756","0.0-5.0-2.66","FL","x8lrz32hbv","1920","1080","0","1","0","5e7b899a6b890e0659e5e82e","","null","","","learningBlock1","","","","<div style=""font-size:60px;""> </div>","null","FL","learning/Slide67.JPG","That was a tob.","","",""
"image-keyboard-response","207","362933","0.0-5.0-0.67","FL","x8lrz32hbv","1920","1080","0","1","0","5e7b899a6b890e0659e5e82e","","null","","","","","","","learning/Slide68.JPG","null","","","","","",""
"html-keyboard-response","208","364087","0.0-5.0-1.67","FL","x8lrz32hbv","1920","1080","0","1","0","5e7b899a6b890e0659e5e82e","","null","","","learningBlock1","","","","That was a wug.","null","","","","","",""
"html-keyboard-response","209","365090","0.0-5.0-2.67","FL","x8lrz32hbv","1920","1080","0","1","0","5e7b899a6b890e0659e5e82e","","null","","","learningBlock1","","","","<div style=""font-size:60px;""> </div>","null","FL","learning/Slide68.JPG","That was a wug.","","",""
"image-keyboard-response","210","365273","0.0-5.0-0.68","FL","x8lrz32hbv","1920","1080","0","1","0","5e7b899a6b890e0659e5e82e","","null","","","","","","","learning/Slide69.JPG","null","","","","","",""
"html-keyboard-response","211","366433","0.0-5.0-1.68","FL","x8lrz32hbv","1920","1080","0","1","0","5e7b899a6b890e0659e5e82e","","null","","","learningBlock1","","","","That was a tob.","null","","","","","",""
"html-keyboard-response","212","367441","0.0-5.0-2.68","FL","x8lrz32hbv","1920","1080","0","1","0","5e7b899a6b890e0659e5e82e","","null","","","learningBlock1","","","","<div style=""font-size:60px;""> </div>","null","FL","learning/Slide69.JPG","That was a tob.","","",""
"image-keyboard-response","213","367633","0.0-5.0-0.69","FL","x8lrz32hbv","1920","1080","0","1","0","5e7b899a6b890e0659e5e82e","","null","","","","","","","learning/Slide70.JPG","null","","","","","",""
"html-keyboard-response","214","368807","0.0-5.0-1.69","FL","x8lrz32hbv","1920","1080","0","1","0","5e7b899a6b890e0659e5e82e","","null","","","learningBlock1","","","","That was a dep.","null","","","","","",""
"html-keyboard-response","215","369818","0.0-5.0-2.69","FL","x8lrz32hbv","1920","1080","0","1","0","5e7b899a6b890e0659e5e82e","","null","","","learningBlock1","","","","<div style=""font-size:60px;""> </div>","null","FL","learning/Slide70.JPG","That was a dep.","","",""
"image-keyboard-response","216","370002","0.0-5.0-0.70","FL","x8lrz32hbv","1920","1080","0","1","0","5e7b899a6b890e0659e5e82e","","null","","","","","","","learning/Slide71.JPG","null","","","","","",""
"html-keyboard-response","217","371170","0.0-5.0-1.70","FL","x8lrz32hbv","1920","1080","0","1","0","5e7b899a6b890e0659e5e82e","","null","","","learningBlock1","","","","That was a wug.","null","","","","","",""
"html-keyboard-response","218","372191","0.0-5.0-2.70","FL","x8lrz32hbv","1920","1080","0","1","0","5e7b899a6b890e0659e5e82e","","null","","","learningBlock1","","","","<div style=""font-size:60px;""> </div>","null","FL","learning/Slide71.JPG","That was a wug.","","",""
"image-keyboard-response","219","372377","0.0-5.0-0.71","FL","x8lrz32hbv","1920","1080","0","1","0","5e7b899a6b890e0659e5e82e","","null","","","","","","","learning/Slide72.JPG","null","","","","","",""
"html-keyboard-response","220","373566","0.0-5.0-1.71","FL","x8lrz32hbv","1920","1080","0","1","0","5e7b899a6b890e0659e5e82e","","null","","","learningBlock1","","","","That was a bim.","null","","","","","",""
"html-keyboard-response","221","374573","0.0-5.0-2.71","FL","x8lrz32hbv","1920","1080","0","1","0","5e7b899a6b890e0659e5e82e","","null","","","learningBlock1","","","","<div style=""font-size:60px;""> </div>","null","FL","learning/Slide72.JPG","That was a bim.","","",""
"image-keyboard-response","222","374757","0.0-5.0-0.72","FL","x8lrz32hbv","1920","1080","0","1","0","5e7b899a6b890e0659e5e82e","","null","","","","","","","learning/Slide73.JPG","null","","","","","",""
"html-keyboard-response","223","375913","0.0-5.0-1.72","FL","x8lrz32hbv","1920","1080","0","1","0","5e7b899a6b890e0659e5e82e","","null","","","learningBlock1","","","","That was a wug.","null","","","","","",""
"html-keyboard-response","224","376915","0.0-5.0-2.72","FL","x8lrz32hbv","1920","1080","0","1","0","5e7b899a6b890e0659e5e82e","","null","","","learningBlock1","","","","<div style=""font-size:60px;""> </div>","null","FL","learning/Slide73.JPG","That was a wug.","","",""
"image-keyboard-response","225","377100","0.0-5.0-0.73","FL","x8lrz32hbv","1920","1080","0","1","0","5e7b899a6b890e0659e5e82e","","null","","","","","","","learning/Slide74.JPG","null","","","","","",""
"html-keyboard-response","226","378266","0.0-5.0-1.73","FL","x8lrz32hbv","1920","1080","0","1","0","5e7b899a6b890e0659e5e82e","","null","","","learningBlock1","","","","That was a dep.","null","","","","","",""
"html-keyboard-response","227","379268","0.0-5.0-2.73","FL","x8lrz32hbv","1920","1080","0","1","0","5e7b899a6b890e0659e5e82e","","null","","","learningBlock1","","","","<div style=""font-size:60px;""> </div>","null","FL","learning/Slide74.JPG","That was a dep.","","",""
"image-keyboard-response","228","379453","0.0-5.0-0.74","FL","x8lrz32hbv","1920","1080","0","1","0","5e7b899a6b890e0659e5e82e","","null","","","","","","","learning/Slide75.JPG","null","","","","","",""
"html-keyboard-response","229","380609","0.0-5.0-1.74","FL","x8lrz32hbv","1920","1080","0","1","0","5e7b899a6b890e0659e5e82e","","null","","","learningBlock1","","","","That was a tob.","null","","","","","",""
"html-keyboard-response","230","381612","0.0-5.0-2.74","FL","x8lrz32hbv","1920","1080","0","1","0","5e7b899a6b890e0659e5e82e","","null","","","learningBlock1","","","","<div style=""font-size:60px;""> </div>","null","FL","learning/Slide75.JPG","That was a tob.","","",""
"image-keyboard-response","231","381790","0.0-5.0-0.75","FL","x8lrz32hbv","1920","1080","0","1","0","5e7b899a6b890e0659e5e82e","","null","","","","","","","learning/Slide76.JPG","null","","","","","",""
"html-keyboard-response","232","382946","0.0-5.0-1.75","FL","x8lrz32hbv","1920","1080","0","1","0","5e7b899a6b890e0659e5e82e","","null","","","learningBlock1","","","","That was a bim.","null","","","","","",""
"html-keyboard-response","233","383949","0.0-5.0-2.75","FL","x8lrz32hbv","1920","1080","0","1","0","5e7b899a6b890e0659e5e82e","","null","","","learningBlock1","","","","<div style=""font-size:60px;""> </div>","null","FL","learning/Slide76.JPG","That was a bim.","","",""
"image-keyboard-response","234","384127","0.0-5.0-0.76","FL","x8lrz32hbv","1920","1080","0","1","0","5e7b899a6b890e0659e5e82e","","null","","","","","","","learning/Slide77.JPG","null","","","","","",""
"html-keyboard-response","235","385283","0.0-5.0-1.76","FL","x8lrz32hbv","1920","1080","0","1","0","5e7b899a6b890e0659e5e82e","","null","","","learningBlock1","","","","That was a tob.","null","","","","","",""
"html-keyboard-response","236","386286","0.0-5.0-2.76","FL","x8lrz32hbv","1920","1080","0","1","0","5e7b899a6b890e0659e5e82e","","null","","","learningBlock1","","","","<div style=""font-size:60px;""> </div>","null","FL","learning/Slide77.JPG","That was a tob.","","",""
"image-keyboard-response","237","386470","0.0-5.0-0.77","FL","x8lrz32hbv","1920","1080","0","1","0","5e7b899a6b890e0659e5e82e","","null","","","","","","","learning/Slide78.JPG","null","","","","","",""
"html-keyboard-response","238","387643","0.0-5.0-1.77","FL","x8lrz32hbv","1920","1080","0","1","0","5e7b899a6b890e0659e5e82e","","null","","","learningBlock1","","","","That was a wug.","null","","","","","",""
"html-keyboard-response","239","388649","0.0-5.0-2.77","FL","x8lrz32hbv","1920","1080","0","1","0","5e7b899a6b890e0659e5e82e","","null","","","learningBlock1","","","","<div style=""font-size:60px;""> </div>","null","FL","learning/Slide78.JPG","That was a wug.","","",""
"image-keyboard-response","240","388834","0.0-5.0-0.78","FL","x8lrz32hbv","1920","1080","0","1","0","5e7b899a6b890e0659e5e82e","","null","","","","","","","learning/Slide79.JPG","null","","","","","",""
"html-keyboard-response","241","389992","0.0-5.0-1.78","FL","x8lrz32hbv","1920","1080","0","1","0","5e7b899a6b890e0659e5e82e","","null","","","learningBlock1","","","","That was a bim.","null","","","","","",""
"html-keyboard-response","242","390994","0.0-5.0-2.78","FL","x8lrz32hbv","1920","1080","0","1","0","5e7b899a6b890e0659e5e82e","","null","","","learningBlock1","","","","<div style=""font-size:60px;""> </div>","null","FL","learning/Slide79.JPG","That was a bim.","","",""
"image-keyboard-response","243","391179","0.0-5.0-0.79","FL","x8lrz32hbv","1920","1080","0","1","0","5e7b899a6b890e0659e5e82e","","null","","","","","","","learning/Slide80.JPG","null","","","","","",""
"html-keyboard-response","244","392358","0.0-5.0-1.79","FL","x8lrz32hbv","1920","1080","0","1","0","5e7b899a6b890e0659e5e82e","","null","","","learningBlock1","","","","That was a tob.","null","","","","","",""
"html-keyboard-response","245","393370","0.0-5.0-2.79","FL","x8lrz32hbv","1920","1080","0","1","0","5e7b899a6b890e0659e5e82e","","null","","","learningBlock1","","","","<div style=""font-size:60px;""> </div>","null","FL","learning/Slide80.JPG","That was a tob.","","",""
"instructions","246","522139","0.0-6.0","FL","x8lrz32hbv","1920","1080","0","1","0","5e7b899a6b890e0659e5e82e","","NA","","[{""page_index"":0,""viewing_time"":128768.44499999966}]","instructions","","","","","","","","","","",""
"image-keyboard-response","247","522326","0.0-7.0-0.0","FL","x8lrz32hbv","1920","1080","0","1","0","5e7b899a6b890e0659e5e82e","","null","","","","","","","learning/Slide81.JPG","null","","","","","",""
"html-keyboard-response","248","523479","0.0-7.0-1.0","FL","x8lrz32hbv","1920","1080","0","1","0","5e7b899a6b890e0659e5e82e","","null","","","learningBlock2","","","","That was a wug.","null","","","","","",""
"html-keyboard-response","249","524493","0.0-7.0-2.0","FL","x8lrz32hbv","1920","1080","0","1","0","5e7b899a6b890e0659e5e82e","","null","","","learningBlock2","","","","<div style=""font-size:60px;""> </div>","null","FL","learning/Slide81.JPG","That was a wug.","","",""
"image-keyboard-response","250","524684","0.0-7.0-0.1","FL","x8lrz32hbv","1920","1080","0","1","0","5e7b899a6b890e0659e5e82e","","null","","","","","","","learning/Slide82.JPG","null","","","","","",""
"html-keyboard-response","251","525858","0.0-7.0-1.1","FL","x8lrz32hbv","1920","1080","0","1","0","5e7b899a6b890e0659e5e82e","","null","","","learningBlock2","","","","That was a bim.","null","","","","","",""
"html-keyboard-response","252","526860","0.0-7.0-2.1","FL","x8lrz32hbv","1920","1080","0","1","0","5e7b899a6b890e0659e5e82e","","null","","","learningBlock2","","","","<div style=""font-size:60px;""> </div>","null","FL","learning/Slide82.JPG","That was a bim.","","",""
"image-keyboard-response","253","527045","0.0-7.0-0.2","FL","x8lrz32hbv","1920","1080","0","1","0","5e7b899a6b890e0659e5e82e","","null","","","","","","","learning/Slide83.JPG","null","","","","","",""
"html-keyboard-response","254","528203","0.0-7.0-1.2","FL","x8lrz32hbv","1920","1080","0","1","0","5e7b899a6b890e0659e5e82e","","null","","","learningBlock2","","","","That was a wug.","null","","","","","",""
"html-keyboard-response","255","529207","0.0-7.0-2.2","FL","x8lrz32hbv","1920","1080","0","1","0","5e7b899a6b890e0659e5e82e","","null","","","learningBlock2","","","","<div style=""font-size:60px;""> </div>","null","FL","learning/Slide83.JPG","That was a wug.","","",""
"image-keyboard-response","256","529384","0.0-7.0-0.3","FL","x8lrz32hbv","1920","1080","0","1","0","5e7b899a6b890e0659e5e82e","","null","","","","","","","learning/Slide84.JPG","null","","","","","",""
"html-keyboard-response","257","530536","0.0-7.0-1.3","FL","x8lrz32hbv","1920","1080","0","1","0","5e7b899a6b890e0659e5e82e","","null","","","learningBlock2","","","","That was a dep.","null","","","","","",""
"html-keyboard-response","258","531537","0.0-7.0-2.3","FL","x8lrz32hbv","1920","1080","0","1","0","5e7b899a6b890e0659e5e82e","","null","","","learningBlock2","","","","<div style=""font-size:60px;""> </div>","null","FL","learning/Slide84.JPG","That was a dep.","","",""
"image-keyboard-response","259","531722","0.0-7.0-0.4","FL","x8lrz32hbv","1920","1080","0","1","0","5e7b899a6b890e0659e5e82e","","null","","","","","","","learning/Slide85.JPG","null","","","","","",""
"html-keyboard-response","260","532886","0.0-7.0-1.4","FL","x8lrz32hbv","1920","1080","0","1","0","5e7b899a6b890e0659e5e82e","","null","","","learningBlock2","","","","That was a bim.","null","","","","","",""
"html-keyboard-response","261","533901","0.0-7.0-2.4","FL","x8lrz32hbv","1920","1080","0","1","0","5e7b899a6b890e0659e5e82e","","null","","","learningBlock2","","","","<div style=""font-size:60px;""> </div>","null","FL","learning/Slide85.JPG","That was a bim.","","",""
"image-keyboard-response","262","534085","0.0-7.0-0.5","FL","x8lrz32hbv","1920","1080","0","1","0","5e7b899a6b890e0659e5e82e","","null","","","","","","","learning/Slide86.JPG","null","","","","","",""
"html-keyboard-response","263","535262","0.0-7.0-1.5","FL","x8lrz32hbv","1920","1080","0","1","0","5e7b899a6b890e0659e5e82e","","null","","","learningBlock2","","","","That was a tob.","null","","","","","",""
"html-keyboard-response","264","536270","0.0-7.0-2.5","FL","x8lrz32hbv","1920","1080","0","1","0","5e7b899a6b890e0659e5e82e","","null","","","learningBlock2","","","","<div style=""font-size:60px;""> </div>","null","FL","learning/Slide86.JPG","That was a tob.","","",""
"image-keyboard-response","265","536449","0.0-7.0-0.6","FL","x8lrz32hbv","1920","1080","0","1","0","5e7b899a6b890e0659e5e82e","","null","","","","","","","learning/Slide87.JPG","null","","","","","",""
"html-keyboard-response","266","537614","0.0-7.0-1.6","FL","x8lrz32hbv","1920","1080","0","1","0","5e7b899a6b890e0659e5e82e","","null","","","learningBlock2","","","","That was a wug.","null","","","","","",""
"html-keyboard-response","267","538616","0.0-7.0-2.6","FL","x8lrz32hbv","1920","1080","0","1","0","5e7b899a6b890e0659e5e82e","","null","","","learningBlock2","","","","<div style=""font-size:60px;""> </div>","null","FL","learning/Slide87.JPG","That was a wug.","","",""
"image-keyboard-response","268","538793","0.0-7.0-0.7","FL","x8lrz32hbv","1920","1080","0","1","0","5e7b899a6b890e0659e5e82e","","null","","","","","","","learning/Slide88.JPG","null","","","","","",""
"html-keyboard-response","269","539949","0.0-7.0-1.7","FL","x8lrz32hbv","1920","1080","0","1","0","5e7b899a6b890e0659e5e82e","","null","","","learningBlock2","","","","That was a tob.","null","","","","","",""
"html-keyboard-response","270","540957","0.0-7.0-2.7","FL","x8lrz32hbv","1920","1080","0","1","0","5e7b899a6b890e0659e5e82e","","null","","","learningBlock2","","","","<div style=""font-size:60px;""> </div>","null","FL","learning/Slide88.JPG","That was a tob.","","",""
"image-keyboard-response","271","541137","0.0-7.0-0.8","FL","x8lrz32hbv","1920","1080","0","1","0","5e7b899a6b890e0659e5e82e","","null","","","","","","","learning/Slide89.JPG","null","","","","","",""
"html-keyboard-response","272","542317","0.0-7.0-1.8","FL","x8lrz32hbv","1920","1080","0","1","0","5e7b899a6b890e0659e5e82e","","null","","","learningBlock2","","","","That was a bim.","null","","","","","",""
"html-keyboard-response","273","543320","0.0-7.0-2.8","FL","x8lrz32hbv","1920","1080","0","1","0","5e7b899a6b890e0659e5e82e","","null","","","learningBlock2","","","","<div style=""font-size:60px;""> </div>","null","FL","learning/Slide89.JPG","That was a bim.","","",""
"image-keyboard-response","274","543501","0.0-7.0-0.9","FL","x8lrz32hbv","1920","1080","0","1","0","5e7b899a6b890e0659e5e82e","","null","","","","","","","learning/Slide90.JPG","null","","","","","",""
"html-keyboard-response","275","544672","0.0-7.0-1.9","FL","x8lrz32hbv","1920","1080","0","1","0","5e7b899a6b890e0659e5e82e","","null","","","learningBlock2","","","","That was a dep.","null","","","","","",""
"html-keyboard-response","276","545675","0.0-7.0-2.9","FL","x8lrz32hbv","1920","1080","0","1","0","5e7b899a6b890e0659e5e82e","","null","","","learningBlock2","","","","<div style=""font-size:60px;""> </div>","null","FL","learning/Slide90.JPG","That was a dep.","","",""
"image-keyboard-response","277","545864","0.0-7.0-0.10","FL","x8lrz32hbv","1920","1080","0","1","0","5e7b899a6b890e0659e5e82e","","null","","","","","","","learning/Slide91.JPG","null","","","","","",""
"html-keyboard-response","278","547030","0.0-7.0-1.10","FL","x8lrz32hbv","1920","1080","0","1","0","5e7b899a6b890e0659e5e82e","","null","","","learningBlock2","","","","That was a wug.","null","","","","","",""
"html-keyboard-response","279","548046","0.0-7.0-2.10","FL","x8lrz32hbv","1920","1080","0","1","0","5e7b899a6b890e0659e5e82e","","null","","","learningBlock2","","","","<div style=""font-size:60px;""> </div>","null","FL","learning/Slide91.JPG","That was a wug.","","",""
"image-keyboard-response","280","548224","0.0-7.0-0.11","FL","x8lrz32hbv","1920","1080","0","1","0","5e7b899a6b890e0659e5e82e","","null","","","","","","","learning/Slide92.JPG","null","","","","","",""
"html-keyboard-response","281","549382","0.0-7.0-1.11","FL","x8lrz32hbv","1920","1080","0","1","0","5e7b899a6b890e0659e5e82e","","null","","","learningBlock2","","","","That was a tob.","null","","","","","",""
"html-keyboard-response","282","550388","0.0-7.0-2.11","FL","x8lrz32hbv","1920","1080","0","1","0","5e7b899a6b890e0659e5e82e","","null","","","learningBlock2","","","","<div style=""font-size:60px;""> </div>","null","FL","learning/Slide92.JPG","That was a tob.","","",""
"image-keyboard-response","283","550565","0.0-7.0-0.12","FL","x8lrz32hbv","1920","1080","0","1","0","5e7b899a6b890e0659e5e82e","","null","","","","","","","learning/Slide93.JPG","null","","","","","",""
"html-keyboard-response","284","551724","0.0-7.0-1.12","FL","x8lrz32hbv","1920","1080","0","1","0","5e7b899a6b890e0659e5e82e","","null","","","learningBlock2","","","","That was a bim.","null","","","","","",""
"html-keyboard-response","285","552727","0.0-7.0-2.12","FL","x8lrz32hbv","1920","1080","0","1","0","5e7b899a6b890e0659e5e82e","","null","","","learningBlock2","","","","<div style=""font-size:60px;""> </div>","null","FL","learning/Slide93.JPG","That was a bim.","","",""
"image-keyboard-response","286","552904","0.0-7.0-0.13","FL","x8lrz32hbv","1920","1080","0","1","0","5e7b899a6b890e0659e5e82e","","null","","","","","","","learning/Slide94.JPG","null","","","","","",""
"html-keyboard-response","287","554056","0.0-7.0-1.13","FL","x8lrz32hbv","1920","1080","0","1","0","5e7b899a6b890e0659e5e82e","","null","","","learningBlock2","","","","That was a tob.","null","","","","","",""
"html-keyboard-response","288","555061","0.0-7.0-2.13","FL","x8lrz32hbv","1920","1080","0","1","0","5e7b899a6b890e0659e5e82e","","null","","","learningBlock2","","","","<div style=""font-size:60px;""> </div>","null","FL","learning/Slide94.JPG","That was a tob.","","",""
"image-keyboard-response","289","555238","0.0-7.0-0.14","FL","x8lrz32hbv","1920","1080","0","1","0","5e7b899a6b890e0659e5e82e","","null","","","","","","","learning/Slide95.JPG","null","","","","","",""
"html-keyboard-response","290","556402","0.0-7.0-1.14","FL","x8lrz32hbv","1920","1080","0","1","0","5e7b899a6b890e0659e5e82e","","null","","","learningBlock2","","","","That was a wug.","null","","","","","",""
"html-keyboard-response","291","557404","0.0-7.0-2.14","FL","x8lrz32hbv","1920","1080","0","1","0","5e7b899a6b890e0659e5e82e","","null","","","learningBlock2","","","","<div style=""font-size:60px;""> </div>","null","FL","learning/Slide95.JPG","That was a wug.","","",""
"image-keyboard-response","292","557581","0.0-7.0-0.15","FL","x8lrz32hbv","1920","1080","0","1","0","5e7b899a6b890e0659e5e82e","","null","","","","","","","learning/Slide96.JPG","null","","","","","",""
"html-keyboard-response","293","558735","0.0-7.0-1.15","FL","x8lrz32hbv","1920","1080","0","1","0","5e7b899a6b890e0659e5e82e","","null","","","learningBlock2","","","","That was a tob.","null","","","","","",""
"html-keyboard-response","294","559736","0.0-7.0-2.15","FL","x8lrz32hbv","1920","1080","0","1","0","5e7b899a6b890e0659e5e82e","","null","","","learningBlock2","","","","<div style=""font-size:60px;""> </div>","null","FL","learning/Slide96.JPG","That was a tob.","","",""
"image-keyboard-response","295","559913","0.0-7.0-0.16","FL","x8lrz32hbv","1920","1080","0","1","0","5e7b899a6b890e0659e5e82e","","null","","","","","","","learning/Slide97.JPG","null","","","","","",""
"html-keyboard-response","296","561066","0.0-7.0-1.16","FL","x8lrz32hbv","1920","1080","0","1","0","5e7b899a6b890e0659e5e82e","","null","","","learningBlock2","","","","That was a dep.","null","","","","","",""
"html-keyboard-response","297","562076","0.0-7.0-2.16","FL","x8lrz32hbv","1920","1080","0","1","0","5e7b899a6b890e0659e5e82e","","null","","","learningBlock2","","","","<div style=""font-size:60px;""> </div>","null","FL","learning/Slide97.JPG","That was a dep.","","",""
"image-keyboard-response","298","562260","0.0-7.0-0.17","FL","x8lrz32hbv","1920","1080","0","1","0","5e7b899a6b890e0659e5e82e","","null","","","","","","","learning/Slide98.JPG","null","","","","","",""
"html-keyboard-response","299","563432","0.0-7.0-1.17","FL","x8lrz32hbv","1920","1080","0","1","0","5e7b899a6b890e0659e5e82e","","null","","","learningBlock2","","","","That was a bim.","null","","","","","",""
"html-keyboard-response","300","564434","0.0-7.0-2.17","FL","x8lrz32hbv","1920","1080","0","1","0","5e7b899a6b890e0659e5e82e","","null","","","learningBlock2","","","","<div style=""font-size:60px;""> </div>","null","FL","learning/Slide98.JPG","That was a bim.","","",""
"image-keyboard-response","301","564619","0.0-7.0-0.18","FL","x8lrz32hbv","1920","1080","0","1","0","5e7b899a6b890e0659e5e82e","","null","","","","","","","learning/Slide99.JPG","null","","","","","",""
"html-keyboard-response","302","565787","0.0-7.0-1.18","FL","x8lrz32hbv","1920","1080","0","1","0","5e7b899a6b890e0659e5e82e","","null","","","learningBlock2","","","","That was a dep.","null","","","","","",""
"html-keyboard-response","303","566789","0.0-7.0-2.18","FL","x8lrz32hbv","1920","1080","0","1","0","5e7b899a6b890e0659e5e82e","","null","","","learningBlock2","","","","<div style=""font-size:60px;""> </div>","null","FL","learning/Slide99.JPG","That was a dep.","","",""
"image-keyboard-response","304","566977","0.0-7.0-0.19","FL","x8lrz32hbv","1920","1080","0","1","0","5e7b899a6b890e0659e5e82e","","null","","","","","","","learning/Slide100.JPG","null","","","","","",""
"html-keyboard-response","305","568163","0.0-7.0-1.19","FL","x8lrz32hbv","1920","1080","0","1","0","5e7b899a6b890e0659e5e82e","","null","","","learningBlock2","","","","That was a bim.","null","","","","","",""
"html-keyboard-response","306","569166","0.0-7.0-2.19","FL","x8lrz32hbv","1920","1080","0","1","0","5e7b899a6b890e0659e5e82e","","null","","","learningBlock2","","","","<div style=""font-size:60px;""> </div>","null","FL","learning/Slide100.JPG","That was a bim.","","",""
"image-keyboard-response","307","569351","0.0-7.0-0.20","FL","x8lrz32hbv","1920","1080","0","1","0","5e7b899a6b890e0659e5e82e","","null","","","","","","","learning/Slide101.JPG","null","","","","","",""
"html-keyboard-response","308","570517","0.0-7.0-1.20","FL","x8lrz32hbv","1920","1080","0","1","0","5e7b899a6b890e0659e5e82e","","null","","","learningBlock2","","","","That was a tob.","null","","","","","",""
"html-keyboard-response","309","571519","0.0-7.0-2.20","FL","x8lrz32hbv","1920","1080","0","1","0","5e7b899a6b890e0659e5e82e","","null","","","learningBlock2","","","","<div style=""font-size:60px;""> </div>","null","FL","learning/Slide101.JPG","That was a tob.","","",""
"image-keyboard-response","310","571704","0.0-7.0-0.21","FL","x8lrz32hbv","1920","1080","0","1","0","5e7b899a6b890e0659e5e82e","","null","","","","","","","learning/Slide102.JPG","null","","","","","",""
"html-keyboard-response","311","572861","0.0-7.0-1.21","FL","x8lrz32hbv","1920","1080","0","1","0","5e7b899a6b890e0659e5e82e","","null","","","learningBlock2","","","","That was a bim.","null","","","","","",""
"html-keyboard-response","312","573864","0.0-7.0-2.21","FL","x8lrz32hbv","1920","1080","0","1","0","5e7b899a6b890e0659e5e82e","","null","","","learningBlock2","","","","<div style=""font-size:60px;""> </div>","null","FL","learning/Slide102.JPG","That was a bim.","","",""
"image-keyboard-response","313","574042","0.0-7.0-0.22","FL","x8lrz32hbv","1920","1080","0","1","0","5e7b899a6b890e0659e5e82e","","null","","","","","","","learning/Slide103.JPG","null","","","","","",""
"html-keyboard-response","314","575197","0.0-7.0-1.22","FL","x8lrz32hbv","1920","1080","0","1","0","5e7b899a6b890e0659e5e82e","","null","","","learningBlock2","","","","That was a dep.","null","","","","","",""
"html-keyboard-response","315","576215","0.0-7.0-2.22","FL","x8lrz32hbv","1920","1080","0","1","0","5e7b899a6b890e0659e5e82e","","null","","","learningBlock2","","","","<div style=""font-size:60px;""> </div>","null","FL","learning/Slide103.JPG","That was a dep.","","",""
"image-keyboard-response","316","576400","0.0-7.0-0.23","FL","x8lrz32hbv","1920","1080","0","1","0","5e7b899a6b890e0659e5e82e","","null","","","","","","","learning/Slide104.JPG","null","","","","","",""
"html-keyboard-response","317","577585","0.0-7.0-1.23","FL","x8lrz32hbv","1920","1080","0","1","0","5e7b899a6b890e0659e5e82e","","null","","","learningBlock2","","","","That was a tob.","null","","","","","",""
"html-keyboard-response","318","578601","0.0-7.0-2.23","FL","x8lrz32hbv","1920","1080","0","1","0","5e7b899a6b890e0659e5e82e","","null","","","learningBlock2","","","","<div style=""font-size:60px;""> </div>","null","FL","learning/Slide104.JPG","That was a tob.","","",""
"image-keyboard-response","319","578786","0.0-7.0-0.24","FL","x8lrz32hbv","1920","1080","0","1","0","5e7b899a6b890e0659e5e82e","","null","","","","","","","learning/Slide105.JPG","null","","","","","",""
"html-keyboard-response","320","579971","0.0-7.0-1.24","FL","x8lrz32hbv","1920","1080","0","1","0","5e7b899a6b890e0659e5e82e","","null","","","learningBlock2","","","","That was a dep.","null","","","","","",""
"html-keyboard-response","321","580973","0.0-7.0-2.24","FL","x8lrz32hbv","1920","1080","0","1","0","5e7b899a6b890e0659e5e82e","","null","","","learningBlock2","","","","<div style=""font-size:60px;""> </div>","null","FL","learning/Slide105.JPG","That was a dep.","","",""
"image-keyboard-response","322","581151","0.0-7.0-0.25","FL","x8lrz32hbv","1920","1080","0","1","0","5e7b899a6b890e0659e5e82e","","null","","","","","","","learning/Slide106.JPG","null","","","","","",""
"html-keyboard-response","323","582308","0.0-7.0-1.25","FL","x8lrz32hbv","1920","1080","0","1","0","5e7b899a6b890e0659e5e82e","","null","","","learningBlock2","","","","That was a wug.","null","","","","","",""
"html-keyboard-response","324","583324","0.0-7.0-2.25","FL","x8lrz32hbv","1920","1080","0","1","0","5e7b899a6b890e0659e5e82e","","null","","","learningBlock2","","","","<div style=""font-size:60px;""> </div>","null","FL","learning/Slide106.JPG","That was a wug.","","",""
"image-keyboard-response","325","583508","0.0-7.0-0.26","FL","x8lrz32hbv","1920","1080","0","1","0","5e7b899a6b890e0659e5e82e","","null","","","","","","","learning/Slide107.JPG","null","","","","","",""
"html-keyboard-response","326","584678","0.0-7.0-1.26","FL","x8lrz32hbv","1920","1080","0","1","0","5e7b899a6b890e0659e5e82e","","null","","","learningBlock2","","","","That was a bim.","null","","","","","",""
"html-keyboard-response","327","585684","0.0-7.0-2.26","FL","x8lrz32hbv","1920","1080","0","1","0","5e7b899a6b890e0659e5e82e","","null","","","learningBlock2","","","","<div style=""font-size:60px;""> </div>","null","FL","learning/Slide107.JPG","That was a bim.","","",""
"image-keyboard-response","328","585866","0.0-7.0-0.27","FL","x8lrz32hbv","1920","1080","0","1","0","5e7b899a6b890e0659e5e82e","","null","","","","","","","learning/Slide108.JPG","null","","","","","",""
"html-keyboard-response","329","587019","0.0-7.0-1.27","FL","x8lrz32hbv","1920","1080","0","1","0","5e7b899a6b890e0659e5e82e","","null","","","learningBlock2","","","","That was a dep.","null","","","","","",""
"html-keyboard-response","330","588022","0.0-7.0-2.27","FL","x8lrz32hbv","1920","1080","0","1","0","5e7b899a6b890e0659e5e82e","","null","","","learningBlock2","","","","<div style=""font-size:60px;""> </div>","null","FL","learning/Slide108.JPG","That was a dep.","","",""
"image-keyboard-response","331","588210","0.0-7.0-0.28","FL","x8lrz32hbv","1920","1080","0","1","0","5e7b899a6b890e0659e5e82e","","null","","","","","","","learning/Slide109.JPG","null","","","","","",""
"html-keyboard-response","332","589374","0.0-7.0-1.28","FL","x8lrz32hbv","1920","1080","0","1","0","5e7b899a6b890e0659e5e82e","","null","","","learningBlock2","","","","That was a wug.","null","","","","","",""
"html-keyboard-response","333","590380","0.0-7.0-2.28","FL","x8lrz32hbv","1920","1080","0","1","0","5e7b899a6b890e0659e5e82e","","null","","","learningBlock2","","","","<div style=""font-size:60px;""> </div>","null","FL","learning/Slide109.JPG","That was a wug.","","",""
"image-keyboard-response","334","590563","0.0-7.0-0.29","FL","x8lrz32hbv","1920","1080","0","1","0","5e7b899a6b890e0659e5e82e","","null","","","","","","","learning/Slide110.JPG","null","","","","","",""
"html-keyboard-response","335","591720","0.0-7.0-1.29","FL","x8lrz32hbv","1920","1080","0","1","0","5e7b899a6b890e0659e5e82e","","null","","","learningBlock2","","","","That was a bim.","null","","","","","",""
"html-keyboard-response","336","592724","0.0-7.0-2.29","FL","x8lrz32hbv","1920","1080","0","1","0","5e7b899a6b890e0659e5e82e","","null","","","learningBlock2","","","","<div style=""font-size:60px;""> </div>","null","FL","learning/Slide110.JPG","That was a bim.","","",""
"image-keyboard-response","337","592910","0.0-7.0-0.30","FL","x8lrz32hbv","1920","1080","0","1","0","5e7b899a6b890e0659e5e82e","","null","","","","","","","learning/Slide111.JPG","null","","","","","",""
"html-keyboard-response","338","594064","0.0-7.0-1.30","FL","x8lrz32hbv","1920","1080","0","1","0","5e7b899a6b890e0659e5e82e","","null","","","learningBlock2","","","","That was a tob.","null","","","","","",""
"html-keyboard-response","339","595069","0.0-7.0-2.30","FL","x8lrz32hbv","1920","1080","0","1","0","5e7b899a6b890e0659e5e82e","","null","","","learningBlock2","","","","<div style=""font-size:60px;""> </div>","null","FL","learning/Slide111.JPG","That was a tob.","","",""
"image-keyboard-response","340","595246","0.0-7.0-0.31","FL","x8lrz32hbv","1920","1080","0","1","0","5e7b899a6b890e0659e5e82e","","null","","","","","","","learning/Slide112.JPG","null","","","","","",""
"html-keyboard-response","341","596425","0.0-7.0-1.31","FL","x8lrz32hbv","1920","1080","0","1","0","5e7b899a6b890e0659e5e82e","","null","","","learningBlock2","","","","That was a wug.","null","","","","","",""
"html-keyboard-response","342","597428","0.0-7.0-2.31","FL","x8lrz32hbv","1920","1080","0","1","0","5e7b899a6b890e0659e5e82e","","null","","","learningBlock2","","","","<div style=""font-size:60px;""> </div>","null","FL","learning/Slide112.JPG","That was a wug.","","",""
"image-keyboard-response","343","597606","0.0-7.0-0.32","FL","x8lrz32hbv","1920","1080","0","1","0","5e7b899a6b890e0659e5e82e","","null","","","","","","","learning/Slide113.JPG","null","","","","","",""
"html-keyboard-response","344","598757","0.0-7.0-1.32","FL","x8lrz32hbv","1920","1080","0","1","0","5e7b899a6b890e0659e5e82e","","null","","","learningBlock2","","","","That was a tob.","null","","","","","",""
"html-keyboard-response","345","599760","0.0-7.0-2.32","FL","x8lrz32hbv","1920","1080","0","1","0","5e7b899a6b890e0659e5e82e","","null","","","learningBlock2","","","","<div style=""font-size:60px;""> </div>","null","FL","learning/Slide113.JPG","That was a tob.","","",""
"image-keyboard-response","346","599937","0.0-7.0-0.33","FL","x8lrz32hbv","1920","1080","0","1","0","5e7b899a6b890e0659e5e82e","","null","","","","","","","learning/Slide114.JPG","null","","","","","",""
"html-keyboard-response","347","601103","0.0-7.0-1.33","FL","x8lrz32hbv","1920","1080","0","1","0","5e7b899a6b890e0659e5e82e","","null","","","learningBlock2","","","","That was a wug.","null","","","","","",""
"html-keyboard-response","348","602107","0.0-7.0-2.33","FL","x8lrz32hbv","1920","1080","0","1","0","5e7b899a6b890e0659e5e82e","","null","","","learningBlock2","","","","<div style=""font-size:60px;""> </div>","null","FL","learning/Slide114.JPG","That was a wug.","","",""
"image-keyboard-response","349","602284","0.0-7.0-0.34","FL","x8lrz32hbv","1920","1080","0","1","0","5e7b899a6b890e0659e5e82e","","null","","","","","","","learning/Slide115.JPG","null","","","","","",""
"html-keyboard-response","350","603448","0.0-7.0-1.34","FL","x8lrz32hbv","1920","1080","0","1","0","5e7b899a6b890e0659e5e82e","","null","","","learningBlock2","","","","That was a bim.","null","","","","","",""
"html-keyboard-response","351","604465","0.0-7.0-2.34","FL","x8lrz32hbv","1920","1080","0","1","0","5e7b899a6b890e0659e5e82e","","null","","","learningBlock2","","","","<div style=""font-size:60px;""> </div>","null","FL","learning/Slide115.JPG","That was a bim.","","",""
"image-keyboard-response","352","604650","0.0-7.0-0.35","FL","x8lrz32hbv","1920","1080","0","1","0","5e7b899a6b890e0659e5e82e","","null","","","","","","","learning/Slide116.JPG","null","","","","","",""
"html-keyboard-response","353","605813","0.0-7.0-1.35","FL","x8lrz32hbv","1920","1080","0","1","0","5e7b899a6b890e0659e5e82e","","null","","","learningBlock2","","","","That was a dep.","null","","","","","",""
"html-keyboard-response","354","606823","0.0-7.0-2.35","FL","x8lrz32hbv","1920","1080","0","1","0","5e7b899a6b890e0659e5e82e","","null","","","learningBlock2","","","","<div style=""font-size:60px;""> </div>","null","FL","learning/Slide116.JPG","That was a dep.","","",""
"image-keyboard-response","355","607012","0.0-7.0-0.36","FL","x8lrz32hbv","1920","1080","0","1","0","5e7b899a6b890e0659e5e82e","","null","","","","","","","learning/Slide117.JPG","null","","","","","",""
"html-keyboard-response","356","608169","0.0-7.0-1.36","FL","x8lrz32hbv","1920","1080","0","1","0","5e7b899a6b890e0659e5e82e","","null","","","learningBlock2","","","","That was a tob.","null","","","","","",""
"html-keyboard-response","357","609171","0.0-7.0-2.36","FL","x8lrz32hbv","1920","1080","0","1","0","5e7b899a6b890e0659e5e82e","","null","","","learningBlock2","","","","<div style=""font-size:60px;""> </div>","null","FL","learning/Slide117.JPG","That was a tob.","","",""
"image-keyboard-response","358","609356","0.0-7.0-0.37","FL","x8lrz32hbv","1920","1080","0","1","0","5e7b899a6b890e0659e5e82e","","null","","","","","","","learning/Slide118.JPG","null","","","","","",""
"html-keyboard-response","359","610514","0.0-7.0-1.37","FL","x8lrz32hbv","1920","1080","0","1","0","5e7b899a6b890e0659e5e82e","","null","","","learningBlock2","","","","That was a dep.","null","","","","","",""
"html-keyboard-response","360","611530","0.0-7.0-2.37","FL","x8lrz32hbv","1920","1080","0","1","0","5e7b899a6b890e0659e5e82e","","null","","","learningBlock2","","","","<div style=""font-size:60px;""> </div>","null","FL","learning/Slide118.JPG","That was a dep.","","",""
"image-keyboard-response","361","611715","0.0-7.0-0.38","FL","x8lrz32hbv","1920","1080","0","1","0","5e7b899a6b890e0659e5e82e","","null","","","","","","","learning/Slide119.JPG","null","","","","","",""
"html-keyboard-response","362","612886","0.0-7.0-1.38","FL","x8lrz32hbv","1920","1080","0","1","0","5e7b899a6b890e0659e5e82e","","null","","","learningBlock2","","","","That was a wug.","null","","","","","",""
"html-keyboard-response","363","613887","0.0-7.0-2.38","FL","x8lrz32hbv","1920","1080","0","1","0","5e7b899a6b890e0659e5e82e","","null","","","learningBlock2","","","","<div style=""font-size:60px;""> </div>","null","FL","learning/Slide119.JPG","That was a wug.","","",""
"image-keyboard-response","364","614069","0.0-7.0-0.39","FL","x8lrz32hbv","1920","1080","0","1","0","5e7b899a6b890e0659e5e82e","","null","","","","","","","learning/Slide120.JPG","null","","","","","",""
"html-keyboard-response","365","615224","0.0-7.0-1.39","FL","x8lrz32hbv","1920","1080","0","1","0","5e7b899a6b890e0659e5e82e","","null","","","learningBlock2","","","","That was a dep.","null","","","","","",""
"html-keyboard-response","366","616242","0.0-7.0-2.39","FL","x8lrz32hbv","1920","1080","0","1","0","5e7b899a6b890e0659e5e82e","","null","","","learningBlock2","","","","<div style=""font-size:60px;""> </div>","null","FL","learning/Slide120.JPG","That was a dep.","","",""
"image-keyboard-response","367","616426","0.0-7.0-0.40","FL","x8lrz32hbv","1920","1080","0","1","0","5e7b899a6b890e0659e5e82e","","null","","","","","","","learning/Slide121.JPG","null","","","","","",""
"html-keyboard-response","368","617597","0.0-7.0-1.40","FL","x8lrz32hbv","1920","1080","0","1","0","5e7b899a6b890e0659e5e82e","","null","","","learningBlock2","","","","That was a bim.","null","","","","","",""
"html-keyboard-response","369","618602","0.0-7.0-2.40","FL","x8lrz32hbv","1920","1080","0","1","0","5e7b899a6b890e0659e5e82e","","null","","","learningBlock2","","","","<div style=""font-size:60px;""> </div>","null","FL","learning/Slide121.JPG","That was a bim.","","",""
"image-keyboard-response","370","618799","0.0-7.0-0.41","FL","x8lrz32hbv","1920","1080","0","1","0","5e7b899a6b890e0659e5e82e","","null","","","","","","","learning/Slide122.JPG","null","","","","","",""
"html-keyboard-response","371","619976","0.0-7.0-1.41","FL","x8lrz32hbv","1920","1080","0","1","0","5e7b899a6b890e0659e5e82e","","null","","","learningBlock2","","","","That was a wug.","null","","","","","",""
"html-keyboard-response","372","620982","0.0-7.0-2.41","FL","x8lrz32hbv","1920","1080","0","1","0","5e7b899a6b890e0659e5e82e","","null","","","learningBlock2","","","","<div style=""font-size:60px;""> </div>","null","FL","learning/Slide122.JPG","That was a wug.","","",""
"image-keyboard-response","373","621169","0.0-7.0-0.42","FL","x8lrz32hbv","1920","1080","0","1","0","5e7b899a6b890e0659e5e82e","","null","","","","","","","learning/Slide123.JPG","null","","","","","",""
"html-keyboard-response","374","622323","0.0-7.0-1.42","FL","x8lrz32hbv","1920","1080","0","1","0","5e7b899a6b890e0659e5e82e","","null","","","learningBlock2","","","","That was a bim.","null","","","","","",""
"html-keyboard-response","375","623326","0.0-7.0-2.42","FL","x8lrz32hbv","1920","1080","0","1","0","5e7b899a6b890e0659e5e82e","","null","","","learningBlock2","","","","<div style=""font-size:60px;""> </div>","null","FL","learning/Slide123.JPG","That was a bim.","","",""
"image-keyboard-response","376","623503","0.0-7.0-0.43","FL","x8lrz32hbv","1920","1080","0","1","0","5e7b899a6b890e0659e5e82e","","null","","","","","","","learning/Slide124.JPG","null","","","","","",""
"html-keyboard-response","377","624667","0.0-7.0-1.43","FL","x8lrz32hbv","1920","1080","0","1","0","5e7b899a6b890e0659e5e82e","","null","","","learningBlock2","","","","That was a tob.","null","","","","","",""
"html-keyboard-response","378","625685","0.0-7.0-2.43","FL","x8lrz32hbv","1920","1080","0","1","0","5e7b899a6b890e0659e5e82e","","null","","","learningBlock2","","","","<div style=""font-size:60px;""> </div>","null","FL","learning/Slide124.JPG","That was a tob.","","",""
"image-keyboard-response","379","625869","0.0-7.0-0.44","FL","x8lrz32hbv","1920","1080","0","1","0","5e7b899a6b890e0659e5e82e","","null","","","","","","","learning/Slide125.JPG","null","","","","","",""
"html-keyboard-response","380","627053","0.0-7.0-1.44","FL","x8lrz32hbv","1920","1080","0","1","0","5e7b899a6b890e0659e5e82e","","null","","","learningBlock2","","","","That was a bim.","null","","","","","",""
"html-keyboard-response","381","628058","0.0-7.0-2.44","FL","x8lrz32hbv","1920","1080","0","1","0","5e7b899a6b890e0659e5e82e","","null","","","learningBlock2","","","","<div style=""font-size:60px;""> </div>","null","FL","learning/Slide125.JPG","That was a bim.","","",""
"image-keyboard-response","382","628243","0.0-7.0-0.45","FL","x8lrz32hbv","1920","1080","0","1","0","5e7b899a6b890e0659e5e82e","","null","","","","","","","learning/Slide126.JPG","null","","","","","",""
"html-keyboard-response","383","629408","0.0-7.0-1.45","FL","x8lrz32hbv","1920","1080","0","1","0","5e7b899a6b890e0659e5e82e","","null","","","learningBlock2","","","","That was a tob.","null","","","","","",""
"html-keyboard-response","384","630413","0.0-7.0-2.45","FL","x8lrz32hbv","1920","1080","0","1","0","5e7b899a6b890e0659e5e82e","","null","","","learningBlock2","","","","<div style=""font-size:60px;""> </div>","null","FL","learning/Slide126.JPG","That was a tob.","","",""
"image-keyboard-response","385","630595","0.0-7.0-0.46","FL","x8lrz32hbv","1920","1080","0","1","0","5e7b899a6b890e0659e5e82e","","null","","","","","","","learning/Slide127.JPG","null","","","","","",""
"html-keyboard-response","386","631752","0.0-7.0-1.46","FL","x8lrz32hbv","1920","1080","0","1","0","5e7b899a6b890e0659e5e82e","","null","","","learningBlock2","","","","That was a dep.","null","","","","","",""
"html-keyboard-response","387","632755","0.0-7.0-2.46","FL","x8lrz32hbv","1920","1080","0","1","0","5e7b899a6b890e0659e5e82e","","null","","","learningBlock2","","","","<div style=""font-size:60px;""> </div>","null","FL","learning/Slide127.JPG","That was a dep.","","",""
"image-keyboard-response","388","632938","0.0-7.0-0.47","FL","x8lrz32hbv","1920","1080","0","1","0","5e7b899a6b890e0659e5e82e","","null","","","","","","","learning/Slide128.JPG","null","","","","","",""
"html-keyboard-response","389","634105","0.0-7.0-1.47","FL","x8lrz32hbv","1920","1080","0","1","0","5e7b899a6b890e0659e5e82e","","null","","","learningBlock2","","","","That was a wug.","null","","","","","",""
"html-keyboard-response","390","635107","0.0-7.0-2.47","FL","x8lrz32hbv","1920","1080","0","1","0","5e7b899a6b890e0659e5e82e","","null","","","learningBlock2","","","","<div style=""font-size:60px;""> </div>","null","FL","learning/Slide128.JPG","That was a wug.","","",""
"image-keyboard-response","391","635285","0.0-7.0-0.48","FL","x8lrz32hbv","1920","1080","0","1","0","5e7b899a6b890e0659e5e82e","","null","","","","","","","learning/Slide129.JPG","null","","","","","",""
"html-keyboard-response","392","636438","0.0-7.0-1.48","FL","x8lrz32hbv","1920","1080","0","1","0","5e7b899a6b890e0659e5e82e","","null","","","learningBlock2","","","","That was a tob.","null","","","","","",""
"html-keyboard-response","393","637441","0.0-7.0-2.48","FL","x8lrz32hbv","1920","1080","0","1","0","5e7b899a6b890e0659e5e82e","","null","","","learningBlock2","","","","<div style=""font-size:60px;""> </div>","null","FL","learning/Slide129.JPG","That was a tob.","","",""
"image-keyboard-response","394","637618","0.0-7.0-0.49","FL","x8lrz32hbv","1920","1080","0","1","0","5e7b899a6b890e0659e5e82e","","null","","","","","","","learning/Slide130.JPG","null","","","","","",""
"html-keyboard-response","395","638783","0.0-7.0-1.49","FL","x8lrz32hbv","1920","1080","0","1","0","5e7b899a6b890e0659e5e82e","","null","","","learningBlock2","","","","That was a wug.","null","","","","","",""
"html-keyboard-response","396","639786","0.0-7.0-2.49","FL","x8lrz32hbv","1920","1080","0","1","0","5e7b899a6b890e0659e5e82e","","null","","","learningBlock2","","","","<div style=""font-size:60px;""> </div>","null","FL","learning/Slide130.JPG","That was a wug.","","",""
"image-keyboard-response","397","639964","0.0-7.0-0.50","FL","x8lrz32hbv","1920","1080","0","1","0","5e7b899a6b890e0659e5e82e","","null","","","","","","","learning/Slide131.JPG","null","","","","","",""
"html-keyboard-response","398","641131","0.0-7.0-1.50","FL","x8lrz32hbv","1920","1080","0","1","0","5e7b899a6b890e0659e5e82e","","null","","","learningBlock2","","","","That was a bim.","null","","","","","",""
"html-keyboard-response","399","642133","0.0-7.0-2.50","FL","x8lrz32hbv","1920","1080","0","1","0","5e7b899a6b890e0659e5e82e","","null","","","learningBlock2","","","","<div style=""font-size:60px;""> </div>","null","FL","learning/Slide131.JPG","That was a bim.","","",""
"image-keyboard-response","400","642310","0.0-7.0-0.51","FL","x8lrz32hbv","1920","1080","0","1","0","5e7b899a6b890e0659e5e82e","","null","","","","","","","learning/Slide132.JPG","null","","","","","",""
"html-keyboard-response","401","643482","0.0-7.0-1.51","FL","x8lrz32hbv","1920","1080","0","1","0","5e7b899a6b890e0659e5e82e","","null","","","learningBlock2","","","","That was a dep.","null","","","","","",""
"html-keyboard-response","402","644492","0.0-7.0-2.51","FL","x8lrz32hbv","1920","1080","0","1","0","5e7b899a6b890e0659e5e82e","","null","","","learningBlock2","","","","<div style=""font-size:60px;""> </div>","null","FL","learning/Slide132.JPG","That was a dep.","","",""
"image-keyboard-response","403","644670","0.0-7.0-0.52","FL","x8lrz32hbv","1920","1080","0","1","0","5e7b899a6b890e0659e5e82e","","null","","","","","","","learning/Slide133.JPG","null","","","","","",""
"html-keyboard-response","404","645836","0.0-7.0-1.52","FL","x8lrz32hbv","1920","1080","0","1","0","5e7b899a6b890e0659e5e82e","","null","","","learningBlock2","","","","That was a tob.","null","","","","","",""
"html-keyboard-response","405","646852","0.0-7.0-2.52","FL","x8lrz32hbv","1920","1080","0","1","0","5e7b899a6b890e0659e5e82e","","null","","","learningBlock2","","","","<div style=""font-size:60px;""> </div>","null","FL","learning/Slide133.JPG","That was a tob.","","",""
"image-keyboard-response","406","647030","0.0-7.0-0.53","FL","x8lrz32hbv","1920","1080","0","1","0","5e7b899a6b890e0659e5e82e","","null","","","","","","","learning/Slide134.JPG","null","","","","","",""
"html-keyboard-response","407","648203","0.0-7.0-1.53","FL","x8lrz32hbv","1920","1080","0","1","0","5e7b899a6b890e0659e5e82e","","null","","","learningBlock2","","","","That was a dep.","null","","","","","",""
"html-keyboard-response","408","649207","0.0-7.0-2.53","FL","x8lrz32hbv","1920","1080","0","1","0","5e7b899a6b890e0659e5e82e","","null","","","learningBlock2","","","","<div style=""font-size:60px;""> </div>","null","FL","learning/Slide134.JPG","That was a dep.","","",""
"image-keyboard-response","409","649392","0.0-7.0-0.54","FL","x8lrz32hbv","1920","1080","0","1","0","5e7b899a6b890e0659e5e82e","","null","","","","","","","learning/Slide135.JPG","null","","","","","",""
"html-keyboard-response","410","650562","0.0-7.0-1.54","FL","x8lrz32hbv","1920","1080","0","1","0","5e7b899a6b890e0659e5e82e","","null","","","learningBlock2","","","","That was a tob.","null","","","","","",""
"html-keyboard-response","411","651564","0.0-7.0-2.54","FL","x8lrz32hbv","1920","1080","0","1","0","5e7b899a6b890e0659e5e82e","","null","","","learningBlock2","","","","<div style=""font-size:60px;""> </div>","null","FL","learning/Slide135.JPG","That was a tob.","","",""
"image-keyboard-response","412","651748","0.0-7.0-0.55","FL","x8lrz32hbv","1920","1080","0","1","0","5e7b899a6b890e0659e5e82e","","null","","","","","","","learning/Slide136.JPG","null","","","","","",""
"html-keyboard-response","413","652913","0.0-7.0-1.55","FL","x8lrz32hbv","1920","1080","0","1","0","5e7b899a6b890e0659e5e82e","","null","","","learningBlock2","","","","That was a wug.","null","","","","","",""
"html-keyboard-response","414","653916","0.0-7.0-2.55","FL","x8lrz32hbv","1920","1080","0","1","0","5e7b899a6b890e0659e5e82e","","null","","","learningBlock2","","","","<div style=""font-size:60px;""> </div>","null","FL","learning/Slide136.JPG","That was a wug.","","",""
"image-keyboard-response","415","654100","0.0-7.0-0.56","FL","x8lrz32hbv","1920","1080","0","1","0","5e7b899a6b890e0659e5e82e","","null","","","","","","","learning/Slide137.JPG","null","","","","","",""
"html-keyboard-response","416","655256","0.0-7.0-1.56","FL","x8lrz32hbv","1920","1080","0","1","0","5e7b899a6b890e0659e5e82e","","null","","","learningBlock2","","","","That was a tob.","null","","","","","",""
"html-keyboard-response","417","656271","0.0-7.0-2.56","FL","x8lrz32hbv","1920","1080","0","1","0","5e7b899a6b890e0659e5e82e","","null","","","learningBlock2","","","","<div style=""font-size:60px;""> </div>","null","FL","learning/Slide137.JPG","That was a tob.","","",""
"image-keyboard-response","418","656461","0.0-7.0-0.57","FL","x8lrz32hbv","1920","1080","0","1","0","5e7b899a6b890e0659e5e82e","","null","","","","","","","learning/Slide138.JPG","null","","","","","",""
"html-keyboard-response","419","657643","0.0-7.0-1.57","FL","x8lrz32hbv","1920","1080","0","1","0","5e7b899a6b890e0659e5e82e","","null","","","learningBlock2","","","","That was a bim.","null","","","","","",""
"html-keyboard-response","420","658660","0.0-7.0-2.57","FL","x8lrz32hbv","1920","1080","0","1","0","5e7b899a6b890e0659e5e82e","","null","","","learningBlock2","","","","<div style=""font-size:60px;""> </div>","null","FL","learning/Slide138.JPG","That was a bim.","","",""
"image-keyboard-response","421","658845","0.0-7.0-0.58","FL","x8lrz32hbv","1920","1080","0","1","0","5e7b899a6b890e0659e5e82e","","null","","","","","","","learning/Slide139.JPG","null","","","","","",""
"html-keyboard-response","422","660009","0.0-7.0-1.58","FL","x8lrz32hbv","1920","1080","0","1","0","5e7b899a6b890e0659e5e82e","","null","","","learningBlock2","","","","That was a wug.","null","","","","","",""
"html-keyboard-response","423","661012","0.0-7.0-2.58","FL","x8lrz32hbv","1920","1080","0","1","0","5e7b899a6b890e0659e5e82e","","null","","","learningBlock2","","","","<div style=""font-size:60px;""> </div>","null","FL","learning/Slide139.JPG","That was a wug.","","",""
"image-keyboard-response","424","661198","0.0-7.0-0.59","FL","x8lrz32hbv","1920","1080","0","1","0","5e7b899a6b890e0659e5e82e","","null","","","","","","","learning/Slide140.JPG","null","","","","","",""
"html-keyboard-response","425","662354","0.0-7.0-1.59","FL","x8lrz32hbv","1920","1080","0","1","0","5e7b899a6b890e0659e5e82e","","null","","","learningBlock2","","","","That was a dep.","null","","","","","",""
"html-keyboard-response","426","663356","0.0-7.0-2.59","FL","x8lrz32hbv","1920","1080","0","1","0","5e7b899a6b890e0659e5e82e","","null","","","learningBlock2","","","","<div style=""font-size:60px;""> </div>","null","FL","learning/Slide140.JPG","That was a dep.","","",""
"image-keyboard-response","427","663534","0.0-7.0-0.60","FL","x8lrz32hbv","1920","1080","0","1","0","5e7b899a6b890e0659e5e82e","","null","","","","","","","learning/Slide141.JPG","null","","","","","",""
"html-keyboard-response","428","664692","0.0-7.0-1.60","FL","x8lrz32hbv","1920","1080","0","1","0","5e7b899a6b890e0659e5e82e","","null","","","learningBlock2","","","","That was a tob.","null","","","","","",""
"html-keyboard-response","429","665711","0.0-7.0-2.60","FL","x8lrz32hbv","1920","1080","0","1","0","5e7b899a6b890e0659e5e82e","","null","","","learningBlock2","","","","<div style=""font-size:60px;""> </div>","null","FL","learning/Slide141.JPG","That was a tob.","","",""
"image-keyboard-response","430","665893","0.0-7.0-0.61","FL","x8lrz32hbv","1920","1080","0","1","0","5e7b899a6b890e0659e5e82e","","null","","","","","","","learning/Slide142.JPG","null","","","","","",""
"html-keyboard-response","431","667079","0.0-7.0-1.61","FL","x8lrz32hbv","1920","1080","0","1","0","5e7b899a6b890e0659e5e82e","","null","","","learningBlock2","","","","That was a wug.","null","","","","","",""
"html-keyboard-response","432","668095","0.0-7.0-2.61","FL","x8lrz32hbv","1920","1080","0","1","0","5e7b899a6b890e0659e5e82e","","null","","","learningBlock2","","","","<div style=""font-size:60px;""> </div>","null","FL","learning/Slide142.JPG","That was a wug.","","",""
"image-keyboard-response","433","668284","0.0-7.0-0.62","FL","x8lrz32hbv","1920","1080","0","1","0","5e7b899a6b890e0659e5e82e","","null","","","","","","","learning/Slide143.JPG","null","","","","","",""
"html-keyboard-response","434","669468","0.0-7.0-1.62","FL","x8lrz32hbv","1920","1080","0","1","0","5e7b899a6b890e0659e5e82e","","null","","","learningBlock2","","","","That was a bim.","null","","","","","",""
