"trial_type","trial_index","time_elapsed","internal_node_id","condition","subject","screen_width","screen_height","attention","distraction","conscientious","prolificID","success","rt","url","view_history","test_part","final_height_px","final_width_px","scale_factor","stimulus","key_press","learningType","presentedImage","presentedLabel","button_pressed","response","responses"
"pavlovia","0","24","0.0-0.0","LF","53gv7n4gtu","1440","900","0","1","0","601fd3cd92f028532a257baf","","","","","","","","","","","","","","","",""
"fullscreen","1","4156","0.0-1.0","LF","53gv7n4gtu","1440","900","0","1","0","601fd3cd92f028532a257baf","true","","","","","","","","","","","","","","",""
"external-html","2","45412","0.0-2.0-0.0","LF","53gv7n4gtu","1440","900","0","1","0","601fd3cd92f028532a257baf","","41197.22499999989","text/information_english.html","","","","","","","","","","","","",""
"external-html","3","50598","0.0-2.0-1.0","LF","53gv7n4gtu","1440","900","0","1","0","601fd3cd92f028532a257baf","","5125.925000000279","text/consent_english.html","","","","","","","","","","","","",""
"instructions","4","61603","0.0-3.0","LF","53gv7n4gtu","1440","900","0","1","0","601fd3cd92f028532a257baf","","NA","","[{""page_index"":0,""viewing_time"":2398.6299999996845},{""page_index"":1,""viewing_time"":8602.625000001353}]","instructions","","","","","","","","","","",""
"resize","5","92259","0.0-4.0","LF","53gv7n4gtu","1440","900","0","1","0","601fd3cd92f028532a257baf","","","","","","","434","2.7555555555555555","","","","","","","",""
"html-keyboard-response","6","93268","0.0-5.0-0.0","LF","53gv7n4gtu","1440","900","0","1","0","601fd3cd92f028532a257baf","","null","","","learningBlock1","","","","This is a tob:","null","","","","","",""
"image-keyboard-response","7","93603","0.0-5.0-1.0","LF","53gv7n4gtu","1440","900","0","1","0","601fd3cd92f028532a257baf","","null","","","","","","","learning/Slide1.JPG","null","","","","","",""
"html-keyboard-response","8","94610","0.0-5.0-2.0","LF","53gv7n4gtu","1440","900","0","1","0","601fd3cd92f028532a257baf","","null","","","learningBlock1","","","","<div style=""font-size:60px;""> </div>","null","LF","learning/Slide1.JPG","This is a tob:","","",""
"html-keyboard-response","9","95618","0.0-5.0-0.1","LF","53gv7n4gtu","1440","900","0","1","0","601fd3cd92f028532a257baf","","null","","","learningBlock1","","","","This is a wug:","null","","","","","",""
"image-keyboard-response","10","95957","0.0-5.0-1.1","LF","53gv7n4gtu","1440","900","0","1","0","601fd3cd92f028532a257baf","","null","","","","","","","learning/Slide2.JPG","null","","","","","",""
"html-keyboard-response","11","96964","0.0-5.0-2.1","LF","53gv7n4gtu","1440","900","0","1","0","601fd3cd92f028532a257baf","","null","","","learningBlock1","","","","<div style=""font-size:60px;""> </div>","null","LF","learning/Slide2.JPG","This is a wug:","","",""
"html-keyboard-response","12","97972","0.0-5.0-0.2","LF","53gv7n4gtu","1440","900","0","1","0","601fd3cd92f028532a257baf","","null","","","learningBlock1","","","","This is a bim:","null","","","","","",""
"image-keyboard-response","13","98310","0.0-5.0-1.2","LF","53gv7n4gtu","1440","900","0","1","0","601fd3cd92f028532a257baf","","null","","","","","","","learning/Slide3.JPG","null","","","","","",""
"html-keyboard-response","14","99317","0.0-5.0-2.2","LF","53gv7n4gtu","1440","900","0","1","0","601fd3cd92f028532a257baf","","null","","","learningBlock1","","","","<div style=""font-size:60px;""> </div>","null","LF","learning/Slide3.JPG","This is a bim:","","",""
"html-keyboard-response","15","100319","0.0-5.0-0.3","LF","53gv7n4gtu","1440","900","0","1","0","601fd3cd92f028532a257baf","","null","","","learningBlock1","","","","This is a dep:","null","","","","","",""
"image-keyboard-response","16","100653","0.0-5.0-1.3","LF","53gv7n4gtu","1440","900","0","1","0","601fd3cd92f028532a257baf","","null","","","","","","","learning/Slide4.JPG","null","","","","","",""
"html-keyboard-response","17","101660","0.0-5.0-2.3","LF","53gv7n4gtu","1440","900","0","1","0","601fd3cd92f028532a257baf","","null","","","learningBlock1","","","","<div style=""font-size:60px;""> </div>","null","LF","learning/Slide4.JPG","This is a dep:","","",""
"html-keyboard-response","18","102666","0.0-5.0-0.4","LF","53gv7n4gtu","1440","900","0","1","0","601fd3cd92f028532a257baf","","null","","","learningBlock1","","","","This is a wug:","null","","","","","",""
"image-keyboard-response","19","103002","0.0-5.0-1.4","LF","53gv7n4gtu","1440","900","0","1","0","601fd3cd92f028532a257baf","","null","","","","","","","learning/Slide5.JPG","null","","","","","",""
"html-keyboard-response","20","104009","0.0-5.0-2.4","LF","53gv7n4gtu","1440","900","0","1","0","601fd3cd92f028532a257baf","","null","","","learningBlock1","","","","<div style=""font-size:60px;""> </div>","null","LF","learning/Slide5.JPG","This is a wug:","","",""
"html-keyboard-response","21","105015","0.0-5.0-0.5","LF","53gv7n4gtu","1440","900","0","1","0","601fd3cd92f028532a257baf","","null","","","learningBlock1","","","","This is a dep:","null","","","","","",""
"image-keyboard-response","22","105351","0.0-5.0-1.5","LF","53gv7n4gtu","1440","900","0","1","0","601fd3cd92f028532a257baf","","null","","","","","","","learning/Slide6.JPG","null","","","","","",""
"html-keyboard-response","23","106354","0.0-5.0-2.5","LF","53gv7n4gtu","1440","900","0","1","0","601fd3cd92f028532a257baf","","null","","","learningBlock1","","","","<div style=""font-size:60px;""> </div>","null","LF","learning/Slide6.JPG","This is a dep:","","",""
"html-keyboard-response","24","107360","0.0-5.0-0.6","LF","53gv7n4gtu","1440","900","0","1","0","601fd3cd92f028532a257baf","","null","","","learningBlock1","","","","This is a wug:","null","","","","","",""
"image-keyboard-response","25","107694","0.0-5.0-1.6","LF","53gv7n4gtu","1440","900","0","1","0","601fd3cd92f028532a257baf","","null","","","","","","","learning/Slide7.JPG","null","","","","","",""
"html-keyboard-response","26","108697","0.0-5.0-2.6","LF","53gv7n4gtu","1440","900","0","1","0","601fd3cd92f028532a257baf","","null","","","learningBlock1","","","","<div style=""font-size:60px;""> </div>","null","LF","learning/Slide7.JPG","This is a wug:","","",""
"html-keyboard-response","27","109701","0.0-5.0-0.7","LF","53gv7n4gtu","1440","900","0","1","0","601fd3cd92f028532a257baf","","null","","","learningBlock1","","","","This is a bim:","null","","","","","",""
"image-keyboard-response","28","110035","0.0-5.0-1.7","LF","53gv7n4gtu","1440","900","0","1","0","601fd3cd92f028532a257baf","","null","","","","","","","learning/Slide8.JPG","null","","","","","",""
"html-keyboard-response","29","111041","0.0-5.0-2.7","LF","53gv7n4gtu","1440","900","0","1","0","601fd3cd92f028532a257baf","","null","","","learningBlock1","","","","<div style=""font-size:60px;""> </div>","null","LF","learning/Slide8.JPG","This is a bim:","","",""
"html-keyboard-response","30","112048","0.0-5.0-0.8","LF","53gv7n4gtu","1440","900","0","1","0","601fd3cd92f028532a257baf","","null","","","learningBlock1","","","","This is a wug:","null","","","","","",""
"image-keyboard-response","31","112383","0.0-5.0-1.8","LF","53gv7n4gtu","1440","900","0","1","0","601fd3cd92f028532a257baf","","null","","","","","","","learning/Slide9.JPG","null","","","","","",""
"html-keyboard-response","32","113390","0.0-5.0-2.8","LF","53gv7n4gtu","1440","900","0","1","0","601fd3cd92f028532a257baf","","null","","","learningBlock1","","","","<div style=""font-size:60px;""> </div>","null","LF","learning/Slide9.JPG","This is a wug:","","",""
"html-keyboard-response","33","114397","0.0-5.0-0.9","LF","53gv7n4gtu","1440","900","0","1","0","601fd3cd92f028532a257baf","","null","","","learningBlock1","","","","This is a dep:","null","","","","","",""
"image-keyboard-response","34","114733","0.0-5.0-1.9","LF","53gv7n4gtu","1440","900","0","1","0","601fd3cd92f028532a257baf","","null","","","","","","","learning/Slide10.JPG","null","","","","","",""
"html-keyboard-response","35","115736","0.0-5.0-2.9","LF","53gv7n4gtu","1440","900","0","1","0","601fd3cd92f028532a257baf","","null","","","learningBlock1","","","","<div style=""font-size:60px;""> </div>","null","LF","learning/Slide10.JPG","This is a dep:","","",""
"html-keyboard-response","36","116742","0.0-5.0-0.10","LF","53gv7n4gtu","1440","900","0","1","0","601fd3cd92f028532a257baf","","null","","","learningBlock1","","","","This is a tob:","null","","","","","",""
"image-keyboard-response","37","117073","0.0-5.0-1.10","LF","53gv7n4gtu","1440","900","0","1","0","601fd3cd92f028532a257baf","","null","","","","","","","learning/Slide11.JPG","null","","","","","",""
"html-keyboard-response","38","118075","0.0-5.0-2.10","LF","53gv7n4gtu","1440","900","0","1","0","601fd3cd92f028532a257baf","","null","","","learningBlock1","","","","<div style=""font-size:60px;""> </div>","null","LF","learning/Slide11.JPG","This is a tob:","","",""
"html-keyboard-response","39","119081","0.0-5.0-0.11","LF","53gv7n4gtu","1440","900","0","1","0","601fd3cd92f028532a257baf","","null","","","learningBlock1","","","","This is a dep:","null","","","","","",""
"image-keyboard-response","40","119419","0.0-5.0-1.11","LF","53gv7n4gtu","1440","900","0","1","0","601fd3cd92f028532a257baf","","null","","","","","","","learning/Slide12.JPG","null","","","","","",""
"html-keyboard-response","41","120427","0.0-5.0-2.11","LF","53gv7n4gtu","1440","900","0","1","0","601fd3cd92f028532a257baf","","null","","","learningBlock1","","","","<div style=""font-size:60px;""> </div>","null","LF","learning/Slide12.JPG","This is a dep:","","",""
"html-keyboard-response","42","121433","0.0-5.0-0.12","LF","53gv7n4gtu","1440","900","0","1","0","601fd3cd92f028532a257baf","","null","","","learningBlock1","","","","This is a bim:","null","","","","","",""
"image-keyboard-response","43","121770","0.0-5.0-1.12","LF","53gv7n4gtu","1440","900","0","1","0","601fd3cd92f028532a257baf","","null","","","","","","","learning/Slide13.JPG","null","","","","","",""
"html-keyboard-response","44","122778","0.0-5.0-2.12","LF","53gv7n4gtu","1440","900","0","1","0","601fd3cd92f028532a257baf","","null","","","learningBlock1","","","","<div style=""font-size:60px;""> </div>","null","LF","learning/Slide13.JPG","This is a bim:","","",""
"html-keyboard-response","45","123784","0.0-5.0-0.13","LF","53gv7n4gtu","1440","900","0","1","0","601fd3cd92f028532a257baf","","null","","","learningBlock1","","","","This is a wug:","null","","","","","",""
"image-keyboard-response","46","124116","0.0-5.0-1.13","LF","53gv7n4gtu","1440","900","0","1","0","601fd3cd92f028532a257baf","","null","","","","","","","learning/Slide14.JPG","null","","","","","",""
"html-keyboard-response","47","125123","0.0-5.0-2.13","LF","53gv7n4gtu","1440","900","0","1","0","601fd3cd92f028532a257baf","","null","","","learningBlock1","","","","<div style=""font-size:60px;""> </div>","null","LF","learning/Slide14.JPG","This is a wug:","","",""
"html-keyboard-response","48","126130","0.0-5.0-0.14","LF","53gv7n4gtu","1440","900","0","1","0","601fd3cd92f028532a257baf","","null","","","learningBlock1","","","","This is a tob:","null","","","","","",""
"image-keyboard-response","49","126460","0.0-5.0-1.14","LF","53gv7n4gtu","1440","900","0","1","0","601fd3cd92f028532a257baf","","null","","","","","","","learning/Slide15.JPG","null","","","","","",""
"html-keyboard-response","50","127466","0.0-5.0-2.14","LF","53gv7n4gtu","1440","900","0","1","0","601fd3cd92f028532a257baf","","null","","","learningBlock1","","","","<div style=""font-size:60px;""> </div>","null","LF","learning/Slide15.JPG","This is a tob:","","",""
"html-keyboard-response","51","128472","0.0-5.0-0.15","LF","53gv7n4gtu","1440","900","0","1","0","601fd3cd92f028532a257baf","","null","","","learningBlock1","","","","This is a dep:","null","","","","","",""
"image-keyboard-response","52","128808","0.0-5.0-1.15","LF","53gv7n4gtu","1440","900","0","1","0","601fd3cd92f028532a257baf","","null","","","","","","","learning/Slide16.JPG","null","","","","","",""
"html-keyboard-response","53","129816","0.0-5.0-2.15","LF","53gv7n4gtu","1440","900","0","1","0","601fd3cd92f028532a257baf","","null","","","learningBlock1","","","","<div style=""font-size:60px;""> </div>","null","LF","learning/Slide16.JPG","This is a dep:","","",""
"html-keyboard-response","54","130822","0.0-5.0-0.16","LF","53gv7n4gtu","1440","900","0","1","0","601fd3cd92f028532a257baf","","null","","","learningBlock1","","","","This is a bim:","null","","","","","",""
"image-keyboard-response","55","131158","0.0-5.0-1.16","LF","53gv7n4gtu","1440","900","0","1","0","601fd3cd92f028532a257baf","","null","","","","","","","learning/Slide17.JPG","null","","","","","",""
"html-keyboard-response","56","132164","0.0-5.0-2.16","LF","53gv7n4gtu","1440","900","0","1","0","601fd3cd92f028532a257baf","","null","","","learningBlock1","","","","<div style=""font-size:60px;""> </div>","null","LF","learning/Slide17.JPG","This is a bim:","","",""
"html-keyboard-response","57","133169","0.0-5.0-0.17","LF","53gv7n4gtu","1440","900","0","1","0","601fd3cd92f028532a257baf","","null","","","learningBlock1","","","","This is a tob:","null","","","","","",""
"image-keyboard-response","58","133497","0.0-5.0-1.17","LF","53gv7n4gtu","1440","900","0","1","0","601fd3cd92f028532a257baf","","null","","","","","","","learning/Slide18.JPG","null","","","","","",""
"html-keyboard-response","59","134505","0.0-5.0-2.17","LF","53gv7n4gtu","1440","900","0","1","0","601fd3cd92f028532a257baf","","null","","","learningBlock1","","","","<div style=""font-size:60px;""> </div>","null","LF","learning/Slide18.JPG","This is a tob:","","",""
"html-keyboard-response","60","135512","0.0-5.0-0.18","LF","53gv7n4gtu","1440","900","0","1","0","601fd3cd92f028532a257baf","","null","","","learningBlock1","","","","This is a wug:","null","","","","","",""
"image-keyboard-response","61","135848","0.0-5.0-1.18","LF","53gv7n4gtu","1440","900","0","1","0","601fd3cd92f028532a257baf","","null","","","","","","","learning/Slide19.JPG","null","","","","","",""
"html-keyboard-response","62","136850","0.0-5.0-2.18","LF","53gv7n4gtu","1440","900","0","1","0","601fd3cd92f028532a257baf","","null","","","learningBlock1","","","","<div style=""font-size:60px;""> </div>","null","LF","learning/Slide19.JPG","This is a wug:","","",""
"html-keyboard-response","63","137857","0.0-5.0-0.19","LF","53gv7n4gtu","1440","900","0","1","0","601fd3cd92f028532a257baf","","null","","","learningBlock1","","","","This is a bim:","null","","","","","",""
"image-keyboard-response","64","138194","0.0-5.0-1.19","LF","53gv7n4gtu","1440","900","0","1","0","601fd3cd92f028532a257baf","","null","","","","","","","learning/Slide20.JPG","null","","","","","",""
"html-keyboard-response","65","139201","0.0-5.0-2.19","LF","53gv7n4gtu","1440","900","0","1","0","601fd3cd92f028532a257baf","","null","","","learningBlock1","","","","<div style=""font-size:60px;""> </div>","null","LF","learning/Slide20.JPG","This is a bim:","","",""
"html-keyboard-response","66","140204","0.0-5.0-0.20","LF","53gv7n4gtu","1440","900","0","1","0","601fd3cd92f028532a257baf","","null","","","learningBlock1","","","","This is a dep:","null","","","","","",""
"image-keyboard-response","67","140537","0.0-5.0-1.20","LF","53gv7n4gtu","1440","900","0","1","0","601fd3cd92f028532a257baf","","null","","","","","","","learning/Slide21.JPG","null","","","","","",""
"html-keyboard-response","68","141543","0.0-5.0-2.20","LF","53gv7n4gtu","1440","900","0","1","0","601fd3cd92f028532a257baf","","null","","","learningBlock1","","","","<div style=""font-size:60px;""> </div>","null","LF","learning/Slide21.JPG","This is a dep:","","",""
"html-keyboard-response","69","142552","0.0-5.0-0.21","LF","53gv7n4gtu","1440","900","0","1","0","601fd3cd92f028532a257baf","","null","","","learningBlock1","","","","This is a bim:","null","","","","","",""
"image-keyboard-response","70","142890","0.0-5.0-1.21","LF","53gv7n4gtu","1440","900","0","1","0","601fd3cd92f028532a257baf","","null","","","","","","","learning/Slide22.JPG","null","","","","","",""
"html-keyboard-response","71","143896","0.0-5.0-2.21","LF","53gv7n4gtu","1440","900","0","1","0","601fd3cd92f028532a257baf","","null","","","learningBlock1","","","","<div style=""font-size:60px;""> </div>","null","LF","learning/Slide22.JPG","This is a bim:","","",""
"html-keyboard-response","72","144899","0.0-5.0-0.22","LF","53gv7n4gtu","1440","900","0","1","0","601fd3cd92f028532a257baf","","null","","","learningBlock1","","","","This is a tob:","null","","","","","",""
"image-keyboard-response","73","145226","0.0-5.0-1.22","LF","53gv7n4gtu","1440","900","0","1","0","601fd3cd92f028532a257baf","","null","","","","","","","learning/Slide23.JPG","null","","","","","",""
"html-keyboard-response","74","146233","0.0-5.0-2.22","LF","53gv7n4gtu","1440","900","0","1","0","601fd3cd92f028532a257baf","","null","","","learningBlock1","","","","<div style=""font-size:60px;""> </div>","null","LF","learning/Slide23.JPG","This is a tob:","","",""
"html-keyboard-response","75","147239","0.0-5.0-0.23","LF","53gv7n4gtu","1440","900","0","1","0","601fd3cd92f028532a257baf","","null","","","learningBlock1","","","","This is a wug:","null","","","","","",""
"image-keyboard-response","76","147573","0.0-5.0-1.23","LF","53gv7n4gtu","1440","900","0","1","0","601fd3cd92f028532a257baf","","null","","","","","","","learning/Slide24.JPG","null","","","","","",""
"html-keyboard-response","77","148578","0.0-5.0-2.23","LF","53gv7n4gtu","1440","900","0","1","0","601fd3cd92f028532a257baf","","null","","","learningBlock1","","","","<div style=""font-size:60px;""> </div>","null","LF","learning/Slide24.JPG","This is a wug:","","",""
"html-keyboard-response","78","149584","0.0-5.0-0.24","LF","53gv7n4gtu","1440","900","0","1","0","601fd3cd92f028532a257baf","","null","","","learningBlock1","","","","This is a dep:","null","","","","","",""
"image-keyboard-response","79","149921","0.0-5.0-1.24","LF","53gv7n4gtu","1440","900","0","1","0","601fd3cd92f028532a257baf","","null","","","","","","","learning/Slide25.JPG","null","","","","","",""
"html-keyboard-response","80","150926","0.0-5.0-2.24","LF","53gv7n4gtu","1440","900","0","1","0","601fd3cd92f028532a257baf","","null","","","learningBlock1","","","","<div style=""font-size:60px;""> </div>","null","LF","learning/Slide25.JPG","This is a dep:","","",""
"html-keyboard-response","81","151932","0.0-5.0-0.25","LF","53gv7n4gtu","1440","900","0","1","0","601fd3cd92f028532a257baf","","null","","","learningBlock1","","","","This is a wug:","null","","","","","",""
"image-keyboard-response","82","152267","0.0-5.0-1.25","LF","53gv7n4gtu","1440","900","0","1","0","601fd3cd92f028532a257baf","","null","","","","","","","learning/Slide26.JPG","null","","","","","",""
"html-keyboard-response","83","153273","0.0-5.0-2.25","LF","53gv7n4gtu","1440","900","0","1","0","601fd3cd92f028532a257baf","","null","","","learningBlock1","","","","<div style=""font-size:60px;""> </div>","null","LF","learning/Slide26.JPG","This is a wug:","","",""
"html-keyboard-response","84","154279","0.0-5.0-0.26","LF","53gv7n4gtu","1440","900","0","1","0","601fd3cd92f028532a257baf","","null","","","learningBlock1","","","","This is a bim:","null","","","","","",""
"image-keyboard-response","85","154616","0.0-5.0-1.26","LF","53gv7n4gtu","1440","900","0","1","0","601fd3cd92f028532a257baf","","null","","","","","","","learning/Slide27.JPG","null","","","","","",""
"html-keyboard-response","86","155623","0.0-5.0-2.26","LF","53gv7n4gtu","1440","900","0","1","0","601fd3cd92f028532a257baf","","null","","","learningBlock1","","","","<div style=""font-size:60px;""> </div>","null","LF","learning/Slide27.JPG","This is a bim:","","",""
"html-keyboard-response","87","156629","0.0-5.0-0.27","LF","53gv7n4gtu","1440","900","0","1","0","601fd3cd92f028532a257baf","","null","","","learningBlock1","","","","This is a dep:","null","","","","","",""
"image-keyboard-response","88","156967","0.0-5.0-1.27","LF","53gv7n4gtu","1440","900","0","1","0","601fd3cd92f028532a257baf","","null","","","","","","","learning/Slide28.JPG","null","","","","","",""
"html-keyboard-response","89","157974","0.0-5.0-2.27","LF","53gv7n4gtu","1440","900","0","1","0","601fd3cd92f028532a257baf","","null","","","learningBlock1","","","","<div style=""font-size:60px;""> </div>","null","LF","learning/Slide28.JPG","This is a dep:","","",""
"html-keyboard-response","90","158980","0.0-5.0-0.28","LF","53gv7n4gtu","1440","900","0","1","0","601fd3cd92f028532a257baf","","null","","","learningBlock1","","","","This is a tob:","null","","","","","",""
"image-keyboard-response","91","159311","0.0-5.0-1.28","LF","53gv7n4gtu","1440","900","0","1","0","601fd3cd92f028532a257baf","","null","","","","","","","learning/Slide29.JPG","null","","","","","",""
"html-keyboard-response","92","160318","0.0-5.0-2.28","LF","53gv7n4gtu","1440","900","0","1","0","601fd3cd92f028532a257baf","","null","","","learningBlock1","","","","<div style=""font-size:60px;""> </div>","null","LF","learning/Slide29.JPG","This is a tob:","","",""
"html-keyboard-response","93","161325","0.0-5.0-0.29","LF","53gv7n4gtu","1440","900","0","1","0","601fd3cd92f028532a257baf","","null","","","learningBlock1","","","","This is a dep:","null","","","","","",""
"image-keyboard-response","94","161662","0.0-5.0-1.29","LF","53gv7n4gtu","1440","900","0","1","0","601fd3cd92f028532a257baf","","null","","","","","","","learning/Slide30.JPG","null","","","","","",""
"html-keyboard-response","95","162669","0.0-5.0-2.29","LF","53gv7n4gtu","1440","900","0","1","0","601fd3cd92f028532a257baf","","null","","","learningBlock1","","","","<div style=""font-size:60px;""> </div>","null","LF","learning/Slide30.JPG","This is a dep:","","",""
"html-keyboard-response","96","163676","0.0-5.0-0.30","LF","53gv7n4gtu","1440","900","0","1","0","601fd3cd92f028532a257baf","","null","","","learningBlock1","","","","This is a wug:","null","","","","","",""
"image-keyboard-response","97","164012","0.0-5.0-1.30","LF","53gv7n4gtu","1440","900","0","1","0","601fd3cd92f028532a257baf","","null","","","","","","","learning/Slide31.JPG","null","","","","","",""
"html-keyboard-response","98","165019","0.0-5.0-2.30","LF","53gv7n4gtu","1440","900","0","1","0","601fd3cd92f028532a257baf","","null","","","learningBlock1","","","","<div style=""font-size:60px;""> </div>","null","LF","learning/Slide31.JPG","This is a wug:","","",""
"html-keyboard-response","99","166026","0.0-5.0-0.31","LF","53gv7n4gtu","1440","900","0","1","0","601fd3cd92f028532a257baf","","null","","","learningBlock1","","","","This is a tob:","null","","","","","",""
"image-keyboard-response","100","166354","0.0-5.0-1.31","LF","53gv7n4gtu","1440","900","0","1","0","601fd3cd92f028532a257baf","","null","","","","","","","learning/Slide32.JPG","null","","","","","",""
"html-keyboard-response","101","167361","0.0-5.0-2.31","LF","53gv7n4gtu","1440","900","0","1","0","601fd3cd92f028532a257baf","","null","","","learningBlock1","","","","<div style=""font-size:60px;""> </div>","null","LF","learning/Slide32.JPG","This is a tob:","","",""
"html-keyboard-response","102","168367","0.0-5.0-0.32","LF","53gv7n4gtu","1440","900","0","1","0","601fd3cd92f028532a257baf","","null","","","learningBlock1","","","","This is a bim:","null","","","","","",""
"image-keyboard-response","103","168705","0.0-5.0-1.32","LF","53gv7n4gtu","1440","900","0","1","0","601fd3cd92f028532a257baf","","null","","","","","","","learning/Slide33.JPG","null","","","","","",""
"html-keyboard-response","104","169711","0.0-5.0-2.32","LF","53gv7n4gtu","1440","900","0","1","0","601fd3cd92f028532a257baf","","null","","","learningBlock1","","","","<div style=""font-size:60px;""> </div>","null","LF","learning/Slide33.JPG","This is a bim:","","",""
"html-keyboard-response","105","170718","0.0-5.0-0.33","LF","53gv7n4gtu","1440","900","0","1","0","601fd3cd92f028532a257baf","","null","","","learningBlock1","","","","This is a tob:","null","","","","","",""
"image-keyboard-response","106","171055","0.0-5.0-1.33","LF","53gv7n4gtu","1440","900","0","1","0","601fd3cd92f028532a257baf","","null","","","","","","","learning/Slide34.JPG","null","","","","","",""
"html-keyboard-response","107","172062","0.0-5.0-2.33","LF","53gv7n4gtu","1440","900","0","1","0","601fd3cd92f028532a257baf","","null","","","learningBlock1","","","","<div style=""font-size:60px;""> </div>","null","LF","learning/Slide34.JPG","This is a tob:","","",""
"html-keyboard-response","108","173068","0.0-5.0-0.34","LF","53gv7n4gtu","1440","900","0","1","0","601fd3cd92f028532a257baf","","null","","","learningBlock1","","","","This is a bim:","null","","","","","",""
"image-keyboard-response","109","173401","0.0-5.0-1.34","LF","53gv7n4gtu","1440","900","0","1","0","601fd3cd92f028532a257baf","","null","","","","","","","learning/Slide35.JPG","null","","","","","",""
"html-keyboard-response","110","174408","0.0-5.0-2.34","LF","53gv7n4gtu","1440","900","0","1","0","601fd3cd92f028532a257baf","","null","","","learningBlock1","","","","<div style=""font-size:60px;""> </div>","null","LF","learning/Slide35.JPG","This is a bim:","","",""
"html-keyboard-response","111","175414","0.0-5.0-0.35","LF","53gv7n4gtu","1440","900","0","1","0","601fd3cd92f028532a257baf","","null","","","learningBlock1","","","","This is a dep:","null","","","","","",""
"image-keyboard-response","112","175752","0.0-5.0-1.35","LF","53gv7n4gtu","1440","900","0","1","0","601fd3cd92f028532a257baf","","null","","","","","","","learning/Slide36.JPG","null","","","","","",""
"html-keyboard-response","113","176759","0.0-5.0-2.35","LF","53gv7n4gtu","1440","900","0","1","0","601fd3cd92f028532a257baf","","null","","","learningBlock1","","","","<div style=""font-size:60px;""> </div>","null","LF","learning/Slide36.JPG","This is a dep:","","",""
"html-keyboard-response","114","177765","0.0-5.0-0.36","LF","53gv7n4gtu","1440","900","0","1","0","601fd3cd92f028532a257baf","","null","","","learningBlock1","","","","This is a tob:","null","","","","","",""
"image-keyboard-response","115","178100","0.0-5.0-1.36","LF","53gv7n4gtu","1440","900","0","1","0","601fd3cd92f028532a257baf","","null","","","","","","","learning/Slide37.JPG","null","","","","","",""
"html-keyboard-response","116","179107","0.0-5.0-2.36","LF","53gv7n4gtu","1440","900","0","1","0","601fd3cd92f028532a257baf","","null","","","learningBlock1","","","","<div style=""font-size:60px;""> </div>","null","LF","learning/Slide37.JPG","This is a tob:","","",""
"html-keyboard-response","117","180113","0.0-5.0-0.37","LF","53gv7n4gtu","1440","900","0","1","0","601fd3cd92f028532a257baf","","null","","","learningBlock1","","","","This is a wug:","null","","","","","",""
"image-keyboard-response","118","180443","0.0-5.0-1.37","LF","53gv7n4gtu","1440","900","0","1","0","601fd3cd92f028532a257baf","","null","","","","","","","learning/Slide38.JPG","null","","","","","",""
"html-keyboard-response","119","181450","0.0-5.0-2.37","LF","53gv7n4gtu","1440","900","0","1","0","601fd3cd92f028532a257baf","","null","","","learningBlock1","","","","<div style=""font-size:60px;""> </div>","null","LF","learning/Slide38.JPG","This is a wug:","","",""
"html-keyboard-response","120","182456","0.0-5.0-0.38","LF","53gv7n4gtu","1440","900","0","1","0","601fd3cd92f028532a257baf","","null","","","learningBlock1","","","","This is a bim:","null","","","","","",""
"image-keyboard-response","121","182794","0.0-5.0-1.38","LF","53gv7n4gtu","1440","900","0","1","0","601fd3cd92f028532a257baf","","null","","","","","","","learning/Slide39.JPG","null","","","","","",""
"html-keyboard-response","122","183801","0.0-5.0-2.38","LF","53gv7n4gtu","1440","900","0","1","0","601fd3cd92f028532a257baf","","null","","","learningBlock1","","","","<div style=""font-size:60px;""> </div>","null","LF","learning/Slide39.JPG","This is a bim:","","",""
"html-keyboard-response","123","184807","0.0-5.0-0.39","LF","53gv7n4gtu","1440","900","0","1","0","601fd3cd92f028532a257baf","","null","","","learningBlock1","","","","This is a tob:","null","","","","","",""
"image-keyboard-response","124","185139","0.0-5.0-1.39","LF","53gv7n4gtu","1440","900","0","1","0","601fd3cd92f028532a257baf","","null","","","","","","","learning/Slide40.JPG","null","","","","","",""
"html-keyboard-response","125","186146","0.0-5.0-2.39","LF","53gv7n4gtu","1440","900","0","1","0","601fd3cd92f028532a257baf","","null","","","learningBlock1","","","","<div style=""font-size:60px;""> </div>","null","LF","learning/Slide40.JPG","This is a tob:","","",""
"html-keyboard-response","126","187153","0.0-5.0-0.40","LF","53gv7n4gtu","1440","900","0","1","0","601fd3cd92f028532a257baf","","null","","","learningBlock1","","","","This is a bim:","null","","","","","",""
"image-keyboard-response","127","187485","0.0-5.0-1.40","LF","53gv7n4gtu","1440","900","0","1","0","601fd3cd92f028532a257baf","","null","","","","","","","learning/Slide41.JPG","null","","","","","",""
"html-keyboard-response","128","188492","0.0-5.0-2.40","LF","53gv7n4gtu","1440","900","0","1","0","601fd3cd92f028532a257baf","","null","","","learningBlock1","","","","<div style=""font-size:60px;""> </div>","null","LF","learning/Slide41.JPG","This is a bim:","","",""
"html-keyboard-response","129","189499","0.0-5.0-0.41","LF","53gv7n4gtu","1440","900","0","1","0","601fd3cd92f028532a257baf","","null","","","learningBlock1","","","","This is a dep:","null","","","","","",""
"image-keyboard-response","130","189832","0.0-5.0-1.41","LF","53gv7n4gtu","1440","900","0","1","0","601fd3cd92f028532a257baf","","null","","","","","","","learning/Slide42.JPG","null","","","","","",""
"html-keyboard-response","131","190840","0.0-5.0-2.41","LF","53gv7n4gtu","1440","900","0","1","0","601fd3cd92f028532a257baf","","null","","","learningBlock1","","","","<div style=""font-size:60px;""> </div>","null","LF","learning/Slide42.JPG","This is a dep:","","",""
"html-keyboard-response","132","191847","0.0-5.0-0.42","LF","53gv7n4gtu","1440","900","0","1","0","601fd3cd92f028532a257baf","","null","","","learningBlock1","","","","This is a wug:","null","","","","","",""
"image-keyboard-response","133","192184","0.0-5.0-1.42","LF","53gv7n4gtu","1440","900","0","1","0","601fd3cd92f028532a257baf","","null","","","","","","","learning/Slide43.JPG","null","","","","","",""
"html-keyboard-response","134","193191","0.0-5.0-2.42","LF","53gv7n4gtu","1440","900","0","1","0","601fd3cd92f028532a257baf","","null","","","learningBlock1","","","","<div style=""font-size:60px;""> </div>","null","LF","learning/Slide43.JPG","This is a wug:","","",""
"html-keyboard-response","135","194200","0.0-5.0-0.43","LF","53gv7n4gtu","1440","900","0","1","0","601fd3cd92f028532a257baf","","null","","","learningBlock1","","","","This is a bim:","null","","","","","",""
"image-keyboard-response","136","194532","0.0-5.0-1.43","LF","53gv7n4gtu","1440","900","0","1","0","601fd3cd92f028532a257baf","","null","","","","","","","learning/Slide44.JPG","null","","","","","",""
"html-keyboard-response","137","195534","0.0-5.0-2.43","LF","53gv7n4gtu","1440","900","0","1","0","601fd3cd92f028532a257baf","","null","","","learningBlock1","","","","<div style=""font-size:60px;""> </div>","null","LF","learning/Slide44.JPG","This is a bim:","","",""
"html-keyboard-response","138","196540","0.0-5.0-0.44","LF","53gv7n4gtu","1440","900","0","1","0","601fd3cd92f028532a257baf","","null","","","learningBlock1","","","","This is a wug:","null","","","","","",""
"image-keyboard-response","139","196877","0.0-5.0-1.44","LF","53gv7n4gtu","1440","900","0","1","0","601fd3cd92f028532a257baf","","null","","","","","","","learning/Slide45.JPG","null","","","","","",""
"html-keyboard-response","140","197883","0.0-5.0-2.44","LF","53gv7n4gtu","1440","900","0","1","0","601fd3cd92f028532a257baf","","null","","","learningBlock1","","","","<div style=""font-size:60px;""> </div>","null","LF","learning/Slide45.JPG","This is a wug:","","",""
"html-keyboard-response","141","198889","0.0-5.0-0.45","LF","53gv7n4gtu","1440","900","0","1","0","601fd3cd92f028532a257baf","","null","","","learningBlock1","","","","This is a dep:","null","","","","","",""
"image-keyboard-response","142","199227","0.0-5.0-1.45","LF","53gv7n4gtu","1440","900","0","1","0","601fd3cd92f028532a257baf","","null","","","","","","","learning/Slide46.JPG","null","","","","","",""
"html-keyboard-response","143","200232","0.0-5.0-2.45","LF","53gv7n4gtu","1440","900","0","1","0","601fd3cd92f028532a257baf","","null","","","learningBlock1","","","","<div style=""font-size:60px;""> </div>","null","LF","learning/Slide46.JPG","This is a dep:","","",""
"html-keyboard-response","144","201239","0.0-5.0-0.46","LF","53gv7n4gtu","1440","900","0","1","0","601fd3cd92f028532a257baf","","null","","","learningBlock1","","","","This is a tob:","null","","","","","",""
"image-keyboard-response","145","201572","0.0-5.0-1.46","LF","53gv7n4gtu","1440","900","0","1","0","601fd3cd92f028532a257baf","","null","","","","","","","learning/Slide47.JPG","null","","","","","",""
"html-keyboard-response","146","202579","0.0-5.0-2.46","LF","53gv7n4gtu","1440","900","0","1","0","601fd3cd92f028532a257baf","","null","","","learningBlock1","","","","<div style=""font-size:60px;""> </div>","null","LF","learning/Slide47.JPG","This is a tob:","","",""
"html-keyboard-response","147","203585","0.0-5.0-0.47","LF","53gv7n4gtu","1440","900","0","1","0","601fd3cd92f028532a257baf","","null","","","learningBlock1","","","","This is a bim:","null","","","","","",""
"image-keyboard-response","148","203923","0.0-5.0-1.47","LF","53gv7n4gtu","1440","900","0","1","0","601fd3cd92f028532a257baf","","null","","","","","","","learning/Slide48.JPG","null","","","","","",""
"html-keyboard-response","149","204930","0.0-5.0-2.47","LF","53gv7n4gtu","1440","900","0","1","0","601fd3cd92f028532a257baf","","null","","","learningBlock1","","","","<div style=""font-size:60px;""> </div>","null","LF","learning/Slide48.JPG","This is a bim:","","",""
"html-keyboard-response","150","205936","0.0-5.0-0.48","LF","53gv7n4gtu","1440","900","0","1","0","601fd3cd92f028532a257baf","","null","","","learningBlock1","","","","This is a dep:","null","","","","","",""
"image-keyboard-response","151","206274","0.0-5.0-1.48","LF","53gv7n4gtu","1440","900","0","1","0","601fd3cd92f028532a257baf","","null","","","","","","","learning/Slide49.JPG","null","","","","","",""
"html-keyboard-response","152","207281","0.0-5.0-2.48","LF","53gv7n4gtu","1440","900","0","1","0","601fd3cd92f028532a257baf","","null","","","learningBlock1","","","","<div style=""font-size:60px;""> </div>","null","LF","learning/Slide49.JPG","This is a dep:","","",""
"html-keyboard-response","153","208287","0.0-5.0-0.49","LF","53gv7n4gtu","1440","900","0","1","0","601fd3cd92f028532a257baf","","null","","","learningBlock1","","","","This is a tob:","null","","","","","",""
"image-keyboard-response","154","208621","0.0-5.0-1.49","LF","53gv7n4gtu","1440","900","0","1","0","601fd3cd92f028532a257baf","","null","","","","","","","learning/Slide50.JPG","null","","","","","",""
"html-keyboard-response","155","209624","0.0-5.0-2.49","LF","53gv7n4gtu","1440","900","0","1","0","601fd3cd92f028532a257baf","","null","","","learningBlock1","","","","<div style=""font-size:60px;""> </div>","null","LF","learning/Slide50.JPG","This is a tob:","","",""
"html-keyboard-response","156","210630","0.0-5.0-0.50","LF","53gv7n4gtu","1440","900","0","1","0","601fd3cd92f028532a257baf","","null","","","learningBlock1","","","","This is a bim:","null","","","","","",""
"image-keyboard-response","157","210964","0.0-5.0-1.50","LF","53gv7n4gtu","1440","900","0","1","0","601fd3cd92f028532a257baf","","null","","","","","","","learning/Slide51.JPG","null","","","","","",""
"html-keyboard-response","158","211966","0.0-5.0-2.50","LF","53gv7n4gtu","1440","900","0","1","0","601fd3cd92f028532a257baf","","null","","","learningBlock1","","","","<div style=""font-size:60px;""> </div>","null","LF","learning/Slide51.JPG","This is a bim:","","",""
"html-keyboard-response","159","212972","0.0-5.0-0.51","LF","53gv7n4gtu","1440","900","0","1","0","601fd3cd92f028532a257baf","","null","","","learningBlock1","","","","This is a wug:","null","","","","","",""
"image-keyboard-response","160","213310","0.0-5.0-1.51","LF","53gv7n4gtu","1440","900","0","1","0","601fd3cd92f028532a257baf","","null","","","","","","","learning/Slide52.JPG","null","","","","","",""
"html-keyboard-response","161","214317","0.0-5.0-2.51","LF","53gv7n4gtu","1440","900","0","1","0","601fd3cd92f028532a257baf","","null","","","learningBlock1","","","","<div style=""font-size:60px;""> </div>","null","LF","learning/Slide52.JPG","This is a wug:","","",""
"html-keyboard-response","162","215323","0.0-5.0-0.52","LF","53gv7n4gtu","1440","900","0","1","0","601fd3cd92f028532a257baf","","null","","","learningBlock1","","","","This is a tob:","null","","","","","",""
"image-keyboard-response","163","215658","0.0-5.0-1.52","LF","53gv7n4gtu","1440","900","0","1","0","601fd3cd92f028532a257baf","","null","","","","","","","learning/Slide53.JPG","null","","","","","",""
"html-keyboard-response","164","216665","0.0-5.0-2.52","LF","53gv7n4gtu","1440","900","0","1","0","601fd3cd92f028532a257baf","","null","","","learningBlock1","","","","<div style=""font-size:60px;""> </div>","null","LF","learning/Slide53.JPG","This is a tob:","","",""
"html-keyboard-response","165","217673","0.0-5.0-0.53","LF","53gv7n4gtu","1440","900","0","1","0","601fd3cd92f028532a257baf","","null","","","learningBlock1","","","","This is a dep:","null","","","","","",""
"image-keyboard-response","166","218010","0.0-5.0-1.53","LF","53gv7n4gtu","1440","900","0","1","0","601fd3cd92f028532a257baf","","null","","","","","","","learning/Slide54.JPG","null","","","","","",""
"html-keyboard-response","167","219017","0.0-5.0-2.53","LF","53gv7n4gtu","1440","900","0","1","0","601fd3cd92f028532a257baf","","null","","","learningBlock1","","","","<div style=""font-size:60px;""> </div>","null","LF","learning/Slide54.JPG","This is a dep:","","",""
"html-keyboard-response","168","220024","0.0-5.0-0.54","LF","53gv7n4gtu","1440","900","0","1","0","601fd3cd92f028532a257baf","","null","","","learningBlock1","","","","This is a bim:","null","","","","","",""
"image-keyboard-response","169","220356","0.0-5.0-1.54","LF","53gv7n4gtu","1440","900","0","1","0","601fd3cd92f028532a257baf","","null","","","","","","","learning/Slide55.JPG","null","","","","","",""
"html-keyboard-response","170","221363","0.0-5.0-2.54","LF","53gv7n4gtu","1440","900","0","1","0","601fd3cd92f028532a257baf","","null","","","learningBlock1","","","","<div style=""font-size:60px;""> </div>","null","LF","learning/Slide55.JPG","This is a bim:","","",""
"html-keyboard-response","171","222368","0.0-5.0-0.55","LF","53gv7n4gtu","1440","900","0","1","0","601fd3cd92f028532a257baf","","null","","","learningBlock1","","","","This is a tob:","null","","","","","",""
"image-keyboard-response","172","222705","0.0-5.0-1.55","LF","53gv7n4gtu","1440","900","0","1","0","601fd3cd92f028532a257baf","","null","","","","","","","learning/Slide56.JPG","null","","","","","",""
"html-keyboard-response","173","223712","0.0-5.0-2.55","LF","53gv7n4gtu","1440","900","0","1","0","601fd3cd92f028532a257baf","","null","","","learningBlock1","","","","<div style=""font-size:60px;""> </div>","null","LF","learning/Slide56.JPG","This is a tob:","","",""
"html-keyboard-response","174","224718","0.0-5.0-0.56","LF","53gv7n4gtu","1440","900","0","1","0","601fd3cd92f028532a257baf","","null","","","learningBlock1","","","","This is a dep:","null","","","","","",""
"image-keyboard-response","175","225052","0.0-5.0-1.56","LF","53gv7n4gtu","1440","900","0","1","0","601fd3cd92f028532a257baf","","null","","","","","","","learning/Slide57.JPG","null","","","","","",""
"html-keyboard-response","176","226059","0.0-5.0-2.56","LF","53gv7n4gtu","1440","900","0","1","0","601fd3cd92f028532a257baf","","null","","","learningBlock1","","","","<div style=""font-size:60px;""> </div>","null","LF","learning/Slide57.JPG","This is a dep:","","",""
"html-keyboard-response","177","227065","0.0-5.0-0.57","LF","53gv7n4gtu","1440","900","0","1","0","601fd3cd92f028532a257baf","","null","","","learningBlock1","","","","This is a wug:","null","","","","","",""
"image-keyboard-response","178","227396","0.0-5.0-1.57","LF","53gv7n4gtu","1440","900","0","1","0","601fd3cd92f028532a257baf","","null","","","","","","","learning/Slide58.JPG","null","","","","","",""
"html-keyboard-response","179","228403","0.0-5.0-2.57","LF","53gv7n4gtu","1440","900","0","1","0","601fd3cd92f028532a257baf","","null","","","learningBlock1","","","","<div style=""font-size:60px;""> </div>","null","LF","learning/Slide58.JPG","This is a wug:","","",""
"html-keyboard-response","180","229409","0.0-5.0-0.58","LF","53gv7n4gtu","1440","900","0","1","0","601fd3cd92f028532a257baf","","null","","","learningBlock1","","","","This is a dep:","null","","","","","",""
"image-keyboard-response","181","229741","0.0-5.0-1.58","LF","53gv7n4gtu","1440","900","0","1","0","601fd3cd92f028532a257baf","","null","","","","","","","learning/Slide59.JPG","null","","","","","",""
"html-keyboard-response","182","230748","0.0-5.0-2.58","LF","53gv7n4gtu","1440","900","0","1","0","601fd3cd92f028532a257baf","","null","","","learningBlock1","","","","<div style=""font-size:60px;""> </div>","null","LF","learning/Slide59.JPG","This is a dep:","","",""
"html-keyboard-response","183","231755","0.0-5.0-0.59","LF","53gv7n4gtu","1440","900","0","1","0","601fd3cd92f028532a257baf","","null","","","learningBlock1","","","","This is a wug:","null","","","","","",""
"image-keyboard-response","184","232092","0.0-5.0-1.59","LF","53gv7n4gtu","1440","900","0","1","0","601fd3cd92f028532a257baf","","null","","","","","","","learning/Slide60.JPG","null","","","","","",""
"html-keyboard-response","185","233094","0.0-5.0-2.59","LF","53gv7n4gtu","1440","900","0","1","0","601fd3cd92f028532a257baf","","null","","","learningBlock1","","","","<div style=""font-size:60px;""> </div>","null","LF","learning/Slide60.JPG","This is a wug:","","",""
"html-keyboard-response","186","234101","0.0-5.0-0.60","LF","53gv7n4gtu","1440","900","0","1","0","601fd3cd92f028532a257baf","","null","","","learningBlock1","","","","This is a bim:","null","","","","","",""
"image-keyboard-response","187","234438","0.0-5.0-1.60","LF","53gv7n4gtu","1440","900","0","1","0","601fd3cd92f028532a257baf","","null","","","","","","","learning/Slide61.JPG","null","","","","","",""
"html-keyboard-response","188","235441","0.0-5.0-2.60","LF","53gv7n4gtu","1440","900","0","1","0","601fd3cd92f028532a257baf","","null","","","learningBlock1","","","","<div style=""font-size:60px;""> </div>","null","LF","learning/Slide61.JPG","This is a bim:","","",""
"html-keyboard-response","189","236446","0.0-5.0-0.61","LF","53gv7n4gtu","1440","900","0","1","0","601fd3cd92f028532a257baf","","null","","","learningBlock1","","","","This is a dep:","null","","","","","",""
"image-keyboard-response","190","236780","0.0-5.0-1.61","LF","53gv7n4gtu","1440","900","0","1","0","601fd3cd92f028532a257baf","","null","","","","","","","learning/Slide62.JPG","null","","","","","",""
"html-keyboard-response","191","237787","0.0-5.0-2.61","LF","53gv7n4gtu","1440","900","0","1","0","601fd3cd92f028532a257baf","","null","","","learningBlock1","","","","<div style=""font-size:60px;""> </div>","null","LF","learning/Slide62.JPG","This is a dep:","","",""
"html-keyboard-response","192","238794","0.0-5.0-0.62","LF","53gv7n4gtu","1440","900","0","1","0","601fd3cd92f028532a257baf","","null","","","learningBlock1","","","","This is a bim:","null","","","","","",""
"image-keyboard-response","193","239131","0.0-5.0-1.62","LF","53gv7n4gtu","1440","900","0","1","0","601fd3cd92f028532a257baf","","null","","","","","","","learning/Slide63.JPG","null","","","","","",""
"html-keyboard-response","194","240138","0.0-5.0-2.62","LF","53gv7n4gtu","1440","900","0","1","0","601fd3cd92f028532a257baf","","null","","","learningBlock1","","","","<div style=""font-size:60px;""> </div>","null","LF","learning/Slide63.JPG","This is a bim:","","",""
"html-keyboard-response","195","241144","0.0-5.0-0.63","LF","53gv7n4gtu","1440","900","0","1","0","601fd3cd92f028532a257baf","","null","","","learningBlock1","","","","This is a tob:","null","","","","","",""
"image-keyboard-response","196","241482","0.0-5.0-1.63","LF","53gv7n4gtu","1440","900","0","1","0","601fd3cd92f028532a257baf","","null","","","","","","","learning/Slide64.JPG","null","","","","","",""
"html-keyboard-response","197","242488","0.0-5.0-2.63","LF","53gv7n4gtu","1440","900","0","1","0","601fd3cd92f028532a257baf","","null","","","learningBlock1","","","","<div style=""font-size:60px;""> </div>","null","LF","learning/Slide64.JPG","This is a tob:","","",""
"html-keyboard-response","198","243495","0.0-5.0-0.64","LF","53gv7n4gtu","1440","900","0","1","0","601fd3cd92f028532a257baf","","null","","","learningBlock1","","","","This is a wug:","null","","","","","",""
"image-keyboard-response","199","243831","0.0-5.0-1.64","LF","53gv7n4gtu","1440","900","0","1","0","601fd3cd92f028532a257baf","","null","","","","","","","learning/Slide65.JPG","null","","","","","",""
"html-keyboard-response","200","244837","0.0-5.0-2.64","LF","53gv7n4gtu","1440","900","0","1","0","601fd3cd92f028532a257baf","","null","","","learningBlock1","","","","<div style=""font-size:60px;""> </div>","null","LF","learning/Slide65.JPG","This is a wug:","","",""
"html-keyboard-response","201","245844","0.0-5.0-0.65","LF","53gv7n4gtu","1440","900","0","1","0","601fd3cd92f028532a257baf","","null","","","learningBlock1","","","","This is a dep:","null","","","","","",""
"image-keyboard-response","202","246176","0.0-5.0-1.65","LF","53gv7n4gtu","1440","900","0","1","0","601fd3cd92f028532a257baf","","null","","","","","","","learning/Slide66.JPG","null","","","","","",""
"html-keyboard-response","203","247182","0.0-5.0-2.65","LF","53gv7n4gtu","1440","900","0","1","0","601fd3cd92f028532a257baf","","null","","","learningBlock1","","","","<div style=""font-size:60px;""> </div>","null","LF","learning/Slide66.JPG","This is a dep:","","",""
"html-keyboard-response","204","248188","0.0-5.0-0.66","LF","53gv7n4gtu","1440","900","0","1","0","601fd3cd92f028532a257baf","","null","","","learningBlock1","","","","This is a tob:","null","","","","","",""
"image-keyboard-response","205","248525","0.0-5.0-1.66","LF","53gv7n4gtu","1440","900","0","1","0","601fd3cd92f028532a257baf","","null","","","","","","","learning/Slide67.JPG","null","","","","","",""
"html-keyboard-response","206","249532","0.0-5.0-2.66","LF","53gv7n4gtu","1440","900","0","1","0","601fd3cd92f028532a257baf","","null","","","learningBlock1","","","","<div style=""font-size:60px;""> </div>","null","LF","learning/Slide67.JPG","This is a tob:","","",""
"html-keyboard-response","207","250539","0.0-5.0-0.67","LF","53gv7n4gtu","1440","900","0","1","0","601fd3cd92f028532a257baf","","null","","","learningBlock1","","","","This is a wug:","null","","","","","",""
"image-keyboard-response","208","250872","0.0-5.0-1.67","LF","53gv7n4gtu","1440","900","0","1","0","601fd3cd92f028532a257baf","","null","","","","","","","learning/Slide68.JPG","null","","","","","",""
"html-keyboard-response","209","251879","0.0-5.0-2.67","LF","53gv7n4gtu","1440","900","0","1","0","601fd3cd92f028532a257baf","","null","","","learningBlock1","","","","<div style=""font-size:60px;""> </div>","null","LF","learning/Slide68.JPG","This is a wug:","","",""
"html-keyboard-response","210","252885","0.0-5.0-0.68","LF","53gv7n4gtu","1440","900","0","1","0","601fd3cd92f028532a257baf","","null","","","learningBlock1","","","","This is a tob:","null","","","","","",""
"image-keyboard-response","211","253223","0.0-5.0-1.68","LF","53gv7n4gtu","1440","900","0","1","0","601fd3cd92f028532a257baf","","null","","","","","","","learning/Slide69.JPG","null","","","","","",""
"html-keyboard-response","212","254229","0.0-5.0-2.68","LF","53gv7n4gtu","1440","900","0","1","0","601fd3cd92f028532a257baf","","null","","","learningBlock1","","","","<div style=""font-size:60px;""> </div>","null","LF","learning/Slide69.JPG","This is a tob:","","",""
"html-keyboard-response","213","255235","0.0-5.0-0.69","LF","53gv7n4gtu","1440","900","0","1","0","601fd3cd92f028532a257baf","","null","","","learningBlock1","","","","This is a dep:","null","","","","","",""
"image-keyboard-response","214","255573","0.0-5.0-1.69","LF","53gv7n4gtu","1440","900","0","1","0","601fd3cd92f028532a257baf","","null","","","","","","","learning/Slide70.JPG","null","","","","","",""
"html-keyboard-response","215","256575","0.0-5.0-2.69","LF","53gv7n4gtu","1440","900","0","1","0","601fd3cd92f028532a257baf","","null","","","learningBlock1","","","","<div style=""font-size:60px;""> </div>","null","LF","learning/Slide70.JPG","This is a dep:","","",""
"html-keyboard-response","216","257580","0.0-5.0-0.70","LF","53gv7n4gtu","1440","900","0","1","0","601fd3cd92f028532a257baf","","null","","","learningBlock1","","","","This is a wug:","null","","","","","",""
"image-keyboard-response","217","257913","0.0-5.0-1.70","LF","53gv7n4gtu","1440","900","0","1","0","601fd3cd92f028532a257baf","","null","","","","","","","learning/Slide71.JPG","null","","","","","",""
"html-keyboard-response","218","258916","0.0-5.0-2.70","LF","53gv7n4gtu","1440","900","0","1","0","601fd3cd92f028532a257baf","","null","","","learningBlock1","","","","<div style=""font-size:60px;""> </div>","null","LF","learning/Slide71.JPG","This is a wug:","","",""
"html-keyboard-response","219","259921","0.0-5.0-0.71","LF","53gv7n4gtu","1440","900","0","1","0","601fd3cd92f028532a257baf","","null","","","learningBlock1","","","","This is a bim:","null","","","","","",""
"image-keyboard-response","220","260259","0.0-5.0-1.71","LF","53gv7n4gtu","1440","900","0","1","0","601fd3cd92f028532a257baf","","null","","","","","","","learning/Slide72.JPG","null","","","","","",""
"html-keyboard-response","221","261266","0.0-5.0-2.71","LF","53gv7n4gtu","1440","900","0","1","0","601fd3cd92f028532a257baf","","null","","","learningBlock1","","","","<div style=""font-size:60px;""> </div>","null","LF","learning/Slide72.JPG","This is a bim:","","",""
"html-keyboard-response","222","262272","0.0-5.0-0.72","LF","53gv7n4gtu","1440","900","0","1","0","601fd3cd92f028532a257baf","","null","","","learningBlock1","","","","This is a wug:","null","","","","","",""
"image-keyboard-response","223","262607","0.0-5.0-1.72","LF","53gv7n4gtu","1440","900","0","1","0","601fd3cd92f028532a257baf","","null","","","","","","","learning/Slide73.JPG","null","","","","","",""
"html-keyboard-response","224","263615","0.0-5.0-2.72","LF","53gv7n4gtu","1440","900","0","1","0","601fd3cd92f028532a257baf","","null","","","learningBlock1","","","","<div style=""font-size:60px;""> </div>","null","LF","learning/Slide73.JPG","This is a wug:","","",""
"html-keyboard-response","225","264621","0.0-5.0-0.73","LF","53gv7n4gtu","1440","900","0","1","0","601fd3cd92f028532a257baf","","null","","","learningBlock1","","","","This is a dep:","null","","","","","",""
"image-keyboard-response","226","264955","0.0-5.0-1.73","LF","53gv7n4gtu","1440","900","0","1","0","601fd3cd92f028532a257baf","","null","","","","","","","learning/Slide74.JPG","null","","","","","",""
"html-keyboard-response","227","265956","0.0-5.0-2.73","LF","53gv7n4gtu","1440","900","0","1","0","601fd3cd92f028532a257baf","","null","","","learningBlock1","","","","<div style=""font-size:60px;""> </div>","null","LF","learning/Slide74.JPG","This is a dep:","","",""
"html-keyboard-response","228","266960","0.0-5.0-0.74","LF","53gv7n4gtu","1440","900","0","1","0","601fd3cd92f028532a257baf","","null","","","learningBlock1","","","","This is a tob:","null","","","","","",""
"image-keyboard-response","229","267293","0.0-5.0-1.74","LF","53gv7n4gtu","1440","900","0","1","0","601fd3cd92f028532a257baf","","null","","","","","","","learning/Slide75.JPG","null","","","","","",""
"html-keyboard-response","230","268300","0.0-5.0-2.74","LF","53gv7n4gtu","1440","900","0","1","0","601fd3cd92f028532a257baf","","null","","","learningBlock1","","","","<div style=""font-size:60px;""> </div>","null","LF","learning/Slide75.JPG","This is a tob:","","",""
"html-keyboard-response","231","269307","0.0-5.0-0.75","LF","53gv7n4gtu","1440","900","0","1","0","601fd3cd92f028532a257baf","","null","","","learningBlock1","","","","This is a bim:","null","","","","","",""
"image-keyboard-response","232","269644","0.0-5.0-1.75","LF","53gv7n4gtu","1440","900","0","1","0","601fd3cd92f028532a257baf","","null","","","","","","","learning/Slide76.JPG","null","","","","","",""
"html-keyboard-response","233","270651","0.0-5.0-2.75","LF","53gv7n4gtu","1440","900","0","1","0","601fd3cd92f028532a257baf","","null","","","learningBlock1","","","","<div style=""font-size:60px;""> </div>","null","LF","learning/Slide76.JPG","This is a bim:","","",""
"html-keyboard-response","234","271657","0.0-5.0-0.76","LF","53gv7n4gtu","1440","900","0","1","0","601fd3cd92f028532a257baf","","null","","","learningBlock1","","","","This is a tob:","null","","","","","",""
"image-keyboard-response","235","271995","0.0-5.0-1.76","LF","53gv7n4gtu","1440","900","0","1","0","601fd3cd92f028532a257baf","","null","","","","","","","learning/Slide77.JPG","null","","","","","",""
"html-keyboard-response","236","273002","0.0-5.0-2.76","LF","53gv7n4gtu","1440","900","0","1","0","601fd3cd92f028532a257baf","","null","","","learningBlock1","","","","<div style=""font-size:60px;""> </div>","null","LF","learning/Slide77.JPG","This is a tob:","","",""
"html-keyboard-response","237","274009","0.0-5.0-0.77","LF","53gv7n4gtu","1440","900","0","1","0","601fd3cd92f028532a257baf","","null","","","learningBlock1","","","","This is a wug:","null","","","","","",""
"image-keyboard-response","238","274341","0.0-5.0-1.77","LF","53gv7n4gtu","1440","900","0","1","0","601fd3cd92f028532a257baf","","null","","","","","","","learning/Slide78.JPG","null","","","","","",""
"html-keyboard-response","239","275349","0.0-5.0-2.77","LF","53gv7n4gtu","1440","900","0","1","0","601fd3cd92f028532a257baf","","null","","","learningBlock1","","","","<div style=""font-size:60px;""> </div>","null","LF","learning/Slide78.JPG","This is a wug:","","",""
"html-keyboard-response","240","276355","0.0-5.0-0.78","LF","53gv7n4gtu","1440","900","0","1","0","601fd3cd92f028532a257baf","","null","","","learningBlock1","","","","This is a bim:","null","","","","","",""
"image-keyboard-response","241","276690","0.0-5.0-1.78","LF","53gv7n4gtu","1440","900","0","1","0","601fd3cd92f028532a257baf","","null","","","","","","","learning/Slide79.JPG","null","","","","","",""
"html-keyboard-response","242","277692","0.0-5.0-2.78","LF","53gv7n4gtu","1440","900","0","1","0","601fd3cd92f028532a257baf","","null","","","learningBlock1","","","","<div style=""font-size:60px;""> </div>","null","LF","learning/Slide79.JPG","This is a bim:","","",""
"html-keyboard-response","243","278698","0.0-5.0-0.79","LF","53gv7n4gtu","1440","900","0","1","0","601fd3cd92f028532a257baf","","null","","","learningBlock1","","","","This is a tob:","null","","","","","",""
"image-keyboard-response","244","279031","0.0-5.0-1.79","LF","53gv7n4gtu","1440","900","0","1","0","601fd3cd92f028532a257baf","","null","","","","","","","learning/Slide80.JPG","null","","","","","",""
"html-keyboard-response","245","280037","0.0-5.0-2.79","LF","53gv7n4gtu","1440","900","0","1","0","601fd3cd92f028532a257baf","","null","","","learningBlock1","","","","<div style=""font-size:60px;""> </div>","null","LF","learning/Slide80.JPG","This is a tob:","","",""
"instructions","246","281917","0.0-6.0","LF","53gv7n4gtu","1440","900","0","1","0","601fd3cd92f028532a257baf","","NA","","[{""page_index"":0,""viewing_time"":1877.8099999999395}]","instructions","","","","","","","","","","",""
"html-keyboard-response","247","282924","0.0-7.0-0.0","LF","53gv7n4gtu","1440","900","0","1","0","601fd3cd92f028532a257baf","","null","","","learningBlock2","","","","This is a wug:","null","","","","","",""
"image-keyboard-response","248","283261","0.0-7.0-1.0","LF","53gv7n4gtu","1440","900","0","1","0","601fd3cd92f028532a257baf","","null","","","","","","","learning/Slide81.JPG","null","","","","","",""
"html-keyboard-response","249","284267","0.0-7.0-2.0","LF","53gv7n4gtu","1440","900","0","1","0","601fd3cd92f028532a257baf","","null","","","learningBlock2","","","","<div style=""font-size:60px;""> </div>","null","LF","learning/Slide81.JPG","This is a wug:","","",""
"html-keyboard-response","250","285274","0.0-7.0-0.1","LF","53gv7n4gtu","1440","900","0","1","0","601fd3cd92f028532a257baf","","null","","","learningBlock2","","","","This is a bim:","null","","","","","",""
"image-keyboard-response","251","285611","0.0-7.0-1.1","LF","53gv7n4gtu","1440","900","0","1","0","601fd3cd92f028532a257baf","","null","","","","","","","learning/Slide82.JPG","null","","","","","",""
"html-keyboard-response","252","286618","0.0-7.0-2.1","LF","53gv7n4gtu","1440","900","0","1","0","601fd3cd92f028532a257baf","","null","","","learningBlock2","","","","<div style=""font-size:60px;""> </div>","null","LF","learning/Slide82.JPG","This is a bim:","","",""
"html-keyboard-response","253","287624","0.0-7.0-0.2","LF","53gv7n4gtu","1440","900","0","1","0","601fd3cd92f028532a257baf","","null","","","learningBlock2","","","","This is a wug:","null","","","","","",""
"image-keyboard-response","254","287962","0.0-7.0-1.2","LF","53gv7n4gtu","1440","900","0","1","0","601fd3cd92f028532a257baf","","null","","","","","","","learning/Slide83.JPG","null","","","","","",""
"html-keyboard-response","255","288969","0.0-7.0-2.2","LF","53gv7n4gtu","1440","900","0","1","0","601fd3cd92f028532a257baf","","null","","","learningBlock2","","","","<div style=""font-size:60px;""> </div>","null","LF","learning/Slide83.JPG","This is a wug:","","",""
"html-keyboard-response","256","289974","0.0-7.0-0.3","LF","53gv7n4gtu","1440","900","0","1","0","601fd3cd92f028532a257baf","","null","","","learningBlock2","","","","This is a dep:","null","","","","","",""
"image-keyboard-response","257","290310","0.0-7.0-1.3","LF","53gv7n4gtu","1440","900","0","1","0","601fd3cd92f028532a257baf","","null","","","","","","","learning/Slide84.JPG","null","","","","","",""
"html-keyboard-response","258","291317","0.0-7.0-2.3","LF","53gv7n4gtu","1440","900","0","1","0","601fd3cd92f028532a257baf","","null","","","learningBlock2","","","","<div style=""font-size:60px;""> </div>","null","LF","learning/Slide84.JPG","This is a dep:","","",""
"html-keyboard-response","259","292324","0.0-7.0-0.4","LF","53gv7n4gtu","1440","900","0","1","0","601fd3cd92f028532a257baf","","null","","","learningBlock2","","","","This is a bim:","null","","","","","",""
"image-keyboard-response","260","292661","0.0-7.0-1.4","LF","53gv7n4gtu","1440","900","0","1","0","601fd3cd92f028532a257baf","","null","","","","","","","learning/Slide85.JPG","null","","","","","",""
"html-keyboard-response","261","293668","0.0-7.0-2.4","LF","53gv7n4gtu","1440","900","0","1","0","601fd3cd92f028532a257baf","","null","","","learningBlock2","","","","<div style=""font-size:60px;""> </div>","null","LF","learning/Slide85.JPG","This is a bim:","","",""
"html-keyboard-response","262","294674","0.0-7.0-0.5","LF","53gv7n4gtu","1440","900","0","1","0","601fd3cd92f028532a257baf","","null","","","learningBlock2","","","","This is a tob:","null","","","","","",""
"image-keyboard-response","263","295012","0.0-7.0-1.5","LF","53gv7n4gtu","1440","900","0","1","0","601fd3cd92f028532a257baf","","null","","","","","","","learning/Slide86.JPG","null","","","","","",""
"html-keyboard-response","264","296019","0.0-7.0-2.5","LF","53gv7n4gtu","1440","900","0","1","0","601fd3cd92f028532a257baf","","null","","","learningBlock2","","","","<div style=""font-size:60px;""> </div>","null","LF","learning/Slide86.JPG","This is a tob:","","",""
"html-keyboard-response","265","297025","0.0-7.0-0.6","LF","53gv7n4gtu","1440","900","0","1","0","601fd3cd92f028532a257baf","","null","","","learningBlock2","","","","This is a wug:","null","","","","","",""
"image-keyboard-response","266","297363","0.0-7.0-1.6","LF","53gv7n4gtu","1440","900","0","1","0","601fd3cd92f028532a257baf","","null","","","","","","","learning/Slide87.JPG","null","","","","","",""
"html-keyboard-response","267","298365","0.0-7.0-2.6","LF","53gv7n4gtu","1440","900","0","1","0","601fd3cd92f028532a257baf","","null","","","learningBlock2","","","","<div style=""font-size:60px;""> </div>","null","LF","learning/Slide87.JPG","This is a wug:","","",""
"html-keyboard-response","268","299371","0.0-7.0-0.7","LF","53gv7n4gtu","1440","900","0","1","0","601fd3cd92f028532a257baf","","null","","","learningBlock2","","","","This is a tob:","null","","","","","",""
"image-keyboard-response","269","299704","0.0-7.0-1.7","LF","53gv7n4gtu","1440","900","0","1","0","601fd3cd92f028532a257baf","","null","","","","","","","learning/Slide88.JPG","null","","","","","",""
"html-keyboard-response","270","300711","0.0-7.0-2.7","LF","53gv7n4gtu","1440","900","0","1","0","601fd3cd92f028532a257baf","","null","","","learningBlock2","","","","<div style=""font-size:60px;""> </div>","null","LF","learning/Slide88.JPG","This is a tob:","","",""
"html-keyboard-response","271","301718","0.0-7.0-0.8","LF","53gv7n4gtu","1440","900","0","1","0","601fd3cd92f028532a257baf","","null","","","learningBlock2","","","","This is a bim:","null","","","","","",""
"image-keyboard-response","272","302055","0.0-7.0-1.8","LF","53gv7n4gtu","1440","900","0","1","0","601fd3cd92f028532a257baf","","null","","","","","","","learning/Slide89.JPG","null","","","","","",""
"html-keyboard-response","273","303062","0.0-7.0-2.8","LF","53gv7n4gtu","1440","900","0","1","0","601fd3cd92f028532a257baf","","null","","","learningBlock2","","","","<div style=""font-size:60px;""> </div>","null","LF","learning/Slide89.JPG","This is a bim:","","",""
"html-keyboard-response","274","304068","0.0-7.0-0.9","LF","53gv7n4gtu","1440","900","0","1","0","601fd3cd92f028532a257baf","","null","","","learningBlock2","","","","This is a dep:","null","","","","","",""
"image-keyboard-response","275","304401","0.0-7.0-1.9","LF","53gv7n4gtu","1440","900","0","1","0","601fd3cd92f028532a257baf","","null","","","","","","","learning/Slide90.JPG","null","","","","","",""
"html-keyboard-response","276","305408","0.0-7.0-2.9","LF","53gv7n4gtu","1440","900","0","1","0","601fd3cd92f028532a257baf","","null","","","learningBlock2","","","","<div style=""font-size:60px;""> </div>","null","LF","learning/Slide90.JPG","This is a dep:","","",""
"html-keyboard-response","277","306415","0.0-7.0-0.10","LF","53gv7n4gtu","1440","900","0","1","0","601fd3cd92f028532a257baf","","null","","","learningBlock2","","","","This is a wug:","null","","","","","",""
"image-keyboard-response","278","306747","0.0-7.0-1.10","LF","53gv7n4gtu","1440","900","0","1","0","601fd3cd92f028532a257baf","","null","","","","","","","learning/Slide91.JPG","null","","","","","",""
"html-keyboard-response","279","307751","0.0-7.0-2.10","LF","53gv7n4gtu","1440","900","0","1","0","601fd3cd92f028532a257baf","","null","","","learningBlock2","","","","<div style=""font-size:60px;""> </div>","null","LF","learning/Slide91.JPG","This is a wug:","","",""
"html-keyboard-response","280","308758","0.0-7.0-0.11","LF","53gv7n4gtu","1440","900","0","1","0","601fd3cd92f028532a257baf","","null","","","learningBlock2","","","","This is a tob:","null","","","","","",""
"image-keyboard-response","281","309090","0.0-7.0-1.11","LF","53gv7n4gtu","1440","900","0","1","0","601fd3cd92f028532a257baf","","null","","","","","","","learning/Slide92.JPG","null","","","","","",""
"html-keyboard-response","282","310097","0.0-7.0-2.11","LF","53gv7n4gtu","1440","900","0","1","0","601fd3cd92f028532a257baf","","null","","","learningBlock2","","","","<div style=""font-size:60px;""> </div>","null","LF","learning/Slide92.JPG","This is a tob:","","",""
"html-keyboard-response","283","311104","0.0-7.0-0.12","LF","53gv7n4gtu","1440","900","0","1","0","601fd3cd92f028532a257baf","","null","","","learningBlock2","","","","This is a bim:","null","","","","","",""
"image-keyboard-response","284","311441","0.0-7.0-1.12","LF","53gv7n4gtu","1440","900","0","1","0","601fd3cd92f028532a257baf","","null","","","","","","","learning/Slide93.JPG","null","","","","","",""
"html-keyboard-response","285","312448","0.0-7.0-2.12","LF","53gv7n4gtu","1440","900","0","1","0","601fd3cd92f028532a257baf","","null","","","learningBlock2","","","","<div style=""font-size:60px;""> </div>","null","LF","learning/Slide93.JPG","This is a bim:","","",""
"html-keyboard-response","286","313454","0.0-7.0-0.13","LF","53gv7n4gtu","1440","900","0","1","0","601fd3cd92f028532a257baf","","null","","","learningBlock2","","","","This is a tob:","null","","","","","",""
"image-keyboard-response","287","313788","0.0-7.0-1.13","LF","53gv7n4gtu","1440","900","0","1","0","601fd3cd92f028532a257baf","","null","","","","","","","learning/Slide94.JPG","null","","","","","",""
"html-keyboard-response","288","314795","0.0-7.0-2.13","LF","53gv7n4gtu","1440","900","0","1","0","601fd3cd92f028532a257baf","","null","","","learningBlock2","","","","<div style=""font-size:60px;""> </div>","null","LF","learning/Slide94.JPG","This is a tob:","","",""
"html-keyboard-response","289","315801","0.0-7.0-0.14","LF","53gv7n4gtu","1440","900","0","1","0","601fd3cd92f028532a257baf","","null","","","learningBlock2","","","","This is a wug:","null","","","","","",""
"image-keyboard-response","290","316135","0.0-7.0-1.14","LF","53gv7n4gtu","1440","900","0","1","0","601fd3cd92f028532a257baf","","null","","","","","","","learning/Slide95.JPG","null","","","","","",""
"html-keyboard-response","291","317138","0.0-7.0-2.14","LF","53gv7n4gtu","1440","900","0","1","0","601fd3cd92f028532a257baf","","null","","","learningBlock2","","","","<div style=""font-size:60px;""> </div>","null","LF","learning/Slide95.JPG","This is a wug:","","",""
"html-keyboard-response","292","318144","0.0-7.0-0.15","LF","53gv7n4gtu","1440","900","0","1","0","601fd3cd92f028532a257baf","","null","","","learningBlock2","","","","This is a tob:","null","","","","","",""
"image-keyboard-response","293","318477","0.0-7.0-1.15","LF","53gv7n4gtu","1440","900","0","1","0","601fd3cd92f028532a257baf","","null","","","","","","","learning/Slide96.JPG","null","","","","","",""
"html-keyboard-response","294","319484","0.0-7.0-2.15","LF","53gv7n4gtu","1440","900","0","1","0","601fd3cd92f028532a257baf","","null","","","learningBlock2","","","","<div style=""font-size:60px;""> </div>","null","LF","learning/Slide96.JPG","This is a tob:","","",""
"html-keyboard-response","295","320491","0.0-7.0-0.16","LF","53gv7n4gtu","1440","900","0","1","0","601fd3cd92f028532a257baf","","null","","","learningBlock2","","","","This is a dep:","null","","","","","",""
"image-keyboard-response","296","320828","0.0-7.0-1.16","LF","53gv7n4gtu","1440","900","0","1","0","601fd3cd92f028532a257baf","","null","","","","","","","learning/Slide97.JPG","null","","","","","",""
"html-keyboard-response","297","321835","0.0-7.0-2.16","LF","53gv7n4gtu","1440","900","0","1","0","601fd3cd92f028532a257baf","","null","","","learningBlock2","","","","<div style=""font-size:60px;""> </div>","null","LF","learning/Slide97.JPG","This is a dep:","","",""
"html-keyboard-response","298","322840","0.0-7.0-0.17","LF","53gv7n4gtu","1440","900","0","1","0","601fd3cd92f028532a257baf","","null","","","learningBlock2","","","","This is a bim:","null","","","","","",""
"image-keyboard-response","299","323176","0.0-7.0-1.17","LF","53gv7n4gtu","1440","900","0","1","0","601fd3cd92f028532a257baf","","null","","","","","","","learning/Slide98.JPG","null","","","","","",""
"html-keyboard-response","300","324178","0.0-7.0-2.17","LF","53gv7n4gtu","1440","900","0","1","0","601fd3cd92f028532a257baf","","null","","","learningBlock2","","","","<div style=""font-size:60px;""> </div>","null","LF","learning/Slide98.JPG","This is a bim:","","",""
"html-keyboard-response","301","325182","0.0-7.0-0.18","LF","53gv7n4gtu","1440","900","0","1","0","601fd3cd92f028532a257baf","","null","","","learningBlock2","","","","This is a dep:","null","","","","","",""
"image-keyboard-response","302","325522","0.0-7.0-1.18","LF","53gv7n4gtu","1440","900","0","1","0","601fd3cd92f028532a257baf","","null","","","","","","","learning/Slide99.JPG","null","","","","","",""
"html-keyboard-response","303","326528","0.0-7.0-2.18","LF","53gv7n4gtu","1440","900","0","1","0","601fd3cd92f028532a257baf","","null","","","learningBlock2","","","","<div style=""font-size:60px;""> </div>","null","LF","learning/Slide99.JPG","This is a dep:","","",""
"html-keyboard-response","304","327535","0.0-7.0-0.19","LF","53gv7n4gtu","1440","900","0","1","0","601fd3cd92f028532a257baf","","null","","","learningBlock2","","","","This is a bim:","null","","","","","",""
"image-keyboard-response","305","327872","0.0-7.0-1.19","LF","53gv7n4gtu","1440","900","0","1","0","601fd3cd92f028532a257baf","","null","","","","","","","learning/Slide100.JPG","null","","","","","",""
"html-keyboard-response","306","328880","0.0-7.0-2.19","LF","53gv7n4gtu","1440","900","0","1","0","601fd3cd92f028532a257baf","","null","","","learningBlock2","","","","<div style=""font-size:60px;""> </div>","null","LF","learning/Slide100.JPG","This is a bim:","","",""
"html-keyboard-response","307","329886","0.0-7.0-0.20","LF","53gv7n4gtu","1440","900","0","1","0","601fd3cd92f028532a257baf","","null","","","learningBlock2","","","","This is a tob:","null","","","","","",""
"image-keyboard-response","308","330222","0.0-7.0-1.20","LF","53gv7n4gtu","1440","900","0","1","0","601fd3cd92f028532a257baf","","null","","","","","","","learning/Slide101.JPG","null","","","","","",""
"html-keyboard-response","309","331227","0.0-7.0-2.20","LF","53gv7n4gtu","1440","900","0","1","0","601fd3cd92f028532a257baf","","null","","","learningBlock2","","","","<div style=""font-size:60px;""> </div>","null","LF","learning/Slide101.JPG","This is a tob:","","",""
"html-keyboard-response","310","332235","0.0-7.0-0.21","LF","53gv7n4gtu","1440","900","0","1","0","601fd3cd92f028532a257baf","","null","","","learningBlock2","","","","This is a bim:","null","","","","","",""
"image-keyboard-response","311","332573","0.0-7.0-1.21","LF","53gv7n4gtu","1440","900","0","1","0","601fd3cd92f028532a257baf","","null","","","","","","","learning/Slide102.JPG","null","","","","","",""
"html-keyboard-response","312","333580","0.0-7.0-2.21","LF","53gv7n4gtu","1440","900","0","1","0","601fd3cd92f028532a257baf","","null","","","learningBlock2","","","","<div style=""font-size:60px;""> </div>","null","LF","learning/Slide102.JPG","This is a bim:","","",""
"html-keyboard-response","313","334583","0.0-7.0-0.22","LF","53gv7n4gtu","1440","900","0","1","0","601fd3cd92f028532a257baf","","null","","","learningBlock2","","","","This is a dep:","null","","","","","",""
"image-keyboard-response","314","334917","0.0-7.0-1.22","LF","53gv7n4gtu","1440","900","0","1","0","601fd3cd92f028532a257baf","","null","","","","","","","learning/Slide103.JPG","null","","","","","",""
"html-keyboard-response","315","335922","0.0-7.0-2.22","LF","53gv7n4gtu","1440","900","0","1","0","601fd3cd92f028532a257baf","","null","","","learningBlock2","","","","<div style=""font-size:60px;""> </div>","null","LF","learning/Slide103.JPG","This is a dep:","","",""
"html-keyboard-response","316","336928","0.0-7.0-0.23","LF","53gv7n4gtu","1440","900","0","1","0","601fd3cd92f028532a257baf","","null","","","learningBlock2","","","","This is a tob:","null","","","","","",""
"image-keyboard-response","317","337262","0.0-7.0-1.23","LF","53gv7n4gtu","1440","900","0","1","0","601fd3cd92f028532a257baf","","null","","","","","","","learning/Slide104.JPG","null","","","","","",""
"html-keyboard-response","318","338268","0.0-7.0-2.23","LF","53gv7n4gtu","1440","900","0","1","0","601fd3cd92f028532a257baf","","null","","","learningBlock2","","","","<div style=""font-size:60px;""> </div>","null","LF","learning/Slide104.JPG","This is a tob:","","",""
"html-keyboard-response","319","339275","0.0-7.0-0.24","LF","53gv7n4gtu","1440","900","0","1","0","601fd3cd92f028532a257baf","","null","","","learningBlock2","","","","This is a dep:","null","","","","","",""
"image-keyboard-response","320","339611","0.0-7.0-1.24","LF","53gv7n4gtu","1440","900","0","1","0","601fd3cd92f028532a257baf","","null","","","","","","","learning/Slide105.JPG","null","","","","","",""
"html-keyboard-response","321","340617","0.0-7.0-2.24","LF","53gv7n4gtu","1440","900","0","1","0","601fd3cd92f028532a257baf","","null","","","learningBlock2","","","","<div style=""font-size:60px;""> </div>","null","LF","learning/Slide105.JPG","This is a dep:","","",""
"html-keyboard-response","322","341623","0.0-7.0-0.25","LF","53gv7n4gtu","1440","900","0","1","0","601fd3cd92f028532a257baf","","null","","","learningBlock2","","","","This is a wug:","null","","","","","",""
"image-keyboard-response","323","341960","0.0-7.0-1.25","LF","53gv7n4gtu","1440","900","0","1","0","601fd3cd92f028532a257baf","","null","","","","","","","learning/Slide106.JPG","null","","","","","",""
"html-keyboard-response","324","342967","0.0-7.0-2.25","LF","53gv7n4gtu","1440","900","0","1","0","601fd3cd92f028532a257baf","","null","","","learningBlock2","","","","<div style=""font-size:60px;""> </div>","null","LF","learning/Slide106.JPG","This is a wug:","","",""
"html-keyboard-response","325","343974","0.0-7.0-0.26","LF","53gv7n4gtu","1440","900","0","1","0","601fd3cd92f028532a257baf","","null","","","learningBlock2","","","","This is a bim:","null","","","","","",""
"image-keyboard-response","326","344306","0.0-7.0-1.26","LF","53gv7n4gtu","1440","900","0","1","0","601fd3cd92f028532a257baf","","null","","","","","","","learning/Slide107.JPG","null","","","","","",""
"html-keyboard-response","327","345313","0.0-7.0-2.26","LF","53gv7n4gtu","1440","900","0","1","0","601fd3cd92f028532a257baf","","null","","","learningBlock2","","","","<div style=""font-size:60px;""> </div>","null","LF","learning/Slide107.JPG","This is a bim:","","",""
"html-keyboard-response","328","346317","0.0-7.0-0.27","LF","53gv7n4gtu","1440","900","0","1","0","601fd3cd92f028532a257baf","","null","","","learningBlock2","","","","This is a dep:","null","","","","","",""
"image-keyboard-response","329","346649","0.0-7.0-1.27","LF","53gv7n4gtu","1440","900","0","1","0","601fd3cd92f028532a257baf","","null","","","","","","","learning/Slide108.JPG","null","","","","","",""
"html-keyboard-response","330","347651","0.0-7.0-2.27","LF","53gv7n4gtu","1440","900","0","1","0","601fd3cd92f028532a257baf","","null","","","learningBlock2","","","","<div style=""font-size:60px;""> </div>","null","LF","learning/Slide108.JPG","This is a dep:","","",""
"html-keyboard-response","331","348657","0.0-7.0-0.28","LF","53gv7n4gtu","1440","900","0","1","0","601fd3cd92f028532a257baf","","null","","","learningBlock2","","","","This is a wug:","null","","","","","",""
"image-keyboard-response","332","348992","0.0-7.0-1.28","LF","53gv7n4gtu","1440","900","0","1","0","601fd3cd92f028532a257baf","","null","","","","","","","learning/Slide109.JPG","null","","","","","",""
"html-keyboard-response","333","349999","0.0-7.0-2.28","LF","53gv7n4gtu","1440","900","0","1","0","601fd3cd92f028532a257baf","","null","","","learningBlock2","","","","<div style=""font-size:60px;""> </div>","null","LF","learning/Slide109.JPG","This is a wug:","","",""
"html-keyboard-response","334","351007","0.0-7.0-0.29","LF","53gv7n4gtu","1440","900","0","1","0","601fd3cd92f028532a257baf","","null","","","learningBlock2","","","","This is a bim:","null","","","","","",""
"image-keyboard-response","335","351343","0.0-7.0-1.29","LF","53gv7n4gtu","1440","900","0","1","0","601fd3cd92f028532a257baf","","null","","","","","","","learning/Slide110.JPG","null","","","","","",""
"html-keyboard-response","336","352350","0.0-7.0-2.29","LF","53gv7n4gtu","1440","900","0","1","0","601fd3cd92f028532a257baf","","null","","","learningBlock2","","","","<div style=""font-size:60px;""> </div>","null","LF","learning/Slide110.JPG","This is a bim:","","",""
"html-keyboard-response","337","353357","0.0-7.0-0.30","LF","53gv7n4gtu","1440","900","0","1","0","601fd3cd92f028532a257baf","","null","","","learningBlock2","","","","This is a tob:","null","","","","","",""
"image-keyboard-response","338","353694","0.0-7.0-1.30","LF","53gv7n4gtu","1440","900","0","1","0","601fd3cd92f028532a257baf","","null","","","","","","","learning/Slide111.JPG","null","","","","","",""
"html-keyboard-response","339","354701","0.0-7.0-2.30","LF","53gv7n4gtu","1440","900","0","1","0","601fd3cd92f028532a257baf","","null","","","learningBlock2","","","","<div style=""font-size:60px;""> </div>","null","LF","learning/Slide111.JPG","This is a tob:","","",""
"html-keyboard-response","340","355708","0.0-7.0-0.31","LF","53gv7n4gtu","1440","900","0","1","0","601fd3cd92f028532a257baf","","null","","","learningBlock2","","","","This is a wug:","null","","","","","",""
"image-keyboard-response","341","356043","0.0-7.0-1.31","LF","53gv7n4gtu","1440","900","0","1","0","601fd3cd92f028532a257baf","","null","","","","","","","learning/Slide112.JPG","null","","","","","",""
"html-keyboard-response","342","357050","0.0-7.0-2.31","LF","53gv7n4gtu","1440","900","0","1","0","601fd3cd92f028532a257baf","","null","","","learningBlock2","","","","<div style=""font-size:60px;""> </div>","null","LF","learning/Slide112.JPG","This is a wug:","","",""
"html-keyboard-response","343","358052","0.0-7.0-0.32","LF","53gv7n4gtu","1440","900","0","1","0","601fd3cd92f028532a257baf","","null","","","learningBlock2","","","","This is a tob:","null","","","","","",""
"image-keyboard-response","344","358384","0.0-7.0-1.32","LF","53gv7n4gtu","1440","900","0","1","0","601fd3cd92f028532a257baf","","null","","","","","","","learning/Slide113.JPG","null","","","","","",""
"html-keyboard-response","345","359391","0.0-7.0-2.32","LF","53gv7n4gtu","1440","900","0","1","0","601fd3cd92f028532a257baf","","null","","","learningBlock2","","","","<div style=""font-size:60px;""> </div>","null","LF","learning/Slide113.JPG","This is a tob:","","",""
"html-keyboard-response","346","360398","0.0-7.0-0.33","LF","53gv7n4gtu","1440","900","0","1","0","601fd3cd92f028532a257baf","","null","","","learningBlock2","","","","This is a wug:","null","","","","","",""
"image-keyboard-response","347","360735","0.0-7.0-1.33","LF","53gv7n4gtu","1440","900","0","1","0","601fd3cd92f028532a257baf","","null","","","","","","","learning/Slide114.JPG","null","","","","","",""
"html-keyboard-response","348","361742","0.0-7.0-2.33","LF","53gv7n4gtu","1440","900","0","1","0","601fd3cd92f028532a257baf","","null","","","learningBlock2","","","","<div style=""font-size:60px;""> </div>","null","LF","learning/Slide114.JPG","This is a wug:","","",""
"html-keyboard-response","349","362749","0.0-7.0-0.34","LF","53gv7n4gtu","1440","900","0","1","0","601fd3cd92f028532a257baf","","null","","","learningBlock2","","","","This is a bim:","null","","","","","",""
"image-keyboard-response","350","363086","0.0-7.0-1.34","LF","53gv7n4gtu","1440","900","0","1","0","601fd3cd92f028532a257baf","","null","","","","","","","learning/Slide115.JPG","null","","","","","",""
"html-keyboard-response","351","364092","0.0-7.0-2.34","LF","53gv7n4gtu","1440","900","0","1","0","601fd3cd92f028532a257baf","","null","","","learningBlock2","","","","<div style=""font-size:60px;""> </div>","null","LF","learning/Slide115.JPG","This is a bim:","","",""
"html-keyboard-response","352","365096","0.0-7.0-0.35","LF","53gv7n4gtu","1440","900","0","1","0","601fd3cd92f028532a257baf","","null","","","learningBlock2","","","","This is a dep:","null","","","","","",""
"image-keyboard-response","353","365429","0.0-7.0-1.35","LF","53gv7n4gtu","1440","900","0","1","0","601fd3cd92f028532a257baf","","null","","","","","","","learning/Slide116.JPG","null","","","","","",""
"html-keyboard-response","354","366435","0.0-7.0-2.35","LF","53gv7n4gtu","1440","900","0","1","0","601fd3cd92f028532a257baf","","null","","","learningBlock2","","","","<div style=""font-size:60px;""> </div>","null","LF","learning/Slide116.JPG","This is a dep:","","",""
"html-keyboard-response","355","367442","0.0-7.0-0.36","LF","53gv7n4gtu","1440","900","0","1","0","601fd3cd92f028532a257baf","","null","","","learningBlock2","","","","This is a tob:","null","","","","","",""
"image-keyboard-response","356","367775","0.0-7.0-1.36","LF","53gv7n4gtu","1440","900","0","1","0","601fd3cd92f028532a257baf","","null","","","","","","","learning/Slide117.JPG","null","","","","","",""
"html-keyboard-response","357","368779","0.0-7.0-2.36","LF","53gv7n4gtu","1440","900","0","1","0","601fd3cd92f028532a257baf","","null","","","learningBlock2","","","","<div style=""font-size:60px;""> </div>","null","LF","learning/Slide117.JPG","This is a tob:","","",""
"html-keyboard-response","358","369785","0.0-7.0-0.37","LF","53gv7n4gtu","1440","900","0","1","0","601fd3cd92f028532a257baf","","null","","","learningBlock2","","","","This is a dep:","null","","","","","",""
"image-keyboard-response","359","370122","0.0-7.0-1.37","LF","53gv7n4gtu","1440","900","0","1","0","601fd3cd92f028532a257baf","","null","","","","","","","learning/Slide118.JPG","null","","","","","",""
"html-keyboard-response","360","371129","0.0-7.0-2.37","LF","53gv7n4gtu","1440","900","0","1","0","601fd3cd92f028532a257baf","","null","","","learningBlock2","","","","<div style=""font-size:60px;""> </div>","null","LF","learning/Slide118.JPG","This is a dep:","","",""
"html-keyboard-response","361","372135","0.0-7.0-0.38","LF","53gv7n4gtu","1440","900","0","1","0","601fd3cd92f028532a257baf","","null","","","learningBlock2","","","","This is a wug:","null","","","","","",""
"image-keyboard-response","362","372469","0.0-7.0-1.38","LF","53gv7n4gtu","1440","900","0","1","0","601fd3cd92f028532a257baf","","null","","","","","","","learning/Slide119.JPG","null","","","","","",""
"html-keyboard-response","363","373476","0.0-7.0-2.38","LF","53gv7n4gtu","1440","900","0","1","0","601fd3cd92f028532a257baf","","null","","","learningBlock2","","","","<div style=""font-size:60px;""> </div>","null","LF","learning/Slide119.JPG","This is a wug:","","",""
"html-keyboard-response","364","374482","0.0-7.0-0.39","LF","53gv7n4gtu","1440","900","0","1","0","601fd3cd92f028532a257baf","","null","","","learningBlock2","","","","This is a dep:","null","","","","","",""
"image-keyboard-response","365","374816","0.0-7.0-1.39","LF","53gv7n4gtu","1440","900","0","1","0","601fd3cd92f028532a257baf","","null","","","","","","","learning/Slide120.JPG","null","","","","","",""
"html-keyboard-response","366","375817","0.0-7.0-2.39","LF","53gv7n4gtu","1440","900","0","1","0","601fd3cd92f028532a257baf","","null","","","learningBlock2","","","","<div style=""font-size:60px;""> </div>","null","LF","learning/Slide120.JPG","This is a dep:","","",""
"html-keyboard-response","367","376820","0.0-7.0-0.40","LF","53gv7n4gtu","1440","900","0","1","0","601fd3cd92f028532a257baf","","null","","","learningBlock2","","","","This is a bim:","null","","","","","",""
"image-keyboard-response","368","377154","0.0-7.0-1.40","LF","53gv7n4gtu","1440","900","0","1","0","601fd3cd92f028532a257baf","","null","","","","","","","learning/Slide121.JPG","null","","","","","",""
"html-keyboard-response","369","378162","0.0-7.0-2.40","LF","53gv7n4gtu","1440","900","0","1","0","601fd3cd92f028532a257baf","","null","","","learningBlock2","","","","<div style=""font-size:60px;""> </div>","null","LF","learning/Slide121.JPG","This is a bim:","","",""
"html-keyboard-response","370","379164","0.0-7.0-0.41","LF","53gv7n4gtu","1440","900","0","1","0","601fd3cd92f028532a257baf","","null","","","learningBlock2","","","","This is a wug:","null","","","","","",""
"image-keyboard-response","371","379499","0.0-7.0-1.41","LF","53gv7n4gtu","1440","900","0","1","0","601fd3cd92f028532a257baf","","null","","","","","","","learning/Slide122.JPG","null","","","","","",""
"html-keyboard-response","372","380506","0.0-7.0-2.41","LF","53gv7n4gtu","1440","900","0","1","0","601fd3cd92f028532a257baf","","null","","","learningBlock2","","","","<div style=""font-size:60px;""> </div>","null","LF","learning/Slide122.JPG","This is a wug:","","",""
"html-keyboard-response","373","381512","0.0-7.0-0.42","LF","53gv7n4gtu","1440","900","0","1","0","601fd3cd92f028532a257baf","","null","","","learningBlock2","","","","This is a bim:","null","","","","","",""
"image-keyboard-response","374","381847","0.0-7.0-1.42","LF","53gv7n4gtu","1440","900","0","1","0","601fd3cd92f028532a257baf","","null","","","","","","","learning/Slide123.JPG","null","","","","","",""
"html-keyboard-response","375","382852","0.0-7.0-2.42","LF","53gv7n4gtu","1440","900","0","1","0","601fd3cd92f028532a257baf","","null","","","learningBlock2","","","","<div style=""font-size:60px;""> </div>","null","LF","learning/Slide123.JPG","This is a bim:","","",""
"html-keyboard-response","376","383859","0.0-7.0-0.43","LF","53gv7n4gtu","1440","900","0","1","0","601fd3cd92f028532a257baf","","null","","","learningBlock2","","","","This is a tob:","null","","","","","",""
"image-keyboard-response","377","384191","0.0-7.0-1.43","LF","53gv7n4gtu","1440","900","0","1","0","601fd3cd92f028532a257baf","","null","","","","","","","learning/Slide124.JPG","null","","","","","",""
"html-keyboard-response","378","385197","0.0-7.0-2.43","LF","53gv7n4gtu","1440","900","0","1","0","601fd3cd92f028532a257baf","","null","","","learningBlock2","","","","<div style=""font-size:60px;""> </div>","null","LF","learning/Slide124.JPG","This is a tob:","","",""
"html-keyboard-response","379","386204","0.0-7.0-0.44","LF","53gv7n4gtu","1440","900","0","1","0","601fd3cd92f028532a257baf","","null","","","learningBlock2","","","","This is a bim:","null","","","","","",""
"image-keyboard-response","380","386538","0.0-7.0-1.44","LF","53gv7n4gtu","1440","900","0","1","0","601fd3cd92f028532a257baf","","null","","","","","","","learning/Slide125.JPG","null","","","","","",""
"html-keyboard-response","381","387545","0.0-7.0-2.44","LF","53gv7n4gtu","1440","900","0","1","0","601fd3cd92f028532a257baf","","null","","","learningBlock2","","","","<div style=""font-size:60px;""> </div>","null","LF","learning/Slide125.JPG","This is a bim:","","",""
"html-keyboard-response","382","388551","0.0-7.0-0.45","LF","53gv7n4gtu","1440","900","0","1","0","601fd3cd92f028532a257baf","","null","","","learningBlock2","","","","This is a tob:","null","","","","","",""
"image-keyboard-response","383","388888","0.0-7.0-1.45","LF","53gv7n4gtu","1440","900","0","1","0","601fd3cd92f028532a257baf","","null","","","","","","","learning/Slide126.JPG","null","","","","","",""
"html-keyboard-response","384","389895","0.0-7.0-2.45","LF","53gv7n4gtu","1440","900","0","1","0","601fd3cd92f028532a257baf","","null","","","learningBlock2","","","","<div style=""font-size:60px;""> </div>","null","LF","learning/Slide126.JPG","This is a tob:","","",""
"html-keyboard-response","385","390902","0.0-7.0-0.46","LF","53gv7n4gtu","1440","900","0","1","0","601fd3cd92f028532a257baf","","null","","","learningBlock2","","","","This is a dep:","null","","","","","",""
"image-keyboard-response","386","391239","0.0-7.0-1.46","LF","53gv7n4gtu","1440","900","0","1","0","601fd3cd92f028532a257baf","","null","","","","","","","learning/Slide127.JPG","null","","","","","",""
"html-keyboard-response","387","392245","0.0-7.0-2.46","LF","53gv7n4gtu","1440","900","0","1","0","601fd3cd92f028532a257baf","","null","","","learningBlock2","","","","<div style=""font-size:60px;""> </div>","null","LF","learning/Slide127.JPG","This is a dep:","","",""
"html-keyboard-response","388","393252","0.0-7.0-0.47","LF","53gv7n4gtu","1440","900","0","1","0","601fd3cd92f028532a257baf","","null","","","learningBlock2","","","","This is a wug:","null","","","","","",""
"image-keyboard-response","389","393588","0.0-7.0-1.47","LF","53gv7n4gtu","1440","900","0","1","0","601fd3cd92f028532a257baf","","null","","","","","","","learning/Slide128.JPG","null","","","","","",""
"html-keyboard-response","390","394595","0.0-7.0-2.47","LF","53gv7n4gtu","1440","900","0","1","0","601fd3cd92f028532a257baf","","null","","","learningBlock2","","","","<div style=""font-size:60px;""> </div>","null","LF","learning/Slide128.JPG","This is a wug:","","",""
"html-keyboard-response","391","395601","0.0-7.0-0.48","LF","53gv7n4gtu","1440","900","0","1","0","601fd3cd92f028532a257baf","","null","","","learningBlock2","","","","This is a tob:","null","","","","","",""
"image-keyboard-response","392","395939","0.0-7.0-1.48","LF","53gv7n4gtu","1440","900","0","1","0","601fd3cd92f028532a257baf","","null","","","","","","","learning/Slide129.JPG","null","","","","","",""
"html-keyboard-response","393","396947","0.0-7.0-2.48","LF","53gv7n4gtu","1440","900","0","1","0","601fd3cd92f028532a257baf","","null","","","learningBlock2","","","","<div style=""font-size:60px;""> </div>","null","LF","learning/Slide129.JPG","This is a tob:","","",""
"html-keyboard-response","394","397953","0.0-7.0-0.49","LF","53gv7n4gtu","1440","900","0","1","0","601fd3cd92f028532a257baf","","null","","","learningBlock2","","","","This is a wug:","null","","","","","",""
"image-keyboard-response","395","398291","0.0-7.0-1.49","LF","53gv7n4gtu","1440","900","0","1","0","601fd3cd92f028532a257baf","","null","","","","","","","learning/Slide130.JPG","null","","","","","",""
"html-keyboard-response","396","399297","0.0-7.0-2.49","LF","53gv7n4gtu","1440","900","0","1","0","601fd3cd92f028532a257baf","","null","","","learningBlock2","","","","<div style=""font-size:60px;""> </div>","null","LF","learning/Slide130.JPG","This is a wug:","","",""
"html-keyboard-response","397","400304","0.0-7.0-0.50","LF","53gv7n4gtu","1440","900","0","1","0","601fd3cd92f028532a257baf","","null","","","learningBlock2","","","","This is a bim:","null","","","","","",""
"image-keyboard-response","398","400631","0.0-7.0-1.50","LF","53gv7n4gtu","1440","900","0","1","0","601fd3cd92f028532a257baf","","null","","","","","","","learning/Slide131.JPG","null","","","","","",""
"html-keyboard-response","399","401638","0.0-7.0-2.50","LF","53gv7n4gtu","1440","900","0","1","0","601fd3cd92f028532a257baf","","null","","","learningBlock2","","","","<div style=""font-size:60px;""> </div>","null","LF","learning/Slide131.JPG","This is a bim:","","",""
"html-keyboard-response","400","402644","0.0-7.0-0.51","LF","53gv7n4gtu","1440","900","0","1","0","601fd3cd92f028532a257baf","","null","","","learningBlock2","","","","This is a dep:","null","","","","","",""
"image-keyboard-response","401","402977","0.0-7.0-1.51","LF","53gv7n4gtu","1440","900","0","1","0","601fd3cd92f028532a257baf","","null","","","","","","","learning/Slide132.JPG","null","","","","","",""
"html-keyboard-response","402","403984","0.0-7.0-2.51","LF","53gv7n4gtu","1440","900","0","1","0","601fd3cd92f028532a257baf","","null","","","learningBlock2","","","","<div style=""font-size:60px;""> </div>","null","LF","learning/Slide132.JPG","This is a dep:","","",""
"html-keyboard-response","403","404991","0.0-7.0-0.52","LF","53gv7n4gtu","1440","900","0","1","0","601fd3cd92f028532a257baf","","null","","","learningBlock2","","","","This is a tob:","null","","","","","",""
"image-keyboard-response","404","405332","0.0-7.0-1.52","LF","53gv7n4gtu","1440","900","0","1","0","601fd3cd92f028532a257baf","","null","","","","","","","learning/Slide133.JPG","null","","","","","",""
"html-keyboard-response","405","406339","0.0-7.0-2.52","LF","53gv7n4gtu","1440","900","0","1","0","601fd3cd92f028532a257baf","","null","","","learningBlock2","","","","<div style=""font-size:60px;""> </div>","null","LF","learning/Slide133.JPG","This is a tob:","","",""
"html-keyboard-response","406","407345","0.0-7.0-0.53","LF","53gv7n4gtu","1440","900","0","1","0","601fd3cd92f028532a257baf","","null","","","learningBlock2","","","","This is a dep:","null","","","","","",""
"image-keyboard-response","407","407680","0.0-7.0-1.53","LF","53gv7n4gtu","1440","900","0","1","0","601fd3cd92f028532a257baf","","null","","","","","","","learning/Slide134.JPG","null","","","","","",""
"html-keyboard-response","408","408687","0.0-7.0-2.53","LF","53gv7n4gtu","1440","900","0","1","0","601fd3cd92f028532a257baf","","null","","","learningBlock2","","","","<div style=""font-size:60px;""> </div>","null","LF","learning/Slide134.JPG","This is a dep:","","",""
"html-keyboard-response","409","409693","0.0-7.0-0.54","LF","53gv7n4gtu","1440","900","0","1","0","601fd3cd92f028532a257baf","","null","","","learningBlock2","","","","This is a tob:","null","","","","","",""
"image-keyboard-response","410","410031","0.0-7.0-1.54","LF","53gv7n4gtu","1440","900","0","1","0","601fd3cd92f028532a257baf","","null","","","","","","","learning/Slide135.JPG","null","","","","","",""
"html-keyboard-response","411","411036","0.0-7.0-2.54","LF","53gv7n4gtu","1440","900","0","1","0","601fd3cd92f028532a257baf","","null","","","learningBlock2","","","","<div style=""font-size:60px;""> </div>","null","LF","learning/Slide135.JPG","This is a tob:","","",""
"html-keyboard-response","412","412042","0.0-7.0-0.55","LF","53gv7n4gtu","1440","900","0","1","0","601fd3cd92f028532a257baf","","null","","","learningBlock2","","","","This is a wug:","null","","","","","",""
"image-keyboard-response","413","412379","0.0-7.0-1.55","LF","53gv7n4gtu","1440","900","0","1","0","601fd3cd92f028532a257baf","","null","","","","","","","learning/Slide136.JPG","null","","","","","",""
"html-keyboard-response","414","413386","0.0-7.0-2.55","LF","53gv7n4gtu","1440","900","0","1","0","601fd3cd92f028532a257baf","","null","","","learningBlock2","","","","<div style=""font-size:60px;""> </div>","null","LF","learning/Slide136.JPG","This is a wug:","","",""
"html-keyboard-response","415","414392","0.0-7.0-0.56","LF","53gv7n4gtu","1440","900","0","1","0","601fd3cd92f028532a257baf","","null","","","learningBlock2","","","","This is a tob:","null","","","","","",""
"image-keyboard-response","416","414726","0.0-7.0-1.56","LF","53gv7n4gtu","1440","900","0","1","0","601fd3cd92f028532a257baf","","null","","","","","","","learning/Slide137.JPG","null","","","","","",""
"html-keyboard-response","417","415733","0.0-7.0-2.56","LF","53gv7n4gtu","1440","900","0","1","0","601fd3cd92f028532a257baf","","null","","","learningBlock2","","","","<div style=""font-size:60px;""> </div>","null","LF","learning/Slide137.JPG","This is a tob:","","",""
"html-keyboard-response","418","416739","0.0-7.0-0.57","LF","53gv7n4gtu","1440","900","0","1","0","601fd3cd92f028532a257baf","","null","","","learningBlock2","","","","This is a bim:","null","","","","","",""
"image-keyboard-response","419","417072","0.0-7.0-1.57","LF","53gv7n4gtu","1440","900","0","1","0","601fd3cd92f028532a257baf","","null","","","","","","","learning/Slide138.JPG","null","","","","","",""
"html-keyboard-response","420","418079","0.0-7.0-2.57","LF","53gv7n4gtu","1440","900","0","1","0","601fd3cd92f028532a257baf","","null","","","learningBlock2","","","","<div style=""font-size:60px;""> </div>","null","LF","learning/Slide138.JPG","This is a bim:","","",""
"html-keyboard-response","421","419086","0.0-7.0-0.58","LF","53gv7n4gtu","1440","900","0","1","0","601fd3cd92f028532a257baf","","null","","","learningBlock2","","","","This is a wug:","null","","","","","",""
"image-keyboard-response","422","419422","0.0-7.0-1.58","LF","53gv7n4gtu","1440","900","0","1","0","601fd3cd92f028532a257baf","","null","","","","","","","learning/Slide139.JPG","null","","","","","",""
"html-keyboard-response","423","420427","0.0-7.0-2.58","LF","53gv7n4gtu","1440","900","0","1","0","601fd3cd92f028532a257baf","","null","","","learningBlock2","","","","<div style=""font-size:60px;""> </div>","null","LF","learning/Slide139.JPG","This is a wug:","","",""
"html-keyboard-response","424","421433","0.0-7.0-0.59","LF","53gv7n4gtu","1440","900","0","1","0","601fd3cd92f028532a257baf","","null","","","learningBlock2","","","","This is a dep:","null","","","","","",""
"image-keyboard-response","425","421765","0.0-7.0-1.59","LF","53gv7n4gtu","1440","900","0","1","0","601fd3cd92f028532a257baf","","null","","","","","","","learning/Slide140.JPG","null","","","","","",""
"html-keyboard-response","426","422772","0.0-7.0-2.59","LF","53gv7n4gtu","1440","900","0","1","0","601fd3cd92f028532a257baf","","null","","","learningBlock2","","","","<div style=""font-size:60px;""> </div>","null","LF","learning/Slide140.JPG","This is a dep:","","",""
"html-keyboard-response","427","423778","0.0-7.0-0.60","LF","53gv7n4gtu","1440","900","0","1","0","601fd3cd92f028532a257baf","","null","","","learningBlock2","","","","This is a tob:","null","","","","","",""
"image-keyboard-response","428","424111","0.0-7.0-1.60","LF","53gv7n4gtu","1440","900","0","1","0","601fd3cd92f028532a257baf","","null","","","","","","","learning/Slide141.JPG","null","","","","","",""
"html-keyboard-response","429","425114","0.0-7.0-2.60","LF","53gv7n4gtu","1440","900","0","1","0","601fd3cd92f028532a257baf","","null","","","learningBlock2","","","","<div style=""font-size:60px;""> </div>","null","LF","learning/Slide141.JPG","This is a tob:","","",""
"html-keyboard-response","430","426121","0.0-7.0-0.61","LF","53gv7n4gtu","1440","900","0","1","0","601fd3cd92f028532a257baf","","null","","","learningBlock2","","","","This is a wug:","null","","","","","",""
"image-keyboard-response","431","426457","0.0-7.0-1.61","LF","53gv7n4gtu","1440","900","0","1","0","601fd3cd92f028532a257baf","","null","","","","","","","learning/Slide142.JPG","null","","","","","",""
"html-keyboard-response","432","427462","0.0-7.0-2.61","LF","53gv7n4gtu","1440","900","0","1","0","601fd3cd92f028532a257baf","","null","","","learningBlock2","","","","<div style=""font-size:60px;""> </div>","null","LF","learning/Slide142.JPG","This is a wug:","","",""
"html-keyboard-response","433","428468","0.0-7.0-0.62","LF","53gv7n4gtu","1440","900","0","1","0","601fd3cd92f028532a257baf","","null","","","learningBlock2","","","","This is a bim:","null","","","","","",""
"image-keyboard-response","434","428806","0.0-7.0-1.62","LF","53gv7n4gtu","1440","900","0","1","0","601fd3cd92f028532a257baf","","null","","","","","","","learning/Slide143.JPG","null","","","","","",""
"html-keyboard-response","435","429813","0.0-7.0-2.62","LF","53gv7n4gtu","1440","900","0","1","0","601fd3cd92f028532a257baf","","null","","","learningBlock2","","","","<div style=""font-size:60px;""> </div>","null","LF","learning/Slide143.JPG","This is a bim:","","",""
"html-keyboard-response","436","430819","0.0-7.0-0.63","LF","53gv7n4gtu","1440","900","0","1","0","601fd3cd92f028532a257baf","","null","","","learningBlock2","","","","This is a dep:","null","","","","","",""
"image-keyboard-response","437","431153","0.0-7.0-1.63","LF","53gv7n4gtu","1440","900","0","1","0","601fd3cd92f028532a257baf","","null","","","","","","","learning/Slide144.JPG","null","","","","","",""
