"trial_type","trial_index","time_elapsed","internal_node_id","condition","subject","screen_width","screen_height","attention","distraction","conscientious","prolificID","success","rt","url","view_history","test_part","final_height_px","final_width_px","scale_factor","stimulus","key_press","learningType","presentedImage","presentedLabel","button_pressed","response","responses"
"pavlovia","0","26","0.0-0.0","LF","163k2z1uov","1366","768","0","1","0","5f11ccbc1a1a2c08b4a99efb","","","","","","","","","","","","","","","",""
"fullscreen","1","3762","0.0-1.0","LF","163k2z1uov","1366","768","0","1","0","5f11ccbc1a1a2c08b4a99efb","true","","","","","","","","","","","","","","",""
"external-html","2","17758","0.0-2.0-0.0","LF","163k2z1uov","1366","768","0","1","0","5f11ccbc1a1a2c08b4a99efb","","13966.604999999618","text/information_english.html","","","","","","","","","","","","",""
"external-html","3","24368","0.0-2.0-1.0","LF","163k2z1uov","1366","768","0","1","0","5f11ccbc1a1a2c08b4a99efb","","6577.905000000101","text/consent_english.html","","","","","","","","","","","","",""
"instructions","4","41004","0.0-3.0","LF","163k2z1uov","1366","768","0","1","0","5f11ccbc1a1a2c08b4a99efb","","NA","","[{""page_index"":0,""viewing_time"":2034.830000000511},{""page_index"":1,""viewing_time"":14598.629999999503}]","instructions","","","","","","","","","","",""
"resize","5","81973","0.0-4.0","LF","163k2z1uov","1366","768","0","1","0","5f11ccbc1a1a2c08b4a99efb","","","","","","","334","2.1206349206349207","","","","","","","",""
"html-keyboard-response","6","82990","0.0-5.0-0.0","LF","163k2z1uov","1366","768","0","1","0","5f11ccbc1a1a2c08b4a99efb","","null","","","learningBlock1","","","","This is a tob:","null","","","","","",""
"image-keyboard-response","7","83327","0.0-5.0-1.0","LF","163k2z1uov","1366","768","0","1","0","5f11ccbc1a1a2c08b4a99efb","","null","","","","","","","learning/Slide1.JPG","null","","","","","",""
"html-keyboard-response","8","84332","0.0-5.0-2.0","LF","163k2z1uov","1366","768","0","1","0","5f11ccbc1a1a2c08b4a99efb","","null","","","learningBlock1","","","","<div style=""font-size:60px;""> </div>","null","LF","learning/Slide1.JPG","This is a tob:","","",""
"html-keyboard-response","9","85336","0.0-5.0-0.1","LF","163k2z1uov","1366","768","0","1","0","5f11ccbc1a1a2c08b4a99efb","","null","","","learningBlock1","","","","This is a wug:","null","","","","","",""
"image-keyboard-response","10","85684","0.0-5.0-1.1","LF","163k2z1uov","1366","768","0","1","0","5f11ccbc1a1a2c08b4a99efb","","null","","","","","","","learning/Slide2.JPG","null","","","","","",""
"html-keyboard-response","11","86686","0.0-5.0-2.1","LF","163k2z1uov","1366","768","0","1","0","5f11ccbc1a1a2c08b4a99efb","","null","","","learningBlock1","","","","<div style=""font-size:60px;""> </div>","null","LF","learning/Slide2.JPG","This is a wug:","","",""
"html-keyboard-response","12","87688","0.0-5.0-0.2","LF","163k2z1uov","1366","768","0","1","0","5f11ccbc1a1a2c08b4a99efb","","null","","","learningBlock1","","","","This is a bim:","null","","","","","",""
"image-keyboard-response","13","88026","0.0-5.0-1.2","LF","163k2z1uov","1366","768","0","1","0","5f11ccbc1a1a2c08b4a99efb","","null","","","","","","","learning/Slide3.JPG","null","","","","","",""
"html-keyboard-response","14","89028","0.0-5.0-2.2","LF","163k2z1uov","1366","768","0","1","0","5f11ccbc1a1a2c08b4a99efb","","null","","","learningBlock1","","","","<div style=""font-size:60px;""> </div>","null","LF","learning/Slide3.JPG","This is a bim:","","",""
"html-keyboard-response","15","90033","0.0-5.0-0.3","LF","163k2z1uov","1366","768","0","1","0","5f11ccbc1a1a2c08b4a99efb","","null","","","learningBlock1","","","","This is a dep:","null","","","","","",""
"image-keyboard-response","16","90380","0.0-5.0-1.3","LF","163k2z1uov","1366","768","0","1","0","5f11ccbc1a1a2c08b4a99efb","","null","","","","","","","learning/Slide4.JPG","null","","","","","",""
"html-keyboard-response","17","91384","0.0-5.0-2.3","LF","163k2z1uov","1366","768","0","1","0","5f11ccbc1a1a2c08b4a99efb","","null","","","learningBlock1","","","","<div style=""font-size:60px;""> </div>","null","LF","learning/Slide4.JPG","This is a dep:","","",""
"html-keyboard-response","18","92387","0.0-5.0-0.4","LF","163k2z1uov","1366","768","0","1","0","5f11ccbc1a1a2c08b4a99efb","","null","","","learningBlock1","","","","This is a wug:","null","","","","","",""
"image-keyboard-response","19","92720","0.0-5.0-1.4","LF","163k2z1uov","1366","768","0","1","0","5f11ccbc1a1a2c08b4a99efb","","null","","","","","","","learning/Slide5.JPG","null","","","","","",""
"html-keyboard-response","20","93724","0.0-5.0-2.4","LF","163k2z1uov","1366","768","0","1","0","5f11ccbc1a1a2c08b4a99efb","","null","","","learningBlock1","","","","<div style=""font-size:60px;""> </div>","null","LF","learning/Slide5.JPG","This is a wug:","","",""
"html-keyboard-response","21","94729","0.0-5.0-0.5","LF","163k2z1uov","1366","768","0","1","0","5f11ccbc1a1a2c08b4a99efb","","null","","","learningBlock1","","","","This is a dep:","null","","","","","",""
"image-keyboard-response","22","95067","0.0-5.0-1.5","LF","163k2z1uov","1366","768","0","1","0","5f11ccbc1a1a2c08b4a99efb","","null","","","","","","","learning/Slide6.JPG","null","","","","","",""
"html-keyboard-response","23","96071","0.0-5.0-2.5","LF","163k2z1uov","1366","768","0","1","0","5f11ccbc1a1a2c08b4a99efb","","null","","","learningBlock1","","","","<div style=""font-size:60px;""> </div>","null","LF","learning/Slide6.JPG","This is a dep:","","",""
"html-keyboard-response","24","97073","0.0-5.0-0.6","LF","163k2z1uov","1366","768","0","1","0","5f11ccbc1a1a2c08b4a99efb","","null","","","learningBlock1","","","","This is a wug:","null","","","","","",""
"image-keyboard-response","25","97420","0.0-5.0-1.6","LF","163k2z1uov","1366","768","0","1","0","5f11ccbc1a1a2c08b4a99efb","","null","","","","","","","learning/Slide7.JPG","null","","","","","",""
"html-keyboard-response","26","98421","0.0-5.0-2.6","LF","163k2z1uov","1366","768","0","1","0","5f11ccbc1a1a2c08b4a99efb","","null","","","learningBlock1","","","","<div style=""font-size:60px;""> </div>","null","LF","learning/Slide7.JPG","This is a wug:","","",""
"html-keyboard-response","27","99424","0.0-5.0-0.7","LF","163k2z1uov","1366","768","0","1","0","5f11ccbc1a1a2c08b4a99efb","","null","","","learningBlock1","","","","This is a bim:","null","","","","","",""
"image-keyboard-response","28","99762","0.0-5.0-1.7","LF","163k2z1uov","1366","768","0","1","0","5f11ccbc1a1a2c08b4a99efb","","null","","","","","","","learning/Slide8.JPG","null","","","","","",""
"html-keyboard-response","29","100768","0.0-5.0-2.7","LF","163k2z1uov","1366","768","0","1","0","5f11ccbc1a1a2c08b4a99efb","","null","","","learningBlock1","","","","<div style=""font-size:60px;""> </div>","null","LF","learning/Slide8.JPG","This is a bim:","","",""
"html-keyboard-response","30","101772","0.0-5.0-0.8","LF","163k2z1uov","1366","768","0","1","0","5f11ccbc1a1a2c08b4a99efb","","null","","","learningBlock1","","","","This is a wug:","null","","","","","",""
"image-keyboard-response","31","102119","0.0-5.0-1.8","LF","163k2z1uov","1366","768","0","1","0","5f11ccbc1a1a2c08b4a99efb","","null","","","","","","","learning/Slide9.JPG","null","","","","","",""
"html-keyboard-response","32","103135","0.0-5.0-2.8","LF","163k2z1uov","1366","768","0","1","0","5f11ccbc1a1a2c08b4a99efb","","null","","","learningBlock1","","","","<div style=""font-size:60px;""> </div>","null","LF","learning/Slide9.JPG","This is a wug:","","",""
"html-keyboard-response","33","104137","0.0-5.0-0.9","LF","163k2z1uov","1366","768","0","1","0","5f11ccbc1a1a2c08b4a99efb","","null","","","learningBlock1","","","","This is a dep:","null","","","","","",""
"image-keyboard-response","34","104475","0.0-5.0-1.9","LF","163k2z1uov","1366","768","0","1","0","5f11ccbc1a1a2c08b4a99efb","","null","","","","","","","learning/Slide10.JPG","null","","","","","",""
"html-keyboard-response","35","105478","0.0-5.0-2.9","LF","163k2z1uov","1366","768","0","1","0","5f11ccbc1a1a2c08b4a99efb","","null","","","learningBlock1","","","","<div style=""font-size:60px;""> </div>","null","LF","learning/Slide10.JPG","This is a dep:","","",""
"html-keyboard-response","36","106483","0.0-5.0-0.10","LF","163k2z1uov","1366","768","0","1","0","5f11ccbc1a1a2c08b4a99efb","","null","","","learningBlock1","","","","This is a tob:","null","","","","","",""
"image-keyboard-response","37","106830","0.0-5.0-1.10","LF","163k2z1uov","1366","768","0","1","0","5f11ccbc1a1a2c08b4a99efb","","null","","","","","","","learning/Slide11.JPG","null","","","","","",""
"html-keyboard-response","38","107834","0.0-5.0-2.10","LF","163k2z1uov","1366","768","0","1","0","5f11ccbc1a1a2c08b4a99efb","","null","","","learningBlock1","","","","<div style=""font-size:60px;""> </div>","null","LF","learning/Slide11.JPG","This is a tob:","","",""
"html-keyboard-response","39","108836","0.0-5.0-0.11","LF","163k2z1uov","1366","768","0","1","0","5f11ccbc1a1a2c08b4a99efb","","null","","","learningBlock1","","","","This is a dep:","null","","","","","",""
"image-keyboard-response","40","109168","0.0-5.0-1.11","LF","163k2z1uov","1366","768","0","1","0","5f11ccbc1a1a2c08b4a99efb","","null","","","","","","","learning/Slide12.JPG","null","","","","","",""
"html-keyboard-response","41","110193","0.0-5.0-2.11","LF","163k2z1uov","1366","768","0","1","0","5f11ccbc1a1a2c08b4a99efb","","null","","","learningBlock1","","","","<div style=""font-size:60px;""> </div>","null","LF","learning/Slide12.JPG","This is a dep:","","",""
"html-keyboard-response","42","111196","0.0-5.0-0.12","LF","163k2z1uov","1366","768","0","1","0","5f11ccbc1a1a2c08b4a99efb","","null","","","learningBlock1","","","","This is a bim:","null","","","","","",""
"image-keyboard-response","43","111544","0.0-5.0-1.12","LF","163k2z1uov","1366","768","0","1","0","5f11ccbc1a1a2c08b4a99efb","","null","","","","","","","learning/Slide13.JPG","null","","","","","",""
"html-keyboard-response","44","112549","0.0-5.0-2.12","LF","163k2z1uov","1366","768","0","1","0","5f11ccbc1a1a2c08b4a99efb","","null","","","learningBlock1","","","","<div style=""font-size:60px;""> </div>","null","LF","learning/Slide13.JPG","This is a bim:","","",""
"html-keyboard-response","45","113552","0.0-5.0-0.13","LF","163k2z1uov","1366","768","0","1","0","5f11ccbc1a1a2c08b4a99efb","","null","","","learningBlock1","","","","This is a wug:","null","","","","","",""
"image-keyboard-response","46","113884","0.0-5.0-1.13","LF","163k2z1uov","1366","768","0","1","0","5f11ccbc1a1a2c08b4a99efb","","null","","","","","","","learning/Slide14.JPG","null","","","","","",""
"html-keyboard-response","47","114887","0.0-5.0-2.13","LF","163k2z1uov","1366","768","0","1","0","5f11ccbc1a1a2c08b4a99efb","","null","","","learningBlock1","","","","<div style=""font-size:60px;""> </div>","null","LF","learning/Slide14.JPG","This is a wug:","","",""
"html-keyboard-response","48","115892","0.0-5.0-0.14","LF","163k2z1uov","1366","768","0","1","0","5f11ccbc1a1a2c08b4a99efb","","null","","","learningBlock1","","","","This is a tob:","null","","","","","",""
"image-keyboard-response","49","116231","0.0-5.0-1.14","LF","163k2z1uov","1366","768","0","1","0","5f11ccbc1a1a2c08b4a99efb","","null","","","","","","","learning/Slide15.JPG","null","","","","","",""
"html-keyboard-response","50","117235","0.0-5.0-2.14","LF","163k2z1uov","1366","768","0","1","0","5f11ccbc1a1a2c08b4a99efb","","null","","","learningBlock1","","","","<div style=""font-size:60px;""> </div>","null","LF","learning/Slide15.JPG","This is a tob:","","",""
"html-keyboard-response","51","118238","0.0-5.0-0.15","LF","163k2z1uov","1366","768","0","1","0","5f11ccbc1a1a2c08b4a99efb","","null","","","learningBlock1","","","","This is a dep:","null","","","","","",""
"image-keyboard-response","52","118585","0.0-5.0-1.15","LF","163k2z1uov","1366","768","0","1","0","5f11ccbc1a1a2c08b4a99efb","","null","","","","","","","learning/Slide16.JPG","null","","","","","",""
"html-keyboard-response","53","119602","0.0-5.0-2.15","LF","163k2z1uov","1366","768","0","1","0","5f11ccbc1a1a2c08b4a99efb","","null","","","learningBlock1","","","","<div style=""font-size:60px;""> </div>","null","LF","learning/Slide16.JPG","This is a dep:","","",""
"html-keyboard-response","54","120605","0.0-5.0-0.16","LF","163k2z1uov","1366","768","0","1","0","5f11ccbc1a1a2c08b4a99efb","","null","","","learningBlock1","","","","This is a bim:","null","","","","","",""
"image-keyboard-response","55","120944","0.0-5.0-1.16","LF","163k2z1uov","1366","768","0","1","0","5f11ccbc1a1a2c08b4a99efb","","null","","","","","","","learning/Slide17.JPG","null","","","","","",""
"html-keyboard-response","56","121948","0.0-5.0-2.16","LF","163k2z1uov","1366","768","0","1","0","5f11ccbc1a1a2c08b4a99efb","","null","","","learningBlock1","","","","<div style=""font-size:60px;""> </div>","null","LF","learning/Slide17.JPG","This is a bim:","","",""
"html-keyboard-response","57","122952","0.0-5.0-0.17","LF","163k2z1uov","1366","768","0","1","0","5f11ccbc1a1a2c08b4a99efb","","null","","","learningBlock1","","","","This is a tob:","null","","","","","",""
"image-keyboard-response","58","123300","0.0-5.0-1.17","LF","163k2z1uov","1366","768","0","1","0","5f11ccbc1a1a2c08b4a99efb","","null","","","","","","","learning/Slide18.JPG","null","","","","","",""
"html-keyboard-response","59","124302","0.0-5.0-2.17","LF","163k2z1uov","1366","768","0","1","0","5f11ccbc1a1a2c08b4a99efb","","null","","","learningBlock1","","","","<div style=""font-size:60px;""> </div>","null","LF","learning/Slide18.JPG","This is a tob:","","",""
"html-keyboard-response","60","125303","0.0-5.0-0.18","LF","163k2z1uov","1366","768","0","1","0","5f11ccbc1a1a2c08b4a99efb","","null","","","learningBlock1","","","","This is a wug:","null","","","","","",""
"image-keyboard-response","61","125640","0.0-5.0-1.18","LF","163k2z1uov","1366","768","0","1","0","5f11ccbc1a1a2c08b4a99efb","","null","","","","","","","learning/Slide19.JPG","null","","","","","",""
"html-keyboard-response","62","126643","0.0-5.0-2.18","LF","163k2z1uov","1366","768","0","1","0","5f11ccbc1a1a2c08b4a99efb","","null","","","learningBlock1","","","","<div style=""font-size:60px;""> </div>","null","LF","learning/Slide19.JPG","This is a wug:","","",""
"html-keyboard-response","63","127647","0.0-5.0-0.19","LF","163k2z1uov","1366","768","0","1","0","5f11ccbc1a1a2c08b4a99efb","","null","","","learningBlock1","","","","This is a bim:","null","","","","","",""
"image-keyboard-response","64","127995","0.0-5.0-1.19","LF","163k2z1uov","1366","768","0","1","0","5f11ccbc1a1a2c08b4a99efb","","null","","","","","","","learning/Slide20.JPG","null","","","","","",""
"html-keyboard-response","65","128997","0.0-5.0-2.19","LF","163k2z1uov","1366","768","0","1","0","5f11ccbc1a1a2c08b4a99efb","","null","","","learningBlock1","","","","<div style=""font-size:60px;""> </div>","null","LF","learning/Slide20.JPG","This is a bim:","","",""
"html-keyboard-response","66","130001","0.0-5.0-0.20","LF","163k2z1uov","1366","768","0","1","0","5f11ccbc1a1a2c08b4a99efb","","null","","","learningBlock1","","","","This is a dep:","null","","","","","",""
"image-keyboard-response","67","130333","0.0-5.0-1.20","LF","163k2z1uov","1366","768","0","1","0","5f11ccbc1a1a2c08b4a99efb","","null","","","","","","","learning/Slide21.JPG","null","","","","","",""
"html-keyboard-response","68","131335","0.0-5.0-2.20","LF","163k2z1uov","1366","768","0","1","0","5f11ccbc1a1a2c08b4a99efb","","null","","","learningBlock1","","","","<div style=""font-size:60px;""> </div>","null","LF","learning/Slide21.JPG","This is a dep:","","",""
"html-keyboard-response","69","132340","0.0-5.0-0.21","LF","163k2z1uov","1366","768","0","1","0","5f11ccbc1a1a2c08b4a99efb","","null","","","learningBlock1","","","","This is a bim:","null","","","","","",""
"image-keyboard-response","70","132679","0.0-5.0-1.21","LF","163k2z1uov","1366","768","0","1","0","5f11ccbc1a1a2c08b4a99efb","","null","","","","","","","learning/Slide22.JPG","null","","","","","",""
"html-keyboard-response","71","133684","0.0-5.0-2.21","LF","163k2z1uov","1366","768","0","1","0","5f11ccbc1a1a2c08b4a99efb","","null","","","learningBlock1","","","","<div style=""font-size:60px;""> </div>","null","LF","learning/Slide22.JPG","This is a bim:","","",""
"html-keyboard-response","72","134686","0.0-5.0-0.22","LF","163k2z1uov","1366","768","0","1","0","5f11ccbc1a1a2c08b4a99efb","","null","","","learningBlock1","","","","This is a tob:","null","","","","","",""
"image-keyboard-response","73","135033","0.0-5.0-1.22","LF","163k2z1uov","1366","768","0","1","0","5f11ccbc1a1a2c08b4a99efb","","null","","","","","","","learning/Slide23.JPG","null","","","","","",""
"html-keyboard-response","74","136035","0.0-5.0-2.22","LF","163k2z1uov","1366","768","0","1","0","5f11ccbc1a1a2c08b4a99efb","","null","","","learningBlock1","","","","<div style=""font-size:60px;""> </div>","null","LF","learning/Slide23.JPG","This is a tob:","","",""
"html-keyboard-response","75","137037","0.0-5.0-0.23","LF","163k2z1uov","1366","768","0","1","0","5f11ccbc1a1a2c08b4a99efb","","null","","","learningBlock1","","","","This is a wug:","null","","","","","",""
"image-keyboard-response","76","137376","0.0-5.0-1.23","LF","163k2z1uov","1366","768","0","1","0","5f11ccbc1a1a2c08b4a99efb","","null","","","","","","","learning/Slide24.JPG","null","","","","","",""
"html-keyboard-response","77","138381","0.0-5.0-2.23","LF","163k2z1uov","1366","768","0","1","0","5f11ccbc1a1a2c08b4a99efb","","null","","","learningBlock1","","","","<div style=""font-size:60px;""> </div>","null","LF","learning/Slide24.JPG","This is a wug:","","",""
"html-keyboard-response","78","139385","0.0-5.0-0.24","LF","163k2z1uov","1366","768","0","1","0","5f11ccbc1a1a2c08b4a99efb","","null","","","learningBlock1","","","","This is a dep:","null","","","","","",""
"image-keyboard-response","79","139733","0.0-5.0-1.24","LF","163k2z1uov","1366","768","0","1","0","5f11ccbc1a1a2c08b4a99efb","","null","","","","","","","learning/Slide25.JPG","null","","","","","",""
"html-keyboard-response","80","140750","0.0-5.0-2.24","LF","163k2z1uov","1366","768","0","1","0","5f11ccbc1a1a2c08b4a99efb","","null","","","learningBlock1","","","","<div style=""font-size:60px;""> </div>","null","LF","learning/Slide25.JPG","This is a dep:","","",""
"html-keyboard-response","81","141752","0.0-5.0-0.25","LF","163k2z1uov","1366","768","0","1","0","5f11ccbc1a1a2c08b4a99efb","","null","","","learningBlock1","","","","This is a wug:","null","","","","","",""
"image-keyboard-response","82","142090","0.0-5.0-1.25","LF","163k2z1uov","1366","768","0","1","0","5f11ccbc1a1a2c08b4a99efb","","null","","","","","","","learning/Slide26.JPG","null","","","","","",""
"html-keyboard-response","83","143093","0.0-5.0-2.25","LF","163k2z1uov","1366","768","0","1","0","5f11ccbc1a1a2c08b4a99efb","","null","","","learningBlock1","","","","<div style=""font-size:60px;""> </div>","null","LF","learning/Slide26.JPG","This is a wug:","","",""
"html-keyboard-response","84","144096","0.0-5.0-0.26","LF","163k2z1uov","1366","768","0","1","0","5f11ccbc1a1a2c08b4a99efb","","null","","","learningBlock1","","","","This is a bim:","null","","","","","",""
"image-keyboard-response","85","144444","0.0-5.0-1.26","LF","163k2z1uov","1366","768","0","1","0","5f11ccbc1a1a2c08b4a99efb","","null","","","","","","","learning/Slide27.JPG","null","","","","","",""
"html-keyboard-response","86","145448","0.0-5.0-2.26","LF","163k2z1uov","1366","768","0","1","0","5f11ccbc1a1a2c08b4a99efb","","null","","","learningBlock1","","","","<div style=""font-size:60px;""> </div>","null","LF","learning/Slide27.JPG","This is a bim:","","",""
"html-keyboard-response","87","146450","0.0-5.0-0.27","LF","163k2z1uov","1366","768","0","1","0","5f11ccbc1a1a2c08b4a99efb","","null","","","learningBlock1","","","","This is a dep:","null","","","","","",""
"image-keyboard-response","88","146782","0.0-5.0-1.27","LF","163k2z1uov","1366","768","0","1","0","5f11ccbc1a1a2c08b4a99efb","","null","","","","","","","learning/Slide28.JPG","null","","","","","",""
"html-keyboard-response","89","147784","0.0-5.0-2.27","LF","163k2z1uov","1366","768","0","1","0","5f11ccbc1a1a2c08b4a99efb","","null","","","learningBlock1","","","","<div style=""font-size:60px;""> </div>","null","LF","learning/Slide28.JPG","This is a dep:","","",""
"html-keyboard-response","90","148788","0.0-5.0-0.28","LF","163k2z1uov","1366","768","0","1","0","5f11ccbc1a1a2c08b4a99efb","","null","","","learningBlock1","","","","This is a tob:","null","","","","","",""
"image-keyboard-response","91","149126","0.0-5.0-1.28","LF","163k2z1uov","1366","768","0","1","0","5f11ccbc1a1a2c08b4a99efb","","null","","","","","","","learning/Slide29.JPG","null","","","","","",""
"html-keyboard-response","92","150130","0.0-5.0-2.28","LF","163k2z1uov","1366","768","0","1","0","5f11ccbc1a1a2c08b4a99efb","","null","","","learningBlock1","","","","<div style=""font-size:60px;""> </div>","null","LF","learning/Slide29.JPG","This is a tob:","","",""
"html-keyboard-response","93","151135","0.0-5.0-0.29","LF","163k2z1uov","1366","768","0","1","0","5f11ccbc1a1a2c08b4a99efb","","null","","","learningBlock1","","","","This is a dep:","null","","","","","",""
"image-keyboard-response","94","151482","0.0-5.0-1.29","LF","163k2z1uov","1366","768","0","1","0","5f11ccbc1a1a2c08b4a99efb","","null","","","","","","","learning/Slide30.JPG","null","","","","","",""
"html-keyboard-response","95","152483","0.0-5.0-2.29","LF","163k2z1uov","1366","768","0","1","0","5f11ccbc1a1a2c08b4a99efb","","null","","","learningBlock1","","","","<div style=""font-size:60px;""> </div>","null","LF","learning/Slide30.JPG","This is a dep:","","",""
"html-keyboard-response","96","153485","0.0-5.0-0.30","LF","163k2z1uov","1366","768","0","1","0","5f11ccbc1a1a2c08b4a99efb","","null","","","learningBlock1","","","","This is a wug:","null","","","","","",""
"image-keyboard-response","97","153823","0.0-5.0-1.30","LF","163k2z1uov","1366","768","0","1","0","5f11ccbc1a1a2c08b4a99efb","","null","","","","","","","learning/Slide31.JPG","null","","","","","",""
"html-keyboard-response","98","154829","0.0-5.0-2.30","LF","163k2z1uov","1366","768","0","1","0","5f11ccbc1a1a2c08b4a99efb","","null","","","learningBlock1","","","","<div style=""font-size:60px;""> </div>","null","LF","learning/Slide31.JPG","This is a wug:","","",""
"html-keyboard-response","99","155833","0.0-5.0-0.31","LF","163k2z1uov","1366","768","0","1","0","5f11ccbc1a1a2c08b4a99efb","","null","","","learningBlock1","","","","This is a tob:","null","","","","","",""
"image-keyboard-response","100","156182","0.0-5.0-1.31","LF","163k2z1uov","1366","768","0","1","0","5f11ccbc1a1a2c08b4a99efb","","null","","","","","","","learning/Slide32.JPG","null","","","","","",""
"html-keyboard-response","101","157184","0.0-5.0-2.31","LF","163k2z1uov","1366","768","0","1","0","5f11ccbc1a1a2c08b4a99efb","","null","","","learningBlock1","","","","<div style=""font-size:60px;""> </div>","null","LF","learning/Slide32.JPG","This is a tob:","","",""
"html-keyboard-response","102","158201","0.0-5.0-0.32","LF","163k2z1uov","1366","768","0","1","0","5f11ccbc1a1a2c08b4a99efb","","null","","","learningBlock1","","","","This is a bim:","null","","","","","",""
"image-keyboard-response","103","158539","0.0-5.0-1.32","LF","163k2z1uov","1366","768","0","1","0","5f11ccbc1a1a2c08b4a99efb","","null","","","","","","","learning/Slide33.JPG","null","","","","","",""
"html-keyboard-response","104","159543","0.0-5.0-2.32","LF","163k2z1uov","1366","768","0","1","0","5f11ccbc1a1a2c08b4a99efb","","null","","","learningBlock1","","","","<div style=""font-size:60px;""> </div>","null","LF","learning/Slide33.JPG","This is a bim:","","",""
"html-keyboard-response","105","160547","0.0-5.0-0.33","LF","163k2z1uov","1366","768","0","1","0","5f11ccbc1a1a2c08b4a99efb","","null","","","learningBlock1","","","","This is a tob:","null","","","","","",""
"image-keyboard-response","106","160895","0.0-5.0-1.33","LF","163k2z1uov","1366","768","0","1","0","5f11ccbc1a1a2c08b4a99efb","","null","","","","","","","learning/Slide34.JPG","null","","","","","",""
"html-keyboard-response","107","161899","0.0-5.0-2.33","LF","163k2z1uov","1366","768","0","1","0","5f11ccbc1a1a2c08b4a99efb","","null","","","learningBlock1","","","","<div style=""font-size:60px;""> </div>","null","LF","learning/Slide34.JPG","This is a tob:","","",""
"html-keyboard-response","108","162917","0.0-5.0-0.34","LF","163k2z1uov","1366","768","0","1","0","5f11ccbc1a1a2c08b4a99efb","","null","","","learningBlock1","","","","This is a bim:","null","","","","","",""
"image-keyboard-response","109","163254","0.0-5.0-1.34","LF","163k2z1uov","1366","768","0","1","0","5f11ccbc1a1a2c08b4a99efb","","null","","","","","","","learning/Slide35.JPG","null","","","","","",""
"html-keyboard-response","110","164256","0.0-5.0-2.34","LF","163k2z1uov","1366","768","0","1","0","5f11ccbc1a1a2c08b4a99efb","","null","","","learningBlock1","","","","<div style=""font-size:60px;""> </div>","null","LF","learning/Slide35.JPG","This is a bim:","","",""
"html-keyboard-response","111","165262","0.0-5.0-0.35","LF","163k2z1uov","1366","768","0","1","0","5f11ccbc1a1a2c08b4a99efb","","null","","","learningBlock1","","","","This is a dep:","null","","","","","",""
"image-keyboard-response","112","165610","0.0-5.0-1.35","LF","163k2z1uov","1366","768","0","1","0","5f11ccbc1a1a2c08b4a99efb","","null","","","","","","","learning/Slide36.JPG","null","","","","","",""
"html-keyboard-response","113","166613","0.0-5.0-2.35","LF","163k2z1uov","1366","768","0","1","0","5f11ccbc1a1a2c08b4a99efb","","null","","","learningBlock1","","","","<div style=""font-size:60px;""> </div>","null","LF","learning/Slide36.JPG","This is a dep:","","",""
"html-keyboard-response","114","167616","0.0-5.0-0.36","LF","163k2z1uov","1366","768","0","1","0","5f11ccbc1a1a2c08b4a99efb","","null","","","learningBlock1","","","","This is a tob:","null","","","","","",""
"image-keyboard-response","115","167948","0.0-5.0-1.36","LF","163k2z1uov","1366","768","0","1","0","5f11ccbc1a1a2c08b4a99efb","","null","","","","","","","learning/Slide37.JPG","null","","","","","",""
"html-keyboard-response","116","168950","0.0-5.0-2.36","LF","163k2z1uov","1366","768","0","1","0","5f11ccbc1a1a2c08b4a99efb","","null","","","learningBlock1","","","","<div style=""font-size:60px;""> </div>","null","LF","learning/Slide37.JPG","This is a tob:","","",""
"html-keyboard-response","117","169953","0.0-5.0-0.37","LF","163k2z1uov","1366","768","0","1","0","5f11ccbc1a1a2c08b4a99efb","","null","","","learningBlock1","","","","This is a wug:","null","","","","","",""
"image-keyboard-response","118","170292","0.0-5.0-1.37","LF","163k2z1uov","1366","768","0","1","0","5f11ccbc1a1a2c08b4a99efb","","null","","","","","","","learning/Slide38.JPG","null","","","","","",""
"html-keyboard-response","119","171295","0.0-5.0-2.37","LF","163k2z1uov","1366","768","0","1","0","5f11ccbc1a1a2c08b4a99efb","","null","","","learningBlock1","","","","<div style=""font-size:60px;""> </div>","null","LF","learning/Slide38.JPG","This is a wug:","","",""
"html-keyboard-response","120","172298","0.0-5.0-0.38","LF","163k2z1uov","1366","768","0","1","0","5f11ccbc1a1a2c08b4a99efb","","null","","","learningBlock1","","","","This is a bim:","null","","","","","",""
"image-keyboard-response","121","172634","0.0-5.0-1.38","LF","163k2z1uov","1366","768","0","1","0","5f11ccbc1a1a2c08b4a99efb","","null","","","","","","","learning/Slide39.JPG","null","","","","","",""
"html-keyboard-response","122","173636","0.0-5.0-2.38","LF","163k2z1uov","1366","768","0","1","0","5f11ccbc1a1a2c08b4a99efb","","null","","","learningBlock1","","","","<div style=""font-size:60px;""> </div>","null","LF","learning/Slide39.JPG","This is a bim:","","",""
"html-keyboard-response","123","174638","0.0-5.0-0.39","LF","163k2z1uov","1366","768","0","1","0","5f11ccbc1a1a2c08b4a99efb","","null","","","learningBlock1","","","","This is a tob:","null","","","","","",""
"image-keyboard-response","124","174986","0.0-5.0-1.39","LF","163k2z1uov","1366","768","0","1","0","5f11ccbc1a1a2c08b4a99efb","","null","","","","","","","learning/Slide40.JPG","null","","","","","",""
"html-keyboard-response","125","175990","0.0-5.0-2.39","LF","163k2z1uov","1366","768","0","1","0","5f11ccbc1a1a2c08b4a99efb","","null","","","learningBlock1","","","","<div style=""font-size:60px;""> </div>","null","LF","learning/Slide40.JPG","This is a tob:","","",""
"html-keyboard-response","126","176994","0.0-5.0-0.40","LF","163k2z1uov","1366","768","0","1","0","5f11ccbc1a1a2c08b4a99efb","","null","","","learningBlock1","","","","This is a bim:","null","","","","","",""
"image-keyboard-response","127","177333","0.0-5.0-1.40","LF","163k2z1uov","1366","768","0","1","0","5f11ccbc1a1a2c08b4a99efb","","null","","","","","","","learning/Slide41.JPG","null","","","","","",""
"html-keyboard-response","128","178336","0.0-5.0-2.40","LF","163k2z1uov","1366","768","0","1","0","5f11ccbc1a1a2c08b4a99efb","","null","","","learningBlock1","","","","<div style=""font-size:60px;""> </div>","null","LF","learning/Slide41.JPG","This is a bim:","","",""
"html-keyboard-response","129","179353","0.0-5.0-0.41","LF","163k2z1uov","1366","768","0","1","0","5f11ccbc1a1a2c08b4a99efb","","null","","","learningBlock1","","","","This is a dep:","null","","","","","",""
"image-keyboard-response","130","179700","0.0-5.0-1.41","LF","163k2z1uov","1366","768","0","1","0","5f11ccbc1a1a2c08b4a99efb","","null","","","","","","","learning/Slide42.JPG","null","","","","","",""
"html-keyboard-response","131","180702","0.0-5.0-2.41","LF","163k2z1uov","1366","768","0","1","0","5f11ccbc1a1a2c08b4a99efb","","null","","","learningBlock1","","","","<div style=""font-size:60px;""> </div>","null","LF","learning/Slide42.JPG","This is a dep:","","",""
"html-keyboard-response","132","181703","0.0-5.0-0.42","LF","163k2z1uov","1366","768","0","1","0","5f11ccbc1a1a2c08b4a99efb","","null","","","learningBlock1","","","","This is a wug:","null","","","","","",""
"image-keyboard-response","133","182043","0.0-5.0-1.42","LF","163k2z1uov","1366","768","0","1","0","5f11ccbc1a1a2c08b4a99efb","","null","","","","","","","learning/Slide43.JPG","null","","","","","",""
"html-keyboard-response","134","183047","0.0-5.0-2.42","LF","163k2z1uov","1366","768","0","1","0","5f11ccbc1a1a2c08b4a99efb","","null","","","learningBlock1","","","","<div style=""font-size:60px;""> </div>","null","LF","learning/Slide43.JPG","This is a wug:","","",""
"html-keyboard-response","135","184051","0.0-5.0-0.43","LF","163k2z1uov","1366","768","0","1","0","5f11ccbc1a1a2c08b4a99efb","","null","","","learningBlock1","","","","This is a bim:","null","","","","","",""
"image-keyboard-response","136","184400","0.0-5.0-1.43","LF","163k2z1uov","1366","768","0","1","0","5f11ccbc1a1a2c08b4a99efb","","null","","","","","","","learning/Slide44.JPG","null","","","","","",""
"html-keyboard-response","137","185417","0.0-5.0-2.43","LF","163k2z1uov","1366","768","0","1","0","5f11ccbc1a1a2c08b4a99efb","","null","","","learningBlock1","","","","<div style=""font-size:60px;""> </div>","null","LF","learning/Slide44.JPG","This is a bim:","","",""
"html-keyboard-response","138","186419","0.0-5.0-0.44","LF","163k2z1uov","1366","768","0","1","0","5f11ccbc1a1a2c08b4a99efb","","null","","","learningBlock1","","","","This is a wug:","null","","","","","",""
"image-keyboard-response","139","186746","0.0-5.0-1.44","LF","163k2z1uov","1366","768","0","1","0","5f11ccbc1a1a2c08b4a99efb","","null","","","","","","","learning/Slide45.JPG","null","","","","","",""
"html-keyboard-response","140","187759","0.0-5.0-2.44","LF","163k2z1uov","1366","768","0","1","0","5f11ccbc1a1a2c08b4a99efb","","null","","","learningBlock1","","","","<div style=""font-size:60px;""> </div>","null","LF","learning/Slide45.JPG","This is a wug:","","",""
"html-keyboard-response","141","188763","0.0-5.0-0.45","LF","163k2z1uov","1366","768","0","1","0","5f11ccbc1a1a2c08b4a99efb","","null","","","learningBlock1","","","","This is a dep:","null","","","","","",""
"image-keyboard-response","142","189111","0.0-5.0-1.45","LF","163k2z1uov","1366","768","0","1","0","5f11ccbc1a1a2c08b4a99efb","","null","","","","","","","learning/Slide46.JPG","null","","","","","",""
"html-keyboard-response","143","190114","0.0-5.0-2.45","LF","163k2z1uov","1366","768","0","1","0","5f11ccbc1a1a2c08b4a99efb","","null","","","learningBlock1","","","","<div style=""font-size:60px;""> </div>","null","LF","learning/Slide46.JPG","This is a dep:","","",""
"html-keyboard-response","144","191116","0.0-5.0-0.46","LF","163k2z1uov","1366","768","0","1","0","5f11ccbc1a1a2c08b4a99efb","","null","","","learningBlock1","","","","This is a tob:","null","","","","","",""
"image-keyboard-response","145","191447","0.0-5.0-1.46","LF","163k2z1uov","1366","768","0","1","0","5f11ccbc1a1a2c08b4a99efb","","null","","","","","","","learning/Slide47.JPG","null","","","","","",""
"html-keyboard-response","146","192449","0.0-5.0-2.46","LF","163k2z1uov","1366","768","0","1","0","5f11ccbc1a1a2c08b4a99efb","","null","","","learningBlock1","","","","<div style=""font-size:60px;""> </div>","null","LF","learning/Slide47.JPG","This is a tob:","","",""
"html-keyboard-response","147","193451","0.0-5.0-0.47","LF","163k2z1uov","1366","768","0","1","0","5f11ccbc1a1a2c08b4a99efb","","null","","","learningBlock1","","","","This is a bim:","null","","","","","",""
"image-keyboard-response","148","193789","0.0-5.0-1.47","LF","163k2z1uov","1366","768","0","1","0","5f11ccbc1a1a2c08b4a99efb","","null","","","","","","","learning/Slide48.JPG","null","","","","","",""
"html-keyboard-response","149","194793","0.0-5.0-2.47","LF","163k2z1uov","1366","768","0","1","0","5f11ccbc1a1a2c08b4a99efb","","null","","","learningBlock1","","","","<div style=""font-size:60px;""> </div>","null","LF","learning/Slide48.JPG","This is a bim:","","",""
"html-keyboard-response","150","195798","0.0-5.0-0.48","LF","163k2z1uov","1366","768","0","1","0","5f11ccbc1a1a2c08b4a99efb","","null","","","learningBlock1","","","","This is a dep:","null","","","","","",""
"image-keyboard-response","151","196145","0.0-5.0-1.48","LF","163k2z1uov","1366","768","0","1","0","5f11ccbc1a1a2c08b4a99efb","","null","","","","","","","learning/Slide49.JPG","null","","","","","",""
"html-keyboard-response","152","197147","0.0-5.0-2.48","LF","163k2z1uov","1366","768","0","1","0","5f11ccbc1a1a2c08b4a99efb","","null","","","learningBlock1","","","","<div style=""font-size:60px;""> </div>","null","LF","learning/Slide49.JPG","This is a dep:","","",""
"html-keyboard-response","153","198149","0.0-5.0-0.49","LF","163k2z1uov","1366","768","0","1","0","5f11ccbc1a1a2c08b4a99efb","","null","","","learningBlock1","","","","This is a tob:","null","","","","","",""
"image-keyboard-response","154","198502","0.0-5.0-1.49","LF","163k2z1uov","1366","768","0","1","0","5f11ccbc1a1a2c08b4a99efb","","null","","","","","","","learning/Slide50.JPG","null","","","","","",""
"html-keyboard-response","155","199503","0.0-5.0-2.49","LF","163k2z1uov","1366","768","0","1","0","5f11ccbc1a1a2c08b4a99efb","","null","","","learningBlock1","","","","<div style=""font-size:60px;""> </div>","null","LF","learning/Slide50.JPG","This is a tob:","","",""
"html-keyboard-response","156","200505","0.0-5.0-0.50","LF","163k2z1uov","1366","768","0","1","0","5f11ccbc1a1a2c08b4a99efb","","null","","","learningBlock1","","","","This is a bim:","null","","","","","",""
"image-keyboard-response","157","200853","0.0-5.0-1.50","LF","163k2z1uov","1366","768","0","1","0","5f11ccbc1a1a2c08b4a99efb","","null","","","","","","","learning/Slide51.JPG","null","","","","","",""
"html-keyboard-response","158","201857","0.0-5.0-2.50","LF","163k2z1uov","1366","768","0","1","0","5f11ccbc1a1a2c08b4a99efb","","null","","","learningBlock1","","","","<div style=""font-size:60px;""> </div>","null","LF","learning/Slide51.JPG","This is a bim:","","",""
"html-keyboard-response","159","202859","0.0-5.0-0.51","LF","163k2z1uov","1366","768","0","1","0","5f11ccbc1a1a2c08b4a99efb","","null","","","learningBlock1","","","","This is a wug:","null","","","","","",""
"image-keyboard-response","160","203197","0.0-5.0-1.51","LF","163k2z1uov","1366","768","0","1","0","5f11ccbc1a1a2c08b4a99efb","","null","","","","","","","learning/Slide52.JPG","null","","","","","",""
"html-keyboard-response","161","204199","0.0-5.0-2.51","LF","163k2z1uov","1366","768","0","1","0","5f11ccbc1a1a2c08b4a99efb","","null","","","learningBlock1","","","","<div style=""font-size:60px;""> </div>","null","LF","learning/Slide52.JPG","This is a wug:","","",""
"html-keyboard-response","162","205201","0.0-5.0-0.52","LF","163k2z1uov","1366","768","0","1","0","5f11ccbc1a1a2c08b4a99efb","","null","","","learningBlock1","","","","This is a tob:","null","","","","","",""
"image-keyboard-response","163","205549","0.0-5.0-1.52","LF","163k2z1uov","1366","768","0","1","0","5f11ccbc1a1a2c08b4a99efb","","null","","","","","","","learning/Slide53.JPG","null","","","","","",""
"html-keyboard-response","164","206551","0.0-5.0-2.52","LF","163k2z1uov","1366","768","0","1","0","5f11ccbc1a1a2c08b4a99efb","","null","","","learningBlock1","","","","<div style=""font-size:60px;""> </div>","null","LF","learning/Slide53.JPG","This is a tob:","","",""
"html-keyboard-response","165","207553","0.0-5.0-0.53","LF","163k2z1uov","1366","768","0","1","0","5f11ccbc1a1a2c08b4a99efb","","null","","","learningBlock1","","","","This is a dep:","null","","","","","",""
"image-keyboard-response","166","207880","0.0-5.0-1.53","LF","163k2z1uov","1366","768","0","1","0","5f11ccbc1a1a2c08b4a99efb","","null","","","","","","","learning/Slide54.JPG","null","","","","","",""
"html-keyboard-response","167","208886","0.0-5.0-2.53","LF","163k2z1uov","1366","768","0","1","0","5f11ccbc1a1a2c08b4a99efb","","null","","","learningBlock1","","","","<div style=""font-size:60px;""> </div>","null","LF","learning/Slide54.JPG","This is a dep:","","",""
"html-keyboard-response","168","209896","0.0-5.0-0.54","LF","163k2z1uov","1366","768","0","1","0","5f11ccbc1a1a2c08b4a99efb","","null","","","learningBlock1","","","","This is a bim:","null","","","","","",""
"image-keyboard-response","169","210226","0.0-5.0-1.54","LF","163k2z1uov","1366","768","0","1","0","5f11ccbc1a1a2c08b4a99efb","","null","","","","","","","learning/Slide55.JPG","null","","","","","",""
"html-keyboard-response","170","211242","0.0-5.0-2.54","LF","163k2z1uov","1366","768","0","1","0","5f11ccbc1a1a2c08b4a99efb","","null","","","learningBlock1","","","","<div style=""font-size:60px;""> </div>","null","LF","learning/Slide55.JPG","This is a bim:","","",""
"html-keyboard-response","171","212251","0.0-5.0-0.55","LF","163k2z1uov","1366","768","0","1","0","5f11ccbc1a1a2c08b4a99efb","","null","","","learningBlock1","","","","This is a tob:","null","","","","","",""
"image-keyboard-response","172","212580","0.0-5.0-1.55","LF","163k2z1uov","1366","768","0","1","0","5f11ccbc1a1a2c08b4a99efb","","null","","","","","","","learning/Slide56.JPG","null","","","","","",""
"html-keyboard-response","173","213583","0.0-5.0-2.55","LF","163k2z1uov","1366","768","0","1","0","5f11ccbc1a1a2c08b4a99efb","","null","","","learningBlock1","","","","<div style=""font-size:60px;""> </div>","null","LF","learning/Slide56.JPG","This is a tob:","","",""
"html-keyboard-response","174","214588","0.0-5.0-0.56","LF","163k2z1uov","1366","768","0","1","0","5f11ccbc1a1a2c08b4a99efb","","null","","","learningBlock1","","","","This is a dep:","null","","","","","",""
"image-keyboard-response","175","214930","0.0-5.0-1.56","LF","163k2z1uov","1366","768","0","1","0","5f11ccbc1a1a2c08b4a99efb","","null","","","","","","","learning/Slide57.JPG","null","","","","","",""
"html-keyboard-response","176","215938","0.0-5.0-2.56","LF","163k2z1uov","1366","768","0","1","0","5f11ccbc1a1a2c08b4a99efb","","null","","","learningBlock1","","","","<div style=""font-size:60px;""> </div>","null","LF","learning/Slide57.JPG","This is a dep:","","",""
"html-keyboard-response","177","216941","0.0-5.0-0.57","LF","163k2z1uov","1366","768","0","1","0","5f11ccbc1a1a2c08b4a99efb","","null","","","learningBlock1","","","","This is a wug:","null","","","","","",""
"image-keyboard-response","178","217285","0.0-5.0-1.57","LF","163k2z1uov","1366","768","0","1","0","5f11ccbc1a1a2c08b4a99efb","","null","","","","","","","learning/Slide58.JPG","null","","","","","",""
"html-keyboard-response","179","218296","0.0-5.0-2.57","LF","163k2z1uov","1366","768","0","1","0","5f11ccbc1a1a2c08b4a99efb","","null","","","learningBlock1","","","","<div style=""font-size:60px;""> </div>","null","LF","learning/Slide58.JPG","This is a wug:","","",""
"html-keyboard-response","180","219304","0.0-5.0-0.58","LF","163k2z1uov","1366","768","0","1","0","5f11ccbc1a1a2c08b4a99efb","","null","","","learningBlock1","","","","This is a dep:","null","","","","","",""
"image-keyboard-response","181","219637","0.0-5.0-1.58","LF","163k2z1uov","1366","768","0","1","0","5f11ccbc1a1a2c08b4a99efb","","null","","","","","","","learning/Slide59.JPG","null","","","","","",""
"html-keyboard-response","182","220639","0.0-5.0-2.58","LF","163k2z1uov","1366","768","0","1","0","5f11ccbc1a1a2c08b4a99efb","","null","","","learningBlock1","","","","<div style=""font-size:60px;""> </div>","null","LF","learning/Slide59.JPG","This is a dep:","","",""
"html-keyboard-response","183","221645","0.0-5.0-0.59","LF","163k2z1uov","1366","768","0","1","0","5f11ccbc1a1a2c08b4a99efb","","null","","","learningBlock1","","","","This is a wug:","null","","","","","",""
"image-keyboard-response","184","221993","0.0-5.0-1.59","LF","163k2z1uov","1366","768","0","1","0","5f11ccbc1a1a2c08b4a99efb","","null","","","","","","","learning/Slide60.JPG","null","","","","","",""
"html-keyboard-response","185","222995","0.0-5.0-2.59","LF","163k2z1uov","1366","768","0","1","0","5f11ccbc1a1a2c08b4a99efb","","null","","","learningBlock1","","","","<div style=""font-size:60px;""> </div>","null","LF","learning/Slide60.JPG","This is a wug:","","",""
"html-keyboard-response","186","224012","0.0-5.0-0.60","LF","163k2z1uov","1366","768","0","1","0","5f11ccbc1a1a2c08b4a99efb","","null","","","learningBlock1","","","","This is a bim:","null","","","","","",""
"image-keyboard-response","187","224350","0.0-5.0-1.60","LF","163k2z1uov","1366","768","0","1","0","5f11ccbc1a1a2c08b4a99efb","","null","","","","","","","learning/Slide61.JPG","null","","","","","",""
"html-keyboard-response","188","225352","0.0-5.0-2.60","LF","163k2z1uov","1366","768","0","1","0","5f11ccbc1a1a2c08b4a99efb","","null","","","learningBlock1","","","","<div style=""font-size:60px;""> </div>","null","LF","learning/Slide61.JPG","This is a bim:","","",""
"html-keyboard-response","189","226358","0.0-5.0-0.61","LF","163k2z1uov","1366","768","0","1","0","5f11ccbc1a1a2c08b4a99efb","","null","","","learningBlock1","","","","This is a dep:","null","","","","","",""
"image-keyboard-response","190","226705","0.0-5.0-1.61","LF","163k2z1uov","1366","768","0","1","0","5f11ccbc1a1a2c08b4a99efb","","null","","","","","","","learning/Slide62.JPG","null","","","","","",""
"html-keyboard-response","191","227709","0.0-5.0-2.61","LF","163k2z1uov","1366","768","0","1","0","5f11ccbc1a1a2c08b4a99efb","","null","","","learningBlock1","","","","<div style=""font-size:60px;""> </div>","null","LF","learning/Slide62.JPG","This is a dep:","","",""
"html-keyboard-response","192","228712","0.0-5.0-0.62","LF","163k2z1uov","1366","768","0","1","0","5f11ccbc1a1a2c08b4a99efb","","null","","","learningBlock1","","","","This is a bim:","null","","","","","",""
"image-keyboard-response","193","229050","0.0-5.0-1.62","LF","163k2z1uov","1366","768","0","1","0","5f11ccbc1a1a2c08b4a99efb","","null","","","","","","","learning/Slide63.JPG","null","","","","","",""
"html-keyboard-response","194","230052","0.0-5.0-2.62","LF","163k2z1uov","1366","768","0","1","0","5f11ccbc1a1a2c08b4a99efb","","null","","","learningBlock1","","","","<div style=""font-size:60px;""> </div>","null","LF","learning/Slide63.JPG","This is a bim:","","",""
"html-keyboard-response","195","231055","0.0-5.0-0.63","LF","163k2z1uov","1366","768","0","1","0","5f11ccbc1a1a2c08b4a99efb","","null","","","learningBlock1","","","","This is a tob:","null","","","","","",""
"image-keyboard-response","196","231402","0.0-5.0-1.63","LF","163k2z1uov","1366","768","0","1","0","5f11ccbc1a1a2c08b4a99efb","","null","","","","","","","learning/Slide64.JPG","null","","","","","",""
"html-keyboard-response","197","232406","0.0-5.0-2.63","LF","163k2z1uov","1366","768","0","1","0","5f11ccbc1a1a2c08b4a99efb","","null","","","learningBlock1","","","","<div style=""font-size:60px;""> </div>","null","LF","learning/Slide64.JPG","This is a tob:","","",""
"html-keyboard-response","198","233410","0.0-5.0-0.64","LF","163k2z1uov","1366","768","0","1","0","5f11ccbc1a1a2c08b4a99efb","","null","","","learningBlock1","","","","This is a wug:","null","","","","","",""
"image-keyboard-response","199","233742","0.0-5.0-1.64","LF","163k2z1uov","1366","768","0","1","0","5f11ccbc1a1a2c08b4a99efb","","null","","","","","","","learning/Slide65.JPG","null","","","","","",""
"html-keyboard-response","200","234766","0.0-5.0-2.64","LF","163k2z1uov","1366","768","0","1","0","5f11ccbc1a1a2c08b4a99efb","","null","","","learningBlock1","","","","<div style=""font-size:60px;""> </div>","null","LF","learning/Slide65.JPG","This is a wug:","","",""
"html-keyboard-response","201","235768","0.0-5.0-0.65","LF","163k2z1uov","1366","768","0","1","0","5f11ccbc1a1a2c08b4a99efb","","null","","","learningBlock1","","","","This is a dep:","null","","","","","",""
"image-keyboard-response","202","236116","0.0-5.0-1.65","LF","163k2z1uov","1366","768","0","1","0","5f11ccbc1a1a2c08b4a99efb","","null","","","","","","","learning/Slide66.JPG","null","","","","","",""
"html-keyboard-response","203","237118","0.0-5.0-2.65","LF","163k2z1uov","1366","768","0","1","0","5f11ccbc1a1a2c08b4a99efb","","null","","","learningBlock1","","","","<div style=""font-size:60px;""> </div>","null","LF","learning/Slide66.JPG","This is a dep:","","",""
"html-keyboard-response","204","238122","0.0-5.0-0.66","LF","163k2z1uov","1366","768","0","1","0","5f11ccbc1a1a2c08b4a99efb","","null","","","learningBlock1","","","","This is a tob:","null","","","","","",""
"image-keyboard-response","205","238454","0.0-5.0-1.66","LF","163k2z1uov","1366","768","0","1","0","5f11ccbc1a1a2c08b4a99efb","","null","","","","","","","learning/Slide67.JPG","null","","","","","",""
"html-keyboard-response","206","239458","0.0-5.0-2.66","LF","163k2z1uov","1366","768","0","1","0","5f11ccbc1a1a2c08b4a99efb","","null","","","learningBlock1","","","","<div style=""font-size:60px;""> </div>","null","LF","learning/Slide67.JPG","This is a tob:","","",""
"html-keyboard-response","207","240461","0.0-5.0-0.67","LF","163k2z1uov","1366","768","0","1","0","5f11ccbc1a1a2c08b4a99efb","","null","","","learningBlock1","","","","This is a wug:","null","","","","","",""
"image-keyboard-response","208","240799","0.0-5.0-1.67","LF","163k2z1uov","1366","768","0","1","0","5f11ccbc1a1a2c08b4a99efb","","null","","","","","","","learning/Slide68.JPG","null","","","","","",""
"html-keyboard-response","209","241801","0.0-5.0-2.67","LF","163k2z1uov","1366","768","0","1","0","5f11ccbc1a1a2c08b4a99efb","","null","","","learningBlock1","","","","<div style=""font-size:60px;""> </div>","null","LF","learning/Slide68.JPG","This is a wug:","","",""
"html-keyboard-response","210","242805","0.0-5.0-0.68","LF","163k2z1uov","1366","768","0","1","0","5f11ccbc1a1a2c08b4a99efb","","null","","","learningBlock1","","","","This is a tob:","null","","","","","",""
"image-keyboard-response","211","243154","0.0-5.0-1.68","LF","163k2z1uov","1366","768","0","1","0","5f11ccbc1a1a2c08b4a99efb","","null","","","","","","","learning/Slide69.JPG","null","","","","","",""
"html-keyboard-response","212","244158","0.0-5.0-2.68","LF","163k2z1uov","1366","768","0","1","0","5f11ccbc1a1a2c08b4a99efb","","null","","","learningBlock1","","","","<div style=""font-size:60px;""> </div>","null","LF","learning/Slide69.JPG","This is a tob:","","",""
"html-keyboard-response","213","245161","0.0-5.0-0.69","LF","163k2z1uov","1366","768","0","1","0","5f11ccbc1a1a2c08b4a99efb","","null","","","learningBlock1","","","","This is a dep:","null","","","","","",""
"image-keyboard-response","214","245499","0.0-5.0-1.69","LF","163k2z1uov","1366","768","0","1","0","5f11ccbc1a1a2c08b4a99efb","","null","","","","","","","learning/Slide70.JPG","null","","","","","",""
"html-keyboard-response","215","246501","0.0-5.0-2.69","LF","163k2z1uov","1366","768","0","1","0","5f11ccbc1a1a2c08b4a99efb","","null","","","learningBlock1","","","","<div style=""font-size:60px;""> </div>","null","LF","learning/Slide70.JPG","This is a dep:","","",""
"html-keyboard-response","216","247503","0.0-5.0-0.70","LF","163k2z1uov","1366","768","0","1","0","5f11ccbc1a1a2c08b4a99efb","","null","","","learningBlock1","","","","This is a wug:","null","","","","","",""
"image-keyboard-response","217","247850","0.0-5.0-1.70","LF","163k2z1uov","1366","768","0","1","0","5f11ccbc1a1a2c08b4a99efb","","null","","","","","","","learning/Slide71.JPG","null","","","","","",""
"html-keyboard-response","218","248855","0.0-5.0-2.70","LF","163k2z1uov","1366","768","0","1","0","5f11ccbc1a1a2c08b4a99efb","","null","","","learningBlock1","","","","<div style=""font-size:60px;""> </div>","null","LF","learning/Slide71.JPG","This is a wug:","","",""
"html-keyboard-response","219","249858","0.0-5.0-0.71","LF","163k2z1uov","1366","768","0","1","0","5f11ccbc1a1a2c08b4a99efb","","null","","","learningBlock1","","","","This is a bim:","null","","","","","",""
"image-keyboard-response","220","250190","0.0-5.0-1.71","LF","163k2z1uov","1366","768","0","1","0","5f11ccbc1a1a2c08b4a99efb","","null","","","","","","","learning/Slide72.JPG","null","","","","","",""
"html-keyboard-response","221","251194","0.0-5.0-2.71","LF","163k2z1uov","1366","768","0","1","0","5f11ccbc1a1a2c08b4a99efb","","null","","","learningBlock1","","","","<div style=""font-size:60px;""> </div>","null","LF","learning/Slide72.JPG","This is a bim:","","",""
"html-keyboard-response","222","252196","0.0-5.0-0.72","LF","163k2z1uov","1366","768","0","1","0","5f11ccbc1a1a2c08b4a99efb","","null","","","learningBlock1","","","","This is a wug:","null","","","","","",""
"image-keyboard-response","223","252534","0.0-5.0-1.72","LF","163k2z1uov","1366","768","0","1","0","5f11ccbc1a1a2c08b4a99efb","","null","","","","","","","learning/Slide73.JPG","null","","","","","",""
"html-keyboard-response","224","253538","0.0-5.0-2.72","LF","163k2z1uov","1366","768","0","1","0","5f11ccbc1a1a2c08b4a99efb","","null","","","learningBlock1","","","","<div style=""font-size:60px;""> </div>","null","LF","learning/Slide73.JPG","This is a wug:","","",""
"html-keyboard-response","225","254543","0.0-5.0-0.73","LF","163k2z1uov","1366","768","0","1","0","5f11ccbc1a1a2c08b4a99efb","","null","","","learningBlock1","","","","This is a dep:","null","","","","","",""
"image-keyboard-response","226","254890","0.0-5.0-1.73","LF","163k2z1uov","1366","768","0","1","0","5f11ccbc1a1a2c08b4a99efb","","null","","","","","","","learning/Slide74.JPG","null","","","","","",""
"html-keyboard-response","227","255894","0.0-5.0-2.73","LF","163k2z1uov","1366","768","0","1","0","5f11ccbc1a1a2c08b4a99efb","","null","","","learningBlock1","","","","<div style=""font-size:60px;""> </div>","null","LF","learning/Slide74.JPG","This is a dep:","","",""
"html-keyboard-response","228","256910","0.0-5.0-0.74","LF","163k2z1uov","1366","768","0","1","0","5f11ccbc1a1a2c08b4a99efb","","null","","","learningBlock1","","","","This is a tob:","null","","","","","",""
"image-keyboard-response","229","257248","0.0-5.0-1.74","LF","163k2z1uov","1366","768","0","1","0","5f11ccbc1a1a2c08b4a99efb","","null","","","","","","","learning/Slide75.JPG","null","","","","","",""
"html-keyboard-response","230","258250","0.0-5.0-2.74","LF","163k2z1uov","1366","768","0","1","0","5f11ccbc1a1a2c08b4a99efb","","null","","","learningBlock1","","","","<div style=""font-size:60px;""> </div>","null","LF","learning/Slide75.JPG","This is a tob:","","",""
"html-keyboard-response","231","259251","0.0-5.0-0.75","LF","163k2z1uov","1366","768","0","1","0","5f11ccbc1a1a2c08b4a99efb","","null","","","learningBlock1","","","","This is a bim:","null","","","","","",""
"image-keyboard-response","232","259598","0.0-5.0-1.75","LF","163k2z1uov","1366","768","0","1","0","5f11ccbc1a1a2c08b4a99efb","","null","","","","","","","learning/Slide76.JPG","null","","","","","",""
"html-keyboard-response","233","260602","0.0-5.0-2.75","LF","163k2z1uov","1366","768","0","1","0","5f11ccbc1a1a2c08b4a99efb","","null","","","learningBlock1","","","","<div style=""font-size:60px;""> </div>","null","LF","learning/Slide76.JPG","This is a bim:","","",""
"html-keyboard-response","234","261606","0.0-5.0-0.76","LF","163k2z1uov","1366","768","0","1","0","5f11ccbc1a1a2c08b4a99efb","","null","","","learningBlock1","","","","This is a tob:","null","","","","","",""
"image-keyboard-response","235","261944","0.0-5.0-1.76","LF","163k2z1uov","1366","768","0","1","0","5f11ccbc1a1a2c08b4a99efb","","null","","","","","","","learning/Slide77.JPG","null","","","","","",""
"html-keyboard-response","236","262948","0.0-5.0-2.76","LF","163k2z1uov","1366","768","0","1","0","5f11ccbc1a1a2c08b4a99efb","","null","","","learningBlock1","","","","<div style=""font-size:60px;""> </div>","null","LF","learning/Slide77.JPG","This is a tob:","","",""
"html-keyboard-response","237","263949","0.0-5.0-0.77","LF","163k2z1uov","1366","768","0","1","0","5f11ccbc1a1a2c08b4a99efb","","null","","","learningBlock1","","","","This is a wug:","null","","","","","",""
"image-keyboard-response","238","264296","0.0-5.0-1.77","LF","163k2z1uov","1366","768","0","1","0","5f11ccbc1a1a2c08b4a99efb","","null","","","","","","","learning/Slide78.JPG","null","","","","","",""
"html-keyboard-response","239","265298","0.0-5.0-2.77","LF","163k2z1uov","1366","768","0","1","0","5f11ccbc1a1a2c08b4a99efb","","null","","","learningBlock1","","","","<div style=""font-size:60px;""> </div>","null","LF","learning/Slide78.JPG","This is a wug:","","",""
"html-keyboard-response","240","266310","0.0-5.0-0.78","LF","163k2z1uov","1366","768","0","1","0","5f11ccbc1a1a2c08b4a99efb","","null","","","learningBlock1","","","","This is a bim:","null","","","","","",""
"image-keyboard-response","241","266642","0.0-5.0-1.78","LF","163k2z1uov","1366","768","0","1","0","5f11ccbc1a1a2c08b4a99efb","","null","","","","","","","learning/Slide79.JPG","null","","","","","",""
"html-keyboard-response","242","267643","0.0-5.0-2.78","LF","163k2z1uov","1366","768","0","1","0","5f11ccbc1a1a2c08b4a99efb","","null","","","learningBlock1","","","","<div style=""font-size:60px;""> </div>","null","LF","learning/Slide79.JPG","This is a bim:","","",""
"html-keyboard-response","243","268644","0.0-5.0-0.79","LF","163k2z1uov","1366","768","0","1","0","5f11ccbc1a1a2c08b4a99efb","","null","","","learningBlock1","","","","This is a tob:","null","","","","","",""
"image-keyboard-response","244","268977","0.0-5.0-1.79","LF","163k2z1uov","1366","768","0","1","0","5f11ccbc1a1a2c08b4a99efb","","null","","","","","","","learning/Slide80.JPG","null","","","","","",""
"html-keyboard-response","245","269984","0.0-5.0-2.79","LF","163k2z1uov","1366","768","0","1","0","5f11ccbc1a1a2c08b4a99efb","","null","","","learningBlock1","","","","<div style=""font-size:60px;""> </div>","null","LF","learning/Slide80.JPG","This is a tob:","","",""
"instructions","246","276549","0.0-6.0","LF","163k2z1uov","1366","768","0","1","0","5f11ccbc1a1a2c08b4a99efb","","NA","","[{""page_index"":0,""viewing_time"":6563.694999999832}]","instructions","","","","","","","","","","",""
"html-keyboard-response","247","277565","0.0-7.0-0.0","LF","163k2z1uov","1366","768","0","1","0","5f11ccbc1a1a2c08b4a99efb","","null","","","learningBlock2","","","","This is a wug:","null","","","","","",""
"image-keyboard-response","248","277905","0.0-7.0-1.0","LF","163k2z1uov","1366","768","0","1","0","5f11ccbc1a1a2c08b4a99efb","","null","","","","","","","learning/Slide81.JPG","null","","","","","",""
"html-keyboard-response","249","278909","0.0-7.0-2.0","LF","163k2z1uov","1366","768","0","1","0","5f11ccbc1a1a2c08b4a99efb","","null","","","learningBlock2","","","","<div style=""font-size:60px;""> </div>","null","LF","learning/Slide81.JPG","This is a wug:","","",""
"html-keyboard-response","250","279914","0.0-7.0-0.1","LF","163k2z1uov","1366","768","0","1","0","5f11ccbc1a1a2c08b4a99efb","","null","","","learningBlock2","","","","This is a bim:","null","","","","","",""
"image-keyboard-response","251","280260","0.0-7.0-1.1","LF","163k2z1uov","1366","768","0","1","0","5f11ccbc1a1a2c08b4a99efb","","null","","","","","","","learning/Slide82.JPG","null","","","","","",""
"html-keyboard-response","252","281262","0.0-7.0-2.1","LF","163k2z1uov","1366","768","0","1","0","5f11ccbc1a1a2c08b4a99efb","","null","","","learningBlock2","","","","<div style=""font-size:60px;""> </div>","null","LF","learning/Slide82.JPG","This is a bim:","","",""
"html-keyboard-response","253","282279","0.0-7.0-0.2","LF","163k2z1uov","1366","768","0","1","0","5f11ccbc1a1a2c08b4a99efb","","null","","","learningBlock2","","","","This is a wug:","null","","","","","",""
"image-keyboard-response","254","282616","0.0-7.0-1.2","LF","163k2z1uov","1366","768","0","1","0","5f11ccbc1a1a2c08b4a99efb","","null","","","","","","","learning/Slide83.JPG","null","","","","","",""
"html-keyboard-response","255","283621","0.0-7.0-2.2","LF","163k2z1uov","1366","768","0","1","0","5f11ccbc1a1a2c08b4a99efb","","null","","","learningBlock2","","","","<div style=""font-size:60px;""> </div>","null","LF","learning/Slide83.JPG","This is a wug:","","",""
"html-keyboard-response","256","284626","0.0-7.0-0.3","LF","163k2z1uov","1366","768","0","1","0","5f11ccbc1a1a2c08b4a99efb","","null","","","learningBlock2","","","","This is a dep:","null","","","","","",""
"image-keyboard-response","257","284971","0.0-7.0-1.3","LF","163k2z1uov","1366","768","0","1","0","5f11ccbc1a1a2c08b4a99efb","","null","","","","","","","learning/Slide84.JPG","null","","","","","",""
"html-keyboard-response","258","285977","0.0-7.0-2.3","LF","163k2z1uov","1366","768","0","1","0","5f11ccbc1a1a2c08b4a99efb","","null","","","learningBlock2","","","","<div style=""font-size:60px;""> </div>","null","LF","learning/Slide84.JPG","This is a dep:","","",""
"html-keyboard-response","259","286994","0.0-7.0-0.4","LF","163k2z1uov","1366","768","0","1","0","5f11ccbc1a1a2c08b4a99efb","","null","","","learningBlock2","","","","This is a bim:","null","","","","","",""
"image-keyboard-response","260","287332","0.0-7.0-1.4","LF","163k2z1uov","1366","768","0","1","0","5f11ccbc1a1a2c08b4a99efb","","null","","","","","","","learning/Slide85.JPG","null","","","","","",""
"html-keyboard-response","261","288334","0.0-7.0-2.4","LF","163k2z1uov","1366","768","0","1","0","5f11ccbc1a1a2c08b4a99efb","","null","","","learningBlock2","","","","<div style=""font-size:60px;""> </div>","null","LF","learning/Slide85.JPG","This is a bim:","","",""
"html-keyboard-response","262","289339","0.0-7.0-0.5","LF","163k2z1uov","1366","768","0","1","0","5f11ccbc1a1a2c08b4a99efb","","null","","","learningBlock2","","","","This is a tob:","null","","","","","",""
"image-keyboard-response","263","289687","0.0-7.0-1.5","LF","163k2z1uov","1366","768","0","1","0","5f11ccbc1a1a2c08b4a99efb","","null","","","","","","","learning/Slide86.JPG","null","","","","","",""
"html-keyboard-response","264","290692","0.0-7.0-2.5","LF","163k2z1uov","1366","768","0","1","0","5f11ccbc1a1a2c08b4a99efb","","null","","","learningBlock2","","","","<div style=""font-size:60px;""> </div>","null","LF","learning/Slide86.JPG","This is a tob:","","",""
"html-keyboard-response","265","291694","0.0-7.0-0.6","LF","163k2z1uov","1366","768","0","1","0","5f11ccbc1a1a2c08b4a99efb","","null","","","learningBlock2","","","","This is a wug:","null","","","","","",""
"image-keyboard-response","266","292026","0.0-7.0-1.6","LF","163k2z1uov","1366","768","0","1","0","5f11ccbc1a1a2c08b4a99efb","","null","","","","","","","learning/Slide87.JPG","null","","","","","",""
"html-keyboard-response","267","293029","0.0-7.0-2.6","LF","163k2z1uov","1366","768","0","1","0","5f11ccbc1a1a2c08b4a99efb","","null","","","learningBlock2","","","","<div style=""font-size:60px;""> </div>","null","LF","learning/Slide87.JPG","This is a wug:","","",""
"html-keyboard-response","268","294032","0.0-7.0-0.7","LF","163k2z1uov","1366","768","0","1","0","5f11ccbc1a1a2c08b4a99efb","","null","","","learningBlock2","","","","This is a tob:","null","","","","","",""
"image-keyboard-response","269","294370","0.0-7.0-1.7","LF","163k2z1uov","1366","768","0","1","0","5f11ccbc1a1a2c08b4a99efb","","null","","","","","","","learning/Slide88.JPG","null","","","","","",""
"html-keyboard-response","270","295374","0.0-7.0-2.7","LF","163k2z1uov","1366","768","0","1","0","5f11ccbc1a1a2c08b4a99efb","","null","","","learningBlock2","","","","<div style=""font-size:60px;""> </div>","null","LF","learning/Slide88.JPG","This is a tob:","","",""
"html-keyboard-response","271","296378","0.0-7.0-0.8","LF","163k2z1uov","1366","768","0","1","0","5f11ccbc1a1a2c08b4a99efb","","null","","","learningBlock2","","","","This is a bim:","null","","","","","",""
"image-keyboard-response","272","296725","0.0-7.0-1.8","LF","163k2z1uov","1366","768","0","1","0","5f11ccbc1a1a2c08b4a99efb","","null","","","","","","","learning/Slide89.JPG","null","","","","","",""
"html-keyboard-response","273","297742","0.0-7.0-2.8","LF","163k2z1uov","1366","768","0","1","0","5f11ccbc1a1a2c08b4a99efb","","null","","","learningBlock2","","","","<div style=""font-size:60px;""> </div>","null","LF","learning/Slide89.JPG","This is a bim:","","",""
"html-keyboard-response","274","298744","0.0-7.0-0.9","LF","163k2z1uov","1366","768","0","1","0","5f11ccbc1a1a2c08b4a99efb","","null","","","learningBlock2","","","","This is a dep:","null","","","","","",""
"image-keyboard-response","275","299082","0.0-7.0-1.9","LF","163k2z1uov","1366","768","0","1","0","5f11ccbc1a1a2c08b4a99efb","","null","","","","","","","learning/Slide90.JPG","null","","","","","",""
"html-keyboard-response","276","300085","0.0-7.0-2.9","LF","163k2z1uov","1366","768","0","1","0","5f11ccbc1a1a2c08b4a99efb","","null","","","learningBlock2","","","","<div style=""font-size:60px;""> </div>","null","LF","learning/Slide90.JPG","This is a dep:","","",""
"html-keyboard-response","277","301089","0.0-7.0-0.10","LF","163k2z1uov","1366","768","0","1","0","5f11ccbc1a1a2c08b4a99efb","","null","","","learningBlock2","","","","This is a wug:","null","","","","","",""
"image-keyboard-response","278","301438","0.0-7.0-1.10","LF","163k2z1uov","1366","768","0","1","0","5f11ccbc1a1a2c08b4a99efb","","null","","","","","","","learning/Slide91.JPG","null","","","","","",""
"html-keyboard-response","279","302441","0.0-7.0-2.10","LF","163k2z1uov","1366","768","0","1","0","5f11ccbc1a1a2c08b4a99efb","","null","","","learningBlock2","","","","<div style=""font-size:60px;""> </div>","null","LF","learning/Slide91.JPG","This is a wug:","","",""
"html-keyboard-response","280","303457","0.0-7.0-0.11","LF","163k2z1uov","1366","768","0","1","0","5f11ccbc1a1a2c08b4a99efb","","null","","","learningBlock2","","","","This is a tob:","null","","","","","",""
"image-keyboard-response","281","303796","0.0-7.0-1.11","LF","163k2z1uov","1366","768","0","1","0","5f11ccbc1a1a2c08b4a99efb","","null","","","","","","","learning/Slide92.JPG","null","","","","","",""
"html-keyboard-response","282","304798","0.0-7.0-2.11","LF","163k2z1uov","1366","768","0","1","0","5f11ccbc1a1a2c08b4a99efb","","null","","","learningBlock2","","","","<div style=""font-size:60px;""> </div>","null","LF","learning/Slide92.JPG","This is a tob:","","",""
"html-keyboard-response","283","305807","0.0-7.0-0.12","LF","163k2z1uov","1366","768","0","1","0","5f11ccbc1a1a2c08b4a99efb","","null","","","learningBlock2","","","","This is a bim:","null","","","","","",""
"image-keyboard-response","284","306154","0.0-7.0-1.12","LF","163k2z1uov","1366","768","0","1","0","5f11ccbc1a1a2c08b4a99efb","","null","","","","","","","learning/Slide93.JPG","null","","","","","",""
"html-keyboard-response","285","307168","0.0-7.0-2.12","LF","163k2z1uov","1366","768","0","1","0","5f11ccbc1a1a2c08b4a99efb","","null","","","learningBlock2","","","","<div style=""font-size:60px;""> </div>","null","LF","learning/Slide93.JPG","This is a bim:","","",""
"html-keyboard-response","286","308171","0.0-7.0-0.13","LF","163k2z1uov","1366","768","0","1","0","5f11ccbc1a1a2c08b4a99efb","","null","","","learningBlock2","","","","This is a tob:","null","","","","","",""
"image-keyboard-response","287","308520","0.0-7.0-1.13","LF","163k2z1uov","1366","768","0","1","0","5f11ccbc1a1a2c08b4a99efb","","null","","","","","","","learning/Slide94.JPG","null","","","","","",""
"html-keyboard-response","288","309523","0.0-7.0-2.13","LF","163k2z1uov","1366","768","0","1","0","5f11ccbc1a1a2c08b4a99efb","","null","","","learningBlock2","","","","<div style=""font-size:60px;""> </div>","null","LF","learning/Slide94.JPG","This is a tob:","","",""
"html-keyboard-response","289","310525","0.0-7.0-0.14","LF","163k2z1uov","1366","768","0","1","0","5f11ccbc1a1a2c08b4a99efb","","null","","","learningBlock2","","","","This is a wug:","null","","","","","",""
"image-keyboard-response","290","310863","0.0-7.0-1.14","LF","163k2z1uov","1366","768","0","1","0","5f11ccbc1a1a2c08b4a99efb","","null","","","","","","","learning/Slide95.JPG","null","","","","","",""
"html-keyboard-response","291","311865","0.0-7.0-2.14","LF","163k2z1uov","1366","768","0","1","0","5f11ccbc1a1a2c08b4a99efb","","null","","","learningBlock2","","","","<div style=""font-size:60px;""> </div>","null","LF","learning/Slide95.JPG","This is a wug:","","",""
"html-keyboard-response","292","312869","0.0-7.0-0.15","LF","163k2z1uov","1366","768","0","1","0","5f11ccbc1a1a2c08b4a99efb","","null","","","learningBlock2","","","","This is a tob:","null","","","","","",""
"image-keyboard-response","293","313217","0.0-7.0-1.15","LF","163k2z1uov","1366","768","0","1","0","5f11ccbc1a1a2c08b4a99efb","","null","","","","","","","learning/Slide96.JPG","null","","","","","",""
"html-keyboard-response","294","314220","0.0-7.0-2.15","LF","163k2z1uov","1366","768","0","1","0","5f11ccbc1a1a2c08b4a99efb","","null","","","learningBlock2","","","","<div style=""font-size:60px;""> </div>","null","LF","learning/Slide96.JPG","This is a tob:","","",""
"html-keyboard-response","295","315224","0.0-7.0-0.16","LF","163k2z1uov","1366","768","0","1","0","5f11ccbc1a1a2c08b4a99efb","","null","","","learningBlock2","","","","This is a dep:","null","","","","","",""
"image-keyboard-response","296","315562","0.0-7.0-1.16","LF","163k2z1uov","1366","768","0","1","0","5f11ccbc1a1a2c08b4a99efb","","null","","","","","","","learning/Slide97.JPG","null","","","","","",""
"html-keyboard-response","297","316564","0.0-7.0-2.16","LF","163k2z1uov","1366","768","0","1","0","5f11ccbc1a1a2c08b4a99efb","","null","","","learningBlock2","","","","<div style=""font-size:60px;""> </div>","null","LF","learning/Slide97.JPG","This is a dep:","","",""
"html-keyboard-response","298","317566","0.0-7.0-0.17","LF","163k2z1uov","1366","768","0","1","0","5f11ccbc1a1a2c08b4a99efb","","null","","","learningBlock2","","","","This is a bim:","null","","","","","",""
"image-keyboard-response","299","317913","0.0-7.0-1.17","LF","163k2z1uov","1366","768","0","1","0","5f11ccbc1a1a2c08b4a99efb","","null","","","","","","","learning/Slide98.JPG","null","","","","","",""
"html-keyboard-response","300","318918","0.0-7.0-2.17","LF","163k2z1uov","1366","768","0","1","0","5f11ccbc1a1a2c08b4a99efb","","null","","","learningBlock2","","","","<div style=""font-size:60px;""> </div>","null","LF","learning/Slide98.JPG","This is a bim:","","",""
"html-keyboard-response","301","319922","0.0-7.0-0.18","LF","163k2z1uov","1366","768","0","1","0","5f11ccbc1a1a2c08b4a99efb","","null","","","learningBlock2","","","","This is a dep:","null","","","","","",""
"image-keyboard-response","302","320256","0.0-7.0-1.18","LF","163k2z1uov","1366","768","0","1","0","5f11ccbc1a1a2c08b4a99efb","","null","","","","","","","learning/Slide99.JPG","null","","","","","",""
"html-keyboard-response","303","321258","0.0-7.0-2.18","LF","163k2z1uov","1366","768","0","1","0","5f11ccbc1a1a2c08b4a99efb","","null","","","learningBlock2","","","","<div style=""font-size:60px;""> </div>","null","LF","learning/Slide99.JPG","This is a dep:","","",""
"html-keyboard-response","304","322262","0.0-7.0-0.19","LF","163k2z1uov","1366","768","0","1","0","5f11ccbc1a1a2c08b4a99efb","","null","","","learningBlock2","","","","This is a bim:","null","","","","","",""
"image-keyboard-response","305","322601","0.0-7.0-1.19","LF","163k2z1uov","1366","768","0","1","0","5f11ccbc1a1a2c08b4a99efb","","null","","","","","","","learning/Slide100.JPG","null","","","","","",""
"html-keyboard-response","306","323605","0.0-7.0-2.19","LF","163k2z1uov","1366","768","0","1","0","5f11ccbc1a1a2c08b4a99efb","","null","","","learningBlock2","","","","<div style=""font-size:60px;""> </div>","null","LF","learning/Slide100.JPG","This is a bim:","","",""
"html-keyboard-response","307","324609","0.0-7.0-0.20","LF","163k2z1uov","1366","768","0","1","0","5f11ccbc1a1a2c08b4a99efb","","null","","","learningBlock2","","","","This is a tob:","null","","","","","",""
"image-keyboard-response","308","324957","0.0-7.0-1.20","LF","163k2z1uov","1366","768","0","1","0","5f11ccbc1a1a2c08b4a99efb","","null","","","","","","","learning/Slide101.JPG","null","","","","","",""
"html-keyboard-response","309","325974","0.0-7.0-2.20","LF","163k2z1uov","1366","768","0","1","0","5f11ccbc1a1a2c08b4a99efb","","null","","","learningBlock2","","","","<div style=""font-size:60px;""> </div>","null","LF","learning/Slide101.JPG","This is a tob:","","",""
"html-keyboard-response","310","326977","0.0-7.0-0.21","LF","163k2z1uov","1366","768","0","1","0","5f11ccbc1a1a2c08b4a99efb","","null","","","learningBlock2","","","","This is a bim:","null","","","","","",""
"image-keyboard-response","311","327314","0.0-7.0-1.21","LF","163k2z1uov","1366","768","0","1","0","5f11ccbc1a1a2c08b4a99efb","","null","","","","","","","learning/Slide102.JPG","null","","","","","",""
"html-keyboard-response","312","328319","0.0-7.0-2.21","LF","163k2z1uov","1366","768","0","1","0","5f11ccbc1a1a2c08b4a99efb","","null","","","learningBlock2","","","","<div style=""font-size:60px;""> </div>","null","LF","learning/Slide102.JPG","This is a bim:","","",""
"html-keyboard-response","313","329323","0.0-7.0-0.22","LF","163k2z1uov","1366","768","0","1","0","5f11ccbc1a1a2c08b4a99efb","","null","","","learningBlock2","","","","This is a dep:","null","","","","","",""
"image-keyboard-response","314","329671","0.0-7.0-1.22","LF","163k2z1uov","1366","768","0","1","0","5f11ccbc1a1a2c08b4a99efb","","null","","","","","","","learning/Slide103.JPG","null","","","","","",""
"html-keyboard-response","315","330674","0.0-7.0-2.22","LF","163k2z1uov","1366","768","0","1","0","5f11ccbc1a1a2c08b4a99efb","","null","","","learningBlock2","","","","<div style=""font-size:60px;""> </div>","null","LF","learning/Slide103.JPG","This is a dep:","","",""
"html-keyboard-response","316","331690","0.0-7.0-0.23","LF","163k2z1uov","1366","768","0","1","0","5f11ccbc1a1a2c08b4a99efb","","null","","","learningBlock2","","","","This is a tob:","null","","","","","",""
"image-keyboard-response","317","332028","0.0-7.0-1.23","LF","163k2z1uov","1366","768","0","1","0","5f11ccbc1a1a2c08b4a99efb","","null","","","","","","","learning/Slide104.JPG","null","","","","","",""
"html-keyboard-response","318","333045","0.0-7.0-2.23","LF","163k2z1uov","1366","768","0","1","0","5f11ccbc1a1a2c08b4a99efb","","null","","","learningBlock2","","","","<div style=""font-size:60px;""> </div>","null","LF","learning/Slide104.JPG","This is a tob:","","",""
"html-keyboard-response","319","334048","0.0-7.0-0.24","LF","163k2z1uov","1366","768","0","1","0","5f11ccbc1a1a2c08b4a99efb","","null","","","learningBlock2","","","","This is a dep:","null","","","","","",""
"image-keyboard-response","320","334396","0.0-7.0-1.24","LF","163k2z1uov","1366","768","0","1","0","5f11ccbc1a1a2c08b4a99efb","","null","","","","","","","learning/Slide105.JPG","null","","","","","",""
"html-keyboard-response","321","335401","0.0-7.0-2.24","LF","163k2z1uov","1366","768","0","1","0","5f11ccbc1a1a2c08b4a99efb","","null","","","learningBlock2","","","","<div style=""font-size:60px;""> </div>","null","LF","learning/Slide105.JPG","This is a dep:","","",""
"html-keyboard-response","322","336421","0.0-7.0-0.25","LF","163k2z1uov","1366","768","0","1","0","5f11ccbc1a1a2c08b4a99efb","","null","","","learningBlock2","","","","This is a wug:","null","","","","","",""
"image-keyboard-response","323","336757","0.0-7.0-1.25","LF","163k2z1uov","1366","768","0","1","0","5f11ccbc1a1a2c08b4a99efb","","null","","","","","","","learning/Slide106.JPG","null","","","","","",""
"html-keyboard-response","324","337761","0.0-7.0-2.25","LF","163k2z1uov","1366","768","0","1","0","5f11ccbc1a1a2c08b4a99efb","","null","","","learningBlock2","","","","<div style=""font-size:60px;""> </div>","null","LF","learning/Slide106.JPG","This is a wug:","","",""
"html-keyboard-response","325","338763","0.0-7.0-0.26","LF","163k2z1uov","1366","768","0","1","0","5f11ccbc1a1a2c08b4a99efb","","null","","","learningBlock2","","","","This is a bim:","null","","","","","",""
"image-keyboard-response","326","339110","0.0-7.0-1.26","LF","163k2z1uov","1366","768","0","1","0","5f11ccbc1a1a2c08b4a99efb","","null","","","","","","","learning/Slide107.JPG","null","","","","","",""
"html-keyboard-response","327","340112","0.0-7.0-2.26","LF","163k2z1uov","1366","768","0","1","0","5f11ccbc1a1a2c08b4a99efb","","null","","","learningBlock2","","","","<div style=""font-size:60px;""> </div>","null","LF","learning/Slide107.JPG","This is a bim:","","",""
"html-keyboard-response","328","341116","0.0-7.0-0.27","LF","163k2z1uov","1366","768","0","1","0","5f11ccbc1a1a2c08b4a99efb","","null","","","learningBlock2","","","","This is a dep:","null","","","","","",""
"image-keyboard-response","329","341448","0.0-7.0-1.27","LF","163k2z1uov","1366","768","0","1","0","5f11ccbc1a1a2c08b4a99efb","","null","","","","","","","learning/Slide108.JPG","null","","","","","",""
"html-keyboard-response","330","342452","0.0-7.0-2.27","LF","163k2z1uov","1366","768","0","1","0","5f11ccbc1a1a2c08b4a99efb","","null","","","learningBlock2","","","","<div style=""font-size:60px;""> </div>","null","LF","learning/Slide108.JPG","This is a dep:","","",""
"html-keyboard-response","331","343455","0.0-7.0-0.28","LF","163k2z1uov","1366","768","0","1","0","5f11ccbc1a1a2c08b4a99efb","","null","","","learningBlock2","","","","This is a wug:","null","","","","","",""
"image-keyboard-response","332","343793","0.0-7.0-1.28","LF","163k2z1uov","1366","768","0","1","0","5f11ccbc1a1a2c08b4a99efb","","null","","","","","","","learning/Slide109.JPG","null","","","","","",""
"html-keyboard-response","333","344811","0.0-7.0-2.28","LF","163k2z1uov","1366","768","0","1","0","5f11ccbc1a1a2c08b4a99efb","","null","","","learningBlock2","","","","<div style=""font-size:60px;""> </div>","null","LF","learning/Slide109.JPG","This is a wug:","","",""
"html-keyboard-response","334","345814","0.0-7.0-0.29","LF","163k2z1uov","1366","768","0","1","0","5f11ccbc1a1a2c08b4a99efb","","null","","","learningBlock2","","","","This is a bim:","null","","","","","",""
"image-keyboard-response","335","346162","0.0-7.0-1.29","LF","163k2z1uov","1366","768","0","1","0","5f11ccbc1a1a2c08b4a99efb","","null","","","","","","","learning/Slide110.JPG","null","","","","","",""
"html-keyboard-response","336","347166","0.0-7.0-2.29","LF","163k2z1uov","1366","768","0","1","0","5f11ccbc1a1a2c08b4a99efb","","null","","","learningBlock2","","","","<div style=""font-size:60px;""> </div>","null","LF","learning/Slide110.JPG","This is a bim:","","",""
"html-keyboard-response","337","348170","0.0-7.0-0.30","LF","163k2z1uov","1366","768","0","1","0","5f11ccbc1a1a2c08b4a99efb","","null","","","learningBlock2","","","","This is a tob:","null","","","","","",""
"image-keyboard-response","338","348508","0.0-7.0-1.30","LF","163k2z1uov","1366","768","0","1","0","5f11ccbc1a1a2c08b4a99efb","","null","","","","","","","learning/Slide111.JPG","null","","","","","",""
"html-keyboard-response","339","349526","0.0-7.0-2.30","LF","163k2z1uov","1366","768","0","1","0","5f11ccbc1a1a2c08b4a99efb","","null","","","learningBlock2","","","","<div style=""font-size:60px;""> </div>","null","LF","learning/Slide111.JPG","This is a tob:","","",""
"html-keyboard-response","340","350527","0.0-7.0-0.31","LF","163k2z1uov","1366","768","0","1","0","5f11ccbc1a1a2c08b4a99efb","","null","","","learningBlock2","","","","This is a wug:","null","","","","","",""
"image-keyboard-response","341","350874","0.0-7.0-1.31","LF","163k2z1uov","1366","768","0","1","0","5f11ccbc1a1a2c08b4a99efb","","null","","","","","","","learning/Slide112.JPG","null","","","","","",""
"html-keyboard-response","342","351879","0.0-7.0-2.31","LF","163k2z1uov","1366","768","0","1","0","5f11ccbc1a1a2c08b4a99efb","","null","","","learningBlock2","","","","<div style=""font-size:60px;""> </div>","null","LF","learning/Slide112.JPG","This is a wug:","","",""
"html-keyboard-response","343","352881","0.0-7.0-0.32","LF","163k2z1uov","1366","768","0","1","0","5f11ccbc1a1a2c08b4a99efb","","null","","","learningBlock2","","","","This is a tob:","null","","","","","",""
"image-keyboard-response","344","353221","0.0-7.0-1.32","LF","163k2z1uov","1366","768","0","1","0","5f11ccbc1a1a2c08b4a99efb","","null","","","","","","","learning/Slide113.JPG","null","","","","","",""
"html-keyboard-response","345","354224","0.0-7.0-2.32","LF","163k2z1uov","1366","768","0","1","0","5f11ccbc1a1a2c08b4a99efb","","null","","","learningBlock2","","","","<div style=""font-size:60px;""> </div>","null","LF","learning/Slide113.JPG","This is a tob:","","",""
"html-keyboard-response","346","355226","0.0-7.0-0.33","LF","163k2z1uov","1366","768","0","1","0","5f11ccbc1a1a2c08b4a99efb","","null","","","learningBlock2","","","","This is a wug:","null","","","","","",""
"image-keyboard-response","347","355573","0.0-7.0-1.33","LF","163k2z1uov","1366","768","0","1","0","5f11ccbc1a1a2c08b4a99efb","","null","","","","","","","learning/Slide114.JPG","null","","","","","",""
"html-keyboard-response","348","356590","0.0-7.0-2.33","LF","163k2z1uov","1366","768","0","1","0","5f11ccbc1a1a2c08b4a99efb","","null","","","learningBlock2","","","","<div style=""font-size:60px;""> </div>","null","LF","learning/Slide114.JPG","This is a wug:","","",""
"html-keyboard-response","349","357592","0.0-7.0-0.34","LF","163k2z1uov","1366","768","0","1","0","5f11ccbc1a1a2c08b4a99efb","","null","","","learningBlock2","","","","This is a bim:","null","","","","","",""
"image-keyboard-response","350","357930","0.0-7.0-1.34","LF","163k2z1uov","1366","768","0","1","0","5f11ccbc1a1a2c08b4a99efb","","null","","","","","","","learning/Slide115.JPG","null","","","","","",""
"html-keyboard-response","351","358935","0.0-7.0-2.34","LF","163k2z1uov","1366","768","0","1","0","5f11ccbc1a1a2c08b4a99efb","","null","","","learningBlock2","","","","<div style=""font-size:60px;""> </div>","null","LF","learning/Slide115.JPG","This is a bim:","","",""
"html-keyboard-response","352","359938","0.0-7.0-0.35","LF","163k2z1uov","1366","768","0","1","0","5f11ccbc1a1a2c08b4a99efb","","null","","","learningBlock2","","","","This is a dep:","null","","","","","",""
"image-keyboard-response","353","360286","0.0-7.0-1.35","LF","163k2z1uov","1366","768","0","1","0","5f11ccbc1a1a2c08b4a99efb","","null","","","","","","","learning/Slide116.JPG","null","","","","","",""
"html-keyboard-response","354","361289","0.0-7.0-2.35","LF","163k2z1uov","1366","768","0","1","0","5f11ccbc1a1a2c08b4a99efb","","null","","","learningBlock2","","","","<div style=""font-size:60px;""> </div>","null","LF","learning/Slide116.JPG","This is a dep:","","",""
"html-keyboard-response","355","362291","0.0-7.0-0.36","LF","163k2z1uov","1366","768","0","1","0","5f11ccbc1a1a2c08b4a99efb","","null","","","learningBlock2","","","","This is a tob:","null","","","","","",""
"image-keyboard-response","356","362629","0.0-7.0-1.36","LF","163k2z1uov","1366","768","0","1","0","5f11ccbc1a1a2c08b4a99efb","","null","","","","","","","learning/Slide117.JPG","null","","","","","",""
"html-keyboard-response","357","363633","0.0-7.0-2.36","LF","163k2z1uov","1366","768","0","1","0","5f11ccbc1a1a2c08b4a99efb","","null","","","learningBlock2","","","","<div style=""font-size:60px;""> </div>","null","LF","learning/Slide117.JPG","This is a tob:","","",""
"html-keyboard-response","358","364637","0.0-7.0-0.37","LF","163k2z1uov","1366","768","0","1","0","5f11ccbc1a1a2c08b4a99efb","","null","","","learningBlock2","","","","This is a dep:","null","","","","","",""
"image-keyboard-response","359","364984","0.0-7.0-1.37","LF","163k2z1uov","1366","768","0","1","0","5f11ccbc1a1a2c08b4a99efb","","null","","","","","","","learning/Slide118.JPG","null","","","","","",""
"html-keyboard-response","360","365988","0.0-7.0-2.37","LF","163k2z1uov","1366","768","0","1","0","5f11ccbc1a1a2c08b4a99efb","","null","","","learningBlock2","","","","<div style=""font-size:60px;""> </div>","null","LF","learning/Slide118.JPG","This is a dep:","","",""
"html-keyboard-response","361","366990","0.0-7.0-0.38","LF","163k2z1uov","1366","768","0","1","0","5f11ccbc1a1a2c08b4a99efb","","null","","","learningBlock2","","","","This is a wug:","null","","","","","",""
"image-keyboard-response","362","367321","0.0-7.0-1.38","LF","163k2z1uov","1366","768","0","1","0","5f11ccbc1a1a2c08b4a99efb","","null","","","","","","","learning/Slide119.JPG","null","","","","","",""
"html-keyboard-response","363","368323","0.0-7.0-2.38","LF","163k2z1uov","1366","768","0","1","0","5f11ccbc1a1a2c08b4a99efb","","null","","","learningBlock2","","","","<div style=""font-size:60px;""> </div>","null","LF","learning/Slide119.JPG","This is a wug:","","",""
"html-keyboard-response","364","369326","0.0-7.0-0.39","LF","163k2z1uov","1366","768","0","1","0","5f11ccbc1a1a2c08b4a99efb","","null","","","learningBlock2","","","","This is a dep:","null","","","","","",""
"image-keyboard-response","365","369664","0.0-7.0-1.39","LF","163k2z1uov","1366","768","0","1","0","5f11ccbc1a1a2c08b4a99efb","","null","","","","","","","learning/Slide120.JPG","null","","","","","",""
"html-keyboard-response","366","370669","0.0-7.0-2.39","LF","163k2z1uov","1366","768","0","1","0","5f11ccbc1a1a2c08b4a99efb","","null","","","learningBlock2","","","","<div style=""font-size:60px;""> </div>","null","LF","learning/Slide120.JPG","This is a dep:","","",""
"html-keyboard-response","367","371672","0.0-7.0-0.40","LF","163k2z1uov","1366","768","0","1","0","5f11ccbc1a1a2c08b4a99efb","","null","","","learningBlock2","","","","This is a bim:","null","","","","","",""
"image-keyboard-response","368","372019","0.0-7.0-1.40","LF","163k2z1uov","1366","768","0","1","0","5f11ccbc1a1a2c08b4a99efb","","null","","","","","","","learning/Slide121.JPG","null","","","","","",""
"html-keyboard-response","369","373022","0.0-7.0-2.40","LF","163k2z1uov","1366","768","0","1","0","5f11ccbc1a1a2c08b4a99efb","","null","","","learningBlock2","","","","<div style=""font-size:60px;""> </div>","null","LF","learning/Slide121.JPG","This is a bim:","","",""
"html-keyboard-response","370","374024","0.0-7.0-0.41","LF","163k2z1uov","1366","768","0","1","0","5f11ccbc1a1a2c08b4a99efb","","null","","","learningBlock2","","","","This is a wug:","null","","","","","",""
"image-keyboard-response","371","374362","0.0-7.0-1.41","LF","163k2z1uov","1366","768","0","1","0","5f11ccbc1a1a2c08b4a99efb","","null","","","","","","","learning/Slide122.JPG","null","","","","","",""
"html-keyboard-response","372","375366","0.0-7.0-2.41","LF","163k2z1uov","1366","768","0","1","0","5f11ccbc1a1a2c08b4a99efb","","null","","","learningBlock2","","","","<div style=""font-size:60px;""> </div>","null","LF","learning/Slide122.JPG","This is a wug:","","",""
"html-keyboard-response","373","376371","0.0-7.0-0.42","LF","163k2z1uov","1366","768","0","1","0","5f11ccbc1a1a2c08b4a99efb","","null","","","learningBlock2","","","","This is a bim:","null","","","","","",""
"image-keyboard-response","374","376718","0.0-7.0-1.42","LF","163k2z1uov","1366","768","0","1","0","5f11ccbc1a1a2c08b4a99efb","","null","","","","","","","learning/Slide123.JPG","null","","","","","",""
"html-keyboard-response","375","377721","0.0-7.0-2.42","LF","163k2z1uov","1366","768","0","1","0","5f11ccbc1a1a2c08b4a99efb","","null","","","learningBlock2","","","","<div style=""font-size:60px;""> </div>","null","LF","learning/Slide123.JPG","This is a bim:","","",""
"html-keyboard-response","376","378723","0.0-7.0-0.43","LF","163k2z1uov","1366","768","0","1","0","5f11ccbc1a1a2c08b4a99efb","","null","","","learningBlock2","","","","This is a tob:","null","","","","","",""
"image-keyboard-response","377","379055","0.0-7.0-1.43","LF","163k2z1uov","1366","768","0","1","0","5f11ccbc1a1a2c08b4a99efb","","null","","","","","","","learning/Slide124.JPG","null","","","","","",""
"html-keyboard-response","378","380078","0.0-7.0-2.43","LF","163k2z1uov","1366","768","0","1","0","5f11ccbc1a1a2c08b4a99efb","","null","","","learningBlock2","","","","<div style=""font-size:60px;""> </div>","null","LF","learning/Slide124.JPG","This is a tob:","","",""
"html-keyboard-response","379","381081","0.0-7.0-0.44","LF","163k2z1uov","1366","768","0","1","0","5f11ccbc1a1a2c08b4a99efb","","null","","","learningBlock2","","","","This is a bim:","null","","","","","",""
"image-keyboard-response","380","381430","0.0-7.0-1.44","LF","163k2z1uov","1366","768","0","1","0","5f11ccbc1a1a2c08b4a99efb","","null","","","","","","","learning/Slide125.JPG","null","","","","","",""
"html-keyboard-response","381","382433","0.0-7.0-2.44","LF","163k2z1uov","1366","768","0","1","0","5f11ccbc1a1a2c08b4a99efb","","null","","","learningBlock2","","","","<div style=""font-size:60px;""> </div>","null","LF","learning/Slide125.JPG","This is a bim:","","",""
"html-keyboard-response","382","383437","0.0-7.0-0.45","LF","163k2z1uov","1366","768","0","1","0","5f11ccbc1a1a2c08b4a99efb","","null","","","learningBlock2","","","","This is a tob:","null","","","","","",""
"image-keyboard-response","383","383769","0.0-7.0-1.45","LF","163k2z1uov","1366","768","0","1","0","5f11ccbc1a1a2c08b4a99efb","","null","","","","","","","learning/Slide126.JPG","null","","","","","",""
"html-keyboard-response","384","384771","0.0-7.0-2.45","LF","163k2z1uov","1366","768","0","1","0","5f11ccbc1a1a2c08b4a99efb","","null","","","learningBlock2","","","","<div style=""font-size:60px;""> </div>","null","LF","learning/Slide126.JPG","This is a tob:","","",""
"html-keyboard-response","385","385774","0.0-7.0-0.46","LF","163k2z1uov","1366","768","0","1","0","5f11ccbc1a1a2c08b4a99efb","","null","","","learningBlock2","","","","This is a dep:","null","","","","","",""
"image-keyboard-response","386","386111","0.0-7.0-1.46","LF","163k2z1uov","1366","768","0","1","0","5f11ccbc1a1a2c08b4a99efb","","null","","","","","","","learning/Slide127.JPG","null","","","","","",""
"html-keyboard-response","387","387122","0.0-7.0-2.46","LF","163k2z1uov","1366","768","0","1","0","5f11ccbc1a1a2c08b4a99efb","","null","","","learningBlock2","","","","<div style=""font-size:60px;""> </div>","null","LF","learning/Slide127.JPG","This is a dep:","","",""
"html-keyboard-response","388","388134","0.0-7.0-0.47","LF","163k2z1uov","1366","768","0","1","0","5f11ccbc1a1a2c08b4a99efb","","null","","","learningBlock2","","","","This is a wug:","null","","","","","",""
"image-keyboard-response","389","388482","0.0-7.0-1.47","LF","163k2z1uov","1366","768","0","1","0","5f11ccbc1a1a2c08b4a99efb","","null","","","","","","","learning/Slide128.JPG","null","","","","","",""
"html-keyboard-response","390","389486","0.0-7.0-2.47","LF","163k2z1uov","1366","768","0","1","0","5f11ccbc1a1a2c08b4a99efb","","null","","","learningBlock2","","","","<div style=""font-size:60px;""> </div>","null","LF","learning/Slide128.JPG","This is a wug:","","",""
"html-keyboard-response","391","390489","0.0-7.0-0.48","LF","163k2z1uov","1366","768","0","1","0","5f11ccbc1a1a2c08b4a99efb","","null","","","learningBlock2","","","","This is a tob:","null","","","","","",""
"image-keyboard-response","392","390843","0.0-7.0-1.48","LF","163k2z1uov","1366","768","0","1","0","5f11ccbc1a1a2c08b4a99efb","","null","","","","","","","learning/Slide129.JPG","null","","","","","",""
"html-keyboard-response","393","391847","0.0-7.0-2.48","LF","163k2z1uov","1366","768","0","1","0","5f11ccbc1a1a2c08b4a99efb","","null","","","learningBlock2","","","","<div style=""font-size:60px;""> </div>","null","LF","learning/Slide129.JPG","This is a tob:","","",""
"html-keyboard-response","394","392851","0.0-7.0-0.49","LF","163k2z1uov","1366","768","0","1","0","5f11ccbc1a1a2c08b4a99efb","","null","","","learningBlock2","","","","This is a wug:","null","","","","","",""
"image-keyboard-response","395","393199","0.0-7.0-1.49","LF","163k2z1uov","1366","768","0","1","0","5f11ccbc1a1a2c08b4a99efb","","null","","","","","","","learning/Slide130.JPG","null","","","","","",""
"html-keyboard-response","396","394202","0.0-7.0-2.49","LF","163k2z1uov","1366","768","0","1","0","5f11ccbc1a1a2c08b4a99efb","","null","","","learningBlock2","","","","<div style=""font-size:60px;""> </div>","null","LF","learning/Slide130.JPG","This is a wug:","","",""
"html-keyboard-response","397","395204","0.0-7.0-0.50","LF","163k2z1uov","1366","768","0","1","0","5f11ccbc1a1a2c08b4a99efb","","null","","","learningBlock2","","","","This is a bim:","null","","","","","",""
"image-keyboard-response","398","395542","0.0-7.0-1.50","LF","163k2z1uov","1366","768","0","1","0","5f11ccbc1a1a2c08b4a99efb","","null","","","","","","","learning/Slide131.JPG","null","","","","","",""
"html-keyboard-response","399","396546","0.0-7.0-2.50","LF","163k2z1uov","1366","768","0","1","0","5f11ccbc1a1a2c08b4a99efb","","null","","","learningBlock2","","","","<div style=""font-size:60px;""> </div>","null","LF","learning/Slide131.JPG","This is a bim:","","",""
"html-keyboard-response","400","397548","0.0-7.0-0.51","LF","163k2z1uov","1366","768","0","1","0","5f11ccbc1a1a2c08b4a99efb","","null","","","learningBlock2","","","","This is a dep:","null","","","","","",""
"image-keyboard-response","401","397897","0.0-7.0-1.51","LF","163k2z1uov","1366","768","0","1","0","5f11ccbc1a1a2c08b4a99efb","","null","","","","","","","learning/Slide132.JPG","null","","","","","",""
"html-keyboard-response","402","398901","0.0-7.0-2.51","LF","163k2z1uov","1366","768","0","1","0","5f11ccbc1a1a2c08b4a99efb","","null","","","learningBlock2","","","","<div style=""font-size:60px;""> </div>","null","LF","learning/Slide132.JPG","This is a dep:","","",""
"html-keyboard-response","403","399904","0.0-7.0-0.52","LF","163k2z1uov","1366","768","0","1","0","5f11ccbc1a1a2c08b4a99efb","","null","","","learningBlock2","","","","This is a tob:","null","","","","","",""
"image-keyboard-response","404","400241","0.0-7.0-1.52","LF","163k2z1uov","1366","768","0","1","0","5f11ccbc1a1a2c08b4a99efb","","null","","","","","","","learning/Slide133.JPG","null","","","","","",""
"html-keyboard-response","405","401258","0.0-7.0-2.52","LF","163k2z1uov","1366","768","0","1","0","5f11ccbc1a1a2c08b4a99efb","","null","","","learningBlock2","","","","<div style=""font-size:60px;""> </div>","null","LF","learning/Slide133.JPG","This is a tob:","","",""
"html-keyboard-response","406","402259","0.0-7.0-0.53","LF","163k2z1uov","1366","768","0","1","0","5f11ccbc1a1a2c08b4a99efb","","null","","","learningBlock2","","","","This is a dep:","null","","","","","",""
"image-keyboard-response","407","402607","0.0-7.0-1.53","LF","163k2z1uov","1366","768","0","1","0","5f11ccbc1a1a2c08b4a99efb","","null","","","","","","","learning/Slide134.JPG","null","","","","","",""
"html-keyboard-response","408","403610","0.0-7.0-2.53","LF","163k2z1uov","1366","768","0","1","0","5f11ccbc1a1a2c08b4a99efb","","null","","","learningBlock2","","","","<div style=""font-size:60px;""> </div>","null","LF","learning/Slide134.JPG","This is a dep:","","",""
"html-keyboard-response","409","404614","0.0-7.0-0.54","LF","163k2z1uov","1366","768","0","1","0","5f11ccbc1a1a2c08b4a99efb","","null","","","learningBlock2","","","","This is a tob:","null","","","","","",""
"image-keyboard-response","410","404953","0.0-7.0-1.54","LF","163k2z1uov","1366","768","0","1","0","5f11ccbc1a1a2c08b4a99efb","","null","","","","","","","learning/Slide135.JPG","null","","","","","",""
"html-keyboard-response","411","405956","0.0-7.0-2.54","LF","163k2z1uov","1366","768","0","1","0","5f11ccbc1a1a2c08b4a99efb","","null","","","learningBlock2","","","","<div style=""font-size:60px;""> </div>","null","LF","learning/Slide135.JPG","This is a tob:","","",""
"html-keyboard-response","412","406974","0.0-7.0-0.55","LF","163k2z1uov","1366","768","0","1","0","5f11ccbc1a1a2c08b4a99efb","","null","","","learningBlock2","","","","This is a wug:","null","","","","","",""
"image-keyboard-response","413","407321","0.0-7.0-1.55","LF","163k2z1uov","1366","768","0","1","0","5f11ccbc1a1a2c08b4a99efb","","null","","","","","","","learning/Slide136.JPG","null","","","","","",""
"html-keyboard-response","414","408323","0.0-7.0-2.55","LF","163k2z1uov","1366","768","0","1","0","5f11ccbc1a1a2c08b4a99efb","","null","","","learningBlock2","","","","<div style=""font-size:60px;""> </div>","null","LF","learning/Slide136.JPG","This is a wug:","","",""
"html-keyboard-response","415","409327","0.0-7.0-0.56","LF","163k2z1uov","1366","768","0","1","0","5f11ccbc1a1a2c08b4a99efb","","null","","","learningBlock2","","","","This is a tob:","null","","","","","",""
"image-keyboard-response","416","409665","0.0-7.0-1.56","LF","163k2z1uov","1366","768","0","1","0","5f11ccbc1a1a2c08b4a99efb","","null","","","","","","","learning/Slide137.JPG","null","","","","","",""
"html-keyboard-response","417","410670","0.0-7.0-2.56","LF","163k2z1uov","1366","768","0","1","0","5f11ccbc1a1a2c08b4a99efb","","null","","","learningBlock2","","","","<div style=""font-size:60px;""> </div>","null","LF","learning/Slide137.JPG","This is a tob:","","",""
"html-keyboard-response","418","411673","0.0-7.0-0.57","LF","163k2z1uov","1366","768","0","1","0","5f11ccbc1a1a2c08b4a99efb","","null","","","learningBlock2","","","","This is a bim:","null","","","","","",""
"image-keyboard-response","419","412021","0.0-7.0-1.57","LF","163k2z1uov","1366","768","0","1","0","5f11ccbc1a1a2c08b4a99efb","","null","","","","","","","learning/Slide138.JPG","null","","","","","",""
"html-keyboard-response","420","413022","0.0-7.0-2.57","LF","163k2z1uov","1366","768","0","1","0","5f11ccbc1a1a2c08b4a99efb","","null","","","learningBlock2","","","","<div style=""font-size:60px;""> </div>","null","LF","learning/Slide138.JPG","This is a bim:","","",""
"html-keyboard-response","421","414024","0.0-7.0-0.58","LF","163k2z1uov","1366","768","0","1","0","5f11ccbc1a1a2c08b4a99efb","","null","","","learningBlock2","","","","This is a wug:","null","","","","","",""
"image-keyboard-response","422","414356","0.0-7.0-1.58","LF","163k2z1uov","1366","768","0","1","0","5f11ccbc1a1a2c08b4a99efb","","null","","","","","","","learning/Slide139.JPG","null","","","","","",""
"html-keyboard-response","423","415360","0.0-7.0-2.58","LF","163k2z1uov","1366","768","0","1","0","5f11ccbc1a1a2c08b4a99efb","","null","","","learningBlock2","","","","<div style=""font-size:60px;""> </div>","null","LF","learning/Slide139.JPG","This is a wug:","","",""
"html-keyboard-response","424","416364","0.0-7.0-0.59","LF","163k2z1uov","1366","768","0","1","0","5f11ccbc1a1a2c08b4a99efb","","null","","","learningBlock2","","","","This is a dep:","null","","","","","",""
"image-keyboard-response","425","416703","0.0-7.0-1.59","LF","163k2z1uov","1366","768","0","1","0","5f11ccbc1a1a2c08b4a99efb","","null","","","","","","","learning/Slide140.JPG","null","","","","","",""
"html-keyboard-response","426","417705","0.0-7.0-2.59","LF","163k2z1uov","1366","768","0","1","0","5f11ccbc1a1a2c08b4a99efb","","null","","","learningBlock2","","","","<div style=""font-size:60px;""> </div>","null","LF","learning/Slide140.JPG","This is a dep:","","",""
"html-keyboard-response","427","418707","0.0-7.0-0.60","LF","163k2z1uov","1366","768","0","1","0","5f11ccbc1a1a2c08b4a99efb","","null","","","learningBlock2","","","","This is a tob:","null","","","","","",""
"image-keyboard-response","428","419055","0.0-7.0-1.60","LF","163k2z1uov","1366","768","0","1","0","5f11ccbc1a1a2c08b4a99efb","","null","","","","","","","learning/Slide141.JPG","null","","","","","",""
"html-keyboard-response","429","420072","0.0-7.0-2.60","LF","163k2z1uov","1366","768","0","1","0","5f11ccbc1a1a2c08b4a99efb","","null","","","learningBlock2","","","","<div style=""font-size:60px;""> </div>","null","LF","learning/Slide141.JPG","This is a tob:","","",""
"html-keyboard-response","430","421077","0.0-7.0-0.61","LF","163k2z1uov","1366","768","0","1","0","5f11ccbc1a1a2c08b4a99efb","","null","","","learningBlock2","","","","This is a wug:","null","","","","","",""
"image-keyboard-response","431","421415","0.0-7.0-1.61","LF","163k2z1uov","1366","768","0","1","0","5f11ccbc1a1a2c08b4a99efb","","null","","","","","","","learning/Slide142.JPG","null","","","","","",""
"html-keyboard-response","432","422419","0.0-7.0-2.61","LF","163k2z1uov","1366","768","0","1","0","5f11ccbc1a1a2c08b4a99efb","","null","","","learningBlock2","","","","<div style=""font-size:60px;""> </div>","null","LF","learning/Slide142.JPG","This is a wug:","","",""
"html-keyboard-response","433","423422","0.0-7.0-0.62","LF","163k2z1uov","1366","768","0","1","0","5f11ccbc1a1a2c08b4a99efb","","null","","","learningBlock2","","","","This is a bim:","null","","","","","",""
"image-keyboard-response","434","423769","0.0-7.0-1.62","LF","163k2z1uov","1366","768","0","1","0","5f11ccbc1a1a2c08b4a99efb","","null","","","","","","","learning/Slide143.JPG","null","","","","","",""
"html-keyboard-response","435","424786","0.0-7.0-2.62","LF","163k2z1uov","1366","768","0","1","0","5f11ccbc1a1a2c08b4a99efb","","null","","","learningBlock2","","","","<div style=""font-size:60px;""> </div>","null","LF","learning/Slide143.JPG","This is a bim:","","",""
"html-keyboard-response","436","425789","0.0-7.0-0.63","LF","163k2z1uov","1366","768","0","1","0","5f11ccbc1a1a2c08b4a99efb","","null","","","learningBlock2","","","","This is a dep:","null","","","","","",""
"image-keyboard-response","437","426126","0.0-7.0-1.63","LF","163k2z1uov","1366","768","0","1","0","5f11ccbc1a1a2c08b4a99efb","","null","","","","","","","learning/Slide144.JPG","null","","","","","",""
