"trial_type","trial_index","time_elapsed","internal_node_id","condition","subject","screen_width","screen_height","attention","distraction","conscientious","prolificID","success","rt","url","view_history","test_part","final_height_px","final_width_px","scale_factor","stimulus","key_press","learningType","presentedImage","presentedLabel","button_pressed","response","responses"
"pavlovia","0","20","0.0-0.0","FL","uyc3tp4v50","1600","900","0","1","0","6017d6a23bdebea5e9062e9d","","","","","","","","","","","","","","","",""
"fullscreen","1","6038","0.0-1.0","FL","uyc3tp4v50","1600","900","0","1","0","6017d6a23bdebea5e9062e9d","true","","","","","","","","","","","","","","",""
"external-html","2","42484","0.0-2.0-0.0","FL","uyc3tp4v50","1600","900","0","1","0","6017d6a23bdebea5e9062e9d","","36339.340000005905","text/information_english.html","","","","","","","","","","","","",""
"external-html","3","50452","0.0-2.0-1.0","FL","uyc3tp4v50","1600","900","0","1","0","6017d6a23bdebea5e9062e9d","","7852.36500002793","text/consent_english.html","","","","","","","","","","","","",""
"instructions","4","70237","0.0-3.0","FL","uyc3tp4v50","1600","900","0","1","0","6017d6a23bdebea5e9062e9d","","NA","","[{""page_index"":0,""viewing_time"":3802.640000008978},{""page_index"":1,""viewing_time"":15975.754999992205}]","instructions","","","","","","","","","","",""
"resize","5","116181","0.0-4.0","FL","uyc3tp4v50","1600","900","0","1","0","6017d6a23bdebea5e9062e9d","","","","","","","306","1.9428571428571428","","","","","","","",""
"image-keyboard-response","6","116361","0.0-5.0-0.0","FL","uyc3tp4v50","1600","900","0","1","0","6017d6a23bdebea5e9062e9d","","null","","","","","","","learning/Slide1.JPG","null","","","","","",""
"html-keyboard-response","7","117532","0.0-5.0-1.0","FL","uyc3tp4v50","1600","900","0","1","0","6017d6a23bdebea5e9062e9d","","null","","","learningBlock1","","","","That was a tob.","null","","","","","",""
"html-keyboard-response","8","118536","0.0-5.0-2.0","FL","uyc3tp4v50","1600","900","0","1","0","6017d6a23bdebea5e9062e9d","","null","","","learningBlock1","","","","<div style=""font-size:60px;""> </div>","null","FL","learning/Slide1.JPG","That was a tob.","","",""
"image-keyboard-response","9","118714","0.0-5.0-0.1","FL","uyc3tp4v50","1600","900","0","1","0","6017d6a23bdebea5e9062e9d","","null","","","","","","","learning/Slide2.JPG","null","","","","","",""
"html-keyboard-response","10","119881","0.0-5.0-1.1","FL","uyc3tp4v50","1600","900","0","1","0","6017d6a23bdebea5e9062e9d","","null","","","learningBlock1","","","","That was a wug.","null","","","","","",""
"html-keyboard-response","11","120886","0.0-5.0-2.1","FL","uyc3tp4v50","1600","900","0","1","0","6017d6a23bdebea5e9062e9d","","null","","","learningBlock1","","","","<div style=""font-size:60px;""> </div>","null","FL","learning/Slide2.JPG","That was a wug.","","",""
"image-keyboard-response","12","121064","0.0-5.0-0.2","FL","uyc3tp4v50","1600","900","0","1","0","6017d6a23bdebea5e9062e9d","","null","","","","","","","learning/Slide3.JPG","null","","","","","",""
"html-keyboard-response","13","122219","0.0-5.0-1.2","FL","uyc3tp4v50","1600","900","0","1","0","6017d6a23bdebea5e9062e9d","","null","","","learningBlock1","","","","That was a bim.","null","","","","","",""
"html-keyboard-response","14","123232","0.0-5.0-2.2","FL","uyc3tp4v50","1600","900","0","1","0","6017d6a23bdebea5e9062e9d","","null","","","learningBlock1","","","","<div style=""font-size:60px;""> </div>","null","FL","learning/Slide3.JPG","That was a bim.","","",""
"image-keyboard-response","15","123416","0.0-5.0-0.3","FL","uyc3tp4v50","1600","900","0","1","0","6017d6a23bdebea5e9062e9d","","null","","","","","","","learning/Slide4.JPG","null","","","","","",""
"html-keyboard-response","16","124579","0.0-5.0-1.3","FL","uyc3tp4v50","1600","900","0","1","0","6017d6a23bdebea5e9062e9d","","null","","","learningBlock1","","","","That was a dep.","null","","","","","",""
"html-keyboard-response","17","125582","0.0-5.0-2.3","FL","uyc3tp4v50","1600","900","0","1","0","6017d6a23bdebea5e9062e9d","","null","","","learningBlock1","","","","<div style=""font-size:60px;""> </div>","null","FL","learning/Slide4.JPG","That was a dep.","","",""
"image-keyboard-response","18","125768","0.0-5.0-0.4","FL","uyc3tp4v50","1600","900","0","1","0","6017d6a23bdebea5e9062e9d","","null","","","","","","","learning/Slide5.JPG","null","","","","","",""
"html-keyboard-response","19","126935","0.0-5.0-1.4","FL","uyc3tp4v50","1600","900","0","1","0","6017d6a23bdebea5e9062e9d","","null","","","learningBlock1","","","","That was a wug.","null","","","","","",""
"html-keyboard-response","20","127947","0.0-5.0-2.4","FL","uyc3tp4v50","1600","900","0","1","0","6017d6a23bdebea5e9062e9d","","null","","","learningBlock1","","","","<div style=""font-size:60px;""> </div>","null","FL","learning/Slide5.JPG","That was a wug.","","",""
"image-keyboard-response","21","128137","0.0-5.0-0.5","FL","uyc3tp4v50","1600","900","0","1","0","6017d6a23bdebea5e9062e9d","","null","","","","","","","learning/Slide6.JPG","null","","","","","",""
"html-keyboard-response","22","129296","0.0-5.0-1.5","FL","uyc3tp4v50","1600","900","0","1","0","6017d6a23bdebea5e9062e9d","","null","","","learningBlock1","","","","That was a dep.","null","","","","","",""
"html-keyboard-response","23","130310","0.0-5.0-2.5","FL","uyc3tp4v50","1600","900","0","1","0","6017d6a23bdebea5e9062e9d","","null","","","learningBlock1","","","","<div style=""font-size:60px;""> </div>","null","FL","learning/Slide6.JPG","That was a dep.","","",""
"image-keyboard-response","24","130489","0.0-5.0-0.6","FL","uyc3tp4v50","1600","900","0","1","0","6017d6a23bdebea5e9062e9d","","null","","","","","","","learning/Slide7.JPG","null","","","","","",""
"html-keyboard-response","25","131641","0.0-5.0-1.6","FL","uyc3tp4v50","1600","900","0","1","0","6017d6a23bdebea5e9062e9d","","null","","","learningBlock1","","","","That was a wug.","null","","","","","",""
"html-keyboard-response","26","132644","0.0-5.0-2.6","FL","uyc3tp4v50","1600","900","0","1","0","6017d6a23bdebea5e9062e9d","","null","","","learningBlock1","","","","<div style=""font-size:60px;""> </div>","null","FL","learning/Slide7.JPG","That was a wug.","","",""
"image-keyboard-response","27","132824","0.0-5.0-0.7","FL","uyc3tp4v50","1600","900","0","1","0","6017d6a23bdebea5e9062e9d","","null","","","","","","","learning/Slide8.JPG","null","","","","","",""
"html-keyboard-response","28","133991","0.0-5.0-1.7","FL","uyc3tp4v50","1600","900","0","1","0","6017d6a23bdebea5e9062e9d","","null","","","learningBlock1","","","","That was a bim.","null","","","","","",""
"html-keyboard-response","29","134995","0.0-5.0-2.7","FL","uyc3tp4v50","1600","900","0","1","0","6017d6a23bdebea5e9062e9d","","null","","","learningBlock1","","","","<div style=""font-size:60px;""> </div>","null","FL","learning/Slide8.JPG","That was a bim.","","",""
"image-keyboard-response","30","135176","0.0-5.0-0.8","FL","uyc3tp4v50","1600","900","0","1","0","6017d6a23bdebea5e9062e9d","","null","","","","","","","learning/Slide9.JPG","null","","","","","",""
"html-keyboard-response","31","136330","0.0-5.0-1.8","FL","uyc3tp4v50","1600","900","0","1","0","6017d6a23bdebea5e9062e9d","","null","","","learningBlock1","","","","That was a wug.","null","","","","","",""
"html-keyboard-response","32","137341","0.0-5.0-2.8","FL","uyc3tp4v50","1600","900","0","1","0","6017d6a23bdebea5e9062e9d","","null","","","learningBlock1","","","","<div style=""font-size:60px;""> </div>","null","FL","learning/Slide9.JPG","That was a wug.","","",""
"image-keyboard-response","33","137528","0.0-5.0-0.9","FL","uyc3tp4v50","1600","900","0","1","0","6017d6a23bdebea5e9062e9d","","null","","","","","","","learning/Slide10.JPG","null","","","","","",""
"html-keyboard-response","34","138688","0.0-5.0-1.9","FL","uyc3tp4v50","1600","900","0","1","0","6017d6a23bdebea5e9062e9d","","null","","","learningBlock1","","","","That was a dep.","null","","","","","",""
"html-keyboard-response","35","139692","0.0-5.0-2.9","FL","uyc3tp4v50","1600","900","0","1","0","6017d6a23bdebea5e9062e9d","","null","","","learningBlock1","","","","<div style=""font-size:60px;""> </div>","null","FL","learning/Slide10.JPG","That was a dep.","","",""
"image-keyboard-response","36","139881","0.0-5.0-0.10","FL","uyc3tp4v50","1600","900","0","1","0","6017d6a23bdebea5e9062e9d","","null","","","","","","","learning/Slide11.JPG","null","","","","","",""
"html-keyboard-response","37","141039","0.0-5.0-1.10","FL","uyc3tp4v50","1600","900","0","1","0","6017d6a23bdebea5e9062e9d","","null","","","learningBlock1","","","","That was a tob.","null","","","","","",""
"html-keyboard-response","38","142041","0.0-5.0-2.10","FL","uyc3tp4v50","1600","900","0","1","0","6017d6a23bdebea5e9062e9d","","null","","","learningBlock1","","","","<div style=""font-size:60px;""> </div>","null","FL","learning/Slide11.JPG","That was a tob.","","",""
"image-keyboard-response","39","142226","0.0-5.0-0.11","FL","uyc3tp4v50","1600","900","0","1","0","6017d6a23bdebea5e9062e9d","","null","","","","","","","learning/Slide12.JPG","null","","","","","",""
"html-keyboard-response","40","143380","0.0-5.0-1.11","FL","uyc3tp4v50","1600","900","0","1","0","6017d6a23bdebea5e9062e9d","","null","","","learningBlock1","","","","That was a dep.","null","","","","","",""
"html-keyboard-response","41","144389","0.0-5.0-2.11","FL","uyc3tp4v50","1600","900","0","1","0","6017d6a23bdebea5e9062e9d","","null","","","learningBlock1","","","","<div style=""font-size:60px;""> </div>","null","FL","learning/Slide12.JPG","That was a dep.","","",""
"image-keyboard-response","42","144568","0.0-5.0-0.12","FL","uyc3tp4v50","1600","900","0","1","0","6017d6a23bdebea5e9062e9d","","null","","","","","","","learning/Slide13.JPG","null","","","","","",""
"html-keyboard-response","43","145734","0.0-5.0-1.12","FL","uyc3tp4v50","1600","900","0","1","0","6017d6a23bdebea5e9062e9d","","null","","","learningBlock1","","","","That was a bim.","null","","","","","",""
"html-keyboard-response","44","146738","0.0-5.0-2.12","FL","uyc3tp4v50","1600","900","0","1","0","6017d6a23bdebea5e9062e9d","","null","","","learningBlock1","","","","<div style=""font-size:60px;""> </div>","null","FL","learning/Slide13.JPG","That was a bim.","","",""
"image-keyboard-response","45","146920","0.0-5.0-0.13","FL","uyc3tp4v50","1600","900","0","1","0","6017d6a23bdebea5e9062e9d","","null","","","","","","","learning/Slide14.JPG","null","","","","","",""
"html-keyboard-response","46","148086","0.0-5.0-1.13","FL","uyc3tp4v50","1600","900","0","1","0","6017d6a23bdebea5e9062e9d","","null","","","learningBlock1","","","","That was a wug.","null","","","","","",""
"html-keyboard-response","47","149099","0.0-5.0-2.13","FL","uyc3tp4v50","1600","900","0","1","0","6017d6a23bdebea5e9062e9d","","null","","","learningBlock1","","","","<div style=""font-size:60px;""> </div>","null","FL","learning/Slide14.JPG","That was a wug.","","",""
"image-keyboard-response","48","149275","0.0-5.0-0.14","FL","uyc3tp4v50","1600","900","0","1","0","6017d6a23bdebea5e9062e9d","","null","","","","","","","learning/Slide15.JPG","null","","","","","",""
"html-keyboard-response","49","150442","0.0-5.0-1.14","FL","uyc3tp4v50","1600","900","0","1","0","6017d6a23bdebea5e9062e9d","","null","","","learningBlock1","","","","That was a tob.","null","","","","","",""
"html-keyboard-response","50","151450","0.0-5.0-2.14","FL","uyc3tp4v50","1600","900","0","1","0","6017d6a23bdebea5e9062e9d","","null","","","learningBlock1","","","","<div style=""font-size:60px;""> </div>","null","FL","learning/Slide15.JPG","That was a tob.","","",""
"image-keyboard-response","51","151641","0.0-5.0-0.15","FL","uyc3tp4v50","1600","900","0","1","0","6017d6a23bdebea5e9062e9d","","null","","","","","","","learning/Slide16.JPG","null","","","","","",""
"html-keyboard-response","52","152797","0.0-5.0-1.15","FL","uyc3tp4v50","1600","900","0","1","0","6017d6a23bdebea5e9062e9d","","null","","","learningBlock1","","","","That was a dep.","null","","","","","",""
"html-keyboard-response","53","153801","0.0-5.0-2.15","FL","uyc3tp4v50","1600","900","0","1","0","6017d6a23bdebea5e9062e9d","","null","","","learningBlock1","","","","<div style=""font-size:60px;""> </div>","null","FL","learning/Slide16.JPG","That was a dep.","","",""
"image-keyboard-response","54","153977","0.0-5.0-0.16","FL","uyc3tp4v50","1600","900","0","1","0","6017d6a23bdebea5e9062e9d","","null","","","","","","","learning/Slide17.JPG","null","","","","","",""
"html-keyboard-response","55","155132","0.0-5.0-1.16","FL","uyc3tp4v50","1600","900","0","1","0","6017d6a23bdebea5e9062e9d","","null","","","learningBlock1","","","","That was a bim.","null","","","","","",""
"html-keyboard-response","56","156136","0.0-5.0-2.16","FL","uyc3tp4v50","1600","900","0","1","0","6017d6a23bdebea5e9062e9d","","null","","","learningBlock1","","","","<div style=""font-size:60px;""> </div>","null","FL","learning/Slide17.JPG","That was a bim.","","",""
"image-keyboard-response","57","156312","0.0-5.0-0.17","FL","uyc3tp4v50","1600","900","0","1","0","6017d6a23bdebea5e9062e9d","","null","","","","","","","learning/Slide18.JPG","null","","","","","",""
"html-keyboard-response","58","157470","0.0-5.0-1.17","FL","uyc3tp4v50","1600","900","0","1","0","6017d6a23bdebea5e9062e9d","","null","","","learningBlock1","","","","That was a tob.","null","","","","","",""
"html-keyboard-response","59","158472","0.0-5.0-2.17","FL","uyc3tp4v50","1600","900","0","1","0","6017d6a23bdebea5e9062e9d","","null","","","learningBlock1","","","","<div style=""font-size:60px;""> </div>","null","FL","learning/Slide18.JPG","That was a tob.","","",""
"image-keyboard-response","60","158648","0.0-5.0-0.18","FL","uyc3tp4v50","1600","900","0","1","0","6017d6a23bdebea5e9062e9d","","null","","","","","","","learning/Slide19.JPG","null","","","","","",""
"html-keyboard-response","61","159828","0.0-5.0-1.18","FL","uyc3tp4v50","1600","900","0","1","0","6017d6a23bdebea5e9062e9d","","null","","","learningBlock1","","","","That was a wug.","null","","","","","",""
"html-keyboard-response","62","160844","0.0-5.0-2.18","FL","uyc3tp4v50","1600","900","0","1","0","6017d6a23bdebea5e9062e9d","","null","","","learningBlock1","","","","<div style=""font-size:60px;""> </div>","null","FL","learning/Slide19.JPG","That was a wug.","","",""
"image-keyboard-response","63","161033","0.0-5.0-0.19","FL","uyc3tp4v50","1600","900","0","1","0","6017d6a23bdebea5e9062e9d","","null","","","","","","","learning/Slide20.JPG","null","","","","","",""
"html-keyboard-response","64","162196","0.0-5.0-1.19","FL","uyc3tp4v50","1600","900","0","1","0","6017d6a23bdebea5e9062e9d","","null","","","learningBlock1","","","","That was a bim.","null","","","","","",""
"html-keyboard-response","65","163198","0.0-5.0-2.19","FL","uyc3tp4v50","1600","900","0","1","0","6017d6a23bdebea5e9062e9d","","null","","","learningBlock1","","","","<div style=""font-size:60px;""> </div>","null","FL","learning/Slide20.JPG","That was a bim.","","",""
"image-keyboard-response","66","163374","0.0-5.0-0.20","FL","uyc3tp4v50","1600","900","0","1","0","6017d6a23bdebea5e9062e9d","","null","","","","","","","learning/Slide21.JPG","null","","","","","",""
"html-keyboard-response","67","164531","0.0-5.0-1.20","FL","uyc3tp4v50","1600","900","0","1","0","6017d6a23bdebea5e9062e9d","","null","","","learningBlock1","","","","That was a dep.","null","","","","","",""
"html-keyboard-response","68","165545","0.0-5.0-2.20","FL","uyc3tp4v50","1600","900","0","1","0","6017d6a23bdebea5e9062e9d","","null","","","learningBlock1","","","","<div style=""font-size:60px;""> </div>","null","FL","learning/Slide21.JPG","That was a dep.","","",""
"image-keyboard-response","69","165723","0.0-5.0-0.21","FL","uyc3tp4v50","1600","900","0","1","0","6017d6a23bdebea5e9062e9d","","null","","","","","","","learning/Slide22.JPG","null","","","","","",""
"html-keyboard-response","70","166891","0.0-5.0-1.21","FL","uyc3tp4v50","1600","900","0","1","0","6017d6a23bdebea5e9062e9d","","null","","","learningBlock1","","","","That was a bim.","null","","","","","",""
"html-keyboard-response","71","167894","0.0-5.0-2.21","FL","uyc3tp4v50","1600","900","0","1","0","6017d6a23bdebea5e9062e9d","","null","","","learningBlock1","","","","<div style=""font-size:60px;""> </div>","null","FL","learning/Slide22.JPG","That was a bim.","","",""
"image-keyboard-response","72","168072","0.0-5.0-0.22","FL","uyc3tp4v50","1600","900","0","1","0","6017d6a23bdebea5e9062e9d","","null","","","","","","","learning/Slide23.JPG","null","","","","","",""
"html-keyboard-response","73","169236","0.0-5.0-1.22","FL","uyc3tp4v50","1600","900","0","1","0","6017d6a23bdebea5e9062e9d","","null","","","learningBlock1","","","","That was a tob.","null","","","","","",""
"html-keyboard-response","74","170248","0.0-5.0-2.22","FL","uyc3tp4v50","1600","900","0","1","0","6017d6a23bdebea5e9062e9d","","null","","","learningBlock1","","","","<div style=""font-size:60px;""> </div>","null","FL","learning/Slide23.JPG","That was a tob.","","",""
"image-keyboard-response","75","170435","0.0-5.0-0.23","FL","uyc3tp4v50","1600","900","0","1","0","6017d6a23bdebea5e9062e9d","","null","","","","","","","learning/Slide24.JPG","null","","","","","",""
"html-keyboard-response","76","171604","0.0-5.0-1.23","FL","uyc3tp4v50","1600","900","0","1","0","6017d6a23bdebea5e9062e9d","","null","","","learningBlock1","","","","That was a wug.","null","","","","","",""
"html-keyboard-response","77","172617","0.0-5.0-2.23","FL","uyc3tp4v50","1600","900","0","1","0","6017d6a23bdebea5e9062e9d","","null","","","learningBlock1","","","","<div style=""font-size:60px;""> </div>","null","FL","learning/Slide24.JPG","That was a wug.","","",""
"image-keyboard-response","78","172808","0.0-5.0-0.24","FL","uyc3tp4v50","1600","900","0","1","0","6017d6a23bdebea5e9062e9d","","null","","","","","","","learning/Slide25.JPG","null","","","","","",""
"html-keyboard-response","79","173970","0.0-5.0-1.24","FL","uyc3tp4v50","1600","900","0","1","0","6017d6a23bdebea5e9062e9d","","null","","","learningBlock1","","","","That was a dep.","null","","","","","",""
"html-keyboard-response","80","174983","0.0-5.0-2.24","FL","uyc3tp4v50","1600","900","0","1","0","6017d6a23bdebea5e9062e9d","","null","","","learningBlock1","","","","<div style=""font-size:60px;""> </div>","null","FL","learning/Slide25.JPG","That was a dep.","","",""
"image-keyboard-response","81","175165","0.0-5.0-0.25","FL","uyc3tp4v50","1600","900","0","1","0","6017d6a23bdebea5e9062e9d","","null","","","","","","","learning/Slide26.JPG","null","","","","","",""
"html-keyboard-response","82","176328","0.0-5.0-1.25","FL","uyc3tp4v50","1600","900","0","1","0","6017d6a23bdebea5e9062e9d","","null","","","learningBlock1","","","","That was a wug.","null","","","","","",""
"html-keyboard-response","83","177330","0.0-5.0-2.25","FL","uyc3tp4v50","1600","900","0","1","0","6017d6a23bdebea5e9062e9d","","null","","","learningBlock1","","","","<div style=""font-size:60px;""> </div>","null","FL","learning/Slide26.JPG","That was a wug.","","",""
"image-keyboard-response","84","177513","0.0-5.0-0.26","FL","uyc3tp4v50","1600","900","0","1","0","6017d6a23bdebea5e9062e9d","","null","","","","","","","learning/Slide27.JPG","null","","","","","",""
"html-keyboard-response","85","178673","0.0-5.0-1.26","FL","uyc3tp4v50","1600","900","0","1","0","6017d6a23bdebea5e9062e9d","","null","","","learningBlock1","","","","That was a bim.","null","","","","","",""
"html-keyboard-response","86","179685","0.0-5.0-2.26","FL","uyc3tp4v50","1600","900","0","1","0","6017d6a23bdebea5e9062e9d","","null","","","learningBlock1","","","","<div style=""font-size:60px;""> </div>","null","FL","learning/Slide27.JPG","That was a bim.","","",""
"image-keyboard-response","87","179866","0.0-5.0-0.27","FL","uyc3tp4v50","1600","900","0","1","0","6017d6a23bdebea5e9062e9d","","null","","","","","","","learning/Slide28.JPG","null","","","","","",""
"html-keyboard-response","88","181031","0.0-5.0-1.27","FL","uyc3tp4v50","1600","900","0","1","0","6017d6a23bdebea5e9062e9d","","null","","","learningBlock1","","","","That was a dep.","null","","","","","",""
"html-keyboard-response","89","182035","0.0-5.0-2.27","FL","uyc3tp4v50","1600","900","0","1","0","6017d6a23bdebea5e9062e9d","","null","","","learningBlock1","","","","<div style=""font-size:60px;""> </div>","null","FL","learning/Slide28.JPG","That was a dep.","","",""
"image-keyboard-response","90","182211","0.0-5.0-0.28","FL","uyc3tp4v50","1600","900","0","1","0","6017d6a23bdebea5e9062e9d","","null","","","","","","","learning/Slide29.JPG","null","","","","","",""
"html-keyboard-response","91","183369","0.0-5.0-1.28","FL","uyc3tp4v50","1600","900","0","1","0","6017d6a23bdebea5e9062e9d","","null","","","learningBlock1","","","","That was a tob.","null","","","","","",""
"html-keyboard-response","92","184370","0.0-5.0-2.28","FL","uyc3tp4v50","1600","900","0","1","0","6017d6a23bdebea5e9062e9d","","null","","","learningBlock1","","","","<div style=""font-size:60px;""> </div>","null","FL","learning/Slide29.JPG","That was a tob.","","",""
"image-keyboard-response","93","184554","0.0-5.0-0.29","FL","uyc3tp4v50","1600","900","0","1","0","6017d6a23bdebea5e9062e9d","","null","","","","","","","learning/Slide30.JPG","null","","","","","",""
"html-keyboard-response","94","185714","0.0-5.0-1.29","FL","uyc3tp4v50","1600","900","0","1","0","6017d6a23bdebea5e9062e9d","","null","","","learningBlock1","","","","That was a dep.","null","","","","","",""
"html-keyboard-response","95","186717","0.0-5.0-2.29","FL","uyc3tp4v50","1600","900","0","1","0","6017d6a23bdebea5e9062e9d","","null","","","learningBlock1","","","","<div style=""font-size:60px;""> </div>","null","FL","learning/Slide30.JPG","That was a dep.","","",""
"image-keyboard-response","96","186906","0.0-5.0-0.30","FL","uyc3tp4v50","1600","900","0","1","0","6017d6a23bdebea5e9062e9d","","null","","","","","","","learning/Slide31.JPG","null","","","","","",""
"html-keyboard-response","97","188063","0.0-5.0-1.30","FL","uyc3tp4v50","1600","900","0","1","0","6017d6a23bdebea5e9062e9d","","null","","","learningBlock1","","","","That was a wug.","null","","","","","",""
"html-keyboard-response","98","189066","0.0-5.0-2.30","FL","uyc3tp4v50","1600","900","0","1","0","6017d6a23bdebea5e9062e9d","","null","","","learningBlock1","","","","<div style=""font-size:60px;""> </div>","null","FL","learning/Slide31.JPG","That was a wug.","","",""
"image-keyboard-response","99","189242","0.0-5.0-0.31","FL","uyc3tp4v50","1600","900","0","1","0","6017d6a23bdebea5e9062e9d","","null","","","","","","","learning/Slide32.JPG","null","","","","","",""
"html-keyboard-response","100","190400","0.0-5.0-1.31","FL","uyc3tp4v50","1600","900","0","1","0","6017d6a23bdebea5e9062e9d","","null","","","learningBlock1","","","","That was a tob.","null","","","","","",""
"html-keyboard-response","101","191419","0.0-5.0-2.31","FL","uyc3tp4v50","1600","900","0","1","0","6017d6a23bdebea5e9062e9d","","null","","","learningBlock1","","","","<div style=""font-size:60px;""> </div>","null","FL","learning/Slide32.JPG","That was a tob.","","",""
"image-keyboard-response","102","191610","0.0-5.0-0.32","FL","uyc3tp4v50","1600","900","0","1","0","6017d6a23bdebea5e9062e9d","","null","","","","","","","learning/Slide33.JPG","null","","","","","",""
"html-keyboard-response","103","192766","0.0-5.0-1.32","FL","uyc3tp4v50","1600","900","0","1","0","6017d6a23bdebea5e9062e9d","","null","","","learningBlock1","","","","That was a bim.","null","","","","","",""
"html-keyboard-response","104","193779","0.0-5.0-2.32","FL","uyc3tp4v50","1600","900","0","1","0","6017d6a23bdebea5e9062e9d","","null","","","learningBlock1","","","","<div style=""font-size:60px;""> </div>","null","FL","learning/Slide33.JPG","That was a bim.","","",""
"image-keyboard-response","105","193962","0.0-5.0-0.33","FL","uyc3tp4v50","1600","900","0","1","0","6017d6a23bdebea5e9062e9d","","null","","","","","","","learning/Slide34.JPG","null","","","","","",""
"html-keyboard-response","106","195125","0.0-5.0-1.33","FL","uyc3tp4v50","1600","900","0","1","0","6017d6a23bdebea5e9062e9d","","null","","","learningBlock1","","","","That was a tob.","null","","","","","",""
"html-keyboard-response","107","196129","0.0-5.0-2.33","FL","uyc3tp4v50","1600","900","0","1","0","6017d6a23bdebea5e9062e9d","","null","","","learningBlock1","","","","<div style=""font-size:60px;""> </div>","null","FL","learning/Slide34.JPG","That was a tob.","","",""
"image-keyboard-response","108","196319","0.0-5.0-0.34","FL","uyc3tp4v50","1600","900","0","1","0","6017d6a23bdebea5e9062e9d","","null","","","","","","","learning/Slide35.JPG","null","","","","","",""
"html-keyboard-response","109","197494","0.0-5.0-1.34","FL","uyc3tp4v50","1600","900","0","1","0","6017d6a23bdebea5e9062e9d","","null","","","learningBlock1","","","","That was a bim.","null","","","","","",""
"html-keyboard-response","110","198498","0.0-5.0-2.34","FL","uyc3tp4v50","1600","900","0","1","0","6017d6a23bdebea5e9062e9d","","null","","","learningBlock1","","","","<div style=""font-size:60px;""> </div>","null","FL","learning/Slide35.JPG","That was a bim.","","",""
"image-keyboard-response","111","198683","0.0-5.0-0.35","FL","uyc3tp4v50","1600","900","0","1","0","6017d6a23bdebea5e9062e9d","","null","","","","","","","learning/Slide36.JPG","null","","","","","",""
"html-keyboard-response","112","199844","0.0-5.0-1.35","FL","uyc3tp4v50","1600","900","0","1","0","6017d6a23bdebea5e9062e9d","","null","","","learningBlock1","","","","That was a dep.","null","","","","","",""
"html-keyboard-response","113","200857","0.0-5.0-2.35","FL","uyc3tp4v50","1600","900","0","1","0","6017d6a23bdebea5e9062e9d","","null","","","learningBlock1","","","","<div style=""font-size:60px;""> </div>","null","FL","learning/Slide36.JPG","That was a dep.","","",""
"image-keyboard-response","114","201035","0.0-5.0-0.36","FL","uyc3tp4v50","1600","900","0","1","0","6017d6a23bdebea5e9062e9d","","null","","","","","","","learning/Slide37.JPG","null","","","","","",""
"html-keyboard-response","115","202194","0.0-5.0-1.36","FL","uyc3tp4v50","1600","900","0","1","0","6017d6a23bdebea5e9062e9d","","null","","","learningBlock1","","","","That was a tob.","null","","","","","",""
"html-keyboard-response","116","203199","0.0-5.0-2.36","FL","uyc3tp4v50","1600","900","0","1","0","6017d6a23bdebea5e9062e9d","","null","","","learningBlock1","","","","<div style=""font-size:60px;""> </div>","null","FL","learning/Slide37.JPG","That was a tob.","","",""
"image-keyboard-response","117","203382","0.0-5.0-0.37","FL","uyc3tp4v50","1600","900","0","1","0","6017d6a23bdebea5e9062e9d","","null","","","","","","","learning/Slide38.JPG","null","","","","","",""
"html-keyboard-response","118","204541","0.0-5.0-1.37","FL","uyc3tp4v50","1600","900","0","1","0","6017d6a23bdebea5e9062e9d","","null","","","learningBlock1","","","","That was a wug.","null","","","","","",""
"html-keyboard-response","119","205545","0.0-5.0-2.37","FL","uyc3tp4v50","1600","900","0","1","0","6017d6a23bdebea5e9062e9d","","null","","","learningBlock1","","","","<div style=""font-size:60px;""> </div>","null","FL","learning/Slide38.JPG","That was a wug.","","",""
"image-keyboard-response","120","205723","0.0-5.0-0.38","FL","uyc3tp4v50","1600","900","0","1","0","6017d6a23bdebea5e9062e9d","","null","","","","","","","learning/Slide39.JPG","null","","","","","",""
"html-keyboard-response","121","206885","0.0-5.0-1.38","FL","uyc3tp4v50","1600","900","0","1","0","6017d6a23bdebea5e9062e9d","","null","","","learningBlock1","","","","That was a bim.","null","","","","","",""
"html-keyboard-response","122","207888","0.0-5.0-2.38","FL","uyc3tp4v50","1600","900","0","1","0","6017d6a23bdebea5e9062e9d","","null","","","learningBlock1","","","","<div style=""font-size:60px;""> </div>","null","FL","learning/Slide39.JPG","That was a bim.","","",""
"image-keyboard-response","123","208075","0.0-5.0-0.39","FL","uyc3tp4v50","1600","900","0","1","0","6017d6a23bdebea5e9062e9d","","null","","","","","","","learning/Slide40.JPG","null","","","","","",""
"html-keyboard-response","124","209250","0.0-5.0-1.39","FL","uyc3tp4v50","1600","900","0","1","0","6017d6a23bdebea5e9062e9d","","null","","","learningBlock1","","","","That was a tob.","null","","","","","",""
"html-keyboard-response","125","210258","0.0-5.0-2.39","FL","uyc3tp4v50","1600","900","0","1","0","6017d6a23bdebea5e9062e9d","","null","","","learningBlock1","","","","<div style=""font-size:60px;""> </div>","null","FL","learning/Slide40.JPG","That was a tob.","","",""
"image-keyboard-response","126","210444","0.0-5.0-0.40","FL","uyc3tp4v50","1600","900","0","1","0","6017d6a23bdebea5e9062e9d","","null","","","","","","","learning/Slide41.JPG","null","","","","","",""
"html-keyboard-response","127","211605","0.0-5.0-1.40","FL","uyc3tp4v50","1600","900","0","1","0","6017d6a23bdebea5e9062e9d","","null","","","learningBlock1","","","","That was a bim.","null","","","","","",""
"html-keyboard-response","128","212607","0.0-5.0-2.40","FL","uyc3tp4v50","1600","900","0","1","0","6017d6a23bdebea5e9062e9d","","null","","","learningBlock1","","","","<div style=""font-size:60px;""> </div>","null","FL","learning/Slide41.JPG","That was a bim.","","",""
"image-keyboard-response","129","212796","0.0-5.0-0.41","FL","uyc3tp4v50","1600","900","0","1","0","6017d6a23bdebea5e9062e9d","","null","","","","","","","learning/Slide42.JPG","null","","","","","",""
"html-keyboard-response","130","213954","0.0-5.0-1.41","FL","uyc3tp4v50","1600","900","0","1","0","6017d6a23bdebea5e9062e9d","","null","","","learningBlock1","","","","That was a dep.","null","","","","","",""
"html-keyboard-response","131","214955","0.0-5.0-2.41","FL","uyc3tp4v50","1600","900","0","1","0","6017d6a23bdebea5e9062e9d","","null","","","learningBlock1","","","","<div style=""font-size:60px;""> </div>","null","FL","learning/Slide42.JPG","That was a dep.","","",""
"image-keyboard-response","132","215131","0.0-5.0-0.42","FL","uyc3tp4v50","1600","900","0","1","0","6017d6a23bdebea5e9062e9d","","null","","","","","","","learning/Slide43.JPG","null","","","","","",""
"html-keyboard-response","133","216285","0.0-5.0-1.42","FL","uyc3tp4v50","1600","900","0","1","0","6017d6a23bdebea5e9062e9d","","null","","","learningBlock1","","","","That was a wug.","null","","","","","",""
"html-keyboard-response","134","217293","0.0-5.0-2.42","FL","uyc3tp4v50","1600","900","0","1","0","6017d6a23bdebea5e9062e9d","","null","","","learningBlock1","","","","<div style=""font-size:60px;""> </div>","null","FL","learning/Slide43.JPG","That was a wug.","","",""
"image-keyboard-response","135","217483","0.0-5.0-0.43","FL","uyc3tp4v50","1600","900","0","1","0","6017d6a23bdebea5e9062e9d","","null","","","","","","","learning/Slide44.JPG","null","","","","","",""
"html-keyboard-response","136","218651","0.0-5.0-1.43","FL","uyc3tp4v50","1600","900","0","1","0","6017d6a23bdebea5e9062e9d","","null","","","learningBlock1","","","","That was a bim.","null","","","","","",""
"html-keyboard-response","137","219654","0.0-5.0-2.43","FL","uyc3tp4v50","1600","900","0","1","0","6017d6a23bdebea5e9062e9d","","null","","","learningBlock1","","","","<div style=""font-size:60px;""> </div>","null","FL","learning/Slide44.JPG","That was a bim.","","",""
"image-keyboard-response","138","219836","0.0-5.0-0.44","FL","uyc3tp4v50","1600","900","0","1","0","6017d6a23bdebea5e9062e9d","","null","","","","","","","learning/Slide45.JPG","null","","","","","",""
"html-keyboard-response","139","221001","0.0-5.0-1.44","FL","uyc3tp4v50","1600","900","0","1","0","6017d6a23bdebea5e9062e9d","","null","","","learningBlock1","","","","That was a wug.","null","","","","","",""
"html-keyboard-response","140","222013","0.0-5.0-2.44","FL","uyc3tp4v50","1600","900","0","1","0","6017d6a23bdebea5e9062e9d","","null","","","learningBlock1","","","","<div style=""font-size:60px;""> </div>","null","FL","learning/Slide45.JPG","That was a wug.","","",""
"image-keyboard-response","141","222189","0.0-5.0-0.45","FL","uyc3tp4v50","1600","900","0","1","0","6017d6a23bdebea5e9062e9d","","null","","","","","","","learning/Slide46.JPG","null","","","","","",""
"html-keyboard-response","142","223364","0.0-5.0-1.45","FL","uyc3tp4v50","1600","900","0","1","0","6017d6a23bdebea5e9062e9d","","null","","","learningBlock1","","","","That was a dep.","null","","","","","",""
"html-keyboard-response","143","224367","0.0-5.0-2.45","FL","uyc3tp4v50","1600","900","0","1","0","6017d6a23bdebea5e9062e9d","","null","","","learningBlock1","","","","<div style=""font-size:60px;""> </div>","null","FL","learning/Slide46.JPG","That was a dep.","","",""
"image-keyboard-response","144","224556","0.0-5.0-0.46","FL","uyc3tp4v50","1600","900","0","1","0","6017d6a23bdebea5e9062e9d","","null","","","","","","","learning/Slide47.JPG","null","","","","","",""
"html-keyboard-response","145","225713","0.0-5.0-1.46","FL","uyc3tp4v50","1600","900","0","1","0","6017d6a23bdebea5e9062e9d","","null","","","learningBlock1","","","","That was a tob.","null","","","","","",""
"html-keyboard-response","146","226717","0.0-5.0-2.46","FL","uyc3tp4v50","1600","900","0","1","0","6017d6a23bdebea5e9062e9d","","null","","","learningBlock1","","","","<div style=""font-size:60px;""> </div>","null","FL","learning/Slide47.JPG","That was a tob.","","",""
"image-keyboard-response","147","226893","0.0-5.0-0.47","FL","uyc3tp4v50","1600","900","0","1","0","6017d6a23bdebea5e9062e9d","","null","","","","","","","learning/Slide48.JPG","null","","","","","",""
"html-keyboard-response","148","228073","0.0-5.0-1.47","FL","uyc3tp4v50","1600","900","0","1","0","6017d6a23bdebea5e9062e9d","","null","","","learningBlock1","","","","That was a bim.","null","","","","","",""
"html-keyboard-response","149","229076","0.0-5.0-2.47","FL","uyc3tp4v50","1600","900","0","1","0","6017d6a23bdebea5e9062e9d","","null","","","learningBlock1","","","","<div style=""font-size:60px;""> </div>","null","FL","learning/Slide48.JPG","That was a bim.","","",""
"image-keyboard-response","150","229266","0.0-5.0-0.48","FL","uyc3tp4v50","1600","900","0","1","0","6017d6a23bdebea5e9062e9d","","null","","","","","","","learning/Slide49.JPG","null","","","","","",""
"html-keyboard-response","151","230442","0.0-5.0-1.48","FL","uyc3tp4v50","1600","900","0","1","0","6017d6a23bdebea5e9062e9d","","null","","","learningBlock1","","","","That was a dep.","null","","","","","",""
"html-keyboard-response","152","231445","0.0-5.0-2.48","FL","uyc3tp4v50","1600","900","0","1","0","6017d6a23bdebea5e9062e9d","","null","","","learningBlock1","","","","<div style=""font-size:60px;""> </div>","null","FL","learning/Slide49.JPG","That was a dep.","","",""
"image-keyboard-response","153","231629","0.0-5.0-0.49","FL","uyc3tp4v50","1600","900","0","1","0","6017d6a23bdebea5e9062e9d","","null","","","","","","","learning/Slide50.JPG","null","","","","","",""
"html-keyboard-response","154","232791","0.0-5.0-1.49","FL","uyc3tp4v50","1600","900","0","1","0","6017d6a23bdebea5e9062e9d","","null","","","learningBlock1","","","","That was a tob.","null","","","","","",""
"html-keyboard-response","155","233795","0.0-5.0-2.49","FL","uyc3tp4v50","1600","900","0","1","0","6017d6a23bdebea5e9062e9d","","null","","","learningBlock1","","","","<div style=""font-size:60px;""> </div>","null","FL","learning/Slide50.JPG","That was a tob.","","",""
"image-keyboard-response","156","233982","0.0-5.0-0.50","FL","uyc3tp4v50","1600","900","0","1","0","6017d6a23bdebea5e9062e9d","","null","","","","","","","learning/Slide51.JPG","null","","","","","",""
"html-keyboard-response","157","235141","0.0-5.0-1.50","FL","uyc3tp4v50","1600","900","0","1","0","6017d6a23bdebea5e9062e9d","","null","","","learningBlock1","","","","That was a bim.","null","","","","","",""
"html-keyboard-response","158","236144","0.0-5.0-2.50","FL","uyc3tp4v50","1600","900","0","1","0","6017d6a23bdebea5e9062e9d","","null","","","learningBlock1","","","","<div style=""font-size:60px;""> </div>","null","FL","learning/Slide51.JPG","That was a bim.","","",""
"image-keyboard-response","159","236334","0.0-5.0-0.51","FL","uyc3tp4v50","1600","900","0","1","0","6017d6a23bdebea5e9062e9d","","null","","","","","","","learning/Slide52.JPG","null","","","","","",""
"html-keyboard-response","160","237488","0.0-5.0-1.51","FL","uyc3tp4v50","1600","900","0","1","0","6017d6a23bdebea5e9062e9d","","null","","","learningBlock1","","","","That was a wug.","null","","","","","",""
"html-keyboard-response","161","238492","0.0-5.0-2.51","FL","uyc3tp4v50","1600","900","0","1","0","6017d6a23bdebea5e9062e9d","","null","","","learningBlock1","","","","<div style=""font-size:60px;""> </div>","null","FL","learning/Slide52.JPG","That was a wug.","","",""
"image-keyboard-response","162","238669","0.0-5.0-0.52","FL","uyc3tp4v50","1600","900","0","1","0","6017d6a23bdebea5e9062e9d","","null","","","","","","","learning/Slide53.JPG","null","","","","","",""
"html-keyboard-response","163","239823","0.0-5.0-1.52","FL","uyc3tp4v50","1600","900","0","1","0","6017d6a23bdebea5e9062e9d","","null","","","learningBlock1","","","","That was a tob.","null","","","","","",""
"html-keyboard-response","164","240826","0.0-5.0-2.52","FL","uyc3tp4v50","1600","900","0","1","0","6017d6a23bdebea5e9062e9d","","null","","","learningBlock1","","","","<div style=""font-size:60px;""> </div>","null","FL","learning/Slide53.JPG","That was a tob.","","",""
"image-keyboard-response","165","241005","0.0-5.0-0.53","FL","uyc3tp4v50","1600","900","0","1","0","6017d6a23bdebea5e9062e9d","","null","","","","","","","learning/Slide54.JPG","null","","","","","",""
"html-keyboard-response","166","242169","0.0-5.0-1.53","FL","uyc3tp4v50","1600","900","0","1","0","6017d6a23bdebea5e9062e9d","","null","","","learningBlock1","","","","That was a dep.","null","","","","","",""
"html-keyboard-response","167","243185","0.0-5.0-2.53","FL","uyc3tp4v50","1600","900","0","1","0","6017d6a23bdebea5e9062e9d","","null","","","learningBlock1","","","","<div style=""font-size:60px;""> </div>","null","FL","learning/Slide54.JPG","That was a dep.","","",""
"image-keyboard-response","168","243373","0.0-5.0-0.54","FL","uyc3tp4v50","1600","900","0","1","0","6017d6a23bdebea5e9062e9d","","null","","","","","","","learning/Slide55.JPG","null","","","","","",""
"html-keyboard-response","169","244531","0.0-5.0-1.54","FL","uyc3tp4v50","1600","900","0","1","0","6017d6a23bdebea5e9062e9d","","null","","","learningBlock1","","","","That was a bim.","null","","","","","",""
"html-keyboard-response","170","245537","0.0-5.0-2.54","FL","uyc3tp4v50","1600","900","0","1","0","6017d6a23bdebea5e9062e9d","","null","","","learningBlock1","","","","<div style=""font-size:60px;""> </div>","null","FL","learning/Slide55.JPG","That was a bim.","","",""
"image-keyboard-response","171","245713","0.0-5.0-0.55","FL","uyc3tp4v50","1600","900","0","1","0","6017d6a23bdebea5e9062e9d","","null","","","","","","","learning/Slide56.JPG","null","","","","","",""
"html-keyboard-response","172","246867","0.0-5.0-1.55","FL","uyc3tp4v50","1600","900","0","1","0","6017d6a23bdebea5e9062e9d","","null","","","learningBlock1","","","","That was a tob.","null","","","","","",""
"html-keyboard-response","173","247876","0.0-5.0-2.55","FL","uyc3tp4v50","1600","900","0","1","0","6017d6a23bdebea5e9062e9d","","null","","","learningBlock1","","","","<div style=""font-size:60px;""> </div>","null","FL","learning/Slide56.JPG","That was a tob.","","",""
"image-keyboard-response","174","248061","0.0-5.0-0.56","FL","uyc3tp4v50","1600","900","0","1","0","6017d6a23bdebea5e9062e9d","","null","","","","","","","learning/Slide57.JPG","null","","","","","",""
"html-keyboard-response","175","249212","0.0-5.0-1.56","FL","uyc3tp4v50","1600","900","0","1","0","6017d6a23bdebea5e9062e9d","","null","","","learningBlock1","","","","That was a dep.","null","","","","","",""
"html-keyboard-response","176","250213","0.0-5.0-2.56","FL","uyc3tp4v50","1600","900","0","1","0","6017d6a23bdebea5e9062e9d","","null","","","learningBlock1","","","","<div style=""font-size:60px;""> </div>","null","FL","learning/Slide57.JPG","That was a dep.","","",""
"image-keyboard-response","177","250397","0.0-5.0-0.57","FL","uyc3tp4v50","1600","900","0","1","0","6017d6a23bdebea5e9062e9d","","null","","","","","","","learning/Slide58.JPG","null","","","","","",""
"html-keyboard-response","178","251551","0.0-5.0-1.57","FL","uyc3tp4v50","1600","900","0","1","0","6017d6a23bdebea5e9062e9d","","null","","","learningBlock1","","","","That was a wug.","null","","","","","",""
"html-keyboard-response","179","252561","0.0-5.0-2.57","FL","uyc3tp4v50","1600","900","0","1","0","6017d6a23bdebea5e9062e9d","","null","","","learningBlock1","","","","<div style=""font-size:60px;""> </div>","null","FL","learning/Slide58.JPG","That was a wug.","","",""
"image-keyboard-response","180","252737","0.0-5.0-0.58","FL","uyc3tp4v50","1600","900","0","1","0","6017d6a23bdebea5e9062e9d","","null","","","","","","","learning/Slide59.JPG","null","","","","","",""
"html-keyboard-response","181","253892","0.0-5.0-1.58","FL","uyc3tp4v50","1600","900","0","1","0","6017d6a23bdebea5e9062e9d","","null","","","learningBlock1","","","","That was a dep.","null","","","","","",""
"html-keyboard-response","182","254893","0.0-5.0-2.58","FL","uyc3tp4v50","1600","900","0","1","0","6017d6a23bdebea5e9062e9d","","null","","","learningBlock1","","","","<div style=""font-size:60px;""> </div>","null","FL","learning/Slide59.JPG","That was a dep.","","",""
"image-keyboard-response","183","255084","0.0-5.0-0.59","FL","uyc3tp4v50","1600","900","0","1","0","6017d6a23bdebea5e9062e9d","","null","","","","","","","learning/Slide60.JPG","null","","","","","",""
"html-keyboard-response","184","256248","0.0-5.0-1.59","FL","uyc3tp4v50","1600","900","0","1","0","6017d6a23bdebea5e9062e9d","","null","","","learningBlock1","","","","That was a wug.","null","","","","","",""
"html-keyboard-response","185","257251","0.0-5.0-2.59","FL","uyc3tp4v50","1600","900","0","1","0","6017d6a23bdebea5e9062e9d","","null","","","learningBlock1","","","","<div style=""font-size:60px;""> </div>","null","FL","learning/Slide60.JPG","That was a wug.","","",""
"image-keyboard-response","186","257436","0.0-5.0-0.60","FL","uyc3tp4v50","1600","900","0","1","0","6017d6a23bdebea5e9062e9d","","null","","","","","","","learning/Slide61.JPG","null","","","","","",""
"html-keyboard-response","187","258597","0.0-5.0-1.60","FL","uyc3tp4v50","1600","900","0","1","0","6017d6a23bdebea5e9062e9d","","null","","","learningBlock1","","","","That was a bim.","null","","","","","",""
"html-keyboard-response","188","259601","0.0-5.0-2.60","FL","uyc3tp4v50","1600","900","0","1","0","6017d6a23bdebea5e9062e9d","","null","","","learningBlock1","","","","<div style=""font-size:60px;""> </div>","null","FL","learning/Slide61.JPG","That was a bim.","","",""
"image-keyboard-response","189","259788","0.0-5.0-0.61","FL","uyc3tp4v50","1600","900","0","1","0","6017d6a23bdebea5e9062e9d","","null","","","","","","","learning/Slide62.JPG","null","","","","","",""
"html-keyboard-response","190","260947","0.0-5.0-1.61","FL","uyc3tp4v50","1600","900","0","1","0","6017d6a23bdebea5e9062e9d","","null","","","learningBlock1","","","","That was a dep.","null","","","","","",""
"html-keyboard-response","191","261950","0.0-5.0-2.61","FL","uyc3tp4v50","1600","900","0","1","0","6017d6a23bdebea5e9062e9d","","null","","","learningBlock1","","","","<div style=""font-size:60px;""> </div>","null","FL","learning/Slide62.JPG","That was a dep.","","",""
"image-keyboard-response","192","262141","0.0-5.0-0.62","FL","uyc3tp4v50","1600","900","0","1","0","6017d6a23bdebea5e9062e9d","","null","","","","","","","learning/Slide63.JPG","null","","","","","",""
"html-keyboard-response","193","263310","0.0-5.0-1.62","FL","uyc3tp4v50","1600","900","0","1","0","6017d6a23bdebea5e9062e9d","","null","","","learningBlock1","","","","That was a bim.","null","","","","","",""
"html-keyboard-response","194","264313","0.0-5.0-2.62","FL","uyc3tp4v50","1600","900","0","1","0","6017d6a23bdebea5e9062e9d","","null","","","learningBlock1","","","","<div style=""font-size:60px;""> </div>","null","FL","learning/Slide63.JPG","That was a bim.","","",""
"image-keyboard-response","195","264492","0.0-5.0-0.63","FL","uyc3tp4v50","1600","900","0","1","0","6017d6a23bdebea5e9062e9d","","null","","","","","","","learning/Slide64.JPG","null","","","","","",""
"html-keyboard-response","196","265660","0.0-5.0-1.63","FL","uyc3tp4v50","1600","900","0","1","0","6017d6a23bdebea5e9062e9d","","null","","","learningBlock1","","","","That was a tob.","null","","","","","",""
"html-keyboard-response","197","266664","0.0-5.0-2.63","FL","uyc3tp4v50","1600","900","0","1","0","6017d6a23bdebea5e9062e9d","","null","","","learningBlock1","","","","<div style=""font-size:60px;""> </div>","null","FL","learning/Slide64.JPG","That was a tob.","","",""
"image-keyboard-response","198","266844","0.0-5.0-0.64","FL","uyc3tp4v50","1600","900","0","1","0","6017d6a23bdebea5e9062e9d","","null","","","","","","","learning/Slide65.JPG","null","","","","","",""
"html-keyboard-response","199","268010","0.0-5.0-1.64","FL","uyc3tp4v50","1600","900","0","1","0","6017d6a23bdebea5e9062e9d","","null","","","learningBlock1","","","","That was a wug.","null","","","","","",""
"html-keyboard-response","200","269017","0.0-5.0-2.64","FL","uyc3tp4v50","1600","900","0","1","0","6017d6a23bdebea5e9062e9d","","null","","","learningBlock1","","","","<div style=""font-size:60px;""> </div>","null","FL","learning/Slide65.JPG","That was a wug.","","",""
"image-keyboard-response","201","269198","0.0-5.0-0.65","FL","uyc3tp4v50","1600","900","0","1","0","6017d6a23bdebea5e9062e9d","","null","","","","","","","learning/Slide66.JPG","null","","","","","",""
"html-keyboard-response","202","270372","0.0-5.0-1.65","FL","uyc3tp4v50","1600","900","0","1","0","6017d6a23bdebea5e9062e9d","","null","","","learningBlock1","","","","That was a dep.","null","","","","","",""
"html-keyboard-response","203","271376","0.0-5.0-2.65","FL","uyc3tp4v50","1600","900","0","1","0","6017d6a23bdebea5e9062e9d","","null","","","learningBlock1","","","","<div style=""font-size:60px;""> </div>","null","FL","learning/Slide66.JPG","That was a dep.","","",""
"image-keyboard-response","204","271565","0.0-5.0-0.66","FL","uyc3tp4v50","1600","900","0","1","0","6017d6a23bdebea5e9062e9d","","null","","","","","","","learning/Slide67.JPG","null","","","","","",""
"html-keyboard-response","205","272722","0.0-5.0-1.66","FL","uyc3tp4v50","1600","900","0","1","0","6017d6a23bdebea5e9062e9d","","null","","","learningBlock1","","","","That was a tob.","null","","","","","",""
"html-keyboard-response","206","273729","0.0-5.0-2.66","FL","uyc3tp4v50","1600","900","0","1","0","6017d6a23bdebea5e9062e9d","","null","","","learningBlock1","","","","<div style=""font-size:60px;""> </div>","null","FL","learning/Slide67.JPG","That was a tob.","","",""
"image-keyboard-response","207","273918","0.0-5.0-0.67","FL","uyc3tp4v50","1600","900","0","1","0","6017d6a23bdebea5e9062e9d","","null","","","","","","","learning/Slide68.JPG","null","","","","","",""
"html-keyboard-response","208","275073","0.0-5.0-1.67","FL","uyc3tp4v50","1600","900","0","1","0","6017d6a23bdebea5e9062e9d","","null","","","learningBlock1","","","","That was a wug.","null","","","","","",""
"html-keyboard-response","209","276076","0.0-5.0-2.67","FL","uyc3tp4v50","1600","900","0","1","0","6017d6a23bdebea5e9062e9d","","null","","","learningBlock1","","","","<div style=""font-size:60px;""> </div>","null","FL","learning/Slide68.JPG","That was a wug.","","",""
"image-keyboard-response","210","276252","0.0-5.0-0.68","FL","uyc3tp4v50","1600","900","0","1","0","6017d6a23bdebea5e9062e9d","","null","","","","","","","learning/Slide69.JPG","null","","","","","",""
"html-keyboard-response","211","277404","0.0-5.0-1.68","FL","uyc3tp4v50","1600","900","0","1","0","6017d6a23bdebea5e9062e9d","","null","","","learningBlock1","","","","That was a tob.","null","","","","","",""
"html-keyboard-response","212","278407","0.0-5.0-2.68","FL","uyc3tp4v50","1600","900","0","1","0","6017d6a23bdebea5e9062e9d","","null","","","learningBlock1","","","","<div style=""font-size:60px;""> </div>","null","FL","learning/Slide69.JPG","That was a tob.","","",""
"image-keyboard-response","213","278588","0.0-5.0-0.69","FL","uyc3tp4v50","1600","900","0","1","0","6017d6a23bdebea5e9062e9d","","null","","","","","","","learning/Slide70.JPG","null","","","","","",""
"html-keyboard-response","214","279754","0.0-5.0-1.69","FL","uyc3tp4v50","1600","900","0","1","0","6017d6a23bdebea5e9062e9d","","null","","","learningBlock1","","","","That was a dep.","null","","","","","",""
"html-keyboard-response","215","280755","0.0-5.0-2.69","FL","uyc3tp4v50","1600","900","0","1","0","6017d6a23bdebea5e9062e9d","","null","","","learningBlock1","","","","<div style=""font-size:60px;""> </div>","null","FL","learning/Slide70.JPG","That was a dep.","","",""
"image-keyboard-response","216","280940","0.0-5.0-0.70","FL","uyc3tp4v50","1600","900","0","1","0","6017d6a23bdebea5e9062e9d","","null","","","","","","","learning/Slide71.JPG","null","","","","","",""
"html-keyboard-response","217","282104","0.0-5.0-1.70","FL","uyc3tp4v50","1600","900","0","1","0","6017d6a23bdebea5e9062e9d","","null","","","learningBlock1","","","","That was a wug.","null","","","","","",""
"html-keyboard-response","218","283119","0.0-5.0-2.70","FL","uyc3tp4v50","1600","900","0","1","0","6017d6a23bdebea5e9062e9d","","null","","","learningBlock1","","","","<div style=""font-size:60px;""> </div>","null","FL","learning/Slide71.JPG","That was a wug.","","",""
"image-keyboard-response","219","283309","0.0-5.0-0.71","FL","uyc3tp4v50","1600","900","0","1","0","6017d6a23bdebea5e9062e9d","","null","","","","","","","learning/Slide72.JPG","null","","","","","",""
"html-keyboard-response","220","284467","0.0-5.0-1.71","FL","uyc3tp4v50","1600","900","0","1","0","6017d6a23bdebea5e9062e9d","","null","","","learningBlock1","","","","That was a bim.","null","","","","","",""
"html-keyboard-response","221","285470","0.0-5.0-2.71","FL","uyc3tp4v50","1600","900","0","1","0","6017d6a23bdebea5e9062e9d","","null","","","learningBlock1","","","","<div style=""font-size:60px;""> </div>","null","FL","learning/Slide72.JPG","That was a bim.","","",""
"image-keyboard-response","222","285662","0.0-5.0-0.72","FL","uyc3tp4v50","1600","900","0","1","0","6017d6a23bdebea5e9062e9d","","null","","","","","","","learning/Slide73.JPG","null","","","","","",""
"html-keyboard-response","223","286816","0.0-5.0-1.72","FL","uyc3tp4v50","1600","900","0","1","0","6017d6a23bdebea5e9062e9d","","null","","","learningBlock1","","","","That was a wug.","null","","","","","",""
"html-keyboard-response","224","287819","0.0-5.0-2.72","FL","uyc3tp4v50","1600","900","0","1","0","6017d6a23bdebea5e9062e9d","","null","","","learningBlock1","","","","<div style=""font-size:60px;""> </div>","null","FL","learning/Slide73.JPG","That was a wug.","","",""
"image-keyboard-response","225","287997","0.0-5.0-0.73","FL","uyc3tp4v50","1600","900","0","1","0","6017d6a23bdebea5e9062e9d","","null","","","","","","","learning/Slide74.JPG","null","","","","","",""
"html-keyboard-response","226","289151","0.0-5.0-1.73","FL","uyc3tp4v50","1600","900","0","1","0","6017d6a23bdebea5e9062e9d","","null","","","learningBlock1","","","","That was a dep.","null","","","","","",""
"html-keyboard-response","227","290155","0.0-5.0-2.73","FL","uyc3tp4v50","1600","900","0","1","0","6017d6a23bdebea5e9062e9d","","null","","","learningBlock1","","","","<div style=""font-size:60px;""> </div>","null","FL","learning/Slide74.JPG","That was a dep.","","",""
"image-keyboard-response","228","290342","0.0-5.0-0.74","FL","uyc3tp4v50","1600","900","0","1","0","6017d6a23bdebea5e9062e9d","","null","","","","","","","learning/Slide75.JPG","null","","","","","",""
"html-keyboard-response","229","291513","0.0-5.0-1.74","FL","uyc3tp4v50","1600","900","0","1","0","6017d6a23bdebea5e9062e9d","","null","","","learningBlock1","","","","That was a tob.","null","","","","","",""
"html-keyboard-response","230","292516","0.0-5.0-2.74","FL","uyc3tp4v50","1600","900","0","1","0","6017d6a23bdebea5e9062e9d","","null","","","learningBlock1","","","","<div style=""font-size:60px;""> </div>","null","FL","learning/Slide75.JPG","That was a tob.","","",""
"image-keyboard-response","231","292701","0.0-5.0-0.75","FL","uyc3tp4v50","1600","900","0","1","0","6017d6a23bdebea5e9062e9d","","null","","","","","","","learning/Slide76.JPG","null","","","","","",""
"html-keyboard-response","232","293863","0.0-5.0-1.75","FL","uyc3tp4v50","1600","900","0","1","0","6017d6a23bdebea5e9062e9d","","null","","","learningBlock1","","","","That was a bim.","null","","","","","",""
"html-keyboard-response","233","294867","0.0-5.0-2.75","FL","uyc3tp4v50","1600","900","0","1","0","6017d6a23bdebea5e9062e9d","","null","","","learningBlock1","","","","<div style=""font-size:60px;""> </div>","null","FL","learning/Slide76.JPG","That was a bim.","","",""
"image-keyboard-response","234","295053","0.0-5.0-0.76","FL","uyc3tp4v50","1600","900","0","1","0","6017d6a23bdebea5e9062e9d","","null","","","","","","","learning/Slide77.JPG","null","","","","","",""
"html-keyboard-response","235","296212","0.0-5.0-1.76","FL","uyc3tp4v50","1600","900","0","1","0","6017d6a23bdebea5e9062e9d","","null","","","learningBlock1","","","","That was a tob.","null","","","","","",""
"html-keyboard-response","236","297216","0.0-5.0-2.76","FL","uyc3tp4v50","1600","900","0","1","0","6017d6a23bdebea5e9062e9d","","null","","","learningBlock1","","","","<div style=""font-size:60px;""> </div>","null","FL","learning/Slide77.JPG","That was a tob.","","",""
"image-keyboard-response","237","297391","0.0-5.0-0.77","FL","uyc3tp4v50","1600","900","0","1","0","6017d6a23bdebea5e9062e9d","","null","","","","","","","learning/Slide78.JPG","null","","","","","",""
"html-keyboard-response","238","298555","0.0-5.0-1.77","FL","uyc3tp4v50","1600","900","0","1","0","6017d6a23bdebea5e9062e9d","","null","","","learningBlock1","","","","That was a wug.","null","","","","","",""
"html-keyboard-response","239","299563","0.0-5.0-2.77","FL","uyc3tp4v50","1600","900","0","1","0","6017d6a23bdebea5e9062e9d","","null","","","learningBlock1","","","","<div style=""font-size:60px;""> </div>","null","FL","learning/Slide78.JPG","That was a wug.","","",""
"image-keyboard-response","240","299741","0.0-5.0-0.78","FL","uyc3tp4v50","1600","900","0","1","0","6017d6a23bdebea5e9062e9d","","null","","","","","","","learning/Slide79.JPG","null","","","","","",""
"html-keyboard-response","241","300894","0.0-5.0-1.78","FL","uyc3tp4v50","1600","900","0","1","0","6017d6a23bdebea5e9062e9d","","null","","","learningBlock1","","","","That was a bim.","null","","","","","",""
"html-keyboard-response","242","301898","0.0-5.0-2.78","FL","uyc3tp4v50","1600","900","0","1","0","6017d6a23bdebea5e9062e9d","","null","","","learningBlock1","","","","<div style=""font-size:60px;""> </div>","null","FL","learning/Slide79.JPG","That was a bim.","","",""
"image-keyboard-response","243","302077","0.0-5.0-0.79","FL","uyc3tp4v50","1600","900","0","1","0","6017d6a23bdebea5e9062e9d","","null","","","","","","","learning/Slide80.JPG","null","","","","","",""
"html-keyboard-response","244","303232","0.0-5.0-1.79","FL","uyc3tp4v50","1600","900","0","1","0","6017d6a23bdebea5e9062e9d","","null","","","learningBlock1","","","","That was a tob.","null","","","","","",""
"html-keyboard-response","245","304247","0.0-5.0-2.79","FL","uyc3tp4v50","1600","900","0","1","0","6017d6a23bdebea5e9062e9d","","null","","","learningBlock1","","","","<div style=""font-size:60px;""> </div>","null","FL","learning/Slide80.JPG","That was a tob.","","",""
"instructions","246","308076","0.0-6.0","FL","uyc3tp4v50","1600","900","0","1","0","6017d6a23bdebea5e9062e9d","","NA","","[{""page_index"":0,""viewing_time"":3828.34500001627}]","instructions","","","","","","","","","","",""
"image-keyboard-response","247","308260","0.0-7.0-0.0","FL","uyc3tp4v50","1600","900","0","1","0","6017d6a23bdebea5e9062e9d","","null","","","","","","","learning/Slide81.JPG","null","","","","","",""
"html-keyboard-response","248","309432","0.0-7.0-1.0","FL","uyc3tp4v50","1600","900","0","1","0","6017d6a23bdebea5e9062e9d","","null","","","learningBlock2","","","","That was a wug.","null","","","","","",""
"html-keyboard-response","249","310435","0.0-7.0-2.0","FL","uyc3tp4v50","1600","900","0","1","0","6017d6a23bdebea5e9062e9d","","null","","","learningBlock2","","","","<div style=""font-size:60px;""> </div>","null","FL","learning/Slide81.JPG","That was a wug.","","",""
"image-keyboard-response","250","310617","0.0-7.0-0.1","FL","uyc3tp4v50","1600","900","0","1","0","6017d6a23bdebea5e9062e9d","","null","","","","","","","learning/Slide82.JPG","null","","","","","",""
"html-keyboard-response","251","311781","0.0-7.0-1.1","FL","uyc3tp4v50","1600","900","0","1","0","6017d6a23bdebea5e9062e9d","","null","","","learningBlock2","","","","That was a bim.","null","","","","","",""
"html-keyboard-response","252","312794","0.0-7.0-2.1","FL","uyc3tp4v50","1600","900","0","1","0","6017d6a23bdebea5e9062e9d","","null","","","learningBlock2","","","","<div style=""font-size:60px;""> </div>","null","FL","learning/Slide82.JPG","That was a bim.","","",""
"image-keyboard-response","253","312971","0.0-7.0-0.2","FL","uyc3tp4v50","1600","900","0","1","0","6017d6a23bdebea5e9062e9d","","null","","","","","","","learning/Slide83.JPG","null","","","","","",""
"html-keyboard-response","254","314125","0.0-7.0-1.2","FL","uyc3tp4v50","1600","900","0","1","0","6017d6a23bdebea5e9062e9d","","null","","","learningBlock2","","","","That was a wug.","null","","","","","",""
"html-keyboard-response","255","315128","0.0-7.0-2.2","FL","uyc3tp4v50","1600","900","0","1","0","6017d6a23bdebea5e9062e9d","","null","","","learningBlock2","","","","<div style=""font-size:60px;""> </div>","null","FL","learning/Slide83.JPG","That was a wug.","","",""
"image-keyboard-response","256","315320","0.0-7.0-0.3","FL","uyc3tp4v50","1600","900","0","1","0","6017d6a23bdebea5e9062e9d","","null","","","","","","","learning/Slide84.JPG","null","","","","","",""
"html-keyboard-response","257","316478","0.0-7.0-1.3","FL","uyc3tp4v50","1600","900","0","1","0","6017d6a23bdebea5e9062e9d","","null","","","learningBlock2","","","","That was a dep.","null","","","","","",""
"html-keyboard-response","258","317482","0.0-7.0-2.3","FL","uyc3tp4v50","1600","900","0","1","0","6017d6a23bdebea5e9062e9d","","null","","","learningBlock2","","","","<div style=""font-size:60px;""> </div>","null","FL","learning/Slide84.JPG","That was a dep.","","",""
"image-keyboard-response","259","317673","0.0-7.0-0.4","FL","uyc3tp4v50","1600","900","0","1","0","6017d6a23bdebea5e9062e9d","","null","","","","","","","learning/Slide85.JPG","null","","","","","",""
"html-keyboard-response","260","318829","0.0-7.0-1.4","FL","uyc3tp4v50","1600","900","0","1","0","6017d6a23bdebea5e9062e9d","","null","","","learningBlock2","","","","That was a bim.","null","","","","","",""
"html-keyboard-response","261","319842","0.0-7.0-2.4","FL","uyc3tp4v50","1600","900","0","1","0","6017d6a23bdebea5e9062e9d","","null","","","learningBlock2","","","","<div style=""font-size:60px;""> </div>","null","FL","learning/Slide85.JPG","That was a bim.","","",""
"image-keyboard-response","262","320025","0.0-7.0-0.5","FL","uyc3tp4v50","1600","900","0","1","0","6017d6a23bdebea5e9062e9d","","null","","","","","","","learning/Slide86.JPG","null","","","","","",""
"html-keyboard-response","263","321187","0.0-7.0-1.5","FL","uyc3tp4v50","1600","900","0","1","0","6017d6a23bdebea5e9062e9d","","null","","","learningBlock2","","","","That was a tob.","null","","","","","",""
"html-keyboard-response","264","322193","0.0-7.0-2.5","FL","uyc3tp4v50","1600","900","0","1","0","6017d6a23bdebea5e9062e9d","","null","","","learningBlock2","","","","<div style=""font-size:60px;""> </div>","null","FL","learning/Slide86.JPG","That was a tob.","","",""
"image-keyboard-response","265","322382","0.0-7.0-0.6","FL","uyc3tp4v50","1600","900","0","1","0","6017d6a23bdebea5e9062e9d","","null","","","","","","","learning/Slide87.JPG","null","","","","","",""
"html-keyboard-response","266","323558","0.0-7.0-1.6","FL","uyc3tp4v50","1600","900","0","1","0","6017d6a23bdebea5e9062e9d","","null","","","learningBlock2","","","","That was a wug.","null","","","","","",""
"html-keyboard-response","267","324569","0.0-7.0-2.6","FL","uyc3tp4v50","1600","900","0","1","0","6017d6a23bdebea5e9062e9d","","null","","","learningBlock2","","","","<div style=""font-size:60px;""> </div>","null","FL","learning/Slide87.JPG","That was a wug.","","",""
"image-keyboard-response","268","324746","0.0-7.0-0.7","FL","uyc3tp4v50","1600","900","0","1","0","6017d6a23bdebea5e9062e9d","","null","","","","","","","learning/Slide88.JPG","null","","","","","",""
"html-keyboard-response","269","325905","0.0-7.0-1.7","FL","uyc3tp4v50","1600","900","0","1","0","6017d6a23bdebea5e9062e9d","","null","","","learningBlock2","","","","That was a tob.","null","","","","","",""
"html-keyboard-response","270","326919","0.0-7.0-2.7","FL","uyc3tp4v50","1600","900","0","1","0","6017d6a23bdebea5e9062e9d","","null","","","learningBlock2","","","","<div style=""font-size:60px;""> </div>","null","FL","learning/Slide88.JPG","That was a tob.","","",""
"image-keyboard-response","271","327099","0.0-7.0-0.8","FL","uyc3tp4v50","1600","900","0","1","0","6017d6a23bdebea5e9062e9d","","null","","","","","","","learning/Slide89.JPG","null","","","","","",""
"html-keyboard-response","272","328269","0.0-7.0-1.8","FL","uyc3tp4v50","1600","900","0","1","0","6017d6a23bdebea5e9062e9d","","null","","","learningBlock2","","","","That was a bim.","null","","","","","",""
"html-keyboard-response","273","329277","0.0-7.0-2.8","FL","uyc3tp4v50","1600","900","0","1","0","6017d6a23bdebea5e9062e9d","","null","","","learningBlock2","","","","<div style=""font-size:60px;""> </div>","null","FL","learning/Slide89.JPG","That was a bim.","","",""
"image-keyboard-response","274","329467","0.0-7.0-0.9","FL","uyc3tp4v50","1600","900","0","1","0","6017d6a23bdebea5e9062e9d","","null","","","","","","","learning/Slide90.JPG","null","","","","","",""
"html-keyboard-response","275","330620","0.0-7.0-1.9","FL","uyc3tp4v50","1600","900","0","1","0","6017d6a23bdebea5e9062e9d","","null","","","learningBlock2","","","","That was a dep.","null","","","","","",""
"html-keyboard-response","276","331623","0.0-7.0-2.9","FL","uyc3tp4v50","1600","900","0","1","0","6017d6a23bdebea5e9062e9d","","null","","","learningBlock2","","","","<div style=""font-size:60px;""> </div>","null","FL","learning/Slide90.JPG","That was a dep.","","",""
"image-keyboard-response","277","331804","0.0-7.0-0.10","FL","uyc3tp4v50","1600","900","0","1","0","6017d6a23bdebea5e9062e9d","","null","","","","","","","learning/Slide91.JPG","null","","","","","",""
"html-keyboard-response","278","332979","0.0-7.0-1.10","FL","uyc3tp4v50","1600","900","0","1","0","6017d6a23bdebea5e9062e9d","","null","","","learningBlock2","","","","That was a wug.","null","","","","","",""
"html-keyboard-response","279","333983","0.0-7.0-2.10","FL","uyc3tp4v50","1600","900","0","1","0","6017d6a23bdebea5e9062e9d","","null","","","learningBlock2","","","","<div style=""font-size:60px;""> </div>","null","FL","learning/Slide91.JPG","That was a wug.","","",""
"image-keyboard-response","280","334158","0.0-7.0-0.11","FL","uyc3tp4v50","1600","900","0","1","0","6017d6a23bdebea5e9062e9d","","null","","","","","","","learning/Slide92.JPG","null","","","","","",""
"html-keyboard-response","281","335332","0.0-7.0-1.11","FL","uyc3tp4v50","1600","900","0","1","0","6017d6a23bdebea5e9062e9d","","null","","","learningBlock2","","","","That was a tob.","null","","","","","",""
"html-keyboard-response","282","336336","0.0-7.0-2.11","FL","uyc3tp4v50","1600","900","0","1","0","6017d6a23bdebea5e9062e9d","","null","","","learningBlock2","","","","<div style=""font-size:60px;""> </div>","null","FL","learning/Slide92.JPG","That was a tob.","","",""
"image-keyboard-response","283","336524","0.0-7.0-0.12","FL","uyc3tp4v50","1600","900","0","1","0","6017d6a23bdebea5e9062e9d","","null","","","","","","","learning/Slide93.JPG","null","","","","","",""
"html-keyboard-response","284","337681","0.0-7.0-1.12","FL","uyc3tp4v50","1600","900","0","1","0","6017d6a23bdebea5e9062e9d","","null","","","learningBlock2","","","","That was a bim.","null","","","","","",""
"html-keyboard-response","285","338685","0.0-7.0-2.12","FL","uyc3tp4v50","1600","900","0","1","0","6017d6a23bdebea5e9062e9d","","null","","","learningBlock2","","","","<div style=""font-size:60px;""> </div>","null","FL","learning/Slide93.JPG","That was a bim.","","",""
"image-keyboard-response","286","338876","0.0-7.0-0.13","FL","uyc3tp4v50","1600","900","0","1","0","6017d6a23bdebea5e9062e9d","","null","","","","","","","learning/Slide94.JPG","null","","","","","",""
"html-keyboard-response","287","340031","0.0-7.0-1.13","FL","uyc3tp4v50","1600","900","0","1","0","6017d6a23bdebea5e9062e9d","","null","","","learningBlock2","","","","That was a tob.","null","","","","","",""
"html-keyboard-response","288","341035","0.0-7.0-2.13","FL","uyc3tp4v50","1600","900","0","1","0","6017d6a23bdebea5e9062e9d","","null","","","learningBlock2","","","","<div style=""font-size:60px;""> </div>","null","FL","learning/Slide94.JPG","That was a tob.","","",""
"image-keyboard-response","289","341219","0.0-7.0-0.14","FL","uyc3tp4v50","1600","900","0","1","0","6017d6a23bdebea5e9062e9d","","null","","","","","","","learning/Slide95.JPG","null","","","","","",""
"html-keyboard-response","290","342394","0.0-7.0-1.14","FL","uyc3tp4v50","1600","900","0","1","0","6017d6a23bdebea5e9062e9d","","null","","","learningBlock2","","","","That was a wug.","null","","","","","",""
"html-keyboard-response","291","343397","0.0-7.0-2.14","FL","uyc3tp4v50","1600","900","0","1","0","6017d6a23bdebea5e9062e9d","","null","","","learningBlock2","","","","<div style=""font-size:60px;""> </div>","null","FL","learning/Slide95.JPG","That was a wug.","","",""
"image-keyboard-response","292","343580","0.0-7.0-0.15","FL","uyc3tp4v50","1600","900","0","1","0","6017d6a23bdebea5e9062e9d","","null","","","","","","","learning/Slide96.JPG","null","","","","","",""
"html-keyboard-response","293","344745","0.0-7.0-1.15","FL","uyc3tp4v50","1600","900","0","1","0","6017d6a23bdebea5e9062e9d","","null","","","learningBlock2","","","","That was a tob.","null","","","","","",""
"html-keyboard-response","294","345747","0.0-7.0-2.15","FL","uyc3tp4v50","1600","900","0","1","0","6017d6a23bdebea5e9062e9d","","null","","","learningBlock2","","","","<div style=""font-size:60px;""> </div>","null","FL","learning/Slide96.JPG","That was a tob.","","",""
"image-keyboard-response","295","345932","0.0-7.0-0.16","FL","uyc3tp4v50","1600","900","0","1","0","6017d6a23bdebea5e9062e9d","","null","","","","","","","learning/Slide97.JPG","null","","","","","",""
"html-keyboard-response","296","347094","0.0-7.0-1.16","FL","uyc3tp4v50","1600","900","0","1","0","6017d6a23bdebea5e9062e9d","","null","","","learningBlock2","","","","That was a dep.","null","","","","","",""
"html-keyboard-response","297","348107","0.0-7.0-2.16","FL","uyc3tp4v50","1600","900","0","1","0","6017d6a23bdebea5e9062e9d","","null","","","learningBlock2","","","","<div style=""font-size:60px;""> </div>","null","FL","learning/Slide97.JPG","That was a dep.","","",""
"image-keyboard-response","298","348298","0.0-7.0-0.17","FL","uyc3tp4v50","1600","900","0","1","0","6017d6a23bdebea5e9062e9d","","null","","","","","","","learning/Slide98.JPG","null","","","","","",""
"html-keyboard-response","299","349453","0.0-7.0-1.17","FL","uyc3tp4v50","1600","900","0","1","0","6017d6a23bdebea5e9062e9d","","null","","","learningBlock2","","","","That was a bim.","null","","","","","",""
"html-keyboard-response","300","350460","0.0-7.0-2.17","FL","uyc3tp4v50","1600","900","0","1","0","6017d6a23bdebea5e9062e9d","","null","","","learningBlock2","","","","<div style=""font-size:60px;""> </div>","null","FL","learning/Slide98.JPG","That was a bim.","","",""
"image-keyboard-response","301","350639","0.0-7.0-0.18","FL","uyc3tp4v50","1600","900","0","1","0","6017d6a23bdebea5e9062e9d","","null","","","","","","","learning/Slide99.JPG","null","","","","","",""
"html-keyboard-response","302","351807","0.0-7.0-1.18","FL","uyc3tp4v50","1600","900","0","1","0","6017d6a23bdebea5e9062e9d","","null","","","learningBlock2","","","","That was a dep.","null","","","","","",""
"html-keyboard-response","303","352810","0.0-7.0-2.18","FL","uyc3tp4v50","1600","900","0","1","0","6017d6a23bdebea5e9062e9d","","null","","","learningBlock2","","","","<div style=""font-size:60px;""> </div>","null","FL","learning/Slide99.JPG","That was a dep.","","",""
"image-keyboard-response","304","352988","0.0-7.0-0.19","FL","uyc3tp4v50","1600","900","0","1","0","6017d6a23bdebea5e9062e9d","","null","","","","","","","learning/Slide100.JPG","null","","","","","",""
"html-keyboard-response","305","354140","0.0-7.0-1.19","FL","uyc3tp4v50","1600","900","0","1","0","6017d6a23bdebea5e9062e9d","","null","","","learningBlock2","","","","That was a bim.","null","","","","","",""
"html-keyboard-response","306","355151","0.0-7.0-2.19","FL","uyc3tp4v50","1600","900","0","1","0","6017d6a23bdebea5e9062e9d","","null","","","learningBlock2","","","","<div style=""font-size:60px;""> </div>","null","FL","learning/Slide100.JPG","That was a bim.","","",""
"image-keyboard-response","307","355340","0.0-7.0-0.20","FL","uyc3tp4v50","1600","900","0","1","0","6017d6a23bdebea5e9062e9d","","null","","","","","","","learning/Slide101.JPG","null","","","","","",""
"html-keyboard-response","308","356504","0.0-7.0-1.20","FL","uyc3tp4v50","1600","900","0","1","0","6017d6a23bdebea5e9062e9d","","null","","","learningBlock2","","","","That was a tob.","null","","","","","",""
"html-keyboard-response","309","357507","0.0-7.0-2.20","FL","uyc3tp4v50","1600","900","0","1","0","6017d6a23bdebea5e9062e9d","","null","","","learningBlock2","","","","<div style=""font-size:60px;""> </div>","null","FL","learning/Slide101.JPG","That was a tob.","","",""
"image-keyboard-response","310","357692","0.0-7.0-0.21","FL","uyc3tp4v50","1600","900","0","1","0","6017d6a23bdebea5e9062e9d","","null","","","","","","","learning/Slide102.JPG","null","","","","","",""
"html-keyboard-response","311","358855","0.0-7.0-1.21","FL","uyc3tp4v50","1600","900","0","1","0","6017d6a23bdebea5e9062e9d","","null","","","learningBlock2","","","","That was a bim.","null","","","","","",""
"html-keyboard-response","312","359857","0.0-7.0-2.21","FL","uyc3tp4v50","1600","900","0","1","0","6017d6a23bdebea5e9062e9d","","null","","","learningBlock2","","","","<div style=""font-size:60px;""> </div>","null","FL","learning/Slide102.JPG","That was a bim.","","",""
"image-keyboard-response","313","360045","0.0-7.0-0.22","FL","uyc3tp4v50","1600","900","0","1","0","6017d6a23bdebea5e9062e9d","","null","","","","","","","learning/Slide103.JPG","null","","","","","",""
"html-keyboard-response","314","361201","0.0-7.0-1.22","FL","uyc3tp4v50","1600","900","0","1","0","6017d6a23bdebea5e9062e9d","","null","","","learningBlock2","","","","That was a dep.","null","","","","","",""
"html-keyboard-response","315","362220","0.0-7.0-2.22","FL","uyc3tp4v50","1600","900","0","1","0","6017d6a23bdebea5e9062e9d","","null","","","learningBlock2","","","","<div style=""font-size:60px;""> </div>","null","FL","learning/Slide103.JPG","That was a dep.","","",""
"image-keyboard-response","316","362397","0.0-7.0-0.23","FL","uyc3tp4v50","1600","900","0","1","0","6017d6a23bdebea5e9062e9d","","null","","","","","","","learning/Slide104.JPG","null","","","","","",""
"html-keyboard-response","317","363551","0.0-7.0-1.23","FL","uyc3tp4v50","1600","900","0","1","0","6017d6a23bdebea5e9062e9d","","null","","","learningBlock2","","","","That was a tob.","null","","","","","",""
"html-keyboard-response","318","364554","0.0-7.0-2.23","FL","uyc3tp4v50","1600","900","0","1","0","6017d6a23bdebea5e9062e9d","","null","","","learningBlock2","","","","<div style=""font-size:60px;""> </div>","null","FL","learning/Slide104.JPG","That was a tob.","","",""
"image-keyboard-response","319","364732","0.0-7.0-0.24","FL","uyc3tp4v50","1600","900","0","1","0","6017d6a23bdebea5e9062e9d","","null","","","","","","","learning/Slide105.JPG","null","","","","","",""
"html-keyboard-response","320","365885","0.0-7.0-1.24","FL","uyc3tp4v50","1600","900","0","1","0","6017d6a23bdebea5e9062e9d","","null","","","learningBlock2","","","","That was a dep.","null","","","","","",""
"html-keyboard-response","321","366888","0.0-7.0-2.24","FL","uyc3tp4v50","1600","900","0","1","0","6017d6a23bdebea5e9062e9d","","null","","","learningBlock2","","","","<div style=""font-size:60px;""> </div>","null","FL","learning/Slide105.JPG","That was a dep.","","",""
"image-keyboard-response","322","367068","0.0-7.0-0.25","FL","uyc3tp4v50","1600","900","0","1","0","6017d6a23bdebea5e9062e9d","","null","","","","","","","learning/Slide106.JPG","null","","","","","",""
"html-keyboard-response","323","368232","0.0-7.0-1.25","FL","uyc3tp4v50","1600","900","0","1","0","6017d6a23bdebea5e9062e9d","","null","","","learningBlock2","","","","That was a wug.","null","","","","","",""
"html-keyboard-response","324","369235","0.0-7.0-2.25","FL","uyc3tp4v50","1600","900","0","1","0","6017d6a23bdebea5e9062e9d","","null","","","learningBlock2","","","","<div style=""font-size:60px;""> </div>","null","FL","learning/Slide106.JPG","That was a wug.","","",""
"image-keyboard-response","325","369420","0.0-7.0-0.26","FL","uyc3tp4v50","1600","900","0","1","0","6017d6a23bdebea5e9062e9d","","null","","","","","","","learning/Slide107.JPG","null","","","","","",""
"html-keyboard-response","326","370582","0.0-7.0-1.26","FL","uyc3tp4v50","1600","900","0","1","0","6017d6a23bdebea5e9062e9d","","null","","","learningBlock2","","","","That was a bim.","null","","","","","",""
"html-keyboard-response","327","371585","0.0-7.0-2.26","FL","uyc3tp4v50","1600","900","0","1","0","6017d6a23bdebea5e9062e9d","","null","","","learningBlock2","","","","<div style=""font-size:60px;""> </div>","null","FL","learning/Slide107.JPG","That was a bim.","","",""
"image-keyboard-response","328","371772","0.0-7.0-0.27","FL","uyc3tp4v50","1600","900","0","1","0","6017d6a23bdebea5e9062e9d","","null","","","","","","","learning/Slide108.JPG","null","","","","","",""
"html-keyboard-response","329","372932","0.0-7.0-1.27","FL","uyc3tp4v50","1600","900","0","1","0","6017d6a23bdebea5e9062e9d","","null","","","learningBlock2","","","","That was a dep.","null","","","","","",""
"html-keyboard-response","330","373935","0.0-7.0-2.27","FL","uyc3tp4v50","1600","900","0","1","0","6017d6a23bdebea5e9062e9d","","null","","","learningBlock2","","","","<div style=""font-size:60px;""> </div>","null","FL","learning/Slide108.JPG","That was a dep.","","",""
"image-keyboard-response","331","374111","0.0-7.0-0.28","FL","uyc3tp4v50","1600","900","0","1","0","6017d6a23bdebea5e9062e9d","","null","","","","","","","learning/Slide109.JPG","null","","","","","",""
"html-keyboard-response","332","375264","0.0-7.0-1.28","FL","uyc3tp4v50","1600","900","0","1","0","6017d6a23bdebea5e9062e9d","","null","","","learningBlock2","","","","That was a wug.","null","","","","","",""
"html-keyboard-response","333","376266","0.0-7.0-2.28","FL","uyc3tp4v50","1600","900","0","1","0","6017d6a23bdebea5e9062e9d","","null","","","learningBlock2","","","","<div style=""font-size:60px;""> </div>","null","FL","learning/Slide109.JPG","That was a wug.","","",""
"image-keyboard-response","334","376444","0.0-7.0-0.29","FL","uyc3tp4v50","1600","900","0","1","0","6017d6a23bdebea5e9062e9d","","null","","","","","","","learning/Slide110.JPG","null","","","","","",""
"html-keyboard-response","335","377614","0.0-7.0-1.29","FL","uyc3tp4v50","1600","900","0","1","0","6017d6a23bdebea5e9062e9d","","null","","","learningBlock2","","","","That was a bim.","null","","","","","",""
"html-keyboard-response","336","378616","0.0-7.0-2.29","FL","uyc3tp4v50","1600","900","0","1","0","6017d6a23bdebea5e9062e9d","","null","","","learningBlock2","","","","<div style=""font-size:60px;""> </div>","null","FL","learning/Slide110.JPG","That was a bim.","","",""
"image-keyboard-response","337","378795","0.0-7.0-0.30","FL","uyc3tp4v50","1600","900","0","1","0","6017d6a23bdebea5e9062e9d","","null","","","","","","","learning/Slide111.JPG","null","","","","","",""
"html-keyboard-response","338","379947","0.0-7.0-1.30","FL","uyc3tp4v50","1600","900","0","1","0","6017d6a23bdebea5e9062e9d","","null","","","learningBlock2","","","","That was a tob.","null","","","","","",""
"html-keyboard-response","339","380951","0.0-7.0-2.30","FL","uyc3tp4v50","1600","900","0","1","0","6017d6a23bdebea5e9062e9d","","null","","","learningBlock2","","","","<div style=""font-size:60px;""> </div>","null","FL","learning/Slide111.JPG","That was a tob.","","",""
"image-keyboard-response","340","381130","0.0-7.0-0.31","FL","uyc3tp4v50","1600","900","0","1","0","6017d6a23bdebea5e9062e9d","","null","","","","","","","learning/Slide112.JPG","null","","","","","",""
"html-keyboard-response","341","382295","0.0-7.0-1.31","FL","uyc3tp4v50","1600","900","0","1","0","6017d6a23bdebea5e9062e9d","","null","","","learningBlock2","","","","That was a wug.","null","","","","","",""
"html-keyboard-response","342","383298","0.0-7.0-2.31","FL","uyc3tp4v50","1600","900","0","1","0","6017d6a23bdebea5e9062e9d","","null","","","learningBlock2","","","","<div style=""font-size:60px;""> </div>","null","FL","learning/Slide112.JPG","That was a wug.","","",""
"image-keyboard-response","343","383482","0.0-7.0-0.32","FL","uyc3tp4v50","1600","900","0","1","0","6017d6a23bdebea5e9062e9d","","null","","","","","","","learning/Slide113.JPG","null","","","","","",""
"html-keyboard-response","344","384644","0.0-7.0-1.32","FL","uyc3tp4v50","1600","900","0","1","0","6017d6a23bdebea5e9062e9d","","null","","","learningBlock2","","","","That was a tob.","null","","","","","",""
"html-keyboard-response","345","385647","0.0-7.0-2.32","FL","uyc3tp4v50","1600","900","0","1","0","6017d6a23bdebea5e9062e9d","","null","","","learningBlock2","","","","<div style=""font-size:60px;""> </div>","null","FL","learning/Slide113.JPG","That was a tob.","","",""
"image-keyboard-response","346","385834","0.0-7.0-0.33","FL","uyc3tp4v50","1600","900","0","1","0","6017d6a23bdebea5e9062e9d","","null","","","","","","","learning/Slide114.JPG","null","","","","","",""
"html-keyboard-response","347","386995","0.0-7.0-1.33","FL","uyc3tp4v50","1600","900","0","1","0","6017d6a23bdebea5e9062e9d","","null","","","learningBlock2","","","","That was a wug.","null","","","","","",""
"html-keyboard-response","348","387997","0.0-7.0-2.33","FL","uyc3tp4v50","1600","900","0","1","0","6017d6a23bdebea5e9062e9d","","null","","","learningBlock2","","","","<div style=""font-size:60px;""> </div>","null","FL","learning/Slide114.JPG","That was a wug.","","",""
"image-keyboard-response","349","388173","0.0-7.0-0.34","FL","uyc3tp4v50","1600","900","0","1","0","6017d6a23bdebea5e9062e9d","","null","","","","","","","learning/Slide115.JPG","null","","","","","",""
"html-keyboard-response","350","389325","0.0-7.0-1.34","FL","uyc3tp4v50","1600","900","0","1","0","6017d6a23bdebea5e9062e9d","","null","","","learningBlock2","","","","That was a bim.","null","","","","","",""
"html-keyboard-response","351","390329","0.0-7.0-2.34","FL","uyc3tp4v50","1600","900","0","1","0","6017d6a23bdebea5e9062e9d","","null","","","learningBlock2","","","","<div style=""font-size:60px;""> </div>","null","FL","learning/Slide115.JPG","That was a bim.","","",""
"image-keyboard-response","352","390506","0.0-7.0-0.35","FL","uyc3tp4v50","1600","900","0","1","0","6017d6a23bdebea5e9062e9d","","null","","","","","","","learning/Slide116.JPG","null","","","","","",""
"html-keyboard-response","353","391676","0.0-7.0-1.35","FL","uyc3tp4v50","1600","900","0","1","0","6017d6a23bdebea5e9062e9d","","null","","","learningBlock2","","","","That was a dep.","null","","","","","",""
"html-keyboard-response","354","392678","0.0-7.0-2.35","FL","uyc3tp4v50","1600","900","0","1","0","6017d6a23bdebea5e9062e9d","","null","","","learningBlock2","","","","<div style=""font-size:60px;""> </div>","null","FL","learning/Slide116.JPG","That was a dep.","","",""
"image-keyboard-response","355","392857","0.0-7.0-0.36","FL","uyc3tp4v50","1600","900","0","1","0","6017d6a23bdebea5e9062e9d","","null","","","","","","","learning/Slide117.JPG","null","","","","","",""
"html-keyboard-response","356","394010","0.0-7.0-1.36","FL","uyc3tp4v50","1600","900","0","1","0","6017d6a23bdebea5e9062e9d","","null","","","learningBlock2","","","","That was a tob.","null","","","","","",""
"html-keyboard-response","357","395014","0.0-7.0-2.36","FL","uyc3tp4v50","1600","900","0","1","0","6017d6a23bdebea5e9062e9d","","null","","","learningBlock2","","","","<div style=""font-size:60px;""> </div>","null","FL","learning/Slide117.JPG","That was a tob.","","",""
"image-keyboard-response","358","395193","0.0-7.0-0.37","FL","uyc3tp4v50","1600","900","0","1","0","6017d6a23bdebea5e9062e9d","","null","","","","","","","learning/Slide118.JPG","null","","","","","",""
"html-keyboard-response","359","396357","0.0-7.0-1.37","FL","uyc3tp4v50","1600","900","0","1","0","6017d6a23bdebea5e9062e9d","","null","","","learningBlock2","","","","That was a dep.","null","","","","","",""
"html-keyboard-response","360","397360","0.0-7.0-2.37","FL","uyc3tp4v50","1600","900","0","1","0","6017d6a23bdebea5e9062e9d","","null","","","learningBlock2","","","","<div style=""font-size:60px;""> </div>","null","FL","learning/Slide118.JPG","That was a dep.","","",""
"image-keyboard-response","361","397545","0.0-7.0-0.38","FL","uyc3tp4v50","1600","900","0","1","0","6017d6a23bdebea5e9062e9d","","null","","","","","","","learning/Slide119.JPG","null","","","","","",""
"html-keyboard-response","362","398707","0.0-7.0-1.38","FL","uyc3tp4v50","1600","900","0","1","0","6017d6a23bdebea5e9062e9d","","null","","","learningBlock2","","","","That was a wug.","null","","","","","",""
"html-keyboard-response","363","399710","0.0-7.0-2.38","FL","uyc3tp4v50","1600","900","0","1","0","6017d6a23bdebea5e9062e9d","","null","","","learningBlock2","","","","<div style=""font-size:60px;""> </div>","null","FL","learning/Slide119.JPG","That was a wug.","","",""
"image-keyboard-response","364","399897","0.0-7.0-0.39","FL","uyc3tp4v50","1600","900","0","1","0","6017d6a23bdebea5e9062e9d","","null","","","","","","","learning/Slide120.JPG","null","","","","","",""
"html-keyboard-response","365","401061","0.0-7.0-1.39","FL","uyc3tp4v50","1600","900","0","1","0","6017d6a23bdebea5e9062e9d","","null","","","learningBlock2","","","","That was a dep.","null","","","","","",""
"html-keyboard-response","366","402075","0.0-7.0-2.39","FL","uyc3tp4v50","1600","900","0","1","0","6017d6a23bdebea5e9062e9d","","null","","","learningBlock2","","","","<div style=""font-size:60px;""> </div>","null","FL","learning/Slide120.JPG","That was a dep.","","",""
"image-keyboard-response","367","402266","0.0-7.0-0.40","FL","uyc3tp4v50","1600","900","0","1","0","6017d6a23bdebea5e9062e9d","","null","","","","","","","learning/Slide121.JPG","null","","","","","",""
"html-keyboard-response","368","403419","0.0-7.0-1.40","FL","uyc3tp4v50","1600","900","0","1","0","6017d6a23bdebea5e9062e9d","","null","","","learningBlock2","","","","That was a bim.","null","","","","","",""
"html-keyboard-response","369","404422","0.0-7.0-2.40","FL","uyc3tp4v50","1600","900","0","1","0","6017d6a23bdebea5e9062e9d","","null","","","learningBlock2","","","","<div style=""font-size:60px;""> </div>","null","FL","learning/Slide121.JPG","That was a bim.","","",""
"image-keyboard-response","370","404601","0.0-7.0-0.41","FL","uyc3tp4v50","1600","900","0","1","0","6017d6a23bdebea5e9062e9d","","null","","","","","","","learning/Slide122.JPG","null","","","","","",""
"html-keyboard-response","371","405754","0.0-7.0-1.41","FL","uyc3tp4v50","1600","900","0","1","0","6017d6a23bdebea5e9062e9d","","null","","","learningBlock2","","","","That was a wug.","null","","","","","",""
"html-keyboard-response","372","406757","0.0-7.0-2.41","FL","uyc3tp4v50","1600","900","0","1","0","6017d6a23bdebea5e9062e9d","","null","","","learningBlock2","","","","<div style=""font-size:60px;""> </div>","null","FL","learning/Slide122.JPG","That was a wug.","","",""
"image-keyboard-response","373","406937","0.0-7.0-0.42","FL","uyc3tp4v50","1600","900","0","1","0","6017d6a23bdebea5e9062e9d","","null","","","","","","","learning/Slide123.JPG","null","","","","","",""
"html-keyboard-response","374","408103","0.0-7.0-1.42","FL","uyc3tp4v50","1600","900","0","1","0","6017d6a23bdebea5e9062e9d","","null","","","learningBlock2","","","","That was a bim.","null","","","","","",""
"html-keyboard-response","375","409107","0.0-7.0-2.42","FL","uyc3tp4v50","1600","900","0","1","0","6017d6a23bdebea5e9062e9d","","null","","","learningBlock2","","","","<div style=""font-size:60px;""> </div>","null","FL","learning/Slide123.JPG","That was a bim.","","",""
"image-keyboard-response","376","409283","0.0-7.0-0.43","FL","uyc3tp4v50","1600","900","0","1","0","6017d6a23bdebea5e9062e9d","","null","","","","","","","learning/Slide124.JPG","null","","","","","",""
"html-keyboard-response","377","410450","0.0-7.0-1.43","FL","uyc3tp4v50","1600","900","0","1","0","6017d6a23bdebea5e9062e9d","","null","","","learningBlock2","","","","That was a tob.","null","","","","","",""
"html-keyboard-response","378","411454","0.0-7.0-2.43","FL","uyc3tp4v50","1600","900","0","1","0","6017d6a23bdebea5e9062e9d","","null","","","learningBlock2","","","","<div style=""font-size:60px;""> </div>","null","FL","learning/Slide124.JPG","That was a tob.","","",""
"image-keyboard-response","379","411641","0.0-7.0-0.44","FL","uyc3tp4v50","1600","900","0","1","0","6017d6a23bdebea5e9062e9d","","null","","","","","","","learning/Slide125.JPG","null","","","","","",""
"html-keyboard-response","380","412801","0.0-7.0-1.44","FL","uyc3tp4v50","1600","900","0","1","0","6017d6a23bdebea5e9062e9d","","null","","","learningBlock2","","","","That was a bim.","null","","","","","",""
"html-keyboard-response","381","413804","0.0-7.0-2.44","FL","uyc3tp4v50","1600","900","0","1","0","6017d6a23bdebea5e9062e9d","","null","","","learningBlock2","","","","<div style=""font-size:60px;""> </div>","null","FL","learning/Slide125.JPG","That was a bim.","","",""
"image-keyboard-response","382","413993","0.0-7.0-0.45","FL","uyc3tp4v50","1600","900","0","1","0","6017d6a23bdebea5e9062e9d","","null","","","","","","","learning/Slide126.JPG","null","","","","","",""
"html-keyboard-response","383","415148","0.0-7.0-1.45","FL","uyc3tp4v50","1600","900","0","1","0","6017d6a23bdebea5e9062e9d","","null","","","learningBlock2","","","","That was a tob.","null","","","","","",""
"html-keyboard-response","384","416156","0.0-7.0-2.45","FL","uyc3tp4v50","1600","900","0","1","0","6017d6a23bdebea5e9062e9d","","null","","","learningBlock2","","","","<div style=""font-size:60px;""> </div>","null","FL","learning/Slide126.JPG","That was a tob.","","",""
"image-keyboard-response","385","416332","0.0-7.0-0.46","FL","uyc3tp4v50","1600","900","0","1","0","6017d6a23bdebea5e9062e9d","","null","","","","","","","learning/Slide127.JPG","null","","","","","",""
"html-keyboard-response","386","417497","0.0-7.0-1.46","FL","uyc3tp4v50","1600","900","0","1","0","6017d6a23bdebea5e9062e9d","","null","","","learningBlock2","","","","That was a dep.","null","","","","","",""
"html-keyboard-response","387","418501","0.0-7.0-2.46","FL","uyc3tp4v50","1600","900","0","1","0","6017d6a23bdebea5e9062e9d","","null","","","learningBlock2","","","","<div style=""font-size:60px;""> </div>","null","FL","learning/Slide127.JPG","That was a dep.","","",""
"image-keyboard-response","388","418681","0.0-7.0-0.47","FL","uyc3tp4v50","1600","900","0","1","0","6017d6a23bdebea5e9062e9d","","null","","","","","","","learning/Slide128.JPG","null","","","","","",""
"html-keyboard-response","389","419847","0.0-7.0-1.47","FL","uyc3tp4v50","1600","900","0","1","0","6017d6a23bdebea5e9062e9d","","null","","","learningBlock2","","","","That was a wug.","null","","","","","",""
"html-keyboard-response","390","420851","0.0-7.0-2.47","FL","uyc3tp4v50","1600","900","0","1","0","6017d6a23bdebea5e9062e9d","","null","","","learningBlock2","","","","<div style=""font-size:60px;""> </div>","null","FL","learning/Slide128.JPG","That was a wug.","","",""
"image-keyboard-response","391","421033","0.0-7.0-0.48","FL","uyc3tp4v50","1600","900","0","1","0","6017d6a23bdebea5e9062e9d","","null","","","","","","","learning/Slide129.JPG","null","","","","","",""
"html-keyboard-response","392","422210","0.0-7.0-1.48","FL","uyc3tp4v50","1600","900","0","1","0","6017d6a23bdebea5e9062e9d","","null","","","learningBlock2","","","","That was a tob.","null","","","","","",""
"html-keyboard-response","393","423218","0.0-7.0-2.48","FL","uyc3tp4v50","1600","900","0","1","0","6017d6a23bdebea5e9062e9d","","null","","","learningBlock2","","","","<div style=""font-size:60px;""> </div>","null","FL","learning/Slide129.JPG","That was a tob.","","",""
"image-keyboard-response","394","423394","0.0-7.0-0.49","FL","uyc3tp4v50","1600","900","0","1","0","6017d6a23bdebea5e9062e9d","","null","","","","","","","learning/Slide130.JPG","null","","","","","",""
"html-keyboard-response","395","424554","0.0-7.0-1.49","FL","uyc3tp4v50","1600","900","0","1","0","6017d6a23bdebea5e9062e9d","","null","","","learningBlock2","","","","That was a wug.","null","","","","","",""
"html-keyboard-response","396","425563","0.0-7.0-2.49","FL","uyc3tp4v50","1600","900","0","1","0","6017d6a23bdebea5e9062e9d","","null","","","learningBlock2","","","","<div style=""font-size:60px;""> </div>","null","FL","learning/Slide130.JPG","That was a wug.","","",""
"image-keyboard-response","397","425754","0.0-7.0-0.50","FL","uyc3tp4v50","1600","900","0","1","0","6017d6a23bdebea5e9062e9d","","null","","","","","","","learning/Slide131.JPG","null","","","","","",""
"html-keyboard-response","398","426910","0.0-7.0-1.50","FL","uyc3tp4v50","1600","900","0","1","0","6017d6a23bdebea5e9062e9d","","null","","","learningBlock2","","","","That was a bim.","null","","","","","",""
"html-keyboard-response","399","427913","0.0-7.0-2.50","FL","uyc3tp4v50","1600","900","0","1","0","6017d6a23bdebea5e9062e9d","","null","","","learningBlock2","","","","<div style=""font-size:60px;""> </div>","null","FL","learning/Slide131.JPG","That was a bim.","","",""
"image-keyboard-response","400","428092","0.0-7.0-0.51","FL","uyc3tp4v50","1600","900","0","1","0","6017d6a23bdebea5e9062e9d","","null","","","","","","","learning/Slide132.JPG","null","","","","","",""
"html-keyboard-response","401","429244","0.0-7.0-1.51","FL","uyc3tp4v50","1600","900","0","1","0","6017d6a23bdebea5e9062e9d","","null","","","learningBlock2","","","","That was a dep.","null","","","","","",""
"html-keyboard-response","402","430247","0.0-7.0-2.51","FL","uyc3tp4v50","1600","900","0","1","0","6017d6a23bdebea5e9062e9d","","null","","","learningBlock2","","","","<div style=""font-size:60px;""> </div>","null","FL","learning/Slide132.JPG","That was a dep.","","",""
"image-keyboard-response","403","430423","0.0-7.0-0.52","FL","uyc3tp4v50","1600","900","0","1","0","6017d6a23bdebea5e9062e9d","","null","","","","","","","learning/Slide133.JPG","null","","","","","",""
"html-keyboard-response","404","431591","0.0-7.0-1.52","FL","uyc3tp4v50","1600","900","0","1","0","6017d6a23bdebea5e9062e9d","","null","","","learningBlock2","","","","That was a tob.","null","","","","","",""
"html-keyboard-response","405","432594","0.0-7.0-2.52","FL","uyc3tp4v50","1600","900","0","1","0","6017d6a23bdebea5e9062e9d","","null","","","learningBlock2","","","","<div style=""font-size:60px;""> </div>","null","FL","learning/Slide133.JPG","That was a tob.","","",""
"image-keyboard-response","406","432777","0.0-7.0-0.53","FL","uyc3tp4v50","1600","900","0","1","0","6017d6a23bdebea5e9062e9d","","null","","","","","","","learning/Slide134.JPG","null","","","","","",""
"html-keyboard-response","407","433941","0.0-7.0-1.53","FL","uyc3tp4v50","1600","900","0","1","0","6017d6a23bdebea5e9062e9d","","null","","","learningBlock2","","","","That was a dep.","null","","","","","",""
"html-keyboard-response","408","434945","0.0-7.0-2.53","FL","uyc3tp4v50","1600","900","0","1","0","6017d6a23bdebea5e9062e9d","","null","","","learningBlock2","","","","<div style=""font-size:60px;""> </div>","null","FL","learning/Slide134.JPG","That was a dep.","","",""
"image-keyboard-response","409","435121","0.0-7.0-0.54","FL","uyc3tp4v50","1600","900","0","1","0","6017d6a23bdebea5e9062e9d","","null","","","","","","","learning/Slide135.JPG","null","","","","","",""
"html-keyboard-response","410","436294","0.0-7.0-1.54","FL","uyc3tp4v50","1600","900","0","1","0","6017d6a23bdebea5e9062e9d","","null","","","learningBlock2","","","","That was a tob.","null","","","","","",""
"html-keyboard-response","411","437299","0.0-7.0-2.54","FL","uyc3tp4v50","1600","900","0","1","0","6017d6a23bdebea5e9062e9d","","null","","","learningBlock2","","","","<div style=""font-size:60px;""> </div>","null","FL","learning/Slide135.JPG","That was a tob.","","",""
"image-keyboard-response","412","437485","0.0-7.0-0.55","FL","uyc3tp4v50","1600","900","0","1","0","6017d6a23bdebea5e9062e9d","","null","","","","","","","learning/Slide136.JPG","null","","","","","",""
"html-keyboard-response","413","438654","0.0-7.0-1.55","FL","uyc3tp4v50","1600","900","0","1","0","6017d6a23bdebea5e9062e9d","","null","","","learningBlock2","","","","That was a wug.","null","","","","","",""
"html-keyboard-response","414","439656","0.0-7.0-2.55","FL","uyc3tp4v50","1600","900","0","1","0","6017d6a23bdebea5e9062e9d","","null","","","learningBlock2","","","","<div style=""font-size:60px;""> </div>","null","FL","learning/Slide136.JPG","That was a wug.","","",""
"image-keyboard-response","415","439834","0.0-7.0-0.56","FL","uyc3tp4v50","1600","900","0","1","0","6017d6a23bdebea5e9062e9d","","null","","","","","","","learning/Slide137.JPG","null","","","","","",""
"html-keyboard-response","416","441004","0.0-7.0-1.56","FL","uyc3tp4v50","1600","900","0","1","0","6017d6a23bdebea5e9062e9d","","null","","","learningBlock2","","","","That was a tob.","null","","","","","",""
"html-keyboard-response","417","442015","0.0-7.0-2.56","FL","uyc3tp4v50","1600","900","0","1","0","6017d6a23bdebea5e9062e9d","","null","","","learningBlock2","","","","<div style=""font-size:60px;""> </div>","null","FL","learning/Slide137.JPG","That was a tob.","","",""
"image-keyboard-response","418","442191","0.0-7.0-0.57","FL","uyc3tp4v50","1600","900","0","1","0","6017d6a23bdebea5e9062e9d","","null","","","","","","","learning/Slide138.JPG","null","","","","","",""
"html-keyboard-response","419","443348","0.0-7.0-1.57","FL","uyc3tp4v50","1600","900","0","1","0","6017d6a23bdebea5e9062e9d","","null","","","learningBlock2","","","","That was a bim.","null","","","","","",""
"html-keyboard-response","420","444351","0.0-7.0-2.57","FL","uyc3tp4v50","1600","900","0","1","0","6017d6a23bdebea5e9062e9d","","null","","","learningBlock2","","","","<div style=""font-size:60px;""> </div>","null","FL","learning/Slide138.JPG","That was a bim.","","",""
"image-keyboard-response","421","444533","0.0-7.0-0.58","FL","uyc3tp4v50","1600","900","0","1","0","6017d6a23bdebea5e9062e9d","","null","","","","","","","learning/Slide139.JPG","null","","","","","",""
"html-keyboard-response","422","445701","0.0-7.0-1.58","FL","uyc3tp4v50","1600","900","0","1","0","6017d6a23bdebea5e9062e9d","","null","","","learningBlock2","","","","That was a wug.","null","","","","","",""
"html-keyboard-response","423","446704","0.0-7.0-2.58","FL","uyc3tp4v50","1600","900","0","1","0","6017d6a23bdebea5e9062e9d","","null","","","learningBlock2","","","","<div style=""font-size:60px;""> </div>","null","FL","learning/Slide139.JPG","That was a wug.","","",""
"image-keyboard-response","424","446889","0.0-7.0-0.59","FL","uyc3tp4v50","1600","900","0","1","0","6017d6a23bdebea5e9062e9d","","null","","","","","","","learning/Slide140.JPG","null","","","","","",""
"html-keyboard-response","425","448050","0.0-7.0-1.59","FL","uyc3tp4v50","1600","900","0","1","0","6017d6a23bdebea5e9062e9d","","null","","","learningBlock2","","","","That was a dep.","null","","","","","",""
"html-keyboard-response","426","449060","0.0-7.0-2.59","FL","uyc3tp4v50","1600","900","0","1","0","6017d6a23bdebea5e9062e9d","","null","","","learningBlock2","","","","<div style=""font-size:60px;""> </div>","null","FL","learning/Slide140.JPG","That was a dep.","","",""
"image-keyboard-response","427","449250","0.0-7.0-0.60","FL","uyc3tp4v50","1600","900","0","1","0","6017d6a23bdebea5e9062e9d","","null","","","","","","","learning/Slide141.JPG","null","","","","","",""
"html-keyboard-response","428","450419","0.0-7.0-1.60","FL","uyc3tp4v50","1600","900","0","1","0","6017d6a23bdebea5e9062e9d","","null","","","learningBlock2","","","","That was a tob.","null","","","","","",""
"html-keyboard-response","429","451423","0.0-7.0-2.60","FL","uyc3tp4v50","1600","900","0","1","0","6017d6a23bdebea5e9062e9d","","null","","","learningBlock2","","","","<div style=""font-size:60px;""> </div>","null","FL","learning/Slide141.JPG","That was a tob.","","",""
"image-keyboard-response","430","451610","0.0-7.0-0.61","FL","uyc3tp4v50","1600","900","0","1","0","6017d6a23bdebea5e9062e9d","","null","","","","","","","learning/Slide142.JPG","null","","","","","",""
"html-keyboard-response","431","452763","0.0-7.0-1.61","FL","uyc3tp4v50","1600","900","0","1","0","6017d6a23bdebea5e9062e9d","","null","","","learningBlock2","","","","That was a wug.","null","","","","","",""
"html-keyboard-response","432","453766","0.0-7.0-2.61","FL","uyc3tp4v50","1600","900","0","1","0","6017d6a23bdebea5e9062e9d","","null","","","learningBlock2","","","","<div style=""font-size:60px;""> </div>","null","FL","learning/Slide142.JPG","That was a wug.","","",""
"image-keyboard-response","433","453946","0.0-7.0-0.62","FL","uyc3tp4v50","1600","900","0","1","0","6017d6a23bdebea5e9062e9d","","null","","","","","","","learning/Slide143.JPG","null","","","","","",""
"html-keyboard-response","434","455113","0.0-7.0-1.62","FL","uyc3tp4v50","1600","900","0","1","0","6017d6a23bdebea5e9062e9d","","null","","","learningBlock2","","","","That was a bim.","null","","","","","",""
"html-keyboard-response","435","456116","0.0-7.0-2.62","FL","uyc3tp4v50","1600","900","0","1","0","6017d6a23bdebea5e9062e9d","","null","","","learningBlock2","","","","<div style=""font-size:60px;""> </div>","null","FL","learning/Slide143.JPG","That was a bim.","","",""
"image-keyboard-response","436","456292","0.0-7.0-0.63","FL","uyc3tp4v50","1600","900","0","1","0","6017d6a23bdebea5e9062e9d","","null","","","","","","","learning/Slide144.JPG","null","","","","","",""
