"trial_type","trial_index","time_elapsed","internal_node_id","condition","subject","screen_width","screen_height","attention","distraction","conscientious","prolificID","success","rt","url","view_history","test_part","final_height_px","final_width_px","scale_factor","stimulus","key_press","learningType","presentedImage","presentedLabel","button_pressed","response","responses"
"pavlovia","0","18","0.0-0.0","LF","qnx5xathwg","1920","1080","0","1","0","5cc7f4b3854fb30001d0c13a","","","","","","","","","","","","","","","",""
"fullscreen","1","71291","0.0-1.0","LF","qnx5xathwg","1920","1080","0","1","0","5cc7f4b3854fb30001d0c13a","true","","","","","","","","","","","","","","",""
"external-html","2","96184","0.0-2.0-0.0","LF","qnx5xathwg","1920","1080","0","1","0","5cc7f4b3854fb30001d0c13a","","24834.75499995984","text/information_english.html","","","","","","","","","","","","",""
"external-html","3","101471","0.0-2.0-1.0","LF","qnx5xathwg","1920","1080","0","1","0","5cc7f4b3854fb30001d0c13a","","5229.41999998875","text/consent_english.html","","","","","","","","","","","","",""
"instructions","4","128429","0.0-3.0","LF","qnx5xathwg","1920","1080","0","1","0","5cc7f4b3854fb30001d0c13a","","NA","","[{""page_index"":0,""viewing_time"":3144.6299999952316},{""page_index"":1,""viewing_time"":23805.764999997336}]","instructions","","","","","","","","","","",""
"resize","5","133028","0.0-4.0","LF","qnx5xathwg","1920","1080","0","1","0","5cc7f4b3854fb30001d0c13a","","","","","","","100","0.634920634920635","","","","","","","",""
"html-keyboard-response","6","134031","0.0-5.0-0.0","LF","qnx5xathwg","1920","1080","0","1","0","5cc7f4b3854fb30001d0c13a","","null","","","learningBlock1","","","","This is a tob:","null","","","","","",""
"image-keyboard-response","7","134358","0.0-5.0-1.0","LF","qnx5xathwg","1920","1080","0","1","0","5cc7f4b3854fb30001d0c13a","","null","","","","","","","learning/Slide1.JPG","null","","","","","",""
"html-keyboard-response","8","135359","0.0-5.0-2.0","LF","qnx5xathwg","1920","1080","0","1","0","5cc7f4b3854fb30001d0c13a","","null","","","learningBlock1","","","","<div style=""font-size:60px;""> </div>","null","LF","learning/Slide1.JPG","This is a tob:","","",""
"html-keyboard-response","9","136361","0.0-5.0-0.1","LF","qnx5xathwg","1920","1080","0","1","0","5cc7f4b3854fb30001d0c13a","","null","","","learningBlock1","","","","This is a wug:","null","","","","","",""
"image-keyboard-response","10","136688","0.0-5.0-1.1","LF","qnx5xathwg","1920","1080","0","1","0","5cc7f4b3854fb30001d0c13a","","null","","","","","","","learning/Slide2.JPG","null","","","","","",""
"html-keyboard-response","11","137689","0.0-5.0-2.1","LF","qnx5xathwg","1920","1080","0","1","0","5cc7f4b3854fb30001d0c13a","","null","","","learningBlock1","","","","<div style=""font-size:60px;""> </div>","null","LF","learning/Slide2.JPG","This is a wug:","","",""
"html-keyboard-response","12","138690","0.0-5.0-0.2","LF","qnx5xathwg","1920","1080","0","1","0","5cc7f4b3854fb30001d0c13a","","null","","","learningBlock1","","","","This is a bim:","null","","","","","",""
"image-keyboard-response","13","139017","0.0-5.0-1.2","LF","qnx5xathwg","1920","1080","0","1","0","5cc7f4b3854fb30001d0c13a","","null","","","","","","","learning/Slide3.JPG","null","","","","","",""
"html-keyboard-response","14","140018","0.0-5.0-2.2","LF","qnx5xathwg","1920","1080","0","1","0","5cc7f4b3854fb30001d0c13a","","null","","","learningBlock1","","","","<div style=""font-size:60px;""> </div>","null","LF","learning/Slide3.JPG","This is a bim:","","",""
"html-keyboard-response","15","141019","0.0-5.0-0.3","LF","qnx5xathwg","1920","1080","0","1","0","5cc7f4b3854fb30001d0c13a","","null","","","learningBlock1","","","","This is a dep:","null","","","","","",""
"image-keyboard-response","16","141346","0.0-5.0-1.3","LF","qnx5xathwg","1920","1080","0","1","0","5cc7f4b3854fb30001d0c13a","","null","","","","","","","learning/Slide4.JPG","null","","","","","",""
"html-keyboard-response","17","142347","0.0-5.0-2.3","LF","qnx5xathwg","1920","1080","0","1","0","5cc7f4b3854fb30001d0c13a","","null","","","learningBlock1","","","","<div style=""font-size:60px;""> </div>","null","LF","learning/Slide4.JPG","This is a dep:","","",""
"html-keyboard-response","18","143348","0.0-5.0-0.4","LF","qnx5xathwg","1920","1080","0","1","0","5cc7f4b3854fb30001d0c13a","","null","","","learningBlock1","","","","This is a wug:","null","","","","","",""
"image-keyboard-response","19","143675","0.0-5.0-1.4","LF","qnx5xathwg","1920","1080","0","1","0","5cc7f4b3854fb30001d0c13a","","null","","","","","","","learning/Slide5.JPG","null","","","","","",""
"html-keyboard-response","20","144676","0.0-5.0-2.4","LF","qnx5xathwg","1920","1080","0","1","0","5cc7f4b3854fb30001d0c13a","","null","","","learningBlock1","","","","<div style=""font-size:60px;""> </div>","null","LF","learning/Slide5.JPG","This is a wug:","","",""
"html-keyboard-response","21","145678","0.0-5.0-0.5","LF","qnx5xathwg","1920","1080","0","1","0","5cc7f4b3854fb30001d0c13a","","null","","","learningBlock1","","","","This is a dep:","null","","","","","",""
"image-keyboard-response","22","146004","0.0-5.0-1.5","LF","qnx5xathwg","1920","1080","0","1","0","5cc7f4b3854fb30001d0c13a","","null","","","","","","","learning/Slide6.JPG","null","","","","","",""
"html-keyboard-response","23","147006","0.0-5.0-2.5","LF","qnx5xathwg","1920","1080","0","1","0","5cc7f4b3854fb30001d0c13a","","null","","","learningBlock1","","","","<div style=""font-size:60px;""> </div>","null","LF","learning/Slide6.JPG","This is a dep:","","",""
"html-keyboard-response","24","148007","0.0-5.0-0.6","LF","qnx5xathwg","1920","1080","0","1","0","5cc7f4b3854fb30001d0c13a","","null","","","learningBlock1","","","","This is a wug:","null","","","","","",""
"image-keyboard-response","25","148334","0.0-5.0-1.6","LF","qnx5xathwg","1920","1080","0","1","0","5cc7f4b3854fb30001d0c13a","","null","","","","","","","learning/Slide7.JPG","null","","","","","",""
"html-keyboard-response","26","149335","0.0-5.0-2.6","LF","qnx5xathwg","1920","1080","0","1","0","5cc7f4b3854fb30001d0c13a","","null","","","learningBlock1","","","","<div style=""font-size:60px;""> </div>","null","LF","learning/Slide7.JPG","This is a wug:","","",""
"html-keyboard-response","27","150336","0.0-5.0-0.7","LF","qnx5xathwg","1920","1080","0","1","0","5cc7f4b3854fb30001d0c13a","","null","","","learningBlock1","","","","This is a bim:","null","","","","","",""
"image-keyboard-response","28","150663","0.0-5.0-1.7","LF","qnx5xathwg","1920","1080","0","1","0","5cc7f4b3854fb30001d0c13a","","null","","","","","","","learning/Slide8.JPG","null","","","","","",""
"html-keyboard-response","29","151664","0.0-5.0-2.7","LF","qnx5xathwg","1920","1080","0","1","0","5cc7f4b3854fb30001d0c13a","","null","","","learningBlock1","","","","<div style=""font-size:60px;""> </div>","null","LF","learning/Slide8.JPG","This is a bim:","","",""
"html-keyboard-response","30","152666","0.0-5.0-0.8","LF","qnx5xathwg","1920","1080","0","1","0","5cc7f4b3854fb30001d0c13a","","null","","","learningBlock1","","","","This is a wug:","null","","","","","",""
"image-keyboard-response","31","152992","0.0-5.0-1.8","LF","qnx5xathwg","1920","1080","0","1","0","5cc7f4b3854fb30001d0c13a","","null","","","","","","","learning/Slide9.JPG","null","","","","","",""
"html-keyboard-response","32","153995","0.0-5.0-2.8","LF","qnx5xathwg","1920","1080","0","1","0","5cc7f4b3854fb30001d0c13a","","null","","","learningBlock1","","","","<div style=""font-size:60px;""> </div>","null","LF","learning/Slide9.JPG","This is a wug:","","",""
"html-keyboard-response","33","154996","0.0-5.0-0.9","LF","qnx5xathwg","1920","1080","0","1","0","5cc7f4b3854fb30001d0c13a","","null","","","learningBlock1","","","","This is a dep:","null","","","","","",""
"image-keyboard-response","34","155322","0.0-5.0-1.9","LF","qnx5xathwg","1920","1080","0","1","0","5cc7f4b3854fb30001d0c13a","","null","","","","","","","learning/Slide10.JPG","null","","","","","",""
"html-keyboard-response","35","156324","0.0-5.0-2.9","LF","qnx5xathwg","1920","1080","0","1","0","5cc7f4b3854fb30001d0c13a","","null","","","learningBlock1","","","","<div style=""font-size:60px;""> </div>","null","LF","learning/Slide10.JPG","This is a dep:","","",""
"html-keyboard-response","36","157325","0.0-5.0-0.10","LF","qnx5xathwg","1920","1080","0","1","0","5cc7f4b3854fb30001d0c13a","","null","","","learningBlock1","","","","This is a tob:","null","","","","","",""
"image-keyboard-response","37","157652","0.0-5.0-1.10","LF","qnx5xathwg","1920","1080","0","1","0","5cc7f4b3854fb30001d0c13a","","null","","","","","","","learning/Slide11.JPG","null","","","","","",""
"html-keyboard-response","38","158653","0.0-5.0-2.10","LF","qnx5xathwg","1920","1080","0","1","0","5cc7f4b3854fb30001d0c13a","","null","","","learningBlock1","","","","<div style=""font-size:60px;""> </div>","null","LF","learning/Slide11.JPG","This is a tob:","","",""
"html-keyboard-response","39","159655","0.0-5.0-0.11","LF","qnx5xathwg","1920","1080","0","1","0","5cc7f4b3854fb30001d0c13a","","null","","","learningBlock1","","","","This is a dep:","null","","","","","",""
"image-keyboard-response","40","159982","0.0-5.0-1.11","LF","qnx5xathwg","1920","1080","0","1","0","5cc7f4b3854fb30001d0c13a","","null","","","","","","","learning/Slide12.JPG","null","","","","","",""
"html-keyboard-response","41","160983","0.0-5.0-2.11","LF","qnx5xathwg","1920","1080","0","1","0","5cc7f4b3854fb30001d0c13a","","null","","","learningBlock1","","","","<div style=""font-size:60px;""> </div>","null","LF","learning/Slide12.JPG","This is a dep:","","",""
"html-keyboard-response","42","161984","0.0-5.0-0.12","LF","qnx5xathwg","1920","1080","0","1","0","5cc7f4b3854fb30001d0c13a","","null","","","learningBlock1","","","","This is a bim:","null","","","","","",""
"image-keyboard-response","43","162311","0.0-5.0-1.12","LF","qnx5xathwg","1920","1080","0","1","0","5cc7f4b3854fb30001d0c13a","","null","","","","","","","learning/Slide13.JPG","null","","","","","",""
"html-keyboard-response","44","163312","0.0-5.0-2.12","LF","qnx5xathwg","1920","1080","0","1","0","5cc7f4b3854fb30001d0c13a","","null","","","learningBlock1","","","","<div style=""font-size:60px;""> </div>","null","LF","learning/Slide13.JPG","This is a bim:","","",""
"html-keyboard-response","45","164313","0.0-5.0-0.13","LF","qnx5xathwg","1920","1080","0","1","0","5cc7f4b3854fb30001d0c13a","","null","","","learningBlock1","","","","This is a wug:","null","","","","","",""
"image-keyboard-response","46","164640","0.0-5.0-1.13","LF","qnx5xathwg","1920","1080","0","1","0","5cc7f4b3854fb30001d0c13a","","null","","","","","","","learning/Slide14.JPG","null","","","","","",""
"html-keyboard-response","47","165641","0.0-5.0-2.13","LF","qnx5xathwg","1920","1080","0","1","0","5cc7f4b3854fb30001d0c13a","","null","","","learningBlock1","","","","<div style=""font-size:60px;""> </div>","null","LF","learning/Slide14.JPG","This is a wug:","","",""
"html-keyboard-response","48","166643","0.0-5.0-0.14","LF","qnx5xathwg","1920","1080","0","1","0","5cc7f4b3854fb30001d0c13a","","null","","","learningBlock1","","","","This is a tob:","null","","","","","",""
"image-keyboard-response","49","166969","0.0-5.0-1.14","LF","qnx5xathwg","1920","1080","0","1","0","5cc7f4b3854fb30001d0c13a","","null","","","","","","","learning/Slide15.JPG","null","","","","","",""
"html-keyboard-response","50","167971","0.0-5.0-2.14","LF","qnx5xathwg","1920","1080","0","1","0","5cc7f4b3854fb30001d0c13a","","null","","","learningBlock1","","","","<div style=""font-size:60px;""> </div>","null","LF","learning/Slide15.JPG","This is a tob:","","",""
"html-keyboard-response","51","168972","0.0-5.0-0.15","LF","qnx5xathwg","1920","1080","0","1","0","5cc7f4b3854fb30001d0c13a","","null","","","learningBlock1","","","","This is a dep:","null","","","","","",""
"image-keyboard-response","52","169299","0.0-5.0-1.15","LF","qnx5xathwg","1920","1080","0","1","0","5cc7f4b3854fb30001d0c13a","","null","","","","","","","learning/Slide16.JPG","null","","","","","",""
"html-keyboard-response","53","170300","0.0-5.0-2.15","LF","qnx5xathwg","1920","1080","0","1","0","5cc7f4b3854fb30001d0c13a","","null","","","learningBlock1","","","","<div style=""font-size:60px;""> </div>","null","LF","learning/Slide16.JPG","This is a dep:","","",""
"html-keyboard-response","54","171302","0.0-5.0-0.16","LF","qnx5xathwg","1920","1080","0","1","0","5cc7f4b3854fb30001d0c13a","","null","","","learningBlock1","","","","This is a bim:","null","","","","","",""
"image-keyboard-response","55","171628","0.0-5.0-1.16","LF","qnx5xathwg","1920","1080","0","1","0","5cc7f4b3854fb30001d0c13a","","null","","","","","","","learning/Slide17.JPG","null","","","","","",""
"html-keyboard-response","56","172630","0.0-5.0-2.16","LF","qnx5xathwg","1920","1080","0","1","0","5cc7f4b3854fb30001d0c13a","","null","","","learningBlock1","","","","<div style=""font-size:60px;""> </div>","null","LF","learning/Slide17.JPG","This is a bim:","","",""
"html-keyboard-response","57","173631","0.0-5.0-0.17","LF","qnx5xathwg","1920","1080","0","1","0","5cc7f4b3854fb30001d0c13a","","null","","","learningBlock1","","","","This is a tob:","null","","","","","",""
"image-keyboard-response","58","173958","0.0-5.0-1.17","LF","qnx5xathwg","1920","1080","0","1","0","5cc7f4b3854fb30001d0c13a","","null","","","","","","","learning/Slide18.JPG","null","","","","","",""
"html-keyboard-response","59","174959","0.0-5.0-2.17","LF","qnx5xathwg","1920","1080","0","1","0","5cc7f4b3854fb30001d0c13a","","null","","","learningBlock1","","","","<div style=""font-size:60px;""> </div>","null","LF","learning/Slide18.JPG","This is a tob:","","",""
"html-keyboard-response","60","175960","0.0-5.0-0.18","LF","qnx5xathwg","1920","1080","0","1","0","5cc7f4b3854fb30001d0c13a","","null","","","learningBlock1","","","","This is a wug:","null","","","","","",""
"image-keyboard-response","61","176287","0.0-5.0-1.18","LF","qnx5xathwg","1920","1080","0","1","0","5cc7f4b3854fb30001d0c13a","","null","","","","","","","learning/Slide19.JPG","null","","","","","",""
"html-keyboard-response","62","177288","0.0-5.0-2.18","LF","qnx5xathwg","1920","1080","0","1","0","5cc7f4b3854fb30001d0c13a","","null","","","learningBlock1","","","","<div style=""font-size:60px;""> </div>","null","LF","learning/Slide19.JPG","This is a wug:","","",""
"html-keyboard-response","63","178289","0.0-5.0-0.19","LF","qnx5xathwg","1920","1080","0","1","0","5cc7f4b3854fb30001d0c13a","","null","","","learningBlock1","","","","This is a bim:","null","","","","","",""
"image-keyboard-response","64","178616","0.0-5.0-1.19","LF","qnx5xathwg","1920","1080","0","1","0","5cc7f4b3854fb30001d0c13a","","null","","","","","","","learning/Slide20.JPG","null","","","","","",""
"html-keyboard-response","65","179617","0.0-5.0-2.19","LF","qnx5xathwg","1920","1080","0","1","0","5cc7f4b3854fb30001d0c13a","","null","","","learningBlock1","","","","<div style=""font-size:60px;""> </div>","null","LF","learning/Slide20.JPG","This is a bim:","","",""
"html-keyboard-response","66","180618","0.0-5.0-0.20","LF","qnx5xathwg","1920","1080","0","1","0","5cc7f4b3854fb30001d0c13a","","null","","","learningBlock1","","","","This is a dep:","null","","","","","",""
"image-keyboard-response","67","180945","0.0-5.0-1.20","LF","qnx5xathwg","1920","1080","0","1","0","5cc7f4b3854fb30001d0c13a","","null","","","","","","","learning/Slide21.JPG","null","","","","","",""
"html-keyboard-response","68","181946","0.0-5.0-2.20","LF","qnx5xathwg","1920","1080","0","1","0","5cc7f4b3854fb30001d0c13a","","null","","","learningBlock1","","","","<div style=""font-size:60px;""> </div>","null","LF","learning/Slide21.JPG","This is a dep:","","",""
"html-keyboard-response","69","182949","0.0-5.0-0.21","LF","qnx5xathwg","1920","1080","0","1","0","5cc7f4b3854fb30001d0c13a","","null","","","learningBlock1","","","","This is a bim:","null","","","","","",""
"image-keyboard-response","70","183276","0.0-5.0-1.21","LF","qnx5xathwg","1920","1080","0","1","0","5cc7f4b3854fb30001d0c13a","","null","","","","","","","learning/Slide22.JPG","null","","","","","",""
"html-keyboard-response","71","184277","0.0-5.0-2.21","LF","qnx5xathwg","1920","1080","0","1","0","5cc7f4b3854fb30001d0c13a","","null","","","learningBlock1","","","","<div style=""font-size:60px;""> </div>","null","LF","learning/Slide22.JPG","This is a bim:","","",""
"html-keyboard-response","72","185278","0.0-5.0-0.22","LF","qnx5xathwg","1920","1080","0","1","0","5cc7f4b3854fb30001d0c13a","","null","","","learningBlock1","","","","This is a tob:","null","","","","","",""
"image-keyboard-response","73","185605","0.0-5.0-1.22","LF","qnx5xathwg","1920","1080","0","1","0","5cc7f4b3854fb30001d0c13a","","null","","","","","","","learning/Slide23.JPG","null","","","","","",""
"html-keyboard-response","74","186606","0.0-5.0-2.22","LF","qnx5xathwg","1920","1080","0","1","0","5cc7f4b3854fb30001d0c13a","","null","","","learningBlock1","","","","<div style=""font-size:60px;""> </div>","null","LF","learning/Slide23.JPG","This is a tob:","","",""
"html-keyboard-response","75","187607","0.0-5.0-0.23","LF","qnx5xathwg","1920","1080","0","1","0","5cc7f4b3854fb30001d0c13a","","null","","","learningBlock1","","","","This is a wug:","null","","","","","",""
"image-keyboard-response","76","187934","0.0-5.0-1.23","LF","qnx5xathwg","1920","1080","0","1","0","5cc7f4b3854fb30001d0c13a","","null","","","","","","","learning/Slide24.JPG","null","","","","","",""
"html-keyboard-response","77","188935","0.0-5.0-2.23","LF","qnx5xathwg","1920","1080","0","1","0","5cc7f4b3854fb30001d0c13a","","null","","","learningBlock1","","","","<div style=""font-size:60px;""> </div>","null","LF","learning/Slide24.JPG","This is a wug:","","",""
"html-keyboard-response","78","189936","0.0-5.0-0.24","LF","qnx5xathwg","1920","1080","0","1","0","5cc7f4b3854fb30001d0c13a","","null","","","learningBlock1","","","","This is a dep:","null","","","","","",""
"image-keyboard-response","79","190263","0.0-5.0-1.24","LF","qnx5xathwg","1920","1080","0","1","0","5cc7f4b3854fb30001d0c13a","","null","","","","","","","learning/Slide25.JPG","null","","","","","",""
"html-keyboard-response","80","191264","0.0-5.0-2.24","LF","qnx5xathwg","1920","1080","0","1","0","5cc7f4b3854fb30001d0c13a","","null","","","learningBlock1","","","","<div style=""font-size:60px;""> </div>","null","LF","learning/Slide25.JPG","This is a dep:","","",""
"html-keyboard-response","81","192265","0.0-5.0-0.25","LF","qnx5xathwg","1920","1080","0","1","0","5cc7f4b3854fb30001d0c13a","","null","","","learningBlock1","","","","This is a wug:","null","","","","","",""
"image-keyboard-response","82","192592","0.0-5.0-1.25","LF","qnx5xathwg","1920","1080","0","1","0","5cc7f4b3854fb30001d0c13a","","null","","","","","","","learning/Slide26.JPG","null","","","","","",""
"html-keyboard-response","83","193593","0.0-5.0-2.25","LF","qnx5xathwg","1920","1080","0","1","0","5cc7f4b3854fb30001d0c13a","","null","","","learningBlock1","","","","<div style=""font-size:60px;""> </div>","null","LF","learning/Slide26.JPG","This is a wug:","","",""
"html-keyboard-response","84","194594","0.0-5.0-0.26","LF","qnx5xathwg","1920","1080","0","1","0","5cc7f4b3854fb30001d0c13a","","null","","","learningBlock1","","","","This is a bim:","null","","","","","",""
"image-keyboard-response","85","194921","0.0-5.0-1.26","LF","qnx5xathwg","1920","1080","0","1","0","5cc7f4b3854fb30001d0c13a","","null","","","","","","","learning/Slide27.JPG","null","","","","","",""
"html-keyboard-response","86","195922","0.0-5.0-2.26","LF","qnx5xathwg","1920","1080","0","1","0","5cc7f4b3854fb30001d0c13a","","null","","","learningBlock1","","","","<div style=""font-size:60px;""> </div>","null","LF","learning/Slide27.JPG","This is a bim:","","",""
"html-keyboard-response","87","196923","0.0-5.0-0.27","LF","qnx5xathwg","1920","1080","0","1","0","5cc7f4b3854fb30001d0c13a","","null","","","learningBlock1","","","","This is a dep:","null","","","","","",""
"image-keyboard-response","88","197250","0.0-5.0-1.27","LF","qnx5xathwg","1920","1080","0","1","0","5cc7f4b3854fb30001d0c13a","","null","","","","","","","learning/Slide28.JPG","null","","","","","",""
"html-keyboard-response","89","198251","0.0-5.0-2.27","LF","qnx5xathwg","1920","1080","0","1","0","5cc7f4b3854fb30001d0c13a","","null","","","learningBlock1","","","","<div style=""font-size:60px;""> </div>","null","LF","learning/Slide28.JPG","This is a dep:","","",""
"html-keyboard-response","90","199252","0.0-5.0-0.28","LF","qnx5xathwg","1920","1080","0","1","0","5cc7f4b3854fb30001d0c13a","","null","","","learningBlock1","","","","This is a tob:","null","","","","","",""
"image-keyboard-response","91","199579","0.0-5.0-1.28","LF","qnx5xathwg","1920","1080","0","1","0","5cc7f4b3854fb30001d0c13a","","null","","","","","","","learning/Slide29.JPG","null","","","","","",""
"html-keyboard-response","92","200580","0.0-5.0-2.28","LF","qnx5xathwg","1920","1080","0","1","0","5cc7f4b3854fb30001d0c13a","","null","","","learningBlock1","","","","<div style=""font-size:60px;""> </div>","null","LF","learning/Slide29.JPG","This is a tob:","","",""
"html-keyboard-response","93","201581","0.0-5.0-0.29","LF","qnx5xathwg","1920","1080","0","1","0","5cc7f4b3854fb30001d0c13a","","null","","","learningBlock1","","","","This is a dep:","null","","","","","",""
"image-keyboard-response","94","201908","0.0-5.0-1.29","LF","qnx5xathwg","1920","1080","0","1","0","5cc7f4b3854fb30001d0c13a","","null","","","","","","","learning/Slide30.JPG","null","","","","","",""
"html-keyboard-response","95","202909","0.0-5.0-2.29","LF","qnx5xathwg","1920","1080","0","1","0","5cc7f4b3854fb30001d0c13a","","null","","","learningBlock1","","","","<div style=""font-size:60px;""> </div>","null","LF","learning/Slide30.JPG","This is a dep:","","",""
"html-keyboard-response","96","203910","0.0-5.0-0.30","LF","qnx5xathwg","1920","1080","0","1","0","5cc7f4b3854fb30001d0c13a","","null","","","learningBlock1","","","","This is a wug:","null","","","","","",""
"image-keyboard-response","97","204237","0.0-5.0-1.30","LF","qnx5xathwg","1920","1080","0","1","0","5cc7f4b3854fb30001d0c13a","","null","","","","","","","learning/Slide31.JPG","null","","","","","",""
"html-keyboard-response","98","205238","0.0-5.0-2.30","LF","qnx5xathwg","1920","1080","0","1","0","5cc7f4b3854fb30001d0c13a","","null","","","learningBlock1","","","","<div style=""font-size:60px;""> </div>","null","LF","learning/Slide31.JPG","This is a wug:","","",""
"html-keyboard-response","99","206239","0.0-5.0-0.31","LF","qnx5xathwg","1920","1080","0","1","0","5cc7f4b3854fb30001d0c13a","","null","","","learningBlock1","","","","This is a tob:","null","","","","","",""
"image-keyboard-response","100","206566","0.0-5.0-1.31","LF","qnx5xathwg","1920","1080","0","1","0","5cc7f4b3854fb30001d0c13a","","null","","","","","","","learning/Slide32.JPG","null","","","","","",""
"html-keyboard-response","101","207567","0.0-5.0-2.31","LF","qnx5xathwg","1920","1080","0","1","0","5cc7f4b3854fb30001d0c13a","","null","","","learningBlock1","","","","<div style=""font-size:60px;""> </div>","null","LF","learning/Slide32.JPG","This is a tob:","","",""
"html-keyboard-response","102","208569","0.0-5.0-0.32","LF","qnx5xathwg","1920","1080","0","1","0","5cc7f4b3854fb30001d0c13a","","null","","","learningBlock1","","","","This is a bim:","null","","","","","",""
"image-keyboard-response","103","208895","0.0-5.0-1.32","LF","qnx5xathwg","1920","1080","0","1","0","5cc7f4b3854fb30001d0c13a","","null","","","","","","","learning/Slide33.JPG","null","","","","","",""
"html-keyboard-response","104","209897","0.0-5.0-2.32","LF","qnx5xathwg","1920","1080","0","1","0","5cc7f4b3854fb30001d0c13a","","null","","","learningBlock1","","","","<div style=""font-size:60px;""> </div>","null","LF","learning/Slide33.JPG","This is a bim:","","",""
"html-keyboard-response","105","210898","0.0-5.0-0.33","LF","qnx5xathwg","1920","1080","0","1","0","5cc7f4b3854fb30001d0c13a","","null","","","learningBlock1","","","","This is a tob:","null","","","","","",""
"image-keyboard-response","106","211225","0.0-5.0-1.33","LF","qnx5xathwg","1920","1080","0","1","0","5cc7f4b3854fb30001d0c13a","","null","","","","","","","learning/Slide34.JPG","null","","","","","",""
"html-keyboard-response","107","212226","0.0-5.0-2.33","LF","qnx5xathwg","1920","1080","0","1","0","5cc7f4b3854fb30001d0c13a","","null","","","learningBlock1","","","","<div style=""font-size:60px;""> </div>","null","LF","learning/Slide34.JPG","This is a tob:","","",""
"html-keyboard-response","108","213227","0.0-5.0-0.34","LF","qnx5xathwg","1920","1080","0","1","0","5cc7f4b3854fb30001d0c13a","","null","","","learningBlock1","","","","This is a bim:","null","","","","","",""
"image-keyboard-response","109","213554","0.0-5.0-1.34","LF","qnx5xathwg","1920","1080","0","1","0","5cc7f4b3854fb30001d0c13a","","null","","","","","","","learning/Slide35.JPG","null","","","","","",""
"html-keyboard-response","110","214555","0.0-5.0-2.34","LF","qnx5xathwg","1920","1080","0","1","0","5cc7f4b3854fb30001d0c13a","","null","","","learningBlock1","","","","<div style=""font-size:60px;""> </div>","null","LF","learning/Slide35.JPG","This is a bim:","","",""
"html-keyboard-response","111","215556","0.0-5.0-0.35","LF","qnx5xathwg","1920","1080","0","1","0","5cc7f4b3854fb30001d0c13a","","null","","","learningBlock1","","","","This is a dep:","null","","","","","",""
"image-keyboard-response","112","215883","0.0-5.0-1.35","LF","qnx5xathwg","1920","1080","0","1","0","5cc7f4b3854fb30001d0c13a","","null","","","","","","","learning/Slide36.JPG","null","","","","","",""
"html-keyboard-response","113","216884","0.0-5.0-2.35","LF","qnx5xathwg","1920","1080","0","1","0","5cc7f4b3854fb30001d0c13a","","null","","","learningBlock1","","","","<div style=""font-size:60px;""> </div>","null","LF","learning/Slide36.JPG","This is a dep:","","",""
"html-keyboard-response","114","217885","0.0-5.0-0.36","LF","qnx5xathwg","1920","1080","0","1","0","5cc7f4b3854fb30001d0c13a","","null","","","learningBlock1","","","","This is a tob:","null","","","","","",""
"image-keyboard-response","115","218212","0.0-5.0-1.36","LF","qnx5xathwg","1920","1080","0","1","0","5cc7f4b3854fb30001d0c13a","","null","","","","","","","learning/Slide37.JPG","null","","","","","",""
"html-keyboard-response","116","219213","0.0-5.0-2.36","LF","qnx5xathwg","1920","1080","0","1","0","5cc7f4b3854fb30001d0c13a","","null","","","learningBlock1","","","","<div style=""font-size:60px;""> </div>","null","LF","learning/Slide37.JPG","This is a tob:","","",""
"html-keyboard-response","117","220214","0.0-5.0-0.37","LF","qnx5xathwg","1920","1080","0","1","0","5cc7f4b3854fb30001d0c13a","","null","","","learningBlock1","","","","This is a wug:","null","","","","","",""
"image-keyboard-response","118","220541","0.0-5.0-1.37","LF","qnx5xathwg","1920","1080","0","1","0","5cc7f4b3854fb30001d0c13a","","null","","","","","","","learning/Slide38.JPG","null","","","","","",""
"html-keyboard-response","119","221542","0.0-5.0-2.37","LF","qnx5xathwg","1920","1080","0","1","0","5cc7f4b3854fb30001d0c13a","","null","","","learningBlock1","","","","<div style=""font-size:60px;""> </div>","null","LF","learning/Slide38.JPG","This is a wug:","","",""
"html-keyboard-response","120","222543","0.0-5.0-0.38","LF","qnx5xathwg","1920","1080","0","1","0","5cc7f4b3854fb30001d0c13a","","null","","","learningBlock1","","","","This is a bim:","null","","","","","",""
"image-keyboard-response","121","222870","0.0-5.0-1.38","LF","qnx5xathwg","1920","1080","0","1","0","5cc7f4b3854fb30001d0c13a","","null","","","","","","","learning/Slide39.JPG","null","","","","","",""
"html-keyboard-response","122","223871","0.0-5.0-2.38","LF","qnx5xathwg","1920","1080","0","1","0","5cc7f4b3854fb30001d0c13a","","null","","","learningBlock1","","","","<div style=""font-size:60px;""> </div>","null","LF","learning/Slide39.JPG","This is a bim:","","",""
"html-keyboard-response","123","224872","0.0-5.0-0.39","LF","qnx5xathwg","1920","1080","0","1","0","5cc7f4b3854fb30001d0c13a","","null","","","learningBlock1","","","","This is a tob:","null","","","","","",""
"image-keyboard-response","124","225199","0.0-5.0-1.39","LF","qnx5xathwg","1920","1080","0","1","0","5cc7f4b3854fb30001d0c13a","","null","","","","","","","learning/Slide40.JPG","null","","","","","",""
"html-keyboard-response","125","226200","0.0-5.0-2.39","LF","qnx5xathwg","1920","1080","0","1","0","5cc7f4b3854fb30001d0c13a","","null","","","learningBlock1","","","","<div style=""font-size:60px;""> </div>","null","LF","learning/Slide40.JPG","This is a tob:","","",""
"html-keyboard-response","126","227201","0.0-5.0-0.40","LF","qnx5xathwg","1920","1080","0","1","0","5cc7f4b3854fb30001d0c13a","","null","","","learningBlock1","","","","This is a bim:","null","","","","","",""
"image-keyboard-response","127","227528","0.0-5.0-1.40","LF","qnx5xathwg","1920","1080","0","1","0","5cc7f4b3854fb30001d0c13a","","null","","","","","","","learning/Slide41.JPG","null","","","","","",""
"html-keyboard-response","128","228529","0.0-5.0-2.40","LF","qnx5xathwg","1920","1080","0","1","0","5cc7f4b3854fb30001d0c13a","","null","","","learningBlock1","","","","<div style=""font-size:60px;""> </div>","null","LF","learning/Slide41.JPG","This is a bim:","","",""
"html-keyboard-response","129","229530","0.0-5.0-0.41","LF","qnx5xathwg","1920","1080","0","1","0","5cc7f4b3854fb30001d0c13a","","null","","","learningBlock1","","","","This is a dep:","null","","","","","",""
"image-keyboard-response","130","229857","0.0-5.0-1.41","LF","qnx5xathwg","1920","1080","0","1","0","5cc7f4b3854fb30001d0c13a","","null","","","","","","","learning/Slide42.JPG","null","","","","","",""
"html-keyboard-response","131","230858","0.0-5.0-2.41","LF","qnx5xathwg","1920","1080","0","1","0","5cc7f4b3854fb30001d0c13a","","null","","","learningBlock1","","","","<div style=""font-size:60px;""> </div>","null","LF","learning/Slide42.JPG","This is a dep:","","",""
"html-keyboard-response","132","231859","0.0-5.0-0.42","LF","qnx5xathwg","1920","1080","0","1","0","5cc7f4b3854fb30001d0c13a","","null","","","learningBlock1","","","","This is a wug:","null","","","","","",""
"image-keyboard-response","133","232186","0.0-5.0-1.42","LF","qnx5xathwg","1920","1080","0","1","0","5cc7f4b3854fb30001d0c13a","","null","","","","","","","learning/Slide43.JPG","null","","","","","",""
"html-keyboard-response","134","233187","0.0-5.0-2.42","LF","qnx5xathwg","1920","1080","0","1","0","5cc7f4b3854fb30001d0c13a","","null","","","learningBlock1","","","","<div style=""font-size:60px;""> </div>","null","LF","learning/Slide43.JPG","This is a wug:","","",""
"html-keyboard-response","135","234188","0.0-5.0-0.43","LF","qnx5xathwg","1920","1080","0","1","0","5cc7f4b3854fb30001d0c13a","","null","","","learningBlock1","","","","This is a bim:","null","","","","","",""
"image-keyboard-response","136","234515","0.0-5.0-1.43","LF","qnx5xathwg","1920","1080","0","1","0","5cc7f4b3854fb30001d0c13a","","null","","","","","","","learning/Slide44.JPG","null","","","","","",""
"html-keyboard-response","137","235516","0.0-5.0-2.43","LF","qnx5xathwg","1920","1080","0","1","0","5cc7f4b3854fb30001d0c13a","","null","","","learningBlock1","","","","<div style=""font-size:60px;""> </div>","null","LF","learning/Slide44.JPG","This is a bim:","","",""
"html-keyboard-response","138","236517","0.0-5.0-0.44","LF","qnx5xathwg","1920","1080","0","1","0","5cc7f4b3854fb30001d0c13a","","null","","","learningBlock1","","","","This is a wug:","null","","","","","",""
"image-keyboard-response","139","236844","0.0-5.0-1.44","LF","qnx5xathwg","1920","1080","0","1","0","5cc7f4b3854fb30001d0c13a","","null","","","","","","","learning/Slide45.JPG","null","","","","","",""
"html-keyboard-response","140","237845","0.0-5.0-2.44","LF","qnx5xathwg","1920","1080","0","1","0","5cc7f4b3854fb30001d0c13a","","null","","","learningBlock1","","","","<div style=""font-size:60px;""> </div>","null","LF","learning/Slide45.JPG","This is a wug:","","",""
"html-keyboard-response","141","238847","0.0-5.0-0.45","LF","qnx5xathwg","1920","1080","0","1","0","5cc7f4b3854fb30001d0c13a","","null","","","learningBlock1","","","","This is a dep:","null","","","","","",""
"image-keyboard-response","142","239173","0.0-5.0-1.45","LF","qnx5xathwg","1920","1080","0","1","0","5cc7f4b3854fb30001d0c13a","","null","","","","","","","learning/Slide46.JPG","null","","","","","",""
"html-keyboard-response","143","240175","0.0-5.0-2.45","LF","qnx5xathwg","1920","1080","0","1","0","5cc7f4b3854fb30001d0c13a","","null","","","learningBlock1","","","","<div style=""font-size:60px;""> </div>","null","LF","learning/Slide46.JPG","This is a dep:","","",""
"html-keyboard-response","144","241176","0.0-5.0-0.46","LF","qnx5xathwg","1920","1080","0","1","0","5cc7f4b3854fb30001d0c13a","","null","","","learningBlock1","","","","This is a tob:","null","","","","","",""
"image-keyboard-response","145","241503","0.0-5.0-1.46","LF","qnx5xathwg","1920","1080","0","1","0","5cc7f4b3854fb30001d0c13a","","null","","","","","","","learning/Slide47.JPG","null","","","","","",""
"html-keyboard-response","146","242504","0.0-5.0-2.46","LF","qnx5xathwg","1920","1080","0","1","0","5cc7f4b3854fb30001d0c13a","","null","","","learningBlock1","","","","<div style=""font-size:60px;""> </div>","null","LF","learning/Slide47.JPG","This is a tob:","","",""
"html-keyboard-response","147","243857","0.0-5.0-0.47","LF","qnx5xathwg","1920","1080","0","1","0","5cc7f4b3854fb30001d0c13a","","null","","","learningBlock1","","","","This is a bim:","null","","","","","",""
"image-keyboard-response","148","245857","0.0-5.0-1.47","LF","qnx5xathwg","1920","1080","0","1","0","5cc7f4b3854fb30001d0c13a","","null","","","","","","","learning/Slide48.JPG","null","","","","","",""
"html-keyboard-response","149","246858","0.0-5.0-2.47","LF","qnx5xathwg","1920","1080","0","1","0","5cc7f4b3854fb30001d0c13a","","null","","","learningBlock1","","","","<div style=""font-size:60px;""> </div>","null","LF","learning/Slide48.JPG","This is a bim:","","",""
"html-keyboard-response","150","247859","0.0-5.0-0.48","LF","qnx5xathwg","1920","1080","0","1","0","5cc7f4b3854fb30001d0c13a","","null","","","learningBlock1","","","","This is a dep:","null","","","","","",""
"image-keyboard-response","151","248185","0.0-5.0-1.48","LF","qnx5xathwg","1920","1080","0","1","0","5cc7f4b3854fb30001d0c13a","","null","","","","","","","learning/Slide49.JPG","null","","","","","",""
"html-keyboard-response","152","249187","0.0-5.0-2.48","LF","qnx5xathwg","1920","1080","0","1","0","5cc7f4b3854fb30001d0c13a","","null","","","learningBlock1","","","","<div style=""font-size:60px;""> </div>","null","LF","learning/Slide49.JPG","This is a dep:","","",""
"html-keyboard-response","153","250188","0.0-5.0-0.49","LF","qnx5xathwg","1920","1080","0","1","0","5cc7f4b3854fb30001d0c13a","","null","","","learningBlock1","","","","This is a tob:","null","","","","","",""
"image-keyboard-response","154","250514","0.0-5.0-1.49","LF","qnx5xathwg","1920","1080","0","1","0","5cc7f4b3854fb30001d0c13a","","null","","","","","","","learning/Slide50.JPG","null","","","","","",""
"html-keyboard-response","155","251516","0.0-5.0-2.49","LF","qnx5xathwg","1920","1080","0","1","0","5cc7f4b3854fb30001d0c13a","","null","","","learningBlock1","","","","<div style=""font-size:60px;""> </div>","null","LF","learning/Slide50.JPG","This is a tob:","","",""
"html-keyboard-response","156","252517","0.0-5.0-0.50","LF","qnx5xathwg","1920","1080","0","1","0","5cc7f4b3854fb30001d0c13a","","null","","","learningBlock1","","","","This is a bim:","null","","","","","",""
"image-keyboard-response","157","252844","0.0-5.0-1.50","LF","qnx5xathwg","1920","1080","0","1","0","5cc7f4b3854fb30001d0c13a","","null","","","","","","","learning/Slide51.JPG","null","","","","","",""
"html-keyboard-response","158","253845","0.0-5.0-2.50","LF","qnx5xathwg","1920","1080","0","1","0","5cc7f4b3854fb30001d0c13a","","null","","","learningBlock1","","","","<div style=""font-size:60px;""> </div>","null","LF","learning/Slide51.JPG","This is a bim:","","",""
"html-keyboard-response","159","254846","0.0-5.0-0.51","LF","qnx5xathwg","1920","1080","0","1","0","5cc7f4b3854fb30001d0c13a","","null","","","learningBlock1","","","","This is a wug:","null","","","","","",""
"image-keyboard-response","160","255174","0.0-5.0-1.51","LF","qnx5xathwg","1920","1080","0","1","0","5cc7f4b3854fb30001d0c13a","","null","","","","","","","learning/Slide52.JPG","null","","","","","",""
"html-keyboard-response","161","256175","0.0-5.0-2.51","LF","qnx5xathwg","1920","1080","0","1","0","5cc7f4b3854fb30001d0c13a","","null","","","learningBlock1","","","","<div style=""font-size:60px;""> </div>","null","LF","learning/Slide52.JPG","This is a wug:","","",""
"html-keyboard-response","162","257176","0.0-5.0-0.52","LF","qnx5xathwg","1920","1080","0","1","0","5cc7f4b3854fb30001d0c13a","","null","","","learningBlock1","","","","This is a tob:","null","","","","","",""
"image-keyboard-response","163","257503","0.0-5.0-1.52","LF","qnx5xathwg","1920","1080","0","1","0","5cc7f4b3854fb30001d0c13a","","null","","","","","","","learning/Slide53.JPG","null","","","","","",""
"html-keyboard-response","164","258504","0.0-5.0-2.52","LF","qnx5xathwg","1920","1080","0","1","0","5cc7f4b3854fb30001d0c13a","","null","","","learningBlock1","","","","<div style=""font-size:60px;""> </div>","null","LF","learning/Slide53.JPG","This is a tob:","","",""
"html-keyboard-response","165","259505","0.0-5.0-0.53","LF","qnx5xathwg","1920","1080","0","1","0","5cc7f4b3854fb30001d0c13a","","null","","","learningBlock1","","","","This is a dep:","null","","","","","",""
"image-keyboard-response","166","259832","0.0-5.0-1.53","LF","qnx5xathwg","1920","1080","0","1","0","5cc7f4b3854fb30001d0c13a","","null","","","","","","","learning/Slide54.JPG","null","","","","","",""
"html-keyboard-response","167","260833","0.0-5.0-2.53","LF","qnx5xathwg","1920","1080","0","1","0","5cc7f4b3854fb30001d0c13a","","null","","","learningBlock1","","","","<div style=""font-size:60px;""> </div>","null","LF","learning/Slide54.JPG","This is a dep:","","",""
"html-keyboard-response","168","261834","0.0-5.0-0.54","LF","qnx5xathwg","1920","1080","0","1","0","5cc7f4b3854fb30001d0c13a","","null","","","learningBlock1","","","","This is a bim:","null","","","","","",""
"image-keyboard-response","169","262161","0.0-5.0-1.54","LF","qnx5xathwg","1920","1080","0","1","0","5cc7f4b3854fb30001d0c13a","","null","","","","","","","learning/Slide55.JPG","null","","","","","",""
"html-keyboard-response","170","263162","0.0-5.0-2.54","LF","qnx5xathwg","1920","1080","0","1","0","5cc7f4b3854fb30001d0c13a","","null","","","learningBlock1","","","","<div style=""font-size:60px;""> </div>","null","LF","learning/Slide55.JPG","This is a bim:","","",""
"html-keyboard-response","171","264163","0.0-5.0-0.55","LF","qnx5xathwg","1920","1080","0","1","0","5cc7f4b3854fb30001d0c13a","","null","","","learningBlock1","","","","This is a tob:","null","","","","","",""
"image-keyboard-response","172","264490","0.0-5.0-1.55","LF","qnx5xathwg","1920","1080","0","1","0","5cc7f4b3854fb30001d0c13a","","null","","","","","","","learning/Slide56.JPG","null","","","","","",""
"html-keyboard-response","173","265491","0.0-5.0-2.55","LF","qnx5xathwg","1920","1080","0","1","0","5cc7f4b3854fb30001d0c13a","","null","","","learningBlock1","","","","<div style=""font-size:60px;""> </div>","null","LF","learning/Slide56.JPG","This is a tob:","","",""
"html-keyboard-response","174","266493","0.0-5.0-0.56","LF","qnx5xathwg","1920","1080","0","1","0","5cc7f4b3854fb30001d0c13a","","null","","","learningBlock1","","","","This is a dep:","null","","","","","",""
"image-keyboard-response","175","266819","0.0-5.0-1.56","LF","qnx5xathwg","1920","1080","0","1","0","5cc7f4b3854fb30001d0c13a","","null","","","","","","","learning/Slide57.JPG","null","","","","","",""
"html-keyboard-response","176","267820","0.0-5.0-2.56","LF","qnx5xathwg","1920","1080","0","1","0","5cc7f4b3854fb30001d0c13a","","null","","","learningBlock1","","","","<div style=""font-size:60px;""> </div>","null","LF","learning/Slide57.JPG","This is a dep:","","",""
"html-keyboard-response","177","268821","0.0-5.0-0.57","LF","qnx5xathwg","1920","1080","0","1","0","5cc7f4b3854fb30001d0c13a","","null","","","learningBlock1","","","","This is a wug:","null","","","","","",""
"image-keyboard-response","178","269148","0.0-5.0-1.57","LF","qnx5xathwg","1920","1080","0","1","0","5cc7f4b3854fb30001d0c13a","","null","","","","","","","learning/Slide58.JPG","null","","","","","",""
"html-keyboard-response","179","270149","0.0-5.0-2.57","LF","qnx5xathwg","1920","1080","0","1","0","5cc7f4b3854fb30001d0c13a","","null","","","learningBlock1","","","","<div style=""font-size:60px;""> </div>","null","LF","learning/Slide58.JPG","This is a wug:","","",""
"html-keyboard-response","180","271151","0.0-5.0-0.58","LF","qnx5xathwg","1920","1080","0","1","0","5cc7f4b3854fb30001d0c13a","","null","","","learningBlock1","","","","This is a dep:","null","","","","","",""
"image-keyboard-response","181","271477","0.0-5.0-1.58","LF","qnx5xathwg","1920","1080","0","1","0","5cc7f4b3854fb30001d0c13a","","null","","","","","","","learning/Slide59.JPG","null","","","","","",""
"html-keyboard-response","182","272479","0.0-5.0-2.58","LF","qnx5xathwg","1920","1080","0","1","0","5cc7f4b3854fb30001d0c13a","","null","","","learningBlock1","","","","<div style=""font-size:60px;""> </div>","null","LF","learning/Slide59.JPG","This is a dep:","","",""
"html-keyboard-response","183","273480","0.0-5.0-0.59","LF","qnx5xathwg","1920","1080","0","1","0","5cc7f4b3854fb30001d0c13a","","null","","","learningBlock1","","","","This is a wug:","null","","","","","",""
"image-keyboard-response","184","273806","0.0-5.0-1.59","LF","qnx5xathwg","1920","1080","0","1","0","5cc7f4b3854fb30001d0c13a","","null","","","","","","","learning/Slide60.JPG","null","","","","","",""
"html-keyboard-response","185","274808","0.0-5.0-2.59","LF","qnx5xathwg","1920","1080","0","1","0","5cc7f4b3854fb30001d0c13a","","null","","","learningBlock1","","","","<div style=""font-size:60px;""> </div>","null","LF","learning/Slide60.JPG","This is a wug:","","",""
"html-keyboard-response","186","275809","0.0-5.0-0.60","LF","qnx5xathwg","1920","1080","0","1","0","5cc7f4b3854fb30001d0c13a","","null","","","learningBlock1","","","","This is a bim:","null","","","","","",""
"image-keyboard-response","187","276136","0.0-5.0-1.60","LF","qnx5xathwg","1920","1080","0","1","0","5cc7f4b3854fb30001d0c13a","","null","","","","","","","learning/Slide61.JPG","null","","","","","",""
"html-keyboard-response","188","277137","0.0-5.0-2.60","LF","qnx5xathwg","1920","1080","0","1","0","5cc7f4b3854fb30001d0c13a","","null","","","learningBlock1","","","","<div style=""font-size:60px;""> </div>","null","LF","learning/Slide61.JPG","This is a bim:","","",""
"html-keyboard-response","189","278138","0.0-5.0-0.61","LF","qnx5xathwg","1920","1080","0","1","0","5cc7f4b3854fb30001d0c13a","","null","","","learningBlock1","","","","This is a dep:","null","","","","","",""
"image-keyboard-response","190","278465","0.0-5.0-1.61","LF","qnx5xathwg","1920","1080","0","1","0","5cc7f4b3854fb30001d0c13a","","null","","","","","","","learning/Slide62.JPG","null","","","","","",""
"html-keyboard-response","191","279466","0.0-5.0-2.61","LF","qnx5xathwg","1920","1080","0","1","0","5cc7f4b3854fb30001d0c13a","","null","","","learningBlock1","","","","<div style=""font-size:60px;""> </div>","null","LF","learning/Slide62.JPG","This is a dep:","","",""
"html-keyboard-response","192","280468","0.0-5.0-0.62","LF","qnx5xathwg","1920","1080","0","1","0","5cc7f4b3854fb30001d0c13a","","null","","","learningBlock1","","","","This is a bim:","null","","","","","",""
"image-keyboard-response","193","280794","0.0-5.0-1.62","LF","qnx5xathwg","1920","1080","0","1","0","5cc7f4b3854fb30001d0c13a","","null","","","","","","","learning/Slide63.JPG","null","","","","","",""
"html-keyboard-response","194","281795","0.0-5.0-2.62","LF","qnx5xathwg","1920","1080","0","1","0","5cc7f4b3854fb30001d0c13a","","null","","","learningBlock1","","","","<div style=""font-size:60px;""> </div>","null","LF","learning/Slide63.JPG","This is a bim:","","",""
"html-keyboard-response","195","282797","0.0-5.0-0.63","LF","qnx5xathwg","1920","1080","0","1","0","5cc7f4b3854fb30001d0c13a","","null","","","learningBlock1","","","","This is a tob:","null","","","","","",""
"image-keyboard-response","196","283123","0.0-5.0-1.63","LF","qnx5xathwg","1920","1080","0","1","0","5cc7f4b3854fb30001d0c13a","","null","","","","","","","learning/Slide64.JPG","null","","","","","",""
"html-keyboard-response","197","284125","0.0-5.0-2.63","LF","qnx5xathwg","1920","1080","0","1","0","5cc7f4b3854fb30001d0c13a","","null","","","learningBlock1","","","","<div style=""font-size:60px;""> </div>","null","LF","learning/Slide64.JPG","This is a tob:","","",""
"html-keyboard-response","198","285126","0.0-5.0-0.64","LF","qnx5xathwg","1920","1080","0","1","0","5cc7f4b3854fb30001d0c13a","","null","","","learningBlock1","","","","This is a wug:","null","","","","","",""
"image-keyboard-response","199","285453","0.0-5.0-1.64","LF","qnx5xathwg","1920","1080","0","1","0","5cc7f4b3854fb30001d0c13a","","null","","","","","","","learning/Slide65.JPG","null","","","","","",""
"html-keyboard-response","200","286454","0.0-5.0-2.64","LF","qnx5xathwg","1920","1080","0","1","0","5cc7f4b3854fb30001d0c13a","","null","","","learningBlock1","","","","<div style=""font-size:60px;""> </div>","null","LF","learning/Slide65.JPG","This is a wug:","","",""
"html-keyboard-response","201","287455","0.0-5.0-0.65","LF","qnx5xathwg","1920","1080","0","1","0","5cc7f4b3854fb30001d0c13a","","null","","","learningBlock1","","","","This is a dep:","null","","","","","",""
"image-keyboard-response","202","287782","0.0-5.0-1.65","LF","qnx5xathwg","1920","1080","0","1","0","5cc7f4b3854fb30001d0c13a","","null","","","","","","","learning/Slide66.JPG","null","","","","","",""
"html-keyboard-response","203","288783","0.0-5.0-2.65","LF","qnx5xathwg","1920","1080","0","1","0","5cc7f4b3854fb30001d0c13a","","null","","","learningBlock1","","","","<div style=""font-size:60px;""> </div>","null","LF","learning/Slide66.JPG","This is a dep:","","",""
"html-keyboard-response","204","289784","0.0-5.0-0.66","LF","qnx5xathwg","1920","1080","0","1","0","5cc7f4b3854fb30001d0c13a","","null","","","learningBlock1","","","","This is a tob:","null","","","","","",""
"image-keyboard-response","205","290111","0.0-5.0-1.66","LF","qnx5xathwg","1920","1080","0","1","0","5cc7f4b3854fb30001d0c13a","","null","","","","","","","learning/Slide67.JPG","null","","","","","",""
"html-keyboard-response","206","291112","0.0-5.0-2.66","LF","qnx5xathwg","1920","1080","0","1","0","5cc7f4b3854fb30001d0c13a","","null","","","learningBlock1","","","","<div style=""font-size:60px;""> </div>","null","LF","learning/Slide67.JPG","This is a tob:","","",""
"html-keyboard-response","207","292113","0.0-5.0-0.67","LF","qnx5xathwg","1920","1080","0","1","0","5cc7f4b3854fb30001d0c13a","","null","","","learningBlock1","","","","This is a wug:","null","","","","","",""
"image-keyboard-response","208","292440","0.0-5.0-1.67","LF","qnx5xathwg","1920","1080","0","1","0","5cc7f4b3854fb30001d0c13a","","null","","","","","","","learning/Slide68.JPG","null","","","","","",""
"html-keyboard-response","209","293441","0.0-5.0-2.67","LF","qnx5xathwg","1920","1080","0","1","0","5cc7f4b3854fb30001d0c13a","","null","","","learningBlock1","","","","<div style=""font-size:60px;""> </div>","null","LF","learning/Slide68.JPG","This is a wug:","","",""
"html-keyboard-response","210","294442","0.0-5.0-0.68","LF","qnx5xathwg","1920","1080","0","1","0","5cc7f4b3854fb30001d0c13a","","null","","","learningBlock1","","","","This is a tob:","null","","","","","",""
"image-keyboard-response","211","294769","0.0-5.0-1.68","LF","qnx5xathwg","1920","1080","0","1","0","5cc7f4b3854fb30001d0c13a","","null","","","","","","","learning/Slide69.JPG","null","","","","","",""
"html-keyboard-response","212","295770","0.0-5.0-2.68","LF","qnx5xathwg","1920","1080","0","1","0","5cc7f4b3854fb30001d0c13a","","null","","","learningBlock1","","","","<div style=""font-size:60px;""> </div>","null","LF","learning/Slide69.JPG","This is a tob:","","",""
"html-keyboard-response","213","296771","0.0-5.0-0.69","LF","qnx5xathwg","1920","1080","0","1","0","5cc7f4b3854fb30001d0c13a","","null","","","learningBlock1","","","","This is a dep:","null","","","","","",""
"image-keyboard-response","214","297098","0.0-5.0-1.69","LF","qnx5xathwg","1920","1080","0","1","0","5cc7f4b3854fb30001d0c13a","","null","","","","","","","learning/Slide70.JPG","null","","","","","",""
"html-keyboard-response","215","298099","0.0-5.0-2.69","LF","qnx5xathwg","1920","1080","0","1","0","5cc7f4b3854fb30001d0c13a","","null","","","learningBlock1","","","","<div style=""font-size:60px;""> </div>","null","LF","learning/Slide70.JPG","This is a dep:","","",""
"html-keyboard-response","216","299100","0.0-5.0-0.70","LF","qnx5xathwg","1920","1080","0","1","0","5cc7f4b3854fb30001d0c13a","","null","","","learningBlock1","","","","This is a wug:","null","","","","","",""
"image-keyboard-response","217","299427","0.0-5.0-1.70","LF","qnx5xathwg","1920","1080","0","1","0","5cc7f4b3854fb30001d0c13a","","null","","","","","","","learning/Slide71.JPG","null","","","","","",""
"html-keyboard-response","218","300428","0.0-5.0-2.70","LF","qnx5xathwg","1920","1080","0","1","0","5cc7f4b3854fb30001d0c13a","","null","","","learningBlock1","","","","<div style=""font-size:60px;""> </div>","null","LF","learning/Slide71.JPG","This is a wug:","","",""
"html-keyboard-response","219","301429","0.0-5.0-0.71","LF","qnx5xathwg","1920","1080","0","1","0","5cc7f4b3854fb30001d0c13a","","null","","","learningBlock1","","","","This is a bim:","null","","","","","",""
"image-keyboard-response","220","301756","0.0-5.0-1.71","LF","qnx5xathwg","1920","1080","0","1","0","5cc7f4b3854fb30001d0c13a","","null","","","","","","","learning/Slide72.JPG","null","","","","","",""
"html-keyboard-response","221","302757","0.0-5.0-2.71","LF","qnx5xathwg","1920","1080","0","1","0","5cc7f4b3854fb30001d0c13a","","null","","","learningBlock1","","","","<div style=""font-size:60px;""> </div>","null","LF","learning/Slide72.JPG","This is a bim:","","",""
"html-keyboard-response","222","303758","0.0-5.0-0.72","LF","qnx5xathwg","1920","1080","0","1","0","5cc7f4b3854fb30001d0c13a","","null","","","learningBlock1","","","","This is a wug:","null","","","","","",""
"image-keyboard-response","223","304085","0.0-5.0-1.72","LF","qnx5xathwg","1920","1080","0","1","0","5cc7f4b3854fb30001d0c13a","","null","","","","","","","learning/Slide73.JPG","null","","","","","",""
"html-keyboard-response","224","305086","0.0-5.0-2.72","LF","qnx5xathwg","1920","1080","0","1","0","5cc7f4b3854fb30001d0c13a","","null","","","learningBlock1","","","","<div style=""font-size:60px;""> </div>","null","LF","learning/Slide73.JPG","This is a wug:","","",""
"html-keyboard-response","225","306088","0.0-5.0-0.73","LF","qnx5xathwg","1920","1080","0","1","0","5cc7f4b3854fb30001d0c13a","","null","","","learningBlock1","","","","This is a dep:","null","","","","","",""
"image-keyboard-response","226","306414","0.0-5.0-1.73","LF","qnx5xathwg","1920","1080","0","1","0","5cc7f4b3854fb30001d0c13a","","null","","","","","","","learning/Slide74.JPG","null","","","","","",""
"html-keyboard-response","227","307415","0.0-5.0-2.73","LF","qnx5xathwg","1920","1080","0","1","0","5cc7f4b3854fb30001d0c13a","","null","","","learningBlock1","","","","<div style=""font-size:60px;""> </div>","null","LF","learning/Slide74.JPG","This is a dep:","","",""
"html-keyboard-response","228","308417","0.0-5.0-0.74","LF","qnx5xathwg","1920","1080","0","1","0","5cc7f4b3854fb30001d0c13a","","null","","","learningBlock1","","","","This is a tob:","null","","","","","",""
"image-keyboard-response","229","308743","0.0-5.0-1.74","LF","qnx5xathwg","1920","1080","0","1","0","5cc7f4b3854fb30001d0c13a","","null","","","","","","","learning/Slide75.JPG","null","","","","","",""
"html-keyboard-response","230","309745","0.0-5.0-2.74","LF","qnx5xathwg","1920","1080","0","1","0","5cc7f4b3854fb30001d0c13a","","null","","","learningBlock1","","","","<div style=""font-size:60px;""> </div>","null","LF","learning/Slide75.JPG","This is a tob:","","",""
"html-keyboard-response","231","310746","0.0-5.0-0.75","LF","qnx5xathwg","1920","1080","0","1","0","5cc7f4b3854fb30001d0c13a","","null","","","learningBlock1","","","","This is a bim:","null","","","","","",""
"image-keyboard-response","232","311072","0.0-5.0-1.75","LF","qnx5xathwg","1920","1080","0","1","0","5cc7f4b3854fb30001d0c13a","","null","","","","","","","learning/Slide76.JPG","null","","","","","",""
"html-keyboard-response","233","312074","0.0-5.0-2.75","LF","qnx5xathwg","1920","1080","0","1","0","5cc7f4b3854fb30001d0c13a","","null","","","learningBlock1","","","","<div style=""font-size:60px;""> </div>","null","LF","learning/Slide76.JPG","This is a bim:","","",""
"html-keyboard-response","234","313075","0.0-5.0-0.76","LF","qnx5xathwg","1920","1080","0","1","0","5cc7f4b3854fb30001d0c13a","","null","","","learningBlock1","","","","This is a tob:","null","","","","","",""
"image-keyboard-response","235","313402","0.0-5.0-1.76","LF","qnx5xathwg","1920","1080","0","1","0","5cc7f4b3854fb30001d0c13a","","null","","","","","","","learning/Slide77.JPG","null","","","","","",""
"html-keyboard-response","236","314403","0.0-5.0-2.76","LF","qnx5xathwg","1920","1080","0","1","0","5cc7f4b3854fb30001d0c13a","","null","","","learningBlock1","","","","<div style=""font-size:60px;""> </div>","null","LF","learning/Slide77.JPG","This is a tob:","","",""
"html-keyboard-response","237","315404","0.0-5.0-0.77","LF","qnx5xathwg","1920","1080","0","1","0","5cc7f4b3854fb30001d0c13a","","null","","","learningBlock1","","","","This is a wug:","null","","","","","",""
"image-keyboard-response","238","315731","0.0-5.0-1.77","LF","qnx5xathwg","1920","1080","0","1","0","5cc7f4b3854fb30001d0c13a","","null","","","","","","","learning/Slide78.JPG","null","","","","","",""
"html-keyboard-response","239","316732","0.0-5.0-2.77","LF","qnx5xathwg","1920","1080","0","1","0","5cc7f4b3854fb30001d0c13a","","null","","","learningBlock1","","","","<div style=""font-size:60px;""> </div>","null","LF","learning/Slide78.JPG","This is a wug:","","",""
"html-keyboard-response","240","317733","0.0-5.0-0.78","LF","qnx5xathwg","1920","1080","0","1","0","5cc7f4b3854fb30001d0c13a","","null","","","learningBlock1","","","","This is a bim:","null","","","","","",""
"image-keyboard-response","241","318060","0.0-5.0-1.78","LF","qnx5xathwg","1920","1080","0","1","0","5cc7f4b3854fb30001d0c13a","","null","","","","","","","learning/Slide79.JPG","null","","","","","",""
"html-keyboard-response","242","319061","0.0-5.0-2.78","LF","qnx5xathwg","1920","1080","0","1","0","5cc7f4b3854fb30001d0c13a","","null","","","learningBlock1","","","","<div style=""font-size:60px;""> </div>","null","LF","learning/Slide79.JPG","This is a bim:","","",""
"html-keyboard-response","243","320063","0.0-5.0-0.79","LF","qnx5xathwg","1920","1080","0","1","0","5cc7f4b3854fb30001d0c13a","","null","","","learningBlock1","","","","This is a tob:","null","","","","","",""
"image-keyboard-response","244","320389","0.0-5.0-1.79","LF","qnx5xathwg","1920","1080","0","1","0","5cc7f4b3854fb30001d0c13a","","null","","","","","","","learning/Slide80.JPG","null","","","","","",""
"html-keyboard-response","245","321390","0.0-5.0-2.79","LF","qnx5xathwg","1920","1080","0","1","0","5cc7f4b3854fb30001d0c13a","","null","","","learningBlock1","","","","<div style=""font-size:60px;""> </div>","null","LF","learning/Slide80.JPG","This is a tob:","","",""
"instructions","246","324780","0.0-6.0","LF","qnx5xathwg","1920","1080","0","1","0","5cc7f4b3854fb30001d0c13a","","NA","","[{""page_index"":0,""viewing_time"":3388.5699999518692}]","instructions","","","","","","","","","","",""
"html-keyboard-response","247","325783","0.0-7.0-0.0","LF","qnx5xathwg","1920","1080","0","1","0","5cc7f4b3854fb30001d0c13a","","null","","","learningBlock2","","","","This is a wug:","null","","","","","",""
"image-keyboard-response","248","326110","0.0-7.0-1.0","LF","qnx5xathwg","1920","1080","0","1","0","5cc7f4b3854fb30001d0c13a","","null","","","","","","","learning/Slide81.JPG","null","","","","","",""
"html-keyboard-response","249","327111","0.0-7.0-2.0","LF","qnx5xathwg","1920","1080","0","1","0","5cc7f4b3854fb30001d0c13a","","null","","","learningBlock2","","","","<div style=""font-size:60px;""> </div>","null","LF","learning/Slide81.JPG","This is a wug:","","",""
"html-keyboard-response","250","328112","0.0-7.0-0.1","LF","qnx5xathwg","1920","1080","0","1","0","5cc7f4b3854fb30001d0c13a","","null","","","learningBlock2","","","","This is a bim:","null","","","","","",""
"image-keyboard-response","251","328439","0.0-7.0-1.1","LF","qnx5xathwg","1920","1080","0","1","0","5cc7f4b3854fb30001d0c13a","","null","","","","","","","learning/Slide82.JPG","null","","","","","",""
"html-keyboard-response","252","329441","0.0-7.0-2.1","LF","qnx5xathwg","1920","1080","0","1","0","5cc7f4b3854fb30001d0c13a","","null","","","learningBlock2","","","","<div style=""font-size:60px;""> </div>","null","LF","learning/Slide82.JPG","This is a bim:","","",""
"html-keyboard-response","253","330442","0.0-7.0-0.2","LF","qnx5xathwg","1920","1080","0","1","0","5cc7f4b3854fb30001d0c13a","","null","","","learningBlock2","","","","This is a wug:","null","","","","","",""
"image-keyboard-response","254","330768","0.0-7.0-1.2","LF","qnx5xathwg","1920","1080","0","1","0","5cc7f4b3854fb30001d0c13a","","null","","","","","","","learning/Slide83.JPG","null","","","","","",""
"html-keyboard-response","255","331770","0.0-7.0-2.2","LF","qnx5xathwg","1920","1080","0","1","0","5cc7f4b3854fb30001d0c13a","","null","","","learningBlock2","","","","<div style=""font-size:60px;""> </div>","null","LF","learning/Slide83.JPG","This is a wug:","","",""
"html-keyboard-response","256","332771","0.0-7.0-0.3","LF","qnx5xathwg","1920","1080","0","1","0","5cc7f4b3854fb30001d0c13a","","null","","","learningBlock2","","","","This is a dep:","null","","","","","",""
"image-keyboard-response","257","333097","0.0-7.0-1.3","LF","qnx5xathwg","1920","1080","0","1","0","5cc7f4b3854fb30001d0c13a","","null","","","","","","","learning/Slide84.JPG","null","","","","","",""
"html-keyboard-response","258","334099","0.0-7.0-2.3","LF","qnx5xathwg","1920","1080","0","1","0","5cc7f4b3854fb30001d0c13a","","null","","","learningBlock2","","","","<div style=""font-size:60px;""> </div>","null","LF","learning/Slide84.JPG","This is a dep:","","",""
"html-keyboard-response","259","335100","0.0-7.0-0.4","LF","qnx5xathwg","1920","1080","0","1","0","5cc7f4b3854fb30001d0c13a","","null","","","learningBlock2","","","","This is a bim:","null","","","","","",""
"image-keyboard-response","260","335426","0.0-7.0-1.4","LF","qnx5xathwg","1920","1080","0","1","0","5cc7f4b3854fb30001d0c13a","","null","","","","","","","learning/Slide85.JPG","null","","","","","",""
"html-keyboard-response","261","336428","0.0-7.0-2.4","LF","qnx5xathwg","1920","1080","0","1","0","5cc7f4b3854fb30001d0c13a","","null","","","learningBlock2","","","","<div style=""font-size:60px;""> </div>","null","LF","learning/Slide85.JPG","This is a bim:","","",""
"html-keyboard-response","262","337429","0.0-7.0-0.5","LF","qnx5xathwg","1920","1080","0","1","0","5cc7f4b3854fb30001d0c13a","","null","","","learningBlock2","","","","This is a tob:","null","","","","","",""
"image-keyboard-response","263","337755","0.0-7.0-1.5","LF","qnx5xathwg","1920","1080","0","1","0","5cc7f4b3854fb30001d0c13a","","null","","","","","","","learning/Slide86.JPG","null","","","","","",""
"html-keyboard-response","264","338757","0.0-7.0-2.5","LF","qnx5xathwg","1920","1080","0","1","0","5cc7f4b3854fb30001d0c13a","","null","","","learningBlock2","","","","<div style=""font-size:60px;""> </div>","null","LF","learning/Slide86.JPG","This is a tob:","","",""
"html-keyboard-response","265","339758","0.0-7.0-0.6","LF","qnx5xathwg","1920","1080","0","1","0","5cc7f4b3854fb30001d0c13a","","null","","","learningBlock2","","","","This is a wug:","null","","","","","",""
"image-keyboard-response","266","340085","0.0-7.0-1.6","LF","qnx5xathwg","1920","1080","0","1","0","5cc7f4b3854fb30001d0c13a","","null","","","","","","","learning/Slide87.JPG","null","","","","","",""
"html-keyboard-response","267","341086","0.0-7.0-2.6","LF","qnx5xathwg","1920","1080","0","1","0","5cc7f4b3854fb30001d0c13a","","null","","","learningBlock2","","","","<div style=""font-size:60px;""> </div>","null","LF","learning/Slide87.JPG","This is a wug:","","",""
"html-keyboard-response","268","342087","0.0-7.0-0.7","LF","qnx5xathwg","1920","1080","0","1","0","5cc7f4b3854fb30001d0c13a","","null","","","learningBlock2","","","","This is a tob:","null","","","","","",""
"image-keyboard-response","269","342414","0.0-7.0-1.7","LF","qnx5xathwg","1920","1080","0","1","0","5cc7f4b3854fb30001d0c13a","","null","","","","","","","learning/Slide88.JPG","null","","","","","",""
"html-keyboard-response","270","343415","0.0-7.0-2.7","LF","qnx5xathwg","1920","1080","0","1","0","5cc7f4b3854fb30001d0c13a","","null","","","learningBlock2","","","","<div style=""font-size:60px;""> </div>","null","LF","learning/Slide88.JPG","This is a tob:","","",""
"html-keyboard-response","271","344416","0.0-7.0-0.8","LF","qnx5xathwg","1920","1080","0","1","0","5cc7f4b3854fb30001d0c13a","","null","","","learningBlock2","","","","This is a bim:","null","","","","","",""
"image-keyboard-response","272","344743","0.0-7.0-1.8","LF","qnx5xathwg","1920","1080","0","1","0","5cc7f4b3854fb30001d0c13a","","null","","","","","","","learning/Slide89.JPG","null","","","","","",""
"html-keyboard-response","273","345744","0.0-7.0-2.8","LF","qnx5xathwg","1920","1080","0","1","0","5cc7f4b3854fb30001d0c13a","","null","","","learningBlock2","","","","<div style=""font-size:60px;""> </div>","null","LF","learning/Slide89.JPG","This is a bim:","","",""
"html-keyboard-response","274","346745","0.0-7.0-0.9","LF","qnx5xathwg","1920","1080","0","1","0","5cc7f4b3854fb30001d0c13a","","null","","","learningBlock2","","","","This is a dep:","null","","","","","",""
"image-keyboard-response","275","347072","0.0-7.0-1.9","LF","qnx5xathwg","1920","1080","0","1","0","5cc7f4b3854fb30001d0c13a","","null","","","","","","","learning/Slide90.JPG","null","","","","","",""
"html-keyboard-response","276","348073","0.0-7.0-2.9","LF","qnx5xathwg","1920","1080","0","1","0","5cc7f4b3854fb30001d0c13a","","null","","","learningBlock2","","","","<div style=""font-size:60px;""> </div>","null","LF","learning/Slide90.JPG","This is a dep:","","",""
"html-keyboard-response","277","349074","0.0-7.0-0.10","LF","qnx5xathwg","1920","1080","0","1","0","5cc7f4b3854fb30001d0c13a","","null","","","learningBlock2","","","","This is a wug:","null","","","","","",""
"image-keyboard-response","278","349401","0.0-7.0-1.10","LF","qnx5xathwg","1920","1080","0","1","0","5cc7f4b3854fb30001d0c13a","","null","","","","","","","learning/Slide91.JPG","null","","","","","",""
"html-keyboard-response","279","350402","0.0-7.0-2.10","LF","qnx5xathwg","1920","1080","0","1","0","5cc7f4b3854fb30001d0c13a","","null","","","learningBlock2","","","","<div style=""font-size:60px;""> </div>","null","LF","learning/Slide91.JPG","This is a wug:","","",""
"html-keyboard-response","280","351405","0.0-7.0-0.11","LF","qnx5xathwg","1920","1080","0","1","0","5cc7f4b3854fb30001d0c13a","","null","","","learningBlock2","","","","This is a tob:","null","","","","","",""
"image-keyboard-response","281","351731","0.0-7.0-1.11","LF","qnx5xathwg","1920","1080","0","1","0","5cc7f4b3854fb30001d0c13a","","null","","","","","","","learning/Slide92.JPG","null","","","","","",""
"html-keyboard-response","282","352732","0.0-7.0-2.11","LF","qnx5xathwg","1920","1080","0","1","0","5cc7f4b3854fb30001d0c13a","","null","","","learningBlock2","","","","<div style=""font-size:60px;""> </div>","null","LF","learning/Slide92.JPG","This is a tob:","","",""
"html-keyboard-response","283","353734","0.0-7.0-0.12","LF","qnx5xathwg","1920","1080","0","1","0","5cc7f4b3854fb30001d0c13a","","null","","","learningBlock2","","","","This is a bim:","null","","","","","",""
"image-keyboard-response","284","354060","0.0-7.0-1.12","LF","qnx5xathwg","1920","1080","0","1","0","5cc7f4b3854fb30001d0c13a","","null","","","","","","","learning/Slide93.JPG","null","","","","","",""
"html-keyboard-response","285","355061","0.0-7.0-2.12","LF","qnx5xathwg","1920","1080","0","1","0","5cc7f4b3854fb30001d0c13a","","null","","","learningBlock2","","","","<div style=""font-size:60px;""> </div>","null","LF","learning/Slide93.JPG","This is a bim:","","",""
"html-keyboard-response","286","356063","0.0-7.0-0.13","LF","qnx5xathwg","1920","1080","0","1","0","5cc7f4b3854fb30001d0c13a","","null","","","learningBlock2","","","","This is a tob:","null","","","","","",""
"image-keyboard-response","287","356389","0.0-7.0-1.13","LF","qnx5xathwg","1920","1080","0","1","0","5cc7f4b3854fb30001d0c13a","","null","","","","","","","learning/Slide94.JPG","null","","","","","",""
"html-keyboard-response","288","357391","0.0-7.0-2.13","LF","qnx5xathwg","1920","1080","0","1","0","5cc7f4b3854fb30001d0c13a","","null","","","learningBlock2","","","","<div style=""font-size:60px;""> </div>","null","LF","learning/Slide94.JPG","This is a tob:","","",""
"html-keyboard-response","289","358392","0.0-7.0-0.14","LF","qnx5xathwg","1920","1080","0","1","0","5cc7f4b3854fb30001d0c13a","","null","","","learningBlock2","","","","This is a wug:","null","","","","","",""
"image-keyboard-response","290","358718","0.0-7.0-1.14","LF","qnx5xathwg","1920","1080","0","1","0","5cc7f4b3854fb30001d0c13a","","null","","","","","","","learning/Slide95.JPG","null","","","","","",""
"html-keyboard-response","291","359720","0.0-7.0-2.14","LF","qnx5xathwg","1920","1080","0","1","0","5cc7f4b3854fb30001d0c13a","","null","","","learningBlock2","","","","<div style=""font-size:60px;""> </div>","null","LF","learning/Slide95.JPG","This is a wug:","","",""
"html-keyboard-response","292","360721","0.0-7.0-0.15","LF","qnx5xathwg","1920","1080","0","1","0","5cc7f4b3854fb30001d0c13a","","null","","","learningBlock2","","","","This is a tob:","null","","","","","",""
"image-keyboard-response","293","361048","0.0-7.0-1.15","LF","qnx5xathwg","1920","1080","0","1","0","5cc7f4b3854fb30001d0c13a","","null","","","","","","","learning/Slide96.JPG","null","","","","","",""
"html-keyboard-response","294","362049","0.0-7.0-2.15","LF","qnx5xathwg","1920","1080","0","1","0","5cc7f4b3854fb30001d0c13a","","null","","","learningBlock2","","","","<div style=""font-size:60px;""> </div>","null","LF","learning/Slide96.JPG","This is a tob:","","",""
"html-keyboard-response","295","363050","0.0-7.0-0.16","LF","qnx5xathwg","1920","1080","0","1","0","5cc7f4b3854fb30001d0c13a","","null","","","learningBlock2","","","","This is a dep:","null","","","","","",""
"image-keyboard-response","296","363377","0.0-7.0-1.16","LF","qnx5xathwg","1920","1080","0","1","0","5cc7f4b3854fb30001d0c13a","","null","","","","","","","learning/Slide97.JPG","null","","","","","",""
"html-keyboard-response","297","364378","0.0-7.0-2.16","LF","qnx5xathwg","1920","1080","0","1","0","5cc7f4b3854fb30001d0c13a","","null","","","learningBlock2","","","","<div style=""font-size:60px;""> </div>","null","LF","learning/Slide97.JPG","This is a dep:","","",""
"html-keyboard-response","298","365379","0.0-7.0-0.17","LF","qnx5xathwg","1920","1080","0","1","0","5cc7f4b3854fb30001d0c13a","","null","","","learningBlock2","","","","This is a bim:","null","","","","","",""
"image-keyboard-response","299","365706","0.0-7.0-1.17","LF","qnx5xathwg","1920","1080","0","1","0","5cc7f4b3854fb30001d0c13a","","null","","","","","","","learning/Slide98.JPG","null","","","","","",""
"html-keyboard-response","300","366707","0.0-7.0-2.17","LF","qnx5xathwg","1920","1080","0","1","0","5cc7f4b3854fb30001d0c13a","","null","","","learningBlock2","","","","<div style=""font-size:60px;""> </div>","null","LF","learning/Slide98.JPG","This is a bim:","","",""
"html-keyboard-response","301","367709","0.0-7.0-0.18","LF","qnx5xathwg","1920","1080","0","1","0","5cc7f4b3854fb30001d0c13a","","null","","","learningBlock2","","","","This is a dep:","null","","","","","",""
"image-keyboard-response","302","368035","0.0-7.0-1.18","LF","qnx5xathwg","1920","1080","0","1","0","5cc7f4b3854fb30001d0c13a","","null","","","","","","","learning/Slide99.JPG","null","","","","","",""
"html-keyboard-response","303","369036","0.0-7.0-2.18","LF","qnx5xathwg","1920","1080","0","1","0","5cc7f4b3854fb30001d0c13a","","null","","","learningBlock2","","","","<div style=""font-size:60px;""> </div>","null","LF","learning/Slide99.JPG","This is a dep:","","",""
"html-keyboard-response","304","370038","0.0-7.0-0.19","LF","qnx5xathwg","1920","1080","0","1","0","5cc7f4b3854fb30001d0c13a","","null","","","learningBlock2","","","","This is a bim:","null","","","","","",""
"image-keyboard-response","305","370364","0.0-7.0-1.19","LF","qnx5xathwg","1920","1080","0","1","0","5cc7f4b3854fb30001d0c13a","","null","","","","","","","learning/Slide100.JPG","null","","","","","",""
"html-keyboard-response","306","371365","0.0-7.0-2.19","LF","qnx5xathwg","1920","1080","0","1","0","5cc7f4b3854fb30001d0c13a","","null","","","learningBlock2","","","","<div style=""font-size:60px;""> </div>","null","LF","learning/Slide100.JPG","This is a bim:","","",""
"html-keyboard-response","307","372367","0.0-7.0-0.20","LF","qnx5xathwg","1920","1080","0","1","0","5cc7f4b3854fb30001d0c13a","","null","","","learningBlock2","","","","This is a tob:","null","","","","","",""
"image-keyboard-response","308","372693","0.0-7.0-1.20","LF","qnx5xathwg","1920","1080","0","1","0","5cc7f4b3854fb30001d0c13a","","null","","","","","","","learning/Slide101.JPG","null","","","","","",""
"html-keyboard-response","309","373695","0.0-7.0-2.20","LF","qnx5xathwg","1920","1080","0","1","0","5cc7f4b3854fb30001d0c13a","","null","","","learningBlock2","","","","<div style=""font-size:60px;""> </div>","null","LF","learning/Slide101.JPG","This is a tob:","","",""
"html-keyboard-response","310","374696","0.0-7.0-0.21","LF","qnx5xathwg","1920","1080","0","1","0","5cc7f4b3854fb30001d0c13a","","null","","","learningBlock2","","","","This is a bim:","null","","","","","",""
"image-keyboard-response","311","375022","0.0-7.0-1.21","LF","qnx5xathwg","1920","1080","0","1","0","5cc7f4b3854fb30001d0c13a","","null","","","","","","","learning/Slide102.JPG","null","","","","","",""
"html-keyboard-response","312","376024","0.0-7.0-2.21","LF","qnx5xathwg","1920","1080","0","1","0","5cc7f4b3854fb30001d0c13a","","null","","","learningBlock2","","","","<div style=""font-size:60px;""> </div>","null","LF","learning/Slide102.JPG","This is a bim:","","",""
"html-keyboard-response","313","377025","0.0-7.0-0.22","LF","qnx5xathwg","1920","1080","0","1","0","5cc7f4b3854fb30001d0c13a","","null","","","learningBlock2","","","","This is a dep:","null","","","","","",""
"image-keyboard-response","314","377352","0.0-7.0-1.22","LF","qnx5xathwg","1920","1080","0","1","0","5cc7f4b3854fb30001d0c13a","","null","","","","","","","learning/Slide103.JPG","null","","","","","",""
"html-keyboard-response","315","378353","0.0-7.0-2.22","LF","qnx5xathwg","1920","1080","0","1","0","5cc7f4b3854fb30001d0c13a","","null","","","learningBlock2","","","","<div style=""font-size:60px;""> </div>","null","LF","learning/Slide103.JPG","This is a dep:","","",""
"html-keyboard-response","316","379354","0.0-7.0-0.23","LF","qnx5xathwg","1920","1080","0","1","0","5cc7f4b3854fb30001d0c13a","","null","","","learningBlock2","","","","This is a tob:","null","","","","","",""
"image-keyboard-response","317","379681","0.0-7.0-1.23","LF","qnx5xathwg","1920","1080","0","1","0","5cc7f4b3854fb30001d0c13a","","null","","","","","","","learning/Slide104.JPG","null","","","","","",""
"html-keyboard-response","318","380682","0.0-7.0-2.23","LF","qnx5xathwg","1920","1080","0","1","0","5cc7f4b3854fb30001d0c13a","","null","","","learningBlock2","","","","<div style=""font-size:60px;""> </div>","null","LF","learning/Slide104.JPG","This is a tob:","","",""
"html-keyboard-response","319","381684","0.0-7.0-0.24","LF","qnx5xathwg","1920","1080","0","1","0","5cc7f4b3854fb30001d0c13a","","null","","","learningBlock2","","","","This is a dep:","null","","","","","",""
"image-keyboard-response","320","382010","0.0-7.0-1.24","LF","qnx5xathwg","1920","1080","0","1","0","5cc7f4b3854fb30001d0c13a","","null","","","","","","","learning/Slide105.JPG","null","","","","","",""
"html-keyboard-response","321","383012","0.0-7.0-2.24","LF","qnx5xathwg","1920","1080","0","1","0","5cc7f4b3854fb30001d0c13a","","null","","","learningBlock2","","","","<div style=""font-size:60px;""> </div>","null","LF","learning/Slide105.JPG","This is a dep:","","",""
"html-keyboard-response","322","384013","0.0-7.0-0.25","LF","qnx5xathwg","1920","1080","0","1","0","5cc7f4b3854fb30001d0c13a","","null","","","learningBlock2","","","","This is a wug:","null","","","","","",""
"image-keyboard-response","323","384340","0.0-7.0-1.25","LF","qnx5xathwg","1920","1080","0","1","0","5cc7f4b3854fb30001d0c13a","","null","","","","","","","learning/Slide106.JPG","null","","","","","",""
"html-keyboard-response","324","385341","0.0-7.0-2.25","LF","qnx5xathwg","1920","1080","0","1","0","5cc7f4b3854fb30001d0c13a","","null","","","learningBlock2","","","","<div style=""font-size:60px;""> </div>","null","LF","learning/Slide106.JPG","This is a wug:","","",""
"html-keyboard-response","325","386342","0.0-7.0-0.26","LF","qnx5xathwg","1920","1080","0","1","0","5cc7f4b3854fb30001d0c13a","","null","","","learningBlock2","","","","This is a bim:","null","","","","","",""
"image-keyboard-response","326","386669","0.0-7.0-1.26","LF","qnx5xathwg","1920","1080","0","1","0","5cc7f4b3854fb30001d0c13a","","null","","","","","","","learning/Slide107.JPG","null","","","","","",""
"html-keyboard-response","327","387670","0.0-7.0-2.26","LF","qnx5xathwg","1920","1080","0","1","0","5cc7f4b3854fb30001d0c13a","","null","","","learningBlock2","","","","<div style=""font-size:60px;""> </div>","null","LF","learning/Slide107.JPG","This is a bim:","","",""
"html-keyboard-response","328","388671","0.0-7.0-0.27","LF","qnx5xathwg","1920","1080","0","1","0","5cc7f4b3854fb30001d0c13a","","null","","","learningBlock2","","","","This is a dep:","null","","","","","",""
"image-keyboard-response","329","388998","0.0-7.0-1.27","LF","qnx5xathwg","1920","1080","0","1","0","5cc7f4b3854fb30001d0c13a","","null","","","","","","","learning/Slide108.JPG","null","","","","","",""
"html-keyboard-response","330","389999","0.0-7.0-2.27","LF","qnx5xathwg","1920","1080","0","1","0","5cc7f4b3854fb30001d0c13a","","null","","","learningBlock2","","","","<div style=""font-size:60px;""> </div>","null","LF","learning/Slide108.JPG","This is a dep:","","",""
"html-keyboard-response","331","391000","0.0-7.0-0.28","LF","qnx5xathwg","1920","1080","0","1","0","5cc7f4b3854fb30001d0c13a","","null","","","learningBlock2","","","","This is a wug:","null","","","","","",""
"image-keyboard-response","332","391326","0.0-7.0-1.28","LF","qnx5xathwg","1920","1080","0","1","0","5cc7f4b3854fb30001d0c13a","","null","","","","","","","learning/Slide109.JPG","null","","","","","",""
"html-keyboard-response","333","392328","0.0-7.0-2.28","LF","qnx5xathwg","1920","1080","0","1","0","5cc7f4b3854fb30001d0c13a","","null","","","learningBlock2","","","","<div style=""font-size:60px;""> </div>","null","LF","learning/Slide109.JPG","This is a wug:","","",""
"html-keyboard-response","334","393329","0.0-7.0-0.29","LF","qnx5xathwg","1920","1080","0","1","0","5cc7f4b3854fb30001d0c13a","","null","","","learningBlock2","","","","This is a bim:","null","","","","","",""
"image-keyboard-response","335","393655","0.0-7.0-1.29","LF","qnx5xathwg","1920","1080","0","1","0","5cc7f4b3854fb30001d0c13a","","null","","","","","","","learning/Slide110.JPG","null","","","","","",""
"html-keyboard-response","336","394657","0.0-7.0-2.29","LF","qnx5xathwg","1920","1080","0","1","0","5cc7f4b3854fb30001d0c13a","","null","","","learningBlock2","","","","<div style=""font-size:60px;""> </div>","null","LF","learning/Slide110.JPG","This is a bim:","","",""
"html-keyboard-response","337","395658","0.0-7.0-0.30","LF","qnx5xathwg","1920","1080","0","1","0","5cc7f4b3854fb30001d0c13a","","null","","","learningBlock2","","","","This is a tob:","null","","","","","",""
"image-keyboard-response","338","395985","0.0-7.0-1.30","LF","qnx5xathwg","1920","1080","0","1","0","5cc7f4b3854fb30001d0c13a","","null","","","","","","","learning/Slide111.JPG","null","","","","","",""
"html-keyboard-response","339","396986","0.0-7.0-2.30","LF","qnx5xathwg","1920","1080","0","1","0","5cc7f4b3854fb30001d0c13a","","null","","","learningBlock2","","","","<div style=""font-size:60px;""> </div>","null","LF","learning/Slide111.JPG","This is a tob:","","",""
"html-keyboard-response","340","397987","0.0-7.0-0.31","LF","qnx5xathwg","1920","1080","0","1","0","5cc7f4b3854fb30001d0c13a","","null","","","learningBlock2","","","","This is a wug:","null","","","","","",""
"image-keyboard-response","341","398314","0.0-7.0-1.31","LF","qnx5xathwg","1920","1080","0","1","0","5cc7f4b3854fb30001d0c13a","","null","","","","","","","learning/Slide112.JPG","null","","","","","",""
"html-keyboard-response","342","399315","0.0-7.0-2.31","LF","qnx5xathwg","1920","1080","0","1","0","5cc7f4b3854fb30001d0c13a","","null","","","learningBlock2","","","","<div style=""font-size:60px;""> </div>","null","LF","learning/Slide112.JPG","This is a wug:","","",""
"html-keyboard-response","343","400316","0.0-7.0-0.32","LF","qnx5xathwg","1920","1080","0","1","0","5cc7f4b3854fb30001d0c13a","","null","","","learningBlock2","","","","This is a tob:","null","","","","","",""
"image-keyboard-response","344","400643","0.0-7.0-1.32","LF","qnx5xathwg","1920","1080","0","1","0","5cc7f4b3854fb30001d0c13a","","null","","","","","","","learning/Slide113.JPG","null","","","","","",""
"html-keyboard-response","345","401644","0.0-7.0-2.32","LF","qnx5xathwg","1920","1080","0","1","0","5cc7f4b3854fb30001d0c13a","","null","","","learningBlock2","","","","<div style=""font-size:60px;""> </div>","null","LF","learning/Slide113.JPG","This is a tob:","","",""
"html-keyboard-response","346","402645","0.0-7.0-0.33","LF","qnx5xathwg","1920","1080","0","1","0","5cc7f4b3854fb30001d0c13a","","null","","","learningBlock2","","","","This is a wug:","null","","","","","",""
"image-keyboard-response","347","402972","0.0-7.0-1.33","LF","qnx5xathwg","1920","1080","0","1","0","5cc7f4b3854fb30001d0c13a","","null","","","","","","","learning/Slide114.JPG","null","","","","","",""
"html-keyboard-response","348","403973","0.0-7.0-2.33","LF","qnx5xathwg","1920","1080","0","1","0","5cc7f4b3854fb30001d0c13a","","null","","","learningBlock2","","","","<div style=""font-size:60px;""> </div>","null","LF","learning/Slide114.JPG","This is a wug:","","",""
"html-keyboard-response","349","404974","0.0-7.0-0.34","LF","qnx5xathwg","1920","1080","0","1","0","5cc7f4b3854fb30001d0c13a","","null","","","learningBlock2","","","","This is a bim:","null","","","","","",""
"image-keyboard-response","350","405301","0.0-7.0-1.34","LF","qnx5xathwg","1920","1080","0","1","0","5cc7f4b3854fb30001d0c13a","","null","","","","","","","learning/Slide115.JPG","null","","","","","",""
"html-keyboard-response","351","406302","0.0-7.0-2.34","LF","qnx5xathwg","1920","1080","0","1","0","5cc7f4b3854fb30001d0c13a","","null","","","learningBlock2","","","","<div style=""font-size:60px;""> </div>","null","LF","learning/Slide115.JPG","This is a bim:","","",""
"html-keyboard-response","352","407303","0.0-7.0-0.35","LF","qnx5xathwg","1920","1080","0","1","0","5cc7f4b3854fb30001d0c13a","","null","","","learningBlock2","","","","This is a dep:","null","","","","","",""
"image-keyboard-response","353","407630","0.0-7.0-1.35","LF","qnx5xathwg","1920","1080","0","1","0","5cc7f4b3854fb30001d0c13a","","null","","","","","","","learning/Slide116.JPG","null","","","","","",""
"html-keyboard-response","354","408631","0.0-7.0-2.35","LF","qnx5xathwg","1920","1080","0","1","0","5cc7f4b3854fb30001d0c13a","","null","","","learningBlock2","","","","<div style=""font-size:60px;""> </div>","null","LF","learning/Slide116.JPG","This is a dep:","","",""
"html-keyboard-response","355","409632","0.0-7.0-0.36","LF","qnx5xathwg","1920","1080","0","1","0","5cc7f4b3854fb30001d0c13a","","null","","","learningBlock2","","","","This is a tob:","null","","","","","",""
"image-keyboard-response","356","409959","0.0-7.0-1.36","LF","qnx5xathwg","1920","1080","0","1","0","5cc7f4b3854fb30001d0c13a","","null","","","","","","","learning/Slide117.JPG","null","","","","","",""
"html-keyboard-response","357","410960","0.0-7.0-2.36","LF","qnx5xathwg","1920","1080","0","1","0","5cc7f4b3854fb30001d0c13a","","null","","","learningBlock2","","","","<div style=""font-size:60px;""> </div>","null","LF","learning/Slide117.JPG","This is a tob:","","",""
"html-keyboard-response","358","411961","0.0-7.0-0.37","LF","qnx5xathwg","1920","1080","0","1","0","5cc7f4b3854fb30001d0c13a","","null","","","learningBlock2","","","","This is a dep:","null","","","","","",""
"image-keyboard-response","359","412288","0.0-7.0-1.37","LF","qnx5xathwg","1920","1080","0","1","0","5cc7f4b3854fb30001d0c13a","","null","","","","","","","learning/Slide118.JPG","null","","","","","",""
"html-keyboard-response","360","413289","0.0-7.0-2.37","LF","qnx5xathwg","1920","1080","0","1","0","5cc7f4b3854fb30001d0c13a","","null","","","learningBlock2","","","","<div style=""font-size:60px;""> </div>","null","LF","learning/Slide118.JPG","This is a dep:","","",""
"html-keyboard-response","361","414291","0.0-7.0-0.38","LF","qnx5xathwg","1920","1080","0","1","0","5cc7f4b3854fb30001d0c13a","","null","","","learningBlock2","","","","This is a wug:","null","","","","","",""
"image-keyboard-response","362","414617","0.0-7.0-1.38","LF","qnx5xathwg","1920","1080","0","1","0","5cc7f4b3854fb30001d0c13a","","null","","","","","","","learning/Slide119.JPG","null","","","","","",""
"html-keyboard-response","363","415619","0.0-7.0-2.38","LF","qnx5xathwg","1920","1080","0","1","0","5cc7f4b3854fb30001d0c13a","","null","","","learningBlock2","","","","<div style=""font-size:60px;""> </div>","null","LF","learning/Slide119.JPG","This is a wug:","","",""
"html-keyboard-response","364","416620","0.0-7.0-0.39","LF","qnx5xathwg","1920","1080","0","1","0","5cc7f4b3854fb30001d0c13a","","null","","","learningBlock2","","","","This is a dep:","null","","","","","",""
"image-keyboard-response","365","416947","0.0-7.0-1.39","LF","qnx5xathwg","1920","1080","0","1","0","5cc7f4b3854fb30001d0c13a","","null","","","","","","","learning/Slide120.JPG","null","","","","","",""
"html-keyboard-response","366","417948","0.0-7.0-2.39","LF","qnx5xathwg","1920","1080","0","1","0","5cc7f4b3854fb30001d0c13a","","null","","","learningBlock2","","","","<div style=""font-size:60px;""> </div>","null","LF","learning/Slide120.JPG","This is a dep:","","",""
"html-keyboard-response","367","418949","0.0-7.0-0.40","LF","qnx5xathwg","1920","1080","0","1","0","5cc7f4b3854fb30001d0c13a","","null","","","learningBlock2","","","","This is a bim:","null","","","","","",""
"image-keyboard-response","368","419276","0.0-7.0-1.40","LF","qnx5xathwg","1920","1080","0","1","0","5cc7f4b3854fb30001d0c13a","","null","","","","","","","learning/Slide121.JPG","null","","","","","",""
"html-keyboard-response","369","420277","0.0-7.0-2.40","LF","qnx5xathwg","1920","1080","0","1","0","5cc7f4b3854fb30001d0c13a","","null","","","learningBlock2","","","","<div style=""font-size:60px;""> </div>","null","LF","learning/Slide121.JPG","This is a bim:","","",""
"html-keyboard-response","370","421278","0.0-7.0-0.41","LF","qnx5xathwg","1920","1080","0","1","0","5cc7f4b3854fb30001d0c13a","","null","","","learningBlock2","","","","This is a wug:","null","","","","","",""
"image-keyboard-response","371","421605","0.0-7.0-1.41","LF","qnx5xathwg","1920","1080","0","1","0","5cc7f4b3854fb30001d0c13a","","null","","","","","","","learning/Slide122.JPG","null","","","","","",""
"html-keyboard-response","372","422606","0.0-7.0-2.41","LF","qnx5xathwg","1920","1080","0","1","0","5cc7f4b3854fb30001d0c13a","","null","","","learningBlock2","","","","<div style=""font-size:60px;""> </div>","null","LF","learning/Slide122.JPG","This is a wug:","","",""
"html-keyboard-response","373","423607","0.0-7.0-0.42","LF","qnx5xathwg","1920","1080","0","1","0","5cc7f4b3854fb30001d0c13a","","null","","","learningBlock2","","","","This is a bim:","null","","","","","",""
"image-keyboard-response","374","423934","0.0-7.0-1.42","LF","qnx5xathwg","1920","1080","0","1","0","5cc7f4b3854fb30001d0c13a","","null","","","","","","","learning/Slide123.JPG","null","","","","","",""
"html-keyboard-response","375","424935","0.0-7.0-2.42","LF","qnx5xathwg","1920","1080","0","1","0","5cc7f4b3854fb30001d0c13a","","null","","","learningBlock2","","","","<div style=""font-size:60px;""> </div>","null","LF","learning/Slide123.JPG","This is a bim:","","",""
"html-keyboard-response","376","425937","0.0-7.0-0.43","LF","qnx5xathwg","1920","1080","0","1","0","5cc7f4b3854fb30001d0c13a","","null","","","learningBlock2","","","","This is a tob:","null","","","","","",""
"image-keyboard-response","377","426264","0.0-7.0-1.43","LF","qnx5xathwg","1920","1080","0","1","0","5cc7f4b3854fb30001d0c13a","","null","","","","","","","learning/Slide124.JPG","null","","","","","",""
"html-keyboard-response","378","427265","0.0-7.0-2.43","LF","qnx5xathwg","1920","1080","0","1","0","5cc7f4b3854fb30001d0c13a","","null","","","learningBlock2","","","","<div style=""font-size:60px;""> </div>","null","LF","learning/Slide124.JPG","This is a tob:","","",""
"html-keyboard-response","379","428266","0.0-7.0-0.44","LF","qnx5xathwg","1920","1080","0","1","0","5cc7f4b3854fb30001d0c13a","","null","","","learningBlock2","","","","This is a bim:","null","","","","","",""
"image-keyboard-response","380","428593","0.0-7.0-1.44","LF","qnx5xathwg","1920","1080","0","1","0","5cc7f4b3854fb30001d0c13a","","null","","","","","","","learning/Slide125.JPG","null","","","","","",""
"html-keyboard-response","381","429594","0.0-7.0-2.44","LF","qnx5xathwg","1920","1080","0","1","0","5cc7f4b3854fb30001d0c13a","","null","","","learningBlock2","","","","<div style=""font-size:60px;""> </div>","null","LF","learning/Slide125.JPG","This is a bim:","","",""
"html-keyboard-response","382","430596","0.0-7.0-0.45","LF","qnx5xathwg","1920","1080","0","1","0","5cc7f4b3854fb30001d0c13a","","null","","","learningBlock2","","","","This is a tob:","null","","","","","",""
"image-keyboard-response","383","430922","0.0-7.0-1.45","LF","qnx5xathwg","1920","1080","0","1","0","5cc7f4b3854fb30001d0c13a","","null","","","","","","","learning/Slide126.JPG","null","","","","","",""
"html-keyboard-response","384","431924","0.0-7.0-2.45","LF","qnx5xathwg","1920","1080","0","1","0","5cc7f4b3854fb30001d0c13a","","null","","","learningBlock2","","","","<div style=""font-size:60px;""> </div>","null","LF","learning/Slide126.JPG","This is a tob:","","",""
"html-keyboard-response","385","432925","0.0-7.0-0.46","LF","qnx5xathwg","1920","1080","0","1","0","5cc7f4b3854fb30001d0c13a","","null","","","learningBlock2","","","","This is a dep:","null","","","","","",""
"image-keyboard-response","386","433252","0.0-7.0-1.46","LF","qnx5xathwg","1920","1080","0","1","0","5cc7f4b3854fb30001d0c13a","","null","","","","","","","learning/Slide127.JPG","null","","","","","",""
"html-keyboard-response","387","434253","0.0-7.0-2.46","LF","qnx5xathwg","1920","1080","0","1","0","5cc7f4b3854fb30001d0c13a","","null","","","learningBlock2","","","","<div style=""font-size:60px;""> </div>","null","LF","learning/Slide127.JPG","This is a dep:","","",""
"html-keyboard-response","388","435254","0.0-7.0-0.47","LF","qnx5xathwg","1920","1080","0","1","0","5cc7f4b3854fb30001d0c13a","","null","","","learningBlock2","","","","This is a wug:","null","","","","","",""
"image-keyboard-response","389","435581","0.0-7.0-1.47","LF","qnx5xathwg","1920","1080","0","1","0","5cc7f4b3854fb30001d0c13a","","null","","","","","","","learning/Slide128.JPG","null","","","","","",""
"html-keyboard-response","390","436582","0.0-7.0-2.47","LF","qnx5xathwg","1920","1080","0","1","0","5cc7f4b3854fb30001d0c13a","","null","","","learningBlock2","","","","<div style=""font-size:60px;""> </div>","null","LF","learning/Slide128.JPG","This is a wug:","","",""
"html-keyboard-response","391","437583","0.0-7.0-0.48","LF","qnx5xathwg","1920","1080","0","1","0","5cc7f4b3854fb30001d0c13a","","null","","","learningBlock2","","","","This is a tob:","null","","","","","",""
"image-keyboard-response","392","437910","0.0-7.0-1.48","LF","qnx5xathwg","1920","1080","0","1","0","5cc7f4b3854fb30001d0c13a","","null","","","","","","","learning/Slide129.JPG","null","","","","","",""
"html-keyboard-response","393","438912","0.0-7.0-2.48","LF","qnx5xathwg","1920","1080","0","1","0","5cc7f4b3854fb30001d0c13a","","null","","","learningBlock2","","","","<div style=""font-size:60px;""> </div>","null","LF","learning/Slide129.JPG","This is a tob:","","",""
"html-keyboard-response","394","439913","0.0-7.0-0.49","LF","qnx5xathwg","1920","1080","0","1","0","5cc7f4b3854fb30001d0c13a","","null","","","learningBlock2","","","","This is a wug:","null","","","","","",""
"image-keyboard-response","395","440240","0.0-7.0-1.49","LF","qnx5xathwg","1920","1080","0","1","0","5cc7f4b3854fb30001d0c13a","","null","","","","","","","learning/Slide130.JPG","null","","","","","",""
"html-keyboard-response","396","441241","0.0-7.0-2.49","LF","qnx5xathwg","1920","1080","0","1","0","5cc7f4b3854fb30001d0c13a","","null","","","learningBlock2","","","","<div style=""font-size:60px;""> </div>","null","LF","learning/Slide130.JPG","This is a wug:","","",""
"html-keyboard-response","397","442242","0.0-7.0-0.50","LF","qnx5xathwg","1920","1080","0","1","0","5cc7f4b3854fb30001d0c13a","","null","","","learningBlock2","","","","This is a bim:","null","","","","","",""
"image-keyboard-response","398","442569","0.0-7.0-1.50","LF","qnx5xathwg","1920","1080","0","1","0","5cc7f4b3854fb30001d0c13a","","null","","","","","","","learning/Slide131.JPG","null","","","","","",""
"html-keyboard-response","399","443570","0.0-7.0-2.50","LF","qnx5xathwg","1920","1080","0","1","0","5cc7f4b3854fb30001d0c13a","","null","","","learningBlock2","","","","<div style=""font-size:60px;""> </div>","null","LF","learning/Slide131.JPG","This is a bim:","","",""
"html-keyboard-response","400","444571","0.0-7.0-0.51","LF","qnx5xathwg","1920","1080","0","1","0","5cc7f4b3854fb30001d0c13a","","null","","","learningBlock2","","","","This is a dep:","null","","","","","",""
"image-keyboard-response","401","444898","0.0-7.0-1.51","LF","qnx5xathwg","1920","1080","0","1","0","5cc7f4b3854fb30001d0c13a","","null","","","","","","","learning/Slide132.JPG","null","","","","","",""
"html-keyboard-response","402","445899","0.0-7.0-2.51","LF","qnx5xathwg","1920","1080","0","1","0","5cc7f4b3854fb30001d0c13a","","null","","","learningBlock2","","","","<div style=""font-size:60px;""> </div>","null","LF","learning/Slide132.JPG","This is a dep:","","",""
"html-keyboard-response","403","446900","0.0-7.0-0.52","LF","qnx5xathwg","1920","1080","0","1","0","5cc7f4b3854fb30001d0c13a","","null","","","learningBlock2","","","","This is a tob:","null","","","","","",""
"image-keyboard-response","404","447228","0.0-7.0-1.52","LF","qnx5xathwg","1920","1080","0","1","0","5cc7f4b3854fb30001d0c13a","","null","","","","","","","learning/Slide133.JPG","null","","","","","",""
"html-keyboard-response","405","448230","0.0-7.0-2.52","LF","qnx5xathwg","1920","1080","0","1","0","5cc7f4b3854fb30001d0c13a","","null","","","learningBlock2","","","","<div style=""font-size:60px;""> </div>","null","LF","learning/Slide133.JPG","This is a tob:","","",""
"html-keyboard-response","406","449231","0.0-7.0-0.53","LF","qnx5xathwg","1920","1080","0","1","0","5cc7f4b3854fb30001d0c13a","","null","","","learningBlock2","","","","This is a dep:","null","","","","","",""
"image-keyboard-response","407","449557","0.0-7.0-1.53","LF","qnx5xathwg","1920","1080","0","1","0","5cc7f4b3854fb30001d0c13a","","null","","","","","","","learning/Slide134.JPG","null","","","","","",""
"html-keyboard-response","408","450559","0.0-7.0-2.53","LF","qnx5xathwg","1920","1080","0","1","0","5cc7f4b3854fb30001d0c13a","","null","","","learningBlock2","","","","<div style=""font-size:60px;""> </div>","null","LF","learning/Slide134.JPG","This is a dep:","","",""
"html-keyboard-response","409","451560","0.0-7.0-0.54","LF","qnx5xathwg","1920","1080","0","1","0","5cc7f4b3854fb30001d0c13a","","null","","","learningBlock2","","","","This is a tob:","null","","","","","",""
"image-keyboard-response","410","451887","0.0-7.0-1.54","LF","qnx5xathwg","1920","1080","0","1","0","5cc7f4b3854fb30001d0c13a","","null","","","","","","","learning/Slide135.JPG","null","","","","","",""
"html-keyboard-response","411","452888","0.0-7.0-2.54","LF","qnx5xathwg","1920","1080","0","1","0","5cc7f4b3854fb30001d0c13a","","null","","","learningBlock2","","","","<div style=""font-size:60px;""> </div>","null","LF","learning/Slide135.JPG","This is a tob:","","",""
"html-keyboard-response","412","453889","0.0-7.0-0.55","LF","qnx5xathwg","1920","1080","0","1","0","5cc7f4b3854fb30001d0c13a","","null","","","learningBlock2","","","","This is a wug:","null","","","","","",""
"image-keyboard-response","413","454216","0.0-7.0-1.55","LF","qnx5xathwg","1920","1080","0","1","0","5cc7f4b3854fb30001d0c13a","","null","","","","","","","learning/Slide136.JPG","null","","","","","",""
"html-keyboard-response","414","455217","0.0-7.0-2.55","LF","qnx5xathwg","1920","1080","0","1","0","5cc7f4b3854fb30001d0c13a","","null","","","learningBlock2","","","","<div style=""font-size:60px;""> </div>","null","LF","learning/Slide136.JPG","This is a wug:","","",""
"html-keyboard-response","415","456218","0.0-7.0-0.56","LF","qnx5xathwg","1920","1080","0","1","0","5cc7f4b3854fb30001d0c13a","","null","","","learningBlock2","","","","This is a tob:","null","","","","","",""
"image-keyboard-response","416","456545","0.0-7.0-1.56","LF","qnx5xathwg","1920","1080","0","1","0","5cc7f4b3854fb30001d0c13a","","null","","","","","","","learning/Slide137.JPG","null","","","","","",""
"html-keyboard-response","417","457546","0.0-7.0-2.56","LF","qnx5xathwg","1920","1080","0","1","0","5cc7f4b3854fb30001d0c13a","","null","","","learningBlock2","","","","<div style=""font-size:60px;""> </div>","null","LF","learning/Slide137.JPG","This is a tob:","","",""
"html-keyboard-response","418","458548","0.0-7.0-0.57","LF","qnx5xathwg","1920","1080","0","1","0","5cc7f4b3854fb30001d0c13a","","null","","","learningBlock2","","","","This is a bim:","null","","","","","",""
"image-keyboard-response","419","458874","0.0-7.0-1.57","LF","qnx5xathwg","1920","1080","0","1","0","5cc7f4b3854fb30001d0c13a","","null","","","","","","","learning/Slide138.JPG","null","","","","","",""
"html-keyboard-response","420","459876","0.0-7.0-2.57","LF","qnx5xathwg","1920","1080","0","1","0","5cc7f4b3854fb30001d0c13a","","null","","","learningBlock2","","","","<div style=""font-size:60px;""> </div>","null","LF","learning/Slide138.JPG","This is a bim:","","",""
"html-keyboard-response","421","460877","0.0-7.0-0.58","LF","qnx5xathwg","1920","1080","0","1","0","5cc7f4b3854fb30001d0c13a","","null","","","learningBlock2","","","","This is a wug:","null","","","","","",""
"image-keyboard-response","422","461203","0.0-7.0-1.58","LF","qnx5xathwg","1920","1080","0","1","0","5cc7f4b3854fb30001d0c13a","","null","","","","","","","learning/Slide139.JPG","null","","","","","",""
"html-keyboard-response","423","462205","0.0-7.0-2.58","LF","qnx5xathwg","1920","1080","0","1","0","5cc7f4b3854fb30001d0c13a","","null","","","learningBlock2","","","","<div style=""font-size:60px;""> </div>","null","LF","learning/Slide139.JPG","This is a wug:","","",""
"html-keyboard-response","424","463206","0.0-7.0-0.59","LF","qnx5xathwg","1920","1080","0","1","0","5cc7f4b3854fb30001d0c13a","","null","","","learningBlock2","","","","This is a dep:","null","","","","","",""
"image-keyboard-response","425","463533","0.0-7.0-1.59","LF","qnx5xathwg","1920","1080","0","1","0","5cc7f4b3854fb30001d0c13a","","null","","","","","","","learning/Slide140.JPG","null","","","","","",""
"html-keyboard-response","426","464534","0.0-7.0-2.59","LF","qnx5xathwg","1920","1080","0","1","0","5cc7f4b3854fb30001d0c13a","","null","","","learningBlock2","","","","<div style=""font-size:60px;""> </div>","null","LF","learning/Slide140.JPG","This is a dep:","","",""
"html-keyboard-response","427","465535","0.0-7.0-0.60","LF","qnx5xathwg","1920","1080","0","1","0","5cc7f4b3854fb30001d0c13a","","null","","","learningBlock2","","","","This is a tob:","null","","","","","",""
"image-keyboard-response","428","465862","0.0-7.0-1.60","LF","qnx5xathwg","1920","1080","0","1","0","5cc7f4b3854fb30001d0c13a","","null","","","","","","","learning/Slide141.JPG","null","","","","","",""
"html-keyboard-response","429","466863","0.0-7.0-2.60","LF","qnx5xathwg","1920","1080","0","1","0","5cc7f4b3854fb30001d0c13a","","null","","","learningBlock2","","","","<div style=""font-size:60px;""> </div>","null","LF","learning/Slide141.JPG","This is a tob:","","",""
"html-keyboard-response","430","467864","0.0-7.0-0.61","LF","qnx5xathwg","1920","1080","0","1","0","5cc7f4b3854fb30001d0c13a","","null","","","learningBlock2","","","","This is a wug:","null","","","","","",""
"image-keyboard-response","431","468191","0.0-7.0-1.61","LF","qnx5xathwg","1920","1080","0","1","0","5cc7f4b3854fb30001d0c13a","","null","","","","","","","learning/Slide142.JPG","null","","","","","",""
"html-keyboard-response","432","469192","0.0-7.0-2.61","LF","qnx5xathwg","1920","1080","0","1","0","5cc7f4b3854fb30001d0c13a","","null","","","learningBlock2","","","","<div style=""font-size:60px;""> </div>","null","LF","learning/Slide142.JPG","This is a wug:","","",""
"html-keyboard-response","433","470193","0.0-7.0-0.62","LF","qnx5xathwg","1920","1080","0","1","0","5cc7f4b3854fb30001d0c13a","","null","","","learningBlock2","","","","This is a bim:","null","","","","","",""
"image-keyboard-response","434","470520","0.0-7.0-1.62","LF","qnx5xathwg","1920","1080","0","1","0","5cc7f4b3854fb30001d0c13a","","null","","","","","","","learning/Slide143.JPG","null","","","","","",""
"html-keyboard-response","435","471521","0.0-7.0-2.62","LF","qnx5xathwg","1920","1080","0","1","0","5cc7f4b3854fb30001d0c13a","","null","","","learningBlock2","","","","<div style=""font-size:60px;""> </div>","null","LF","learning/Slide143.JPG","This is a bim:","","",""
