"trial_type","trial_index","time_elapsed","internal_node_id","condition","subject","screen_width","screen_height","attention","distraction","conscientious","prolificID","success","rt","url","view_history","test_part","final_height_px","final_width_px","scale_factor","stimulus","key_press","learningType","presentedImage","presentedLabel","button_pressed","response","responses"
"pavlovia","0","79","0.0-0.0","LF","mus0v446tm","1536","864","0","1","0","5f8dda4538ed0614d9ac476b","","","","","","","","","","","","","","","",""
"fullscreen","1","7429","0.0-1.0","LF","mus0v446tm","1536","864","0","1","0","5f8dda4538ed0614d9ac476b","true","","","","","","","","","","","","","","",""
"external-html","2","44224","0.0-2.0-0.0","LF","mus0v446tm","1536","864","0","1","0","5f8dda4538ed0614d9ac476b","","36719.70000000147","text/information_english.html","","","","","","","","","","","","",""
"external-html","3","63953","0.0-2.0-1.0","LF","mus0v446tm","1536","864","0","1","0","5f8dda4538ed0614d9ac476b","","19653.150000005553","text/consent_english.html","","","","","","","","","","","","",""
"instructions","4","87903","0.0-3.0","LF","mus0v446tm","1536","864","0","1","0","5f8dda4538ed0614d9ac476b","","NA","","[{""page_index"":0,""viewing_time"":3212.2900000031223},{""page_index"":1,""viewing_time"":20731.2099999981}]","instructions","","","","","","","","","","",""
"resize","5","160100","0.0-4.0","LF","mus0v446tm","1536","864","0","1","0","5f8dda4538ed0614d9ac476b","","","","","","","386","2.450793650793651","","","","","","","",""
"html-keyboard-response","6","161105","0.0-5.0-0.0","LF","mus0v446tm","1536","864","0","1","0","5f8dda4538ed0614d9ac476b","","null","","","learningBlock1","","","","This is a tob:","null","","","","","",""
"image-keyboard-response","7","161434","0.0-5.0-1.0","LF","mus0v446tm","1536","864","0","1","0","5f8dda4538ed0614d9ac476b","","null","","","","","","","learning/Slide1.JPG","null","","","","","",""
"html-keyboard-response","8","162437","0.0-5.0-2.0","LF","mus0v446tm","1536","864","0","1","0","5f8dda4538ed0614d9ac476b","","null","","","learningBlock1","","","","<div style=""font-size:60px;""> </div>","null","LF","learning/Slide1.JPG","This is a tob:","","",""
"html-keyboard-response","9","163439","0.0-5.0-0.1","LF","mus0v446tm","1536","864","0","1","0","5f8dda4538ed0614d9ac476b","","null","","","learningBlock1","","","","This is a wug:","null","","","","","",""
"image-keyboard-response","10","163776","0.0-5.0-1.1","LF","mus0v446tm","1536","864","0","1","0","5f8dda4538ed0614d9ac476b","","null","","","","","","","learning/Slide2.JPG","null","","","","","",""
"html-keyboard-response","11","164779","0.0-5.0-2.1","LF","mus0v446tm","1536","864","0","1","0","5f8dda4538ed0614d9ac476b","","null","","","learningBlock1","","","","<div style=""font-size:60px;""> </div>","null","LF","learning/Slide2.JPG","This is a wug:","","",""
"html-keyboard-response","12","165789","0.0-5.0-0.2","LF","mus0v446tm","1536","864","0","1","0","5f8dda4538ed0614d9ac476b","","null","","","learningBlock1","","","","This is a bim:","null","","","","","",""
"image-keyboard-response","13","166118","0.0-5.0-1.2","LF","mus0v446tm","1536","864","0","1","0","5f8dda4538ed0614d9ac476b","","null","","","","","","","learning/Slide3.JPG","null","","","","","",""
"html-keyboard-response","14","167120","0.0-5.0-2.2","LF","mus0v446tm","1536","864","0","1","0","5f8dda4538ed0614d9ac476b","","null","","","learningBlock1","","","","<div style=""font-size:60px;""> </div>","null","LF","learning/Slide3.JPG","This is a bim:","","",""
"html-keyboard-response","15","168128","0.0-5.0-0.3","LF","mus0v446tm","1536","864","0","1","0","5f8dda4538ed0614d9ac476b","","null","","","learningBlock1","","","","This is a dep:","null","","","","","",""
"image-keyboard-response","16","168467","0.0-5.0-1.3","LF","mus0v446tm","1536","864","0","1","0","5f8dda4538ed0614d9ac476b","","null","","","","","","","learning/Slide4.JPG","null","","","","","",""
"html-keyboard-response","17","169471","0.0-5.0-2.3","LF","mus0v446tm","1536","864","0","1","0","5f8dda4538ed0614d9ac476b","","null","","","learningBlock1","","","","<div style=""font-size:60px;""> </div>","null","LF","learning/Slide4.JPG","This is a dep:","","",""
"html-keyboard-response","18","170479","0.0-5.0-0.4","LF","mus0v446tm","1536","864","0","1","0","5f8dda4538ed0614d9ac476b","","null","","","learningBlock1","","","","This is a wug:","null","","","","","",""
"image-keyboard-response","19","170817","0.0-5.0-1.4","LF","mus0v446tm","1536","864","0","1","0","5f8dda4538ed0614d9ac476b","","null","","","","","","","learning/Slide5.JPG","null","","","","","",""
"html-keyboard-response","20","171822","0.0-5.0-2.4","LF","mus0v446tm","1536","864","0","1","0","5f8dda4538ed0614d9ac476b","","null","","","learningBlock1","","","","<div style=""font-size:60px;""> </div>","null","LF","learning/Slide5.JPG","This is a wug:","","",""
"html-keyboard-response","21","172833","0.0-5.0-0.5","LF","mus0v446tm","1536","864","0","1","0","5f8dda4538ed0614d9ac476b","","null","","","learningBlock1","","","","This is a dep:","null","","","","","",""
"image-keyboard-response","22","173161","0.0-5.0-1.5","LF","mus0v446tm","1536","864","0","1","0","5f8dda4538ed0614d9ac476b","","null","","","","","","","learning/Slide6.JPG","null","","","","","",""
"html-keyboard-response","23","174175","0.0-5.0-2.5","LF","mus0v446tm","1536","864","0","1","0","5f8dda4538ed0614d9ac476b","","null","","","learningBlock1","","","","<div style=""font-size:60px;""> </div>","null","LF","learning/Slide6.JPG","This is a dep:","","",""
"html-keyboard-response","24","175186","0.0-5.0-0.6","LF","mus0v446tm","1536","864","0","1","0","5f8dda4538ed0614d9ac476b","","null","","","learningBlock1","","","","This is a wug:","null","","","","","",""
"image-keyboard-response","25","175521","0.0-5.0-1.6","LF","mus0v446tm","1536","864","0","1","0","5f8dda4538ed0614d9ac476b","","null","","","","","","","learning/Slide7.JPG","null","","","","","",""
"html-keyboard-response","26","176529","0.0-5.0-2.6","LF","mus0v446tm","1536","864","0","1","0","5f8dda4538ed0614d9ac476b","","null","","","learningBlock1","","","","<div style=""font-size:60px;""> </div>","null","LF","learning/Slide7.JPG","This is a wug:","","",""
"html-keyboard-response","27","177535","0.0-5.0-0.7","LF","mus0v446tm","1536","864","0","1","0","5f8dda4538ed0614d9ac476b","","null","","","learningBlock1","","","","This is a bim:","null","","","","","",""
"image-keyboard-response","28","177873","0.0-5.0-1.7","LF","mus0v446tm","1536","864","0","1","0","5f8dda4538ed0614d9ac476b","","null","","","","","","","learning/Slide8.JPG","null","","","","","",""
"html-keyboard-response","29","178882","0.0-5.0-2.7","LF","mus0v446tm","1536","864","0","1","0","5f8dda4538ed0614d9ac476b","","null","","","learningBlock1","","","","<div style=""font-size:60px;""> </div>","null","LF","learning/Slide8.JPG","This is a bim:","","",""
"html-keyboard-response","30","179887","0.0-5.0-0.8","LF","mus0v446tm","1536","864","0","1","0","5f8dda4538ed0614d9ac476b","","null","","","learningBlock1","","","","This is a wug:","null","","","","","",""
"image-keyboard-response","31","180223","0.0-5.0-1.8","LF","mus0v446tm","1536","864","0","1","0","5f8dda4538ed0614d9ac476b","","null","","","","","","","learning/Slide9.JPG","null","","","","","",""
"html-keyboard-response","32","181233","0.0-5.0-2.8","LF","mus0v446tm","1536","864","0","1","0","5f8dda4538ed0614d9ac476b","","null","","","learningBlock1","","","","<div style=""font-size:60px;""> </div>","null","LF","learning/Slide9.JPG","This is a wug:","","",""
"html-keyboard-response","33","182241","0.0-5.0-0.9","LF","mus0v446tm","1536","864","0","1","0","5f8dda4538ed0614d9ac476b","","null","","","learningBlock1","","","","This is a dep:","null","","","","","",""
"image-keyboard-response","34","182571","0.0-5.0-1.9","LF","mus0v446tm","1536","864","0","1","0","5f8dda4538ed0614d9ac476b","","null","","","","","","","learning/Slide10.JPG","null","","","","","",""
"html-keyboard-response","35","183581","0.0-5.0-2.9","LF","mus0v446tm","1536","864","0","1","0","5f8dda4538ed0614d9ac476b","","null","","","learningBlock1","","","","<div style=""font-size:60px;""> </div>","null","LF","learning/Slide10.JPG","This is a dep:","","",""
"html-keyboard-response","36","184583","0.0-5.0-0.10","LF","mus0v446tm","1536","864","0","1","0","5f8dda4538ed0614d9ac476b","","null","","","learningBlock1","","","","This is a tob:","null","","","","","",""
"image-keyboard-response","37","184925","0.0-5.0-1.10","LF","mus0v446tm","1536","864","0","1","0","5f8dda4538ed0614d9ac476b","","null","","","","","","","learning/Slide11.JPG","null","","","","","",""
"html-keyboard-response","38","185932","0.0-5.0-2.10","LF","mus0v446tm","1536","864","0","1","0","5f8dda4538ed0614d9ac476b","","null","","","learningBlock1","","","","<div style=""font-size:60px;""> </div>","null","LF","learning/Slide11.JPG","This is a tob:","","",""
"html-keyboard-response","39","186946","0.0-5.0-0.11","LF","mus0v446tm","1536","864","0","1","0","5f8dda4538ed0614d9ac476b","","null","","","learningBlock1","","","","This is a dep:","null","","","","","",""
"image-keyboard-response","40","187274","0.0-5.0-1.11","LF","mus0v446tm","1536","864","0","1","0","5f8dda4538ed0614d9ac476b","","null","","","","","","","learning/Slide12.JPG","null","","","","","",""
"html-keyboard-response","41","188291","0.0-5.0-2.11","LF","mus0v446tm","1536","864","0","1","0","5f8dda4538ed0614d9ac476b","","null","","","learningBlock1","","","","<div style=""font-size:60px;""> </div>","null","LF","learning/Slide12.JPG","This is a dep:","","",""
"html-keyboard-response","42","189299","0.0-5.0-0.12","LF","mus0v446tm","1536","864","0","1","0","5f8dda4538ed0614d9ac476b","","null","","","learningBlock1","","","","This is a bim:","null","","","","","",""
"image-keyboard-response","43","189641","0.0-5.0-1.12","LF","mus0v446tm","1536","864","0","1","0","5f8dda4538ed0614d9ac476b","","null","","","","","","","learning/Slide13.JPG","null","","","","","",""
"html-keyboard-response","44","190644","0.0-5.0-2.12","LF","mus0v446tm","1536","864","0","1","0","5f8dda4538ed0614d9ac476b","","null","","","learningBlock1","","","","<div style=""font-size:60px;""> </div>","null","LF","learning/Slide13.JPG","This is a bim:","","",""
"html-keyboard-response","45","191650","0.0-5.0-0.13","LF","mus0v446tm","1536","864","0","1","0","5f8dda4538ed0614d9ac476b","","null","","","learningBlock1","","","","This is a wug:","null","","","","","",""
"image-keyboard-response","46","192000","0.0-5.0-1.13","LF","mus0v446tm","1536","864","0","1","0","5f8dda4538ed0614d9ac476b","","null","","","","","","","learning/Slide14.JPG","null","","","","","",""
"html-keyboard-response","47","193008","0.0-5.0-2.13","LF","mus0v446tm","1536","864","0","1","0","5f8dda4538ed0614d9ac476b","","null","","","learningBlock1","","","","<div style=""font-size:60px;""> </div>","null","LF","learning/Slide14.JPG","This is a wug:","","",""
"html-keyboard-response","48","194016","0.0-5.0-0.14","LF","mus0v446tm","1536","864","0","1","0","5f8dda4538ed0614d9ac476b","","null","","","learningBlock1","","","","This is a tob:","null","","","","","",""
"image-keyboard-response","49","194348","0.0-5.0-1.14","LF","mus0v446tm","1536","864","0","1","0","5f8dda4538ed0614d9ac476b","","null","","","","","","","learning/Slide15.JPG","null","","","","","",""
"html-keyboard-response","50","195361","0.0-5.0-2.14","LF","mus0v446tm","1536","864","0","1","0","5f8dda4538ed0614d9ac476b","","null","","","learningBlock1","","","","<div style=""font-size:60px;""> </div>","null","LF","learning/Slide15.JPG","This is a tob:","","",""
"html-keyboard-response","51","196367","0.0-5.0-0.15","LF","mus0v446tm","1536","864","0","1","0","5f8dda4538ed0614d9ac476b","","null","","","learningBlock1","","","","This is a dep:","null","","","","","",""
"image-keyboard-response","52","196704","0.0-5.0-1.15","LF","mus0v446tm","1536","864","0","1","0","5f8dda4538ed0614d9ac476b","","null","","","","","","","learning/Slide16.JPG","null","","","","","",""
"html-keyboard-response","53","197713","0.0-5.0-2.15","LF","mus0v446tm","1536","864","0","1","0","5f8dda4538ed0614d9ac476b","","null","","","learningBlock1","","","","<div style=""font-size:60px;""> </div>","null","LF","learning/Slide16.JPG","This is a dep:","","",""
"html-keyboard-response","54","198721","0.0-5.0-0.16","LF","mus0v446tm","1536","864","0","1","0","5f8dda4538ed0614d9ac476b","","null","","","learningBlock1","","","","This is a bim:","null","","","","","",""
"image-keyboard-response","55","199058","0.0-5.0-1.16","LF","mus0v446tm","1536","864","0","1","0","5f8dda4538ed0614d9ac476b","","null","","","","","","","learning/Slide17.JPG","null","","","","","",""
"html-keyboard-response","56","200064","0.0-5.0-2.16","LF","mus0v446tm","1536","864","0","1","0","5f8dda4538ed0614d9ac476b","","null","","","learningBlock1","","","","<div style=""font-size:60px;""> </div>","null","LF","learning/Slide17.JPG","This is a bim:","","",""
"html-keyboard-response","57","201073","0.0-5.0-0.17","LF","mus0v446tm","1536","864","0","1","0","5f8dda4538ed0614d9ac476b","","null","","","learningBlock1","","","","This is a tob:","null","","","","","",""
"image-keyboard-response","58","201402","0.0-5.0-1.17","LF","mus0v446tm","1536","864","0","1","0","5f8dda4538ed0614d9ac476b","","null","","","","","","","learning/Slide18.JPG","null","","","","","",""
"html-keyboard-response","59","202414","0.0-5.0-2.17","LF","mus0v446tm","1536","864","0","1","0","5f8dda4538ed0614d9ac476b","","null","","","learningBlock1","","","","<div style=""font-size:60px;""> </div>","null","LF","learning/Slide18.JPG","This is a tob:","","",""
"html-keyboard-response","60","203425","0.0-5.0-0.18","LF","mus0v446tm","1536","864","0","1","0","5f8dda4538ed0614d9ac476b","","null","","","learningBlock1","","","","This is a wug:","null","","","","","",""
"image-keyboard-response","61","203762","0.0-5.0-1.18","LF","mus0v446tm","1536","864","0","1","0","5f8dda4538ed0614d9ac476b","","null","","","","","","","learning/Slide19.JPG","null","","","","","",""
"html-keyboard-response","62","204769","0.0-5.0-2.18","LF","mus0v446tm","1536","864","0","1","0","5f8dda4538ed0614d9ac476b","","null","","","learningBlock1","","","","<div style=""font-size:60px;""> </div>","null","LF","learning/Slide19.JPG","This is a wug:","","",""
"html-keyboard-response","63","205777","0.0-5.0-0.19","LF","mus0v446tm","1536","864","0","1","0","5f8dda4538ed0614d9ac476b","","null","","","learningBlock1","","","","This is a bim:","null","","","","","",""
"image-keyboard-response","64","206113","0.0-5.0-1.19","LF","mus0v446tm","1536","864","0","1","0","5f8dda4538ed0614d9ac476b","","null","","","","","","","learning/Slide20.JPG","null","","","","","",""
"html-keyboard-response","65","207122","0.0-5.0-2.19","LF","mus0v446tm","1536","864","0","1","0","5f8dda4538ed0614d9ac476b","","null","","","learningBlock1","","","","<div style=""font-size:60px;""> </div>","null","LF","learning/Slide20.JPG","This is a bim:","","",""
"html-keyboard-response","66","208129","0.0-5.0-0.20","LF","mus0v446tm","1536","864","0","1","0","5f8dda4538ed0614d9ac476b","","null","","","learningBlock1","","","","This is a dep:","null","","","","","",""
"image-keyboard-response","67","208466","0.0-5.0-1.20","LF","mus0v446tm","1536","864","0","1","0","5f8dda4538ed0614d9ac476b","","null","","","","","","","learning/Slide21.JPG","null","","","","","",""
"html-keyboard-response","68","209473","0.0-5.0-2.20","LF","mus0v446tm","1536","864","0","1","0","5f8dda4538ed0614d9ac476b","","null","","","learningBlock1","","","","<div style=""font-size:60px;""> </div>","null","LF","learning/Slide21.JPG","This is a dep:","","",""
"html-keyboard-response","69","210479","0.0-5.0-0.21","LF","mus0v446tm","1536","864","0","1","0","5f8dda4538ed0614d9ac476b","","null","","","learningBlock1","","","","This is a bim:","null","","","","","",""
"image-keyboard-response","70","210816","0.0-5.0-1.21","LF","mus0v446tm","1536","864","0","1","0","5f8dda4538ed0614d9ac476b","","null","","","","","","","learning/Slide22.JPG","null","","","","","",""
"html-keyboard-response","71","211824","0.0-5.0-2.21","LF","mus0v446tm","1536","864","0","1","0","5f8dda4538ed0614d9ac476b","","null","","","learningBlock1","","","","<div style=""font-size:60px;""> </div>","null","LF","learning/Slide22.JPG","This is a bim:","","",""
"html-keyboard-response","72","212833","0.0-5.0-0.22","LF","mus0v446tm","1536","864","0","1","0","5f8dda4538ed0614d9ac476b","","null","","","learningBlock1","","","","This is a tob:","null","","","","","",""
"image-keyboard-response","73","213169","0.0-5.0-1.22","LF","mus0v446tm","1536","864","0","1","0","5f8dda4538ed0614d9ac476b","","null","","","","","","","learning/Slide23.JPG","null","","","","","",""
"html-keyboard-response","74","214178","0.0-5.0-2.22","LF","mus0v446tm","1536","864","0","1","0","5f8dda4538ed0614d9ac476b","","null","","","learningBlock1","","","","<div style=""font-size:60px;""> </div>","null","LF","learning/Slide23.JPG","This is a tob:","","",""
"html-keyboard-response","75","215182","0.0-5.0-0.23","LF","mus0v446tm","1536","864","0","1","0","5f8dda4538ed0614d9ac476b","","null","","","learningBlock1","","","","This is a wug:","null","","","","","",""
"image-keyboard-response","76","215521","0.0-5.0-1.23","LF","mus0v446tm","1536","864","0","1","0","5f8dda4538ed0614d9ac476b","","null","","","","","","","learning/Slide24.JPG","null","","","","","",""
"html-keyboard-response","77","216527","0.0-5.0-2.23","LF","mus0v446tm","1536","864","0","1","0","5f8dda4538ed0614d9ac476b","","null","","","learningBlock1","","","","<div style=""font-size:60px;""> </div>","null","LF","learning/Slide24.JPG","This is a wug:","","",""
"html-keyboard-response","78","217537","0.0-5.0-0.24","LF","mus0v446tm","1536","864","0","1","0","5f8dda4538ed0614d9ac476b","","null","","","learningBlock1","","","","This is a dep:","null","","","","","",""
"image-keyboard-response","79","217873","0.0-5.0-1.24","LF","mus0v446tm","1536","864","0","1","0","5f8dda4538ed0614d9ac476b","","null","","","","","","","learning/Slide25.JPG","null","","","","","",""
"html-keyboard-response","80","218880","0.0-5.0-2.24","LF","mus0v446tm","1536","864","0","1","0","5f8dda4538ed0614d9ac476b","","null","","","learningBlock1","","","","<div style=""font-size:60px;""> </div>","null","LF","learning/Slide25.JPG","This is a dep:","","",""
"html-keyboard-response","81","219891","0.0-5.0-0.25","LF","mus0v446tm","1536","864","0","1","0","5f8dda4538ed0614d9ac476b","","null","","","learningBlock1","","","","This is a wug:","null","","","","","",""
"image-keyboard-response","82","220226","0.0-5.0-1.25","LF","mus0v446tm","1536","864","0","1","0","5f8dda4538ed0614d9ac476b","","null","","","","","","","learning/Slide26.JPG","null","","","","","",""
"html-keyboard-response","83","221230","0.0-5.0-2.25","LF","mus0v446tm","1536","864","0","1","0","5f8dda4538ed0614d9ac476b","","null","","","learningBlock1","","","","<div style=""font-size:60px;""> </div>","null","LF","learning/Slide26.JPG","This is a wug:","","",""
"html-keyboard-response","84","222242","0.0-5.0-0.26","LF","mus0v446tm","1536","864","0","1","0","5f8dda4538ed0614d9ac476b","","null","","","learningBlock1","","","","This is a bim:","null","","","","","",""
"image-keyboard-response","85","222576","0.0-5.0-1.26","LF","mus0v446tm","1536","864","0","1","0","5f8dda4538ed0614d9ac476b","","null","","","","","","","learning/Slide27.JPG","null","","","","","",""
"html-keyboard-response","86","223586","0.0-5.0-2.26","LF","mus0v446tm","1536","864","0","1","0","5f8dda4538ed0614d9ac476b","","null","","","learningBlock1","","","","<div style=""font-size:60px;""> </div>","null","LF","learning/Slide27.JPG","This is a bim:","","",""
"html-keyboard-response","87","224592","0.0-5.0-0.27","LF","mus0v446tm","1536","864","0","1","0","5f8dda4538ed0614d9ac476b","","null","","","learningBlock1","","","","This is a dep:","null","","","","","",""
"image-keyboard-response","88","224920","0.0-5.0-1.27","LF","mus0v446tm","1536","864","0","1","0","5f8dda4538ed0614d9ac476b","","null","","","","","","","learning/Slide28.JPG","null","","","","","",""
"html-keyboard-response","89","225936","0.0-5.0-2.27","LF","mus0v446tm","1536","864","0","1","0","5f8dda4538ed0614d9ac476b","","null","","","learningBlock1","","","","<div style=""font-size:60px;""> </div>","null","LF","learning/Slide28.JPG","This is a dep:","","",""
"html-keyboard-response","90","226946","0.0-5.0-0.28","LF","mus0v446tm","1536","864","0","1","0","5f8dda4538ed0614d9ac476b","","null","","","learningBlock1","","","","This is a tob:","null","","","","","",""
"image-keyboard-response","91","227297","0.0-5.0-1.28","LF","mus0v446tm","1536","864","0","1","0","5f8dda4538ed0614d9ac476b","","null","","","","","","","learning/Slide29.JPG","null","","","","","",""
"html-keyboard-response","92","228306","0.0-5.0-2.28","LF","mus0v446tm","1536","864","0","1","0","5f8dda4538ed0614d9ac476b","","null","","","learningBlock1","","","","<div style=""font-size:60px;""> </div>","null","LF","learning/Slide29.JPG","This is a tob:","","",""
"html-keyboard-response","93","229311","0.0-5.0-0.29","LF","mus0v446tm","1536","864","0","1","0","5f8dda4538ed0614d9ac476b","","null","","","learningBlock1","","","","This is a dep:","null","","","","","",""
"image-keyboard-response","94","229653","0.0-5.0-1.29","LF","mus0v446tm","1536","864","0","1","0","5f8dda4538ed0614d9ac476b","","null","","","","","","","learning/Slide30.JPG","null","","","","","",""
"html-keyboard-response","95","230658","0.0-5.0-2.29","LF","mus0v446tm","1536","864","0","1","0","5f8dda4538ed0614d9ac476b","","null","","","learningBlock1","","","","<div style=""font-size:60px;""> </div>","null","LF","learning/Slide30.JPG","This is a dep:","","",""
"html-keyboard-response","96","231663","0.0-5.0-0.30","LF","mus0v446tm","1536","864","0","1","0","5f8dda4538ed0614d9ac476b","","null","","","learningBlock1","","","","This is a wug:","null","","","","","",""
"image-keyboard-response","97","231992","0.0-5.0-1.30","LF","mus0v446tm","1536","864","0","1","0","5f8dda4538ed0614d9ac476b","","null","","","","","","","learning/Slide31.JPG","null","","","","","",""
"html-keyboard-response","98","232994","0.0-5.0-2.30","LF","mus0v446tm","1536","864","0","1","0","5f8dda4538ed0614d9ac476b","","null","","","learningBlock1","","","","<div style=""font-size:60px;""> </div>","null","LF","learning/Slide31.JPG","This is a wug:","","",""
"html-keyboard-response","99","234001","0.0-5.0-0.31","LF","mus0v446tm","1536","864","0","1","0","5f8dda4538ed0614d9ac476b","","null","","","learningBlock1","","","","This is a tob:","null","","","","","",""
"image-keyboard-response","100","234337","0.0-5.0-1.31","LF","mus0v446tm","1536","864","0","1","0","5f8dda4538ed0614d9ac476b","","null","","","","","","","learning/Slide32.JPG","null","","","","","",""
"html-keyboard-response","101","235346","0.0-5.0-2.31","LF","mus0v446tm","1536","864","0","1","0","5f8dda4538ed0614d9ac476b","","null","","","learningBlock1","","","","<div style=""font-size:60px;""> </div>","null","LF","learning/Slide32.JPG","This is a tob:","","",""
"html-keyboard-response","102","236353","0.0-5.0-0.32","LF","mus0v446tm","1536","864","0","1","0","5f8dda4538ed0614d9ac476b","","null","","","learningBlock1","","","","This is a bim:","null","","","","","",""
"image-keyboard-response","103","236682","0.0-5.0-1.32","LF","mus0v446tm","1536","864","0","1","0","5f8dda4538ed0614d9ac476b","","null","","","","","","","learning/Slide33.JPG","null","","","","","",""
"html-keyboard-response","104","237688","0.0-5.0-2.32","LF","mus0v446tm","1536","864","0","1","0","5f8dda4538ed0614d9ac476b","","null","","","learningBlock1","","","","<div style=""font-size:60px;""> </div>","null","LF","learning/Slide33.JPG","This is a bim:","","",""
"html-keyboard-response","105","238704","0.0-5.0-0.33","LF","mus0v446tm","1536","864","0","1","0","5f8dda4538ed0614d9ac476b","","null","","","learningBlock1","","","","This is a tob:","null","","","","","",""
"image-keyboard-response","106","239040","0.0-5.0-1.33","LF","mus0v446tm","1536","864","0","1","0","5f8dda4538ed0614d9ac476b","","null","","","","","","","learning/Slide34.JPG","null","","","","","",""
"html-keyboard-response","107","240049","0.0-5.0-2.33","LF","mus0v446tm","1536","864","0","1","0","5f8dda4538ed0614d9ac476b","","null","","","learningBlock1","","","","<div style=""font-size:60px;""> </div>","null","LF","learning/Slide34.JPG","This is a tob:","","",""
"html-keyboard-response","108","241056","0.0-5.0-0.34","LF","mus0v446tm","1536","864","0","1","0","5f8dda4538ed0614d9ac476b","","null","","","learningBlock1","","","","This is a bim:","null","","","","","",""
"image-keyboard-response","109","241393","0.0-5.0-1.34","LF","mus0v446tm","1536","864","0","1","0","5f8dda4538ed0614d9ac476b","","null","","","","","","","learning/Slide35.JPG","null","","","","","",""
"html-keyboard-response","110","242402","0.0-5.0-2.34","LF","mus0v446tm","1536","864","0","1","0","5f8dda4538ed0614d9ac476b","","null","","","learningBlock1","","","","<div style=""font-size:60px;""> </div>","null","LF","learning/Slide35.JPG","This is a bim:","","",""
"html-keyboard-response","111","243410","0.0-5.0-0.35","LF","mus0v446tm","1536","864","0","1","0","5f8dda4538ed0614d9ac476b","","null","","","learningBlock1","","","","This is a dep:","null","","","","","",""
"image-keyboard-response","112","243746","0.0-5.0-1.35","LF","mus0v446tm","1536","864","0","1","0","5f8dda4538ed0614d9ac476b","","null","","","","","","","learning/Slide36.JPG","null","","","","","",""
"html-keyboard-response","113","244753","0.0-5.0-2.35","LF","mus0v446tm","1536","864","0","1","0","5f8dda4538ed0614d9ac476b","","null","","","learningBlock1","","","","<div style=""font-size:60px;""> </div>","null","LF","learning/Slide36.JPG","This is a dep:","","",""
"html-keyboard-response","114","245762","0.0-5.0-0.36","LF","mus0v446tm","1536","864","0","1","0","5f8dda4538ed0614d9ac476b","","null","","","learningBlock1","","","","This is a tob:","null","","","","","",""
"image-keyboard-response","115","246096","0.0-5.0-1.36","LF","mus0v446tm","1536","864","0","1","0","5f8dda4538ed0614d9ac476b","","null","","","","","","","learning/Slide37.JPG","null","","","","","",""
"html-keyboard-response","116","247104","0.0-5.0-2.36","LF","mus0v446tm","1536","864","0","1","0","5f8dda4538ed0614d9ac476b","","null","","","learningBlock1","","","","<div style=""font-size:60px;""> </div>","null","LF","learning/Slide37.JPG","This is a tob:","","",""
"html-keyboard-response","117","248114","0.0-5.0-0.37","LF","mus0v446tm","1536","864","0","1","0","5f8dda4538ed0614d9ac476b","","null","","","learningBlock1","","","","This is a wug:","null","","","","","",""
"image-keyboard-response","118","248466","0.0-5.0-1.37","LF","mus0v446tm","1536","864","0","1","0","5f8dda4538ed0614d9ac476b","","null","","","","","","","learning/Slide38.JPG","null","","","","","",""
"html-keyboard-response","119","249474","0.0-5.0-2.37","LF","mus0v446tm","1536","864","0","1","0","5f8dda4538ed0614d9ac476b","","null","","","learningBlock1","","","","<div style=""font-size:60px;""> </div>","null","LF","learning/Slide38.JPG","This is a wug:","","",""
"html-keyboard-response","120","250482","0.0-5.0-0.38","LF","mus0v446tm","1536","864","0","1","0","5f8dda4538ed0614d9ac476b","","null","","","learningBlock1","","","","This is a bim:","null","","","","","",""
"image-keyboard-response","121","250811","0.0-5.0-1.38","LF","mus0v446tm","1536","864","0","1","0","5f8dda4538ed0614d9ac476b","","null","","","","","","","learning/Slide39.JPG","null","","","","","",""
"html-keyboard-response","122","251824","0.0-5.0-2.38","LF","mus0v446tm","1536","864","0","1","0","5f8dda4538ed0614d9ac476b","","null","","","learningBlock1","","","","<div style=""font-size:60px;""> </div>","null","LF","learning/Slide39.JPG","This is a bim:","","",""
"html-keyboard-response","123","252834","0.0-5.0-0.39","LF","mus0v446tm","1536","864","0","1","0","5f8dda4538ed0614d9ac476b","","null","","","learningBlock1","","","","This is a tob:","null","","","","","",""
"image-keyboard-response","124","253162","0.0-5.0-1.39","LF","mus0v446tm","1536","864","0","1","0","5f8dda4538ed0614d9ac476b","","null","","","","","","","learning/Slide40.JPG","null","","","","","",""
"html-keyboard-response","125","254177","0.0-5.0-2.39","LF","mus0v446tm","1536","864","0","1","0","5f8dda4538ed0614d9ac476b","","null","","","learningBlock1","","","","<div style=""font-size:60px;""> </div>","null","LF","learning/Slide40.JPG","This is a tob:","","",""
"html-keyboard-response","126","255184","0.0-5.0-0.40","LF","mus0v446tm","1536","864","0","1","0","5f8dda4538ed0614d9ac476b","","null","","","learningBlock1","","","","This is a bim:","null","","","","","",""
"image-keyboard-response","127","255530","0.0-5.0-1.40","LF","mus0v446tm","1536","864","0","1","0","5f8dda4538ed0614d9ac476b","","null","","","","","","","learning/Slide41.JPG","null","","","","","",""
"html-keyboard-response","128","256546","0.0-5.0-2.40","LF","mus0v446tm","1536","864","0","1","0","5f8dda4538ed0614d9ac476b","","null","","","learningBlock1","","","","<div style=""font-size:60px;""> </div>","null","LF","learning/Slide41.JPG","This is a bim:","","",""
"html-keyboard-response","129","257554","0.0-5.0-0.41","LF","mus0v446tm","1536","864","0","1","0","5f8dda4538ed0614d9ac476b","","null","","","learningBlock1","","","","This is a dep:","null","","","","","",""
"image-keyboard-response","130","257889","0.0-5.0-1.41","LF","mus0v446tm","1536","864","0","1","0","5f8dda4538ed0614d9ac476b","","null","","","","","","","learning/Slide42.JPG","null","","","","","",""
"html-keyboard-response","131","258897","0.0-5.0-2.41","LF","mus0v446tm","1536","864","0","1","0","5f8dda4538ed0614d9ac476b","","null","","","learningBlock1","","","","<div style=""font-size:60px;""> </div>","null","LF","learning/Slide42.JPG","This is a dep:","","",""
"html-keyboard-response","132","259903","0.0-5.0-0.42","LF","mus0v446tm","1536","864","0","1","0","5f8dda4538ed0614d9ac476b","","null","","","learningBlock1","","","","This is a wug:","null","","","","","",""
"image-keyboard-response","133","260256","0.0-5.0-1.42","LF","mus0v446tm","1536","864","0","1","0","5f8dda4538ed0614d9ac476b","","null","","","","","","","learning/Slide43.JPG","null","","","","","",""
"html-keyboard-response","134","261264","0.0-5.0-2.42","LF","mus0v446tm","1536","864","0","1","0","5f8dda4538ed0614d9ac476b","","null","","","learningBlock1","","","","<div style=""font-size:60px;""> </div>","null","LF","learning/Slide43.JPG","This is a wug:","","",""
"html-keyboard-response","135","262273","0.0-5.0-0.43","LF","mus0v446tm","1536","864","0","1","0","5f8dda4538ed0614d9ac476b","","null","","","learningBlock1","","","","This is a bim:","null","","","","","",""
"image-keyboard-response","136","262610","0.0-5.0-1.43","LF","mus0v446tm","1536","864","0","1","0","5f8dda4538ed0614d9ac476b","","null","","","","","","","learning/Slide44.JPG","null","","","","","",""
"html-keyboard-response","137","263618","0.0-5.0-2.43","LF","mus0v446tm","1536","864","0","1","0","5f8dda4538ed0614d9ac476b","","null","","","learningBlock1","","","","<div style=""font-size:60px;""> </div>","null","LF","learning/Slide44.JPG","This is a bim:","","",""
"html-keyboard-response","138","264626","0.0-5.0-0.44","LF","mus0v446tm","1536","864","0","1","0","5f8dda4538ed0614d9ac476b","","null","","","learningBlock1","","","","This is a wug:","null","","","","","",""
"image-keyboard-response","139","264962","0.0-5.0-1.44","LF","mus0v446tm","1536","864","0","1","0","5f8dda4538ed0614d9ac476b","","null","","","","","","","learning/Slide45.JPG","null","","","","","",""
"html-keyboard-response","140","265970","0.0-5.0-2.44","LF","mus0v446tm","1536","864","0","1","0","5f8dda4538ed0614d9ac476b","","null","","","learningBlock1","","","","<div style=""font-size:60px;""> </div>","null","LF","learning/Slide45.JPG","This is a wug:","","",""
"html-keyboard-response","141","266978","0.0-5.0-0.45","LF","mus0v446tm","1536","864","0","1","0","5f8dda4538ed0614d9ac476b","","null","","","learningBlock1","","","","This is a dep:","null","","","","","",""
"image-keyboard-response","142","267313","0.0-5.0-1.45","LF","mus0v446tm","1536","864","0","1","0","5f8dda4538ed0614d9ac476b","","null","","","","","","","learning/Slide46.JPG","null","","","","","",""
"html-keyboard-response","143","268320","0.0-5.0-2.45","LF","mus0v446tm","1536","864","0","1","0","5f8dda4538ed0614d9ac476b","","null","","","learningBlock1","","","","<div style=""font-size:60px;""> </div>","null","LF","learning/Slide46.JPG","This is a dep:","","",""
"html-keyboard-response","144","269330","0.0-5.0-0.46","LF","mus0v446tm","1536","864","0","1","0","5f8dda4538ed0614d9ac476b","","null","","","learningBlock1","","","","This is a tob:","null","","","","","",""
"image-keyboard-response","145","269663","0.0-5.0-1.46","LF","mus0v446tm","1536","864","0","1","0","5f8dda4538ed0614d9ac476b","","null","","","","","","","learning/Slide47.JPG","null","","","","","",""
"html-keyboard-response","146","270672","0.0-5.0-2.46","LF","mus0v446tm","1536","864","0","1","0","5f8dda4538ed0614d9ac476b","","null","","","learningBlock1","","","","<div style=""font-size:60px;""> </div>","null","LF","learning/Slide47.JPG","This is a tob:","","",""
"html-keyboard-response","147","271682","0.0-5.0-0.47","LF","mus0v446tm","1536","864","0","1","0","5f8dda4538ed0614d9ac476b","","null","","","learningBlock1","","","","This is a bim:","null","","","","","",""
"image-keyboard-response","148","272010","0.0-5.0-1.47","LF","mus0v446tm","1536","864","0","1","0","5f8dda4538ed0614d9ac476b","","null","","","","","","","learning/Slide48.JPG","null","","","","","",""
"html-keyboard-response","149","273026","0.0-5.0-2.47","LF","mus0v446tm","1536","864","0","1","0","5f8dda4538ed0614d9ac476b","","null","","","learningBlock1","","","","<div style=""font-size:60px;""> </div>","null","LF","learning/Slide48.JPG","This is a bim:","","",""
"html-keyboard-response","150","274034","0.0-5.0-0.48","LF","mus0v446tm","1536","864","0","1","0","5f8dda4538ed0614d9ac476b","","null","","","learningBlock1","","","","This is a dep:","null","","","","","",""
"image-keyboard-response","151","274369","0.0-5.0-1.48","LF","mus0v446tm","1536","864","0","1","0","5f8dda4538ed0614d9ac476b","","null","","","","","","","learning/Slide49.JPG","null","","","","","",""
"html-keyboard-response","152","275376","0.0-5.0-2.48","LF","mus0v446tm","1536","864","0","1","0","5f8dda4538ed0614d9ac476b","","null","","","learningBlock1","","","","<div style=""font-size:60px;""> </div>","null","LF","learning/Slide49.JPG","This is a dep:","","",""
"html-keyboard-response","153","276386","0.0-5.0-0.49","LF","mus0v446tm","1536","864","0","1","0","5f8dda4538ed0614d9ac476b","","null","","","learningBlock1","","","","This is a tob:","null","","","","","",""
"image-keyboard-response","154","276720","0.0-5.0-1.49","LF","mus0v446tm","1536","864","0","1","0","5f8dda4538ed0614d9ac476b","","null","","","","","","","learning/Slide50.JPG","null","","","","","",""
"html-keyboard-response","155","277730","0.0-5.0-2.49","LF","mus0v446tm","1536","864","0","1","0","5f8dda4538ed0614d9ac476b","","null","","","learningBlock1","","","","<div style=""font-size:60px;""> </div>","null","LF","learning/Slide50.JPG","This is a tob:","","",""
"html-keyboard-response","156","278737","0.0-5.0-0.50","LF","mus0v446tm","1536","864","0","1","0","5f8dda4538ed0614d9ac476b","","null","","","learningBlock1","","","","This is a bim:","null","","","","","",""
"image-keyboard-response","157","279066","0.0-5.0-1.50","LF","mus0v446tm","1536","864","0","1","0","5f8dda4538ed0614d9ac476b","","null","","","","","","","learning/Slide51.JPG","null","","","","","",""
"html-keyboard-response","158","280081","0.0-5.0-2.50","LF","mus0v446tm","1536","864","0","1","0","5f8dda4538ed0614d9ac476b","","null","","","learningBlock1","","","","<div style=""font-size:60px;""> </div>","null","LF","learning/Slide51.JPG","This is a bim:","","",""
"html-keyboard-response","159","281090","0.0-5.0-0.51","LF","mus0v446tm","1536","864","0","1","0","5f8dda4538ed0614d9ac476b","","null","","","learningBlock1","","","","This is a wug:","null","","","","","",""
"image-keyboard-response","160","281417","0.0-5.0-1.51","LF","mus0v446tm","1536","864","0","1","0","5f8dda4538ed0614d9ac476b","","null","","","","","","","learning/Slide52.JPG","null","","","","","",""
"html-keyboard-response","161","282433","0.0-5.0-2.51","LF","mus0v446tm","1536","864","0","1","0","5f8dda4538ed0614d9ac476b","","null","","","learningBlock1","","","","<div style=""font-size:60px;""> </div>","null","LF","learning/Slide52.JPG","This is a wug:","","",""
"html-keyboard-response","162","283441","0.0-5.0-0.52","LF","mus0v446tm","1536","864","0","1","0","5f8dda4538ed0614d9ac476b","","null","","","learningBlock1","","","","This is a tob:","null","","","","","",""
"image-keyboard-response","163","283777","0.0-5.0-1.52","LF","mus0v446tm","1536","864","0","1","0","5f8dda4538ed0614d9ac476b","","null","","","","","","","learning/Slide53.JPG","null","","","","","",""
"html-keyboard-response","164","284784","0.0-5.0-2.52","LF","mus0v446tm","1536","864","0","1","0","5f8dda4538ed0614d9ac476b","","null","","","learningBlock1","","","","<div style=""font-size:60px;""> </div>","null","LF","learning/Slide53.JPG","This is a tob:","","",""
"html-keyboard-response","165","285791","0.0-5.0-0.53","LF","mus0v446tm","1536","864","0","1","0","5f8dda4538ed0614d9ac476b","","null","","","learningBlock1","","","","This is a dep:","null","","","","","",""
"image-keyboard-response","166","286121","0.0-5.0-1.53","LF","mus0v446tm","1536","864","0","1","0","5f8dda4538ed0614d9ac476b","","null","","","","","","","learning/Slide54.JPG","null","","","","","",""
"html-keyboard-response","167","287138","0.0-5.0-2.53","LF","mus0v446tm","1536","864","0","1","0","5f8dda4538ed0614d9ac476b","","null","","","learningBlock1","","","","<div style=""font-size:60px;""> </div>","null","LF","learning/Slide54.JPG","This is a dep:","","",""
"html-keyboard-response","168","288146","0.0-5.0-0.54","LF","mus0v446tm","1536","864","0","1","0","5f8dda4538ed0614d9ac476b","","null","","","learningBlock1","","","","This is a bim:","null","","","","","",""
"image-keyboard-response","169","288474","0.0-5.0-1.54","LF","mus0v446tm","1536","864","0","1","0","5f8dda4538ed0614d9ac476b","","null","","","","","","","learning/Slide55.JPG","null","","","","","",""
"html-keyboard-response","170","289489","0.0-5.0-2.54","LF","mus0v446tm","1536","864","0","1","0","5f8dda4538ed0614d9ac476b","","null","","","learningBlock1","","","","<div style=""font-size:60px;""> </div>","null","LF","learning/Slide55.JPG","This is a bim:","","",""
"html-keyboard-response","171","290495","0.0-5.0-0.55","LF","mus0v446tm","1536","864","0","1","0","5f8dda4538ed0614d9ac476b","","null","","","learningBlock1","","","","This is a tob:","null","","","","","",""
"image-keyboard-response","172","290848","0.0-5.0-1.55","LF","mus0v446tm","1536","864","0","1","0","5f8dda4538ed0614d9ac476b","","null","","","","","","","learning/Slide56.JPG","null","","","","","",""
"html-keyboard-response","173","291861","0.0-5.0-2.55","LF","mus0v446tm","1536","864","0","1","0","5f8dda4538ed0614d9ac476b","","null","","","learningBlock1","","","","<div style=""font-size:60px;""> </div>","null","LF","learning/Slide56.JPG","This is a tob:","","",""
"html-keyboard-response","174","292876","0.0-5.0-0.56","LF","mus0v446tm","1536","864","0","1","0","5f8dda4538ed0614d9ac476b","","null","","","learningBlock1","","","","This is a dep:","null","","","","","",""
"image-keyboard-response","175","293216","0.0-5.0-1.56","LF","mus0v446tm","1536","864","0","1","0","5f8dda4538ed0614d9ac476b","","null","","","","","","","learning/Slide57.JPG","null","","","","","",""
"html-keyboard-response","176","294225","0.0-5.0-2.56","LF","mus0v446tm","1536","864","0","1","0","5f8dda4538ed0614d9ac476b","","null","","","learningBlock1","","","","<div style=""font-size:60px;""> </div>","null","LF","learning/Slide57.JPG","This is a dep:","","",""
"html-keyboard-response","177","295234","0.0-5.0-0.57","LF","mus0v446tm","1536","864","0","1","0","5f8dda4538ed0614d9ac476b","","null","","","learningBlock1","","","","This is a wug:","null","","","","","",""
"image-keyboard-response","178","295568","0.0-5.0-1.57","LF","mus0v446tm","1536","864","0","1","0","5f8dda4538ed0614d9ac476b","","null","","","","","","","learning/Slide58.JPG","null","","","","","",""
"html-keyboard-response","179","296575","0.0-5.0-2.57","LF","mus0v446tm","1536","864","0","1","0","5f8dda4538ed0614d9ac476b","","null","","","learningBlock1","","","","<div style=""font-size:60px;""> </div>","null","LF","learning/Slide58.JPG","This is a wug:","","",""
"html-keyboard-response","180","297586","0.0-5.0-0.58","LF","mus0v446tm","1536","864","0","1","0","5f8dda4538ed0614d9ac476b","","null","","","learningBlock1","","","","This is a dep:","null","","","","","",""
"image-keyboard-response","181","297922","0.0-5.0-1.58","LF","mus0v446tm","1536","864","0","1","0","5f8dda4538ed0614d9ac476b","","null","","","","","","","learning/Slide59.JPG","null","","","","","",""
"html-keyboard-response","182","298929","0.0-5.0-2.58","LF","mus0v446tm","1536","864","0","1","0","5f8dda4538ed0614d9ac476b","","null","","","learningBlock1","","","","<div style=""font-size:60px;""> </div>","null","LF","learning/Slide59.JPG","This is a dep:","","",""
"html-keyboard-response","183","299938","0.0-5.0-0.59","LF","mus0v446tm","1536","864","0","1","0","5f8dda4538ed0614d9ac476b","","null","","","learningBlock1","","","","This is a wug:","null","","","","","",""
"image-keyboard-response","184","300265","0.0-5.0-1.59","LF","mus0v446tm","1536","864","0","1","0","5f8dda4538ed0614d9ac476b","","null","","","","","","","learning/Slide60.JPG","null","","","","","",""
"html-keyboard-response","185","301280","0.0-5.0-2.59","LF","mus0v446tm","1536","864","0","1","0","5f8dda4538ed0614d9ac476b","","null","","","learningBlock1","","","","<div style=""font-size:60px;""> </div>","null","LF","learning/Slide60.JPG","This is a wug:","","",""
"html-keyboard-response","186","302288","0.0-5.0-0.60","LF","mus0v446tm","1536","864","0","1","0","5f8dda4538ed0614d9ac476b","","null","","","learningBlock1","","","","This is a bim:","null","","","","","",""
"image-keyboard-response","187","302625","0.0-5.0-1.60","LF","mus0v446tm","1536","864","0","1","0","5f8dda4538ed0614d9ac476b","","null","","","","","","","learning/Slide61.JPG","null","","","","","",""
"html-keyboard-response","188","303634","0.0-5.0-2.60","LF","mus0v446tm","1536","864","0","1","0","5f8dda4538ed0614d9ac476b","","null","","","learningBlock1","","","","<div style=""font-size:60px;""> </div>","null","LF","learning/Slide61.JPG","This is a bim:","","",""
"html-keyboard-response","189","304642","0.0-5.0-0.61","LF","mus0v446tm","1536","864","0","1","0","5f8dda4538ed0614d9ac476b","","null","","","learningBlock1","","","","This is a dep:","null","","","","","",""
"image-keyboard-response","190","304977","0.0-5.0-1.61","LF","mus0v446tm","1536","864","0","1","0","5f8dda4538ed0614d9ac476b","","null","","","","","","","learning/Slide62.JPG","null","","","","","",""
"html-keyboard-response","191","305985","0.0-5.0-2.61","LF","mus0v446tm","1536","864","0","1","0","5f8dda4538ed0614d9ac476b","","null","","","learningBlock1","","","","<div style=""font-size:60px;""> </div>","null","LF","learning/Slide62.JPG","This is a dep:","","",""
"html-keyboard-response","192","306993","0.0-5.0-0.62","LF","mus0v446tm","1536","864","0","1","0","5f8dda4538ed0614d9ac476b","","null","","","learningBlock1","","","","This is a bim:","null","","","","","",""
"image-keyboard-response","193","307344","0.0-5.0-1.62","LF","mus0v446tm","1536","864","0","1","0","5f8dda4538ed0614d9ac476b","","null","","","","","","","learning/Slide63.JPG","null","","","","","",""
"html-keyboard-response","194","308354","0.0-5.0-2.62","LF","mus0v446tm","1536","864","0","1","0","5f8dda4538ed0614d9ac476b","","null","","","learningBlock1","","","","<div style=""font-size:60px;""> </div>","null","LF","learning/Slide63.JPG","This is a bim:","","",""
"html-keyboard-response","195","309359","0.0-5.0-0.63","LF","mus0v446tm","1536","864","0","1","0","5f8dda4538ed0614d9ac476b","","null","","","learningBlock1","","","","This is a tob:","null","","","","","",""
"image-keyboard-response","196","309699","0.0-5.0-1.63","LF","mus0v446tm","1536","864","0","1","0","5f8dda4538ed0614d9ac476b","","null","","","","","","","learning/Slide64.JPG","null","","","","","",""
"html-keyboard-response","197","310705","0.0-5.0-2.63","LF","mus0v446tm","1536","864","0","1","0","5f8dda4538ed0614d9ac476b","","null","","","learningBlock1","","","","<div style=""font-size:60px;""> </div>","null","LF","learning/Slide64.JPG","This is a tob:","","",""
"html-keyboard-response","198","311714","0.0-5.0-0.64","LF","mus0v446tm","1536","864","0","1","0","5f8dda4538ed0614d9ac476b","","null","","","learningBlock1","","","","This is a wug:","null","","","","","",""
"image-keyboard-response","199","312049","0.0-5.0-1.64","LF","mus0v446tm","1536","864","0","1","0","5f8dda4538ed0614d9ac476b","","null","","","","","","","learning/Slide65.JPG","null","","","","","",""
"html-keyboard-response","200","313057","0.0-5.0-2.64","LF","mus0v446tm","1536","864","0","1","0","5f8dda4538ed0614d9ac476b","","null","","","learningBlock1","","","","<div style=""font-size:60px;""> </div>","null","LF","learning/Slide65.JPG","This is a wug:","","",""
"html-keyboard-response","201","314064","0.0-5.0-0.65","LF","mus0v446tm","1536","864","0","1","0","5f8dda4538ed0614d9ac476b","","null","","","learningBlock1","","","","This is a dep:","null","","","","","",""
"image-keyboard-response","202","314401","0.0-5.0-1.65","LF","mus0v446tm","1536","864","0","1","0","5f8dda4538ed0614d9ac476b","","null","","","","","","","learning/Slide66.JPG","null","","","","","",""
"html-keyboard-response","203","315406","0.0-5.0-2.65","LF","mus0v446tm","1536","864","0","1","0","5f8dda4538ed0614d9ac476b","","null","","","learningBlock1","","","","<div style=""font-size:60px;""> </div>","null","LF","learning/Slide66.JPG","This is a dep:","","",""
"html-keyboard-response","204","316417","0.0-5.0-0.66","LF","mus0v446tm","1536","864","0","1","0","5f8dda4538ed0614d9ac476b","","null","","","learningBlock1","","","","This is a tob:","null","","","","","",""
"image-keyboard-response","205","316753","0.0-5.0-1.66","LF","mus0v446tm","1536","864","0","1","0","5f8dda4538ed0614d9ac476b","","null","","","","","","","learning/Slide67.JPG","null","","","","","",""
"html-keyboard-response","206","317761","0.0-5.0-2.66","LF","mus0v446tm","1536","864","0","1","0","5f8dda4538ed0614d9ac476b","","null","","","learningBlock1","","","","<div style=""font-size:60px;""> </div>","null","LF","learning/Slide67.JPG","This is a tob:","","",""
"html-keyboard-response","207","318770","0.0-5.0-0.67","LF","mus0v446tm","1536","864","0","1","0","5f8dda4538ed0614d9ac476b","","null","","","learningBlock1","","","","This is a wug:","null","","","","","",""
"image-keyboard-response","208","319097","0.0-5.0-1.67","LF","mus0v446tm","1536","864","0","1","0","5f8dda4538ed0614d9ac476b","","null","","","","","","","learning/Slide68.JPG","null","","","","","",""
"html-keyboard-response","209","320114","0.0-5.0-2.67","LF","mus0v446tm","1536","864","0","1","0","5f8dda4538ed0614d9ac476b","","null","","","learningBlock1","","","","<div style=""font-size:60px;""> </div>","null","LF","learning/Slide68.JPG","This is a wug:","","",""
"html-keyboard-response","210","321122","0.0-5.0-0.68","LF","mus0v446tm","1536","864","0","1","0","5f8dda4538ed0614d9ac476b","","null","","","learningBlock1","","","","This is a tob:","null","","","","","",""
"image-keyboard-response","211","321469","0.0-5.0-1.68","LF","mus0v446tm","1536","864","0","1","0","5f8dda4538ed0614d9ac476b","","null","","","","","","","learning/Slide69.JPG","null","","","","","",""
"html-keyboard-response","212","322480","0.0-5.0-2.68","LF","mus0v446tm","1536","864","0","1","0","5f8dda4538ed0614d9ac476b","","null","","","learningBlock1","","","","<div style=""font-size:60px;""> </div>","null","LF","learning/Slide69.JPG","This is a tob:","","",""
"html-keyboard-response","213","323487","0.0-5.0-0.69","LF","mus0v446tm","1536","864","0","1","0","5f8dda4538ed0614d9ac476b","","null","","","learningBlock1","","","","This is a dep:","null","","","","","",""
"image-keyboard-response","214","323815","0.0-5.0-1.69","LF","mus0v446tm","1536","864","0","1","0","5f8dda4538ed0614d9ac476b","","null","","","","","","","learning/Slide70.JPG","null","","","","","",""
"html-keyboard-response","215","324818","0.0-5.0-2.69","LF","mus0v446tm","1536","864","0","1","0","5f8dda4538ed0614d9ac476b","","null","","","learningBlock1","","","","<div style=""font-size:60px;""> </div>","null","LF","learning/Slide70.JPG","This is a dep:","","",""
"html-keyboard-response","216","325823","0.0-5.0-0.70","LF","mus0v446tm","1536","864","0","1","0","5f8dda4538ed0614d9ac476b","","null","","","learningBlock1","","","","This is a wug:","null","","","","","",""
"image-keyboard-response","217","326154","0.0-5.0-1.70","LF","mus0v446tm","1536","864","0","1","0","5f8dda4538ed0614d9ac476b","","null","","","","","","","learning/Slide71.JPG","null","","","","","",""
"html-keyboard-response","218","327163","0.0-5.0-2.70","LF","mus0v446tm","1536","864","0","1","0","5f8dda4538ed0614d9ac476b","","null","","","learningBlock1","","","","<div style=""font-size:60px;""> </div>","null","LF","learning/Slide71.JPG","This is a wug:","","",""
"html-keyboard-response","219","328180","0.0-5.0-0.71","LF","mus0v446tm","1536","864","0","1","0","5f8dda4538ed0614d9ac476b","","null","","","learningBlock1","","","","This is a bim:","null","","","","","",""
"image-keyboard-response","220","328514","0.0-5.0-1.71","LF","mus0v446tm","1536","864","0","1","0","5f8dda4538ed0614d9ac476b","","null","","","","","","","learning/Slide72.JPG","null","","","","","",""
"html-keyboard-response","221","329529","0.0-5.0-2.71","LF","mus0v446tm","1536","864","0","1","0","5f8dda4538ed0614d9ac476b","","null","","","learningBlock1","","","","<div style=""font-size:60px;""> </div>","null","LF","learning/Slide72.JPG","This is a bim:","","",""
"html-keyboard-response","222","330543","0.0-5.0-0.72","LF","mus0v446tm","1536","864","0","1","0","5f8dda4538ed0614d9ac476b","","null","","","learningBlock1","","","","This is a wug:","null","","","","","",""
"image-keyboard-response","223","330875","0.0-5.0-1.72","LF","mus0v446tm","1536","864","0","1","0","5f8dda4538ed0614d9ac476b","","null","","","","","","","learning/Slide73.JPG","null","","","","","",""
"html-keyboard-response","224","331880","0.0-5.0-2.72","LF","mus0v446tm","1536","864","0","1","0","5f8dda4538ed0614d9ac476b","","null","","","learningBlock1","","","","<div style=""font-size:60px;""> </div>","null","LF","learning/Slide73.JPG","This is a wug:","","",""
"html-keyboard-response","225","332894","0.0-5.0-0.73","LF","mus0v446tm","1536","864","0","1","0","5f8dda4538ed0614d9ac476b","","null","","","learningBlock1","","","","This is a dep:","null","","","","","",""
"image-keyboard-response","226","333237","0.0-5.0-1.73","LF","mus0v446tm","1536","864","0","1","0","5f8dda4538ed0614d9ac476b","","null","","","","","","","learning/Slide74.JPG","null","","","","","",""
"html-keyboard-response","227","334249","0.0-5.0-2.73","LF","mus0v446tm","1536","864","0","1","0","5f8dda4538ed0614d9ac476b","","null","","","learningBlock1","","","","<div style=""font-size:60px;""> </div>","null","LF","learning/Slide74.JPG","This is a dep:","","",""
"html-keyboard-response","228","335262","0.0-5.0-0.74","LF","mus0v446tm","1536","864","0","1","0","5f8dda4538ed0614d9ac476b","","null","","","learningBlock1","","","","This is a tob:","null","","","","","",""
"image-keyboard-response","229","335603","0.0-5.0-1.74","LF","mus0v446tm","1536","864","0","1","0","5f8dda4538ed0614d9ac476b","","null","","","","","","","learning/Slide75.JPG","null","","","","","",""
"html-keyboard-response","230","336616","0.0-5.0-2.74","LF","mus0v446tm","1536","864","0","1","0","5f8dda4538ed0614d9ac476b","","null","","","learningBlock1","","","","<div style=""font-size:60px;""> </div>","null","LF","learning/Slide75.JPG","This is a tob:","","",""
"html-keyboard-response","231","337631","0.0-5.0-0.75","LF","mus0v446tm","1536","864","0","1","0","5f8dda4538ed0614d9ac476b","","null","","","learningBlock1","","","","This is a bim:","null","","","","","",""
"image-keyboard-response","232","337958","0.0-5.0-1.75","LF","mus0v446tm","1536","864","0","1","0","5f8dda4538ed0614d9ac476b","","null","","","","","","","learning/Slide76.JPG","null","","","","","",""
"html-keyboard-response","233","338966","0.0-5.0-2.75","LF","mus0v446tm","1536","864","0","1","0","5f8dda4538ed0614d9ac476b","","null","","","learningBlock1","","","","<div style=""font-size:60px;""> </div>","null","LF","learning/Slide76.JPG","This is a bim:","","",""
"html-keyboard-response","234","339971","0.0-5.0-0.76","LF","mus0v446tm","1536","864","0","1","0","5f8dda4538ed0614d9ac476b","","null","","","learningBlock1","","","","This is a tob:","null","","","","","",""
"image-keyboard-response","235","340303","0.0-5.0-1.76","LF","mus0v446tm","1536","864","0","1","0","5f8dda4538ed0614d9ac476b","","null","","","","","","","learning/Slide77.JPG","null","","","","","",""
"html-keyboard-response","236","341315","0.0-5.0-2.76","LF","mus0v446tm","1536","864","0","1","0","5f8dda4538ed0614d9ac476b","","null","","","learningBlock1","","","","<div style=""font-size:60px;""> </div>","null","LF","learning/Slide77.JPG","This is a tob:","","",""
"html-keyboard-response","237","342323","0.0-5.0-0.77","LF","mus0v446tm","1536","864","0","1","0","5f8dda4538ed0614d9ac476b","","null","","","learningBlock1","","","","This is a wug:","null","","","","","",""
"image-keyboard-response","238","342667","0.0-5.0-1.77","LF","mus0v446tm","1536","864","0","1","0","5f8dda4538ed0614d9ac476b","","null","","","","","","","learning/Slide78.JPG","null","","","","","",""
"html-keyboard-response","239","343680","0.0-5.0-2.77","LF","mus0v446tm","1536","864","0","1","0","5f8dda4538ed0614d9ac476b","","null","","","learningBlock1","","","","<div style=""font-size:60px;""> </div>","null","LF","learning/Slide78.JPG","This is a wug:","","",""
"html-keyboard-response","240","344689","0.0-5.0-0.78","LF","mus0v446tm","1536","864","0","1","0","5f8dda4538ed0614d9ac476b","","null","","","learningBlock1","","","","This is a bim:","null","","","","","",""
"image-keyboard-response","241","345017","0.0-5.0-1.78","LF","mus0v446tm","1536","864","0","1","0","5f8dda4538ed0614d9ac476b","","null","","","","","","","learning/Slide79.JPG","null","","","","","",""
"html-keyboard-response","242","346032","0.0-5.0-2.78","LF","mus0v446tm","1536","864","0","1","0","5f8dda4538ed0614d9ac476b","","null","","","learningBlock1","","","","<div style=""font-size:60px;""> </div>","null","LF","learning/Slide79.JPG","This is a bim:","","",""
"html-keyboard-response","243","347042","0.0-5.0-0.79","LF","mus0v446tm","1536","864","0","1","0","5f8dda4538ed0614d9ac476b","","null","","","learningBlock1","","","","This is a tob:","null","","","","","",""
"image-keyboard-response","244","347379","0.0-5.0-1.79","LF","mus0v446tm","1536","864","0","1","0","5f8dda4538ed0614d9ac476b","","null","","","","","","","learning/Slide80.JPG","null","","","","","",""
"html-keyboard-response","245","348385","0.0-5.0-2.79","LF","mus0v446tm","1536","864","0","1","0","5f8dda4538ed0614d9ac476b","","null","","","learningBlock1","","","","<div style=""font-size:60px;""> </div>","null","LF","learning/Slide80.JPG","This is a tob:","","",""
"instructions","246","359892","0.0-6.0","LF","mus0v446tm","1536","864","0","1","0","5f8dda4538ed0614d9ac476b","","NA","","[{""page_index"":0,""viewing_time"":11506.165000006149}]","instructions","","","","","","","","","","",""
"html-keyboard-response","247","360896","0.0-7.0-0.0","LF","mus0v446tm","1536","864","0","1","0","5f8dda4538ed0614d9ac476b","","null","","","learningBlock2","","","","This is a wug:","null","","","","","",""
"image-keyboard-response","248","361224","0.0-7.0-1.0","LF","mus0v446tm","1536","864","0","1","0","5f8dda4538ed0614d9ac476b","","null","","","","","","","learning/Slide81.JPG","null","","","","","",""
"html-keyboard-response","249","362241","0.0-7.0-2.0","LF","mus0v446tm","1536","864","0","1","0","5f8dda4538ed0614d9ac476b","","null","","","learningBlock2","","","","<div style=""font-size:60px;""> </div>","null","LF","learning/Slide81.JPG","This is a wug:","","",""
"html-keyboard-response","250","363250","0.0-7.0-0.1","LF","mus0v446tm","1536","864","0","1","0","5f8dda4538ed0614d9ac476b","","null","","","learningBlock2","","","","This is a bim:","null","","","","","",""
"image-keyboard-response","251","363584","0.0-7.0-1.1","LF","mus0v446tm","1536","864","0","1","0","5f8dda4538ed0614d9ac476b","","null","","","","","","","learning/Slide82.JPG","null","","","","","",""
"html-keyboard-response","252","364592","0.0-7.0-2.1","LF","mus0v446tm","1536","864","0","1","0","5f8dda4538ed0614d9ac476b","","null","","","learningBlock2","","","","<div style=""font-size:60px;""> </div>","null","LF","learning/Slide82.JPG","This is a bim:","","",""
"html-keyboard-response","253","365600","0.0-7.0-0.2","LF","mus0v446tm","1536","864","0","1","0","5f8dda4538ed0614d9ac476b","","null","","","learningBlock2","","","","This is a wug:","null","","","","","",""
"image-keyboard-response","254","365937","0.0-7.0-1.2","LF","mus0v446tm","1536","864","0","1","0","5f8dda4538ed0614d9ac476b","","null","","","","","","","learning/Slide83.JPG","null","","","","","",""
"html-keyboard-response","255","366945","0.0-7.0-2.2","LF","mus0v446tm","1536","864","0","1","0","5f8dda4538ed0614d9ac476b","","null","","","learningBlock2","","","","<div style=""font-size:60px;""> </div>","null","LF","learning/Slide83.JPG","This is a wug:","","",""
"html-keyboard-response","256","367953","0.0-7.0-0.3","LF","mus0v446tm","1536","864","0","1","0","5f8dda4538ed0614d9ac476b","","null","","","learningBlock2","","","","This is a dep:","null","","","","","",""
"image-keyboard-response","257","368281","0.0-7.0-1.3","LF","mus0v446tm","1536","864","0","1","0","5f8dda4538ed0614d9ac476b","","null","","","","","","","learning/Slide84.JPG","null","","","","","",""
"html-keyboard-response","258","369295","0.0-7.0-2.3","LF","mus0v446tm","1536","864","0","1","0","5f8dda4538ed0614d9ac476b","","null","","","learningBlock2","","","","<div style=""font-size:60px;""> </div>","null","LF","learning/Slide84.JPG","This is a dep:","","",""
"html-keyboard-response","259","370306","0.0-7.0-0.4","LF","mus0v446tm","1536","864","0","1","0","5f8dda4538ed0614d9ac476b","","null","","","learningBlock2","","","","This is a bim:","null","","","","","",""
"image-keyboard-response","260","370641","0.0-7.0-1.4","LF","mus0v446tm","1536","864","0","1","0","5f8dda4538ed0614d9ac476b","","null","","","","","","","learning/Slide85.JPG","null","","","","","",""
"html-keyboard-response","261","371648","0.0-7.0-2.4","LF","mus0v446tm","1536","864","0","1","0","5f8dda4538ed0614d9ac476b","","null","","","learningBlock2","","","","<div style=""font-size:60px;""> </div>","null","LF","learning/Slide85.JPG","This is a bim:","","",""
"html-keyboard-response","262","372655","0.0-7.0-0.5","LF","mus0v446tm","1536","864","0","1","0","5f8dda4538ed0614d9ac476b","","null","","","learningBlock2","","","","This is a tob:","null","","","","","",""
"image-keyboard-response","263","372987","0.0-7.0-1.5","LF","mus0v446tm","1536","864","0","1","0","5f8dda4538ed0614d9ac476b","","null","","","","","","","learning/Slide86.JPG","null","","","","","",""
"html-keyboard-response","264","374001","0.0-7.0-2.5","LF","mus0v446tm","1536","864","0","1","0","5f8dda4538ed0614d9ac476b","","null","","","learningBlock2","","","","<div style=""font-size:60px;""> </div>","null","LF","learning/Slide86.JPG","This is a tob:","","",""
"html-keyboard-response","265","375003","0.0-7.0-0.6","LF","mus0v446tm","1536","864","0","1","0","5f8dda4538ed0614d9ac476b","","null","","","learningBlock2","","","","This is a wug:","null","","","","","",""
"image-keyboard-response","266","375345","0.0-7.0-1.6","LF","mus0v446tm","1536","864","0","1","0","5f8dda4538ed0614d9ac476b","","null","","","","","","","learning/Slide87.JPG","null","","","","","",""
"html-keyboard-response","267","376353","0.0-7.0-2.6","LF","mus0v446tm","1536","864","0","1","0","5f8dda4538ed0614d9ac476b","","null","","","learningBlock2","","","","<div style=""font-size:60px;""> </div>","null","LF","learning/Slide87.JPG","This is a wug:","","",""
"html-keyboard-response","268","377360","0.0-7.0-0.7","LF","mus0v446tm","1536","864","0","1","0","5f8dda4538ed0614d9ac476b","","null","","","learningBlock2","","","","This is a tob:","null","","","","","",""
"image-keyboard-response","269","377709","0.0-7.0-1.7","LF","mus0v446tm","1536","864","0","1","0","5f8dda4538ed0614d9ac476b","","null","","","","","","","learning/Slide88.JPG","null","","","","","",""
"html-keyboard-response","270","378720","0.0-7.0-2.7","LF","mus0v446tm","1536","864","0","1","0","5f8dda4538ed0614d9ac476b","","null","","","learningBlock2","","","","<div style=""font-size:60px;""> </div>","null","LF","learning/Slide88.JPG","This is a tob:","","",""
"html-keyboard-response","271","379727","0.0-7.0-0.8","LF","mus0v446tm","1536","864","0","1","0","5f8dda4538ed0614d9ac476b","","null","","","learningBlock2","","","","This is a bim:","null","","","","","",""
"image-keyboard-response","272","380065","0.0-7.0-1.8","LF","mus0v446tm","1536","864","0","1","0","5f8dda4538ed0614d9ac476b","","null","","","","","","","learning/Slide89.JPG","null","","","","","",""
"html-keyboard-response","273","381073","0.0-7.0-2.8","LF","mus0v446tm","1536","864","0","1","0","5f8dda4538ed0614d9ac476b","","null","","","learningBlock2","","","","<div style=""font-size:60px;""> </div>","null","LF","learning/Slide89.JPG","This is a bim:","","",""
"html-keyboard-response","274","382081","0.0-7.0-0.9","LF","mus0v446tm","1536","864","0","1","0","5f8dda4538ed0614d9ac476b","","null","","","learningBlock2","","","","This is a dep:","null","","","","","",""
"image-keyboard-response","275","382409","0.0-7.0-1.9","LF","mus0v446tm","1536","864","0","1","0","5f8dda4538ed0614d9ac476b","","null","","","","","","","learning/Slide90.JPG","null","","","","","",""
"html-keyboard-response","276","383422","0.0-7.0-2.9","LF","mus0v446tm","1536","864","0","1","0","5f8dda4538ed0614d9ac476b","","null","","","learningBlock2","","","","<div style=""font-size:60px;""> </div>","null","LF","learning/Slide90.JPG","This is a dep:","","",""
"html-keyboard-response","277","384432","0.0-7.0-0.10","LF","mus0v446tm","1536","864","0","1","0","5f8dda4538ed0614d9ac476b","","null","","","learningBlock2","","","","This is a wug:","null","","","","","",""
"image-keyboard-response","278","384769","0.0-7.0-1.10","LF","mus0v446tm","1536","864","0","1","0","5f8dda4538ed0614d9ac476b","","null","","","","","","","learning/Slide91.JPG","null","","","","","",""
"html-keyboard-response","279","385772","0.0-7.0-2.10","LF","mus0v446tm","1536","864","0","1","0","5f8dda4538ed0614d9ac476b","","null","","","learningBlock2","","","","<div style=""font-size:60px;""> </div>","null","LF","learning/Slide91.JPG","This is a wug:","","",""
"html-keyboard-response","280","386785","0.0-7.0-0.11","LF","mus0v446tm","1536","864","0","1","0","5f8dda4538ed0614d9ac476b","","null","","","learningBlock2","","","","This is a tob:","null","","","","","",""
"image-keyboard-response","281","387114","0.0-7.0-1.11","LF","mus0v446tm","1536","864","0","1","0","5f8dda4538ed0614d9ac476b","","null","","","","","","","learning/Slide92.JPG","null","","","","","",""
"html-keyboard-response","282","388128","0.0-7.0-2.11","LF","mus0v446tm","1536","864","0","1","0","5f8dda4538ed0614d9ac476b","","null","","","learningBlock2","","","","<div style=""font-size:60px;""> </div>","null","LF","learning/Slide92.JPG","This is a tob:","","",""
"html-keyboard-response","283","389137","0.0-7.0-0.12","LF","mus0v446tm","1536","864","0","1","0","5f8dda4538ed0614d9ac476b","","null","","","learningBlock2","","","","This is a bim:","null","","","","","",""
"image-keyboard-response","284","389465","0.0-7.0-1.12","LF","mus0v446tm","1536","864","0","1","0","5f8dda4538ed0614d9ac476b","","null","","","","","","","learning/Slide93.JPG","null","","","","","",""
"html-keyboard-response","285","390481","0.0-7.0-2.12","LF","mus0v446tm","1536","864","0","1","0","5f8dda4538ed0614d9ac476b","","null","","","learningBlock2","","","","<div style=""font-size:60px;""> </div>","null","LF","learning/Slide93.JPG","This is a bim:","","",""
"html-keyboard-response","286","391486","0.0-7.0-0.13","LF","mus0v446tm","1536","864","0","1","0","5f8dda4538ed0614d9ac476b","","null","","","learningBlock2","","","","This is a tob:","null","","","","","",""
"image-keyboard-response","287","391823","0.0-7.0-1.13","LF","mus0v446tm","1536","864","0","1","0","5f8dda4538ed0614d9ac476b","","null","","","","","","","learning/Slide94.JPG","null","","","","","",""
"html-keyboard-response","288","392833","0.0-7.0-2.13","LF","mus0v446tm","1536","864","0","1","0","5f8dda4538ed0614d9ac476b","","null","","","learningBlock2","","","","<div style=""font-size:60px;""> </div>","null","LF","learning/Slide94.JPG","This is a tob:","","",""
"html-keyboard-response","289","393840","0.0-7.0-0.14","LF","mus0v446tm","1536","864","0","1","0","5f8dda4538ed0614d9ac476b","","null","","","learningBlock2","","","","This is a wug:","null","","","","","",""
"image-keyboard-response","290","394168","0.0-7.0-1.14","LF","mus0v446tm","1536","864","0","1","0","5f8dda4538ed0614d9ac476b","","null","","","","","","","learning/Slide95.JPG","null","","","","","",""
"html-keyboard-response","291","395174","0.0-7.0-2.14","LF","mus0v446tm","1536","864","0","1","0","5f8dda4538ed0614d9ac476b","","null","","","learningBlock2","","","","<div style=""font-size:60px;""> </div>","null","LF","learning/Slide95.JPG","This is a wug:","","",""
"html-keyboard-response","292","396183","0.0-7.0-0.15","LF","mus0v446tm","1536","864","0","1","0","5f8dda4538ed0614d9ac476b","","null","","","learningBlock2","","","","This is a tob:","null","","","","","",""
"image-keyboard-response","293","396515","0.0-7.0-1.15","LF","mus0v446tm","1536","864","0","1","0","5f8dda4538ed0614d9ac476b","","null","","","","","","","learning/Slide96.JPG","null","","","","","",""
"html-keyboard-response","294","397521","0.0-7.0-2.15","LF","mus0v446tm","1536","864","0","1","0","5f8dda4538ed0614d9ac476b","","null","","","learningBlock2","","","","<div style=""font-size:60px;""> </div>","null","LF","learning/Slide96.JPG","This is a tob:","","",""
"html-keyboard-response","295","398538","0.0-7.0-0.16","LF","mus0v446tm","1536","864","0","1","0","5f8dda4538ed0614d9ac476b","","null","","","learningBlock2","","","","This is a dep:","null","","","","","",""
"image-keyboard-response","296","398872","0.0-7.0-1.16","LF","mus0v446tm","1536","864","0","1","0","5f8dda4538ed0614d9ac476b","","null","","","","","","","learning/Slide97.JPG","null","","","","","",""
"html-keyboard-response","297","399882","0.0-7.0-2.16","LF","mus0v446tm","1536","864","0","1","0","5f8dda4538ed0614d9ac476b","","null","","","learningBlock2","","","","<div style=""font-size:60px;""> </div>","null","LF","learning/Slide97.JPG","This is a dep:","","",""
"html-keyboard-response","298","400895","0.0-7.0-0.17","LF","mus0v446tm","1536","864","0","1","0","5f8dda4538ed0614d9ac476b","","null","","","learningBlock2","","","","This is a bim:","null","","","","","",""
"image-keyboard-response","299","401226","0.0-7.0-1.17","LF","mus0v446tm","1536","864","0","1","0","5f8dda4538ed0614d9ac476b","","null","","","","","","","learning/Slide98.JPG","null","","","","","",""
"html-keyboard-response","300","402235","0.0-7.0-2.17","LF","mus0v446tm","1536","864","0","1","0","5f8dda4538ed0614d9ac476b","","null","","","learningBlock2","","","","<div style=""font-size:60px;""> </div>","null","LF","learning/Slide98.JPG","This is a bim:","","",""
"html-keyboard-response","301","403250","0.0-7.0-0.18","LF","mus0v446tm","1536","864","0","1","0","5f8dda4538ed0614d9ac476b","","null","","","learningBlock2","","","","This is a dep:","null","","","","","",""
"image-keyboard-response","302","403578","0.0-7.0-1.18","LF","mus0v446tm","1536","864","0","1","0","5f8dda4538ed0614d9ac476b","","null","","","","","","","learning/Slide99.JPG","null","","","","","",""
"html-keyboard-response","303","404593","0.0-7.0-2.18","LF","mus0v446tm","1536","864","0","1","0","5f8dda4538ed0614d9ac476b","","null","","","learningBlock2","","","","<div style=""font-size:60px;""> </div>","null","LF","learning/Slide99.JPG","This is a dep:","","",""
"html-keyboard-response","304","405599","0.0-7.0-0.19","LF","mus0v446tm","1536","864","0","1","0","5f8dda4538ed0614d9ac476b","","null","","","learningBlock2","","","","This is a bim:","null","","","","","",""
"image-keyboard-response","305","405937","0.0-7.0-1.19","LF","mus0v446tm","1536","864","0","1","0","5f8dda4538ed0614d9ac476b","","null","","","","","","","learning/Slide100.JPG","null","","","","","",""
"html-keyboard-response","306","406945","0.0-7.0-2.19","LF","mus0v446tm","1536","864","0","1","0","5f8dda4538ed0614d9ac476b","","null","","","learningBlock2","","","","<div style=""font-size:60px;""> </div>","null","LF","learning/Slide100.JPG","This is a bim:","","",""
"html-keyboard-response","307","407952","0.0-7.0-0.20","LF","mus0v446tm","1536","864","0","1","0","5f8dda4538ed0614d9ac476b","","null","","","learningBlock2","","","","This is a tob:","null","","","","","",""
"image-keyboard-response","308","408284","0.0-7.0-1.20","LF","mus0v446tm","1536","864","0","1","0","5f8dda4538ed0614d9ac476b","","null","","","","","","","learning/Slide101.JPG","null","","","","","",""
"html-keyboard-response","309","409297","0.0-7.0-2.20","LF","mus0v446tm","1536","864","0","1","0","5f8dda4538ed0614d9ac476b","","null","","","learningBlock2","","","","<div style=""font-size:60px;""> </div>","null","LF","learning/Slide101.JPG","This is a tob:","","",""
"html-keyboard-response","310","410303","0.0-7.0-0.21","LF","mus0v446tm","1536","864","0","1","0","5f8dda4538ed0614d9ac476b","","null","","","learningBlock2","","","","This is a bim:","null","","","","","",""
"image-keyboard-response","311","410631","0.0-7.0-1.21","LF","mus0v446tm","1536","864","0","1","0","5f8dda4538ed0614d9ac476b","","null","","","","","","","learning/Slide102.JPG","null","","","","","",""
"html-keyboard-response","312","411634","0.0-7.0-2.21","LF","mus0v446tm","1536","864","0","1","0","5f8dda4538ed0614d9ac476b","","null","","","learningBlock2","","","","<div style=""font-size:60px;""> </div>","null","LF","learning/Slide102.JPG","This is a bim:","","",""
"html-keyboard-response","313","412641","0.0-7.0-0.22","LF","mus0v446tm","1536","864","0","1","0","5f8dda4538ed0614d9ac476b","","null","","","learningBlock2","","","","This is a dep:","null","","","","","",""
"image-keyboard-response","314","412977","0.0-7.0-1.22","LF","mus0v446tm","1536","864","0","1","0","5f8dda4538ed0614d9ac476b","","null","","","","","","","learning/Slide103.JPG","null","","","","","",""
"html-keyboard-response","315","413983","0.0-7.0-2.22","LF","mus0v446tm","1536","864","0","1","0","5f8dda4538ed0614d9ac476b","","null","","","learningBlock2","","","","<div style=""font-size:60px;""> </div>","null","LF","learning/Slide103.JPG","This is a dep:","","",""
"html-keyboard-response","316","414993","0.0-7.0-0.23","LF","mus0v446tm","1536","864","0","1","0","5f8dda4538ed0614d9ac476b","","null","","","learningBlock2","","","","This is a tob:","null","","","","","",""
"image-keyboard-response","317","415343","0.0-7.0-1.23","LF","mus0v446tm","1536","864","0","1","0","5f8dda4538ed0614d9ac476b","","null","","","","","","","learning/Slide104.JPG","null","","","","","",""
"html-keyboard-response","318","416347","0.0-7.0-2.23","LF","mus0v446tm","1536","864","0","1","0","5f8dda4538ed0614d9ac476b","","null","","","learningBlock2","","","","<div style=""font-size:60px;""> </div>","null","LF","learning/Slide104.JPG","This is a tob:","","",""
"html-keyboard-response","319","417358","0.0-7.0-0.24","LF","mus0v446tm","1536","864","0","1","0","5f8dda4538ed0614d9ac476b","","null","","","learningBlock2","","","","This is a dep:","null","","","","","",""
"image-keyboard-response","320","417692","0.0-7.0-1.24","LF","mus0v446tm","1536","864","0","1","0","5f8dda4538ed0614d9ac476b","","null","","","","","","","learning/Slide105.JPG","null","","","","","",""
"html-keyboard-response","321","418706","0.0-7.0-2.24","LF","mus0v446tm","1536","864","0","1","0","5f8dda4538ed0614d9ac476b","","null","","","learningBlock2","","","","<div style=""font-size:60px;""> </div>","null","LF","learning/Slide105.JPG","This is a dep:","","",""
"html-keyboard-response","322","419713","0.0-7.0-0.25","LF","mus0v446tm","1536","864","0","1","0","5f8dda4538ed0614d9ac476b","","null","","","learningBlock2","","","","This is a wug:","null","","","","","",""
"image-keyboard-response","323","420048","0.0-7.0-1.25","LF","mus0v446tm","1536","864","0","1","0","5f8dda4538ed0614d9ac476b","","null","","","","","","","learning/Slide106.JPG","null","","","","","",""
"html-keyboard-response","324","421056","0.0-7.0-2.25","LF","mus0v446tm","1536","864","0","1","0","5f8dda4538ed0614d9ac476b","","null","","","learningBlock2","","","","<div style=""font-size:60px;""> </div>","null","LF","learning/Slide106.JPG","This is a wug:","","",""
"html-keyboard-response","325","422066","0.0-7.0-0.26","LF","mus0v446tm","1536","864","0","1","0","5f8dda4538ed0614d9ac476b","","null","","","learningBlock2","","","","This is a bim:","null","","","","","",""
"image-keyboard-response","326","422394","0.0-7.0-1.26","LF","mus0v446tm","1536","864","0","1","0","5f8dda4538ed0614d9ac476b","","null","","","","","","","learning/Slide107.JPG","null","","","","","",""
"html-keyboard-response","327","423409","0.0-7.0-2.26","LF","mus0v446tm","1536","864","0","1","0","5f8dda4538ed0614d9ac476b","","null","","","learningBlock2","","","","<div style=""font-size:60px;""> </div>","null","LF","learning/Slide107.JPG","This is a bim:","","",""
"html-keyboard-response","328","424416","0.0-7.0-0.27","LF","mus0v446tm","1536","864","0","1","0","5f8dda4538ed0614d9ac476b","","null","","","learningBlock2","","","","This is a dep:","null","","","","","",""
"image-keyboard-response","329","424769","0.0-7.0-1.27","LF","mus0v446tm","1536","864","0","1","0","5f8dda4538ed0614d9ac476b","","null","","","","","","","learning/Slide108.JPG","null","","","","","",""
"html-keyboard-response","330","425775","0.0-7.0-2.27","LF","mus0v446tm","1536","864","0","1","0","5f8dda4538ed0614d9ac476b","","null","","","learningBlock2","","","","<div style=""font-size:60px;""> </div>","null","LF","learning/Slide108.JPG","This is a dep:","","",""
"html-keyboard-response","331","426779","0.0-7.0-0.28","LF","mus0v446tm","1536","864","0","1","0","5f8dda4538ed0614d9ac476b","","null","","","learningBlock2","","","","This is a wug:","null","","","","","",""
"image-keyboard-response","332","427122","0.0-7.0-1.28","LF","mus0v446tm","1536","864","0","1","0","5f8dda4538ed0614d9ac476b","","null","","","","","","","learning/Slide109.JPG","null","","","","","",""
"html-keyboard-response","333","428129","0.0-7.0-2.28","LF","mus0v446tm","1536","864","0","1","0","5f8dda4538ed0614d9ac476b","","null","","","learningBlock2","","","","<div style=""font-size:60px;""> </div>","null","LF","learning/Slide109.JPG","This is a wug:","","",""
"html-keyboard-response","334","429143","0.0-7.0-0.29","LF","mus0v446tm","1536","864","0","1","0","5f8dda4538ed0614d9ac476b","","null","","","learningBlock2","","","","This is a bim:","null","","","","","",""
"image-keyboard-response","335","429472","0.0-7.0-1.29","LF","mus0v446tm","1536","864","0","1","0","5f8dda4538ed0614d9ac476b","","null","","","","","","","learning/Slide110.JPG","null","","","","","",""
"html-keyboard-response","336","430481","0.0-7.0-2.29","LF","mus0v446tm","1536","864","0","1","0","5f8dda4538ed0614d9ac476b","","null","","","learningBlock2","","","","<div style=""font-size:60px;""> </div>","null","LF","learning/Slide110.JPG","This is a bim:","","",""
"html-keyboard-response","337","431490","0.0-7.0-0.30","LF","mus0v446tm","1536","864","0","1","0","5f8dda4538ed0614d9ac476b","","null","","","learningBlock2","","","","This is a tob:","null","","","","","",""
"image-keyboard-response","338","431825","0.0-7.0-1.30","LF","mus0v446tm","1536","864","0","1","0","5f8dda4538ed0614d9ac476b","","null","","","","","","","learning/Slide111.JPG","null","","","","","",""
"html-keyboard-response","339","432827","0.0-7.0-2.30","LF","mus0v446tm","1536","864","0","1","0","5f8dda4538ed0614d9ac476b","","null","","","learningBlock2","","","","<div style=""font-size:60px;""> </div>","null","LF","learning/Slide111.JPG","This is a tob:","","",""
"html-keyboard-response","340","433841","0.0-7.0-0.31","LF","mus0v446tm","1536","864","0","1","0","5f8dda4538ed0614d9ac476b","","null","","","learningBlock2","","","","This is a wug:","null","","","","","",""
"image-keyboard-response","341","434177","0.0-7.0-1.31","LF","mus0v446tm","1536","864","0","1","0","5f8dda4538ed0614d9ac476b","","null","","","","","","","learning/Slide112.JPG","null","","","","","",""
"html-keyboard-response","342","435185","0.0-7.0-2.31","LF","mus0v446tm","1536","864","0","1","0","5f8dda4538ed0614d9ac476b","","null","","","learningBlock2","","","","<div style=""font-size:60px;""> </div>","null","LF","learning/Slide112.JPG","This is a wug:","","",""
"html-keyboard-response","343","436193","0.0-7.0-0.32","LF","mus0v446tm","1536","864","0","1","0","5f8dda4538ed0614d9ac476b","","null","","","learningBlock2","","","","This is a tob:","null","","","","","",""
"image-keyboard-response","344","436529","0.0-7.0-1.32","LF","mus0v446tm","1536","864","0","1","0","5f8dda4538ed0614d9ac476b","","null","","","","","","","learning/Slide113.JPG","null","","","","","",""
"html-keyboard-response","345","437536","0.0-7.0-2.32","LF","mus0v446tm","1536","864","0","1","0","5f8dda4538ed0614d9ac476b","","null","","","learningBlock2","","","","<div style=""font-size:60px;""> </div>","null","LF","learning/Slide113.JPG","This is a tob:","","",""
"html-keyboard-response","346","438546","0.0-7.0-0.33","LF","mus0v446tm","1536","864","0","1","0","5f8dda4538ed0614d9ac476b","","null","","","learningBlock2","","","","This is a wug:","null","","","","","",""
"image-keyboard-response","347","438874","0.0-7.0-1.33","LF","mus0v446tm","1536","864","0","1","0","5f8dda4538ed0614d9ac476b","","null","","","","","","","learning/Slide114.JPG","null","","","","","",""
"html-keyboard-response","348","439888","0.0-7.0-2.33","LF","mus0v446tm","1536","864","0","1","0","5f8dda4538ed0614d9ac476b","","null","","","learningBlock2","","","","<div style=""font-size:60px;""> </div>","null","LF","learning/Slide114.JPG","This is a wug:","","",""
"html-keyboard-response","349","440894","0.0-7.0-0.34","LF","mus0v446tm","1536","864","0","1","0","5f8dda4538ed0614d9ac476b","","null","","","learningBlock2","","","","This is a bim:","null","","","","","",""
"image-keyboard-response","350","441233","0.0-7.0-1.34","LF","mus0v446tm","1536","864","0","1","0","5f8dda4538ed0614d9ac476b","","null","","","","","","","learning/Slide115.JPG","null","","","","","",""
"html-keyboard-response","351","442242","0.0-7.0-2.34","LF","mus0v446tm","1536","864","0","1","0","5f8dda4538ed0614d9ac476b","","null","","","learningBlock2","","","","<div style=""font-size:60px;""> </div>","null","LF","learning/Slide115.JPG","This is a bim:","","",""
"html-keyboard-response","352","443249","0.0-7.0-0.35","LF","mus0v446tm","1536","864","0","1","0","5f8dda4538ed0614d9ac476b","","null","","","learningBlock2","","","","This is a dep:","null","","","","","",""
"image-keyboard-response","353","443585","0.0-7.0-1.35","LF","mus0v446tm","1536","864","0","1","0","5f8dda4538ed0614d9ac476b","","null","","","","","","","learning/Slide116.JPG","null","","","","","",""
"html-keyboard-response","354","444593","0.0-7.0-2.35","LF","mus0v446tm","1536","864","0","1","0","5f8dda4538ed0614d9ac476b","","null","","","learningBlock2","","","","<div style=""font-size:60px;""> </div>","null","LF","learning/Slide116.JPG","This is a dep:","","",""
"html-keyboard-response","355","445600","0.0-7.0-0.36","LF","mus0v446tm","1536","864","0","1","0","5f8dda4538ed0614d9ac476b","","null","","","learningBlock2","","","","This is a tob:","null","","","","","",""
"image-keyboard-response","356","445935","0.0-7.0-1.36","LF","mus0v446tm","1536","864","0","1","0","5f8dda4538ed0614d9ac476b","","null","","","","","","","learning/Slide117.JPG","null","","","","","",""
"html-keyboard-response","357","446946","0.0-7.0-2.36","LF","mus0v446tm","1536","864","0","1","0","5f8dda4538ed0614d9ac476b","","null","","","learningBlock2","","","","<div style=""font-size:60px;""> </div>","null","LF","learning/Slide117.JPG","This is a tob:","","",""
"html-keyboard-response","358","447953","0.0-7.0-0.37","LF","mus0v446tm","1536","864","0","1","0","5f8dda4538ed0614d9ac476b","","null","","","learningBlock2","","","","This is a dep:","null","","","","","",""
"image-keyboard-response","359","448305","0.0-7.0-1.37","LF","mus0v446tm","1536","864","0","1","0","5f8dda4538ed0614d9ac476b","","null","","","","","","","learning/Slide118.JPG","null","","","","","",""
"html-keyboard-response","360","449312","0.0-7.0-2.37","LF","mus0v446tm","1536","864","0","1","0","5f8dda4538ed0614d9ac476b","","null","","","learningBlock2","","","","<div style=""font-size:60px;""> </div>","null","LF","learning/Slide118.JPG","This is a dep:","","",""
"html-keyboard-response","361","450322","0.0-7.0-0.38","LF","mus0v446tm","1536","864","0","1","0","5f8dda4538ed0614d9ac476b","","null","","","learningBlock2","","","","This is a wug:","null","","","","","",""
"image-keyboard-response","362","450657","0.0-7.0-1.38","LF","mus0v446tm","1536","864","0","1","0","5f8dda4538ed0614d9ac476b","","null","","","","","","","learning/Slide119.JPG","null","","","","","",""
"html-keyboard-response","363","451666","0.0-7.0-2.38","LF","mus0v446tm","1536","864","0","1","0","5f8dda4538ed0614d9ac476b","","null","","","learningBlock2","","","","<div style=""font-size:60px;""> </div>","null","LF","learning/Slide119.JPG","This is a wug:","","",""
"html-keyboard-response","364","452673","0.0-7.0-0.39","LF","mus0v446tm","1536","864","0","1","0","5f8dda4538ed0614d9ac476b","","null","","","learningBlock2","","","","This is a dep:","null","","","","","",""
"image-keyboard-response","365","453024","0.0-7.0-1.39","LF","mus0v446tm","1536","864","0","1","0","5f8dda4538ed0614d9ac476b","","null","","","","","","","learning/Slide120.JPG","null","","","","","",""
"html-keyboard-response","366","454031","0.0-7.0-2.39","LF","mus0v446tm","1536","864","0","1","0","5f8dda4538ed0614d9ac476b","","null","","","learningBlock2","","","","<div style=""font-size:60px;""> </div>","null","LF","learning/Slide120.JPG","This is a dep:","","",""
"html-keyboard-response","367","455034","0.0-7.0-0.40","LF","mus0v446tm","1536","864","0","1","0","5f8dda4538ed0614d9ac476b","","null","","","learningBlock2","","","","This is a bim:","null","","","","","",""
"image-keyboard-response","368","455368","0.0-7.0-1.40","LF","mus0v446tm","1536","864","0","1","0","5f8dda4538ed0614d9ac476b","","null","","","","","","","learning/Slide121.JPG","null","","","","","",""
"html-keyboard-response","369","456385","0.0-7.0-2.40","LF","mus0v446tm","1536","864","0","1","0","5f8dda4538ed0614d9ac476b","","null","","","learningBlock2","","","","<div style=""font-size:60px;""> </div>","null","LF","learning/Slide121.JPG","This is a bim:","","",""
"html-keyboard-response","370","457390","0.0-7.0-0.41","LF","mus0v446tm","1536","864","0","1","0","5f8dda4538ed0614d9ac476b","","null","","","learningBlock2","","","","This is a wug:","null","","","","","",""
"image-keyboard-response","371","457724","0.0-7.0-1.41","LF","mus0v446tm","1536","864","0","1","0","5f8dda4538ed0614d9ac476b","","null","","","","","","","learning/Slide122.JPG","null","","","","","",""
"html-keyboard-response","372","458737","0.0-7.0-2.41","LF","mus0v446tm","1536","864","0","1","0","5f8dda4538ed0614d9ac476b","","null","","","learningBlock2","","","","<div style=""font-size:60px;""> </div>","null","LF","learning/Slide122.JPG","This is a wug:","","",""
"html-keyboard-response","373","459743","0.0-7.0-0.42","LF","mus0v446tm","1536","864","0","1","0","5f8dda4538ed0614d9ac476b","","null","","","learningBlock2","","","","This is a bim:","null","","","","","",""
"image-keyboard-response","374","460072","0.0-7.0-1.42","LF","mus0v446tm","1536","864","0","1","0","5f8dda4538ed0614d9ac476b","","null","","","","","","","learning/Slide123.JPG","null","","","","","",""
"html-keyboard-response","375","461085","0.0-7.0-2.42","LF","mus0v446tm","1536","864","0","1","0","5f8dda4538ed0614d9ac476b","","null","","","learningBlock2","","","","<div style=""font-size:60px;""> </div>","null","LF","learning/Slide123.JPG","This is a bim:","","",""
"html-keyboard-response","376","462093","0.0-7.0-0.43","LF","mus0v446tm","1536","864","0","1","0","5f8dda4538ed0614d9ac476b","","null","","","learningBlock2","","","","This is a tob:","null","","","","","",""
"image-keyboard-response","377","462431","0.0-7.0-1.43","LF","mus0v446tm","1536","864","0","1","0","5f8dda4538ed0614d9ac476b","","null","","","","","","","learning/Slide124.JPG","null","","","","","",""
"html-keyboard-response","378","463439","0.0-7.0-2.43","LF","mus0v446tm","1536","864","0","1","0","5f8dda4538ed0614d9ac476b","","null","","","learningBlock2","","","","<div style=""font-size:60px;""> </div>","null","LF","learning/Slide124.JPG","This is a tob:","","",""
"html-keyboard-response","379","464447","0.0-7.0-0.44","LF","mus0v446tm","1536","864","0","1","0","5f8dda4538ed0614d9ac476b","","null","","","learningBlock2","","","","This is a bim:","null","","","","","",""
"image-keyboard-response","380","464775","0.0-7.0-1.44","LF","mus0v446tm","1536","864","0","1","0","5f8dda4538ed0614d9ac476b","","null","","","","","","","learning/Slide125.JPG","null","","","","","",""
"html-keyboard-response","381","465789","0.0-7.0-2.44","LF","mus0v446tm","1536","864","0","1","0","5f8dda4538ed0614d9ac476b","","null","","","learningBlock2","","","","<div style=""font-size:60px;""> </div>","null","LF","learning/Slide125.JPG","This is a bim:","","",""
"html-keyboard-response","382","466801","0.0-7.0-0.45","LF","mus0v446tm","1536","864","0","1","0","5f8dda4538ed0614d9ac476b","","null","","","learningBlock2","","","","This is a tob:","null","","","","","",""
"image-keyboard-response","383","467130","0.0-7.0-1.45","LF","mus0v446tm","1536","864","0","1","0","5f8dda4538ed0614d9ac476b","","null","","","","","","","learning/Slide126.JPG","null","","","","","",""
"html-keyboard-response","384","468145","0.0-7.0-2.45","LF","mus0v446tm","1536","864","0","1","0","5f8dda4538ed0614d9ac476b","","null","","","learningBlock2","","","","<div style=""font-size:60px;""> </div>","null","LF","learning/Slide126.JPG","This is a tob:","","",""
"html-keyboard-response","385","469154","0.0-7.0-0.46","LF","mus0v446tm","1536","864","0","1","0","5f8dda4538ed0614d9ac476b","","null","","","learningBlock2","","","","This is a dep:","null","","","","","",""
"image-keyboard-response","386","469489","0.0-7.0-1.46","LF","mus0v446tm","1536","864","0","1","0","5f8dda4538ed0614d9ac476b","","null","","","","","","","learning/Slide127.JPG","null","","","","","",""
"html-keyboard-response","387","470495","0.0-7.0-2.46","LF","mus0v446tm","1536","864","0","1","0","5f8dda4538ed0614d9ac476b","","null","","","learningBlock2","","","","<div style=""font-size:60px;""> </div>","null","LF","learning/Slide127.JPG","This is a dep:","","",""
"html-keyboard-response","388","471504","0.0-7.0-0.47","LF","mus0v446tm","1536","864","0","1","0","5f8dda4538ed0614d9ac476b","","null","","","learningBlock2","","","","This is a wug:","null","","","","","",""
"image-keyboard-response","389","471841","0.0-7.0-1.47","LF","mus0v446tm","1536","864","0","1","0","5f8dda4538ed0614d9ac476b","","null","","","","","","","learning/Slide128.JPG","null","","","","","",""
"html-keyboard-response","390","472849","0.0-7.0-2.47","LF","mus0v446tm","1536","864","0","1","0","5f8dda4538ed0614d9ac476b","","null","","","learningBlock2","","","","<div style=""font-size:60px;""> </div>","null","LF","learning/Slide128.JPG","This is a wug:","","",""
"html-keyboard-response","391","473856","0.0-7.0-0.48","LF","mus0v446tm","1536","864","0","1","0","5f8dda4538ed0614d9ac476b","","null","","","learningBlock2","","","","This is a tob:","null","","","","","",""
"image-keyboard-response","392","474194","0.0-7.0-1.48","LF","mus0v446tm","1536","864","0","1","0","5f8dda4538ed0614d9ac476b","","null","","","","","","","learning/Slide129.JPG","null","","","","","",""
"html-keyboard-response","393","475201","0.0-7.0-2.48","LF","mus0v446tm","1536","864","0","1","0","5f8dda4538ed0614d9ac476b","","null","","","learningBlock2","","","","<div style=""font-size:60px;""> </div>","null","LF","learning/Slide129.JPG","This is a tob:","","",""
"html-keyboard-response","394","476210","0.0-7.0-0.49","LF","mus0v446tm","1536","864","0","1","0","5f8dda4538ed0614d9ac476b","","null","","","learningBlock2","","","","This is a wug:","null","","","","","",""
"image-keyboard-response","395","476545","0.0-7.0-1.49","LF","mus0v446tm","1536","864","0","1","0","5f8dda4538ed0614d9ac476b","","null","","","","","","","learning/Slide130.JPG","null","","","","","",""
"html-keyboard-response","396","477549","0.0-7.0-2.49","LF","mus0v446tm","1536","864","0","1","0","5f8dda4538ed0614d9ac476b","","null","","","learningBlock2","","","","<div style=""font-size:60px;""> </div>","null","LF","learning/Slide130.JPG","This is a wug:","","",""
"html-keyboard-response","397","478560","0.0-7.0-0.50","LF","mus0v446tm","1536","864","0","1","0","5f8dda4538ed0614d9ac476b","","null","","","learningBlock2","","","","This is a bim:","null","","","","","",""
"image-keyboard-response","398","478889","0.0-7.0-1.50","LF","mus0v446tm","1536","864","0","1","0","5f8dda4538ed0614d9ac476b","","null","","","","","","","learning/Slide131.JPG","null","","","","","",""
"html-keyboard-response","399","479901","0.0-7.0-2.50","LF","mus0v446tm","1536","864","0","1","0","5f8dda4538ed0614d9ac476b","","null","","","learningBlock2","","","","<div style=""font-size:60px;""> </div>","null","LF","learning/Slide131.JPG","This is a bim:","","",""
"html-keyboard-response","400","480914","0.0-7.0-0.51","LF","mus0v446tm","1536","864","0","1","0","5f8dda4538ed0614d9ac476b","","null","","","learningBlock2","","","","This is a dep:","null","","","","","",""
"image-keyboard-response","401","481242","0.0-7.0-1.51","LF","mus0v446tm","1536","864","0","1","0","5f8dda4538ed0614d9ac476b","","null","","","","","","","learning/Slide132.JPG","null","","","","","",""
"html-keyboard-response","402","482258","0.0-7.0-2.51","LF","mus0v446tm","1536","864","0","1","0","5f8dda4538ed0614d9ac476b","","null","","","learningBlock2","","","","<div style=""font-size:60px;""> </div>","null","LF","learning/Slide132.JPG","This is a dep:","","",""
"html-keyboard-response","403","483266","0.0-7.0-0.52","LF","mus0v446tm","1536","864","0","1","0","5f8dda4538ed0614d9ac476b","","null","","","learningBlock2","","","","This is a tob:","null","","","","","",""
"image-keyboard-response","404","483619","0.0-7.0-1.52","LF","mus0v446tm","1536","864","0","1","0","5f8dda4538ed0614d9ac476b","","null","","","","","","","learning/Slide133.JPG","null","","","","","",""
"html-keyboard-response","405","484626","0.0-7.0-2.52","LF","mus0v446tm","1536","864","0","1","0","5f8dda4538ed0614d9ac476b","","null","","","learningBlock2","","","","<div style=""font-size:60px;""> </div>","null","LF","learning/Slide133.JPG","This is a tob:","","",""
"html-keyboard-response","406","485630","0.0-7.0-0.53","LF","mus0v446tm","1536","864","0","1","0","5f8dda4538ed0614d9ac476b","","null","","","learningBlock2","","","","This is a dep:","null","","","","","",""
"image-keyboard-response","407","485971","0.0-7.0-1.53","LF","mus0v446tm","1536","864","0","1","0","5f8dda4538ed0614d9ac476b","","null","","","","","","","learning/Slide134.JPG","null","","","","","",""
"html-keyboard-response","408","486978","0.0-7.0-2.53","LF","mus0v446tm","1536","864","0","1","0","5f8dda4538ed0614d9ac476b","","null","","","learningBlock2","","","","<div style=""font-size:60px;""> </div>","null","LF","learning/Slide134.JPG","This is a dep:","","",""
"html-keyboard-response","409","487985","0.0-7.0-0.54","LF","mus0v446tm","1536","864","0","1","0","5f8dda4538ed0614d9ac476b","","null","","","learningBlock2","","","","This is a tob:","null","","","","","",""
"image-keyboard-response","410","488319","0.0-7.0-1.54","LF","mus0v446tm","1536","864","0","1","0","5f8dda4538ed0614d9ac476b","","null","","","","","","","learning/Slide135.JPG","null","","","","","",""
"html-keyboard-response","411","489330","0.0-7.0-2.54","LF","mus0v446tm","1536","864","0","1","0","5f8dda4538ed0614d9ac476b","","null","","","learningBlock2","","","","<div style=""font-size:60px;""> </div>","null","LF","learning/Slide135.JPG","This is a tob:","","",""
"html-keyboard-response","412","490337","0.0-7.0-0.55","LF","mus0v446tm","1536","864","0","1","0","5f8dda4538ed0614d9ac476b","","null","","","learningBlock2","","","","This is a wug:","null","","","","","",""
"image-keyboard-response","413","490684","0.0-7.0-1.55","LF","mus0v446tm","1536","864","0","1","0","5f8dda4538ed0614d9ac476b","","null","","","","","","","learning/Slide136.JPG","null","","","","","",""
"html-keyboard-response","414","491697","0.0-7.0-2.55","LF","mus0v446tm","1536","864","0","1","0","5f8dda4538ed0614d9ac476b","","null","","","learningBlock2","","","","<div style=""font-size:60px;""> </div>","null","LF","learning/Slide136.JPG","This is a wug:","","",""
"html-keyboard-response","415","492706","0.0-7.0-0.56","LF","mus0v446tm","1536","864","0","1","0","5f8dda4538ed0614d9ac476b","","null","","","learningBlock2","","","","This is a tob:","null","","","","","",""
"image-keyboard-response","416","493042","0.0-7.0-1.56","LF","mus0v446tm","1536","864","0","1","0","5f8dda4538ed0614d9ac476b","","null","","","","","","","learning/Slide137.JPG","null","","","","","",""
"html-keyboard-response","417","494051","0.0-7.0-2.56","LF","mus0v446tm","1536","864","0","1","0","5f8dda4538ed0614d9ac476b","","null","","","learningBlock2","","","","<div style=""font-size:60px;""> </div>","null","LF","learning/Slide137.JPG","This is a tob:","","",""
"html-keyboard-response","418","495058","0.0-7.0-0.57","LF","mus0v446tm","1536","864","0","1","0","5f8dda4538ed0614d9ac476b","","null","","","learningBlock2","","","","This is a bim:","null","","","","","",""
"image-keyboard-response","419","495392","0.0-7.0-1.57","LF","mus0v446tm","1536","864","0","1","0","5f8dda4538ed0614d9ac476b","","null","","","","","","","learning/Slide138.JPG","null","","","","","",""
"html-keyboard-response","420","496399","0.0-7.0-2.57","LF","mus0v446tm","1536","864","0","1","0","5f8dda4538ed0614d9ac476b","","null","","","learningBlock2","","","","<div style=""font-size:60px;""> </div>","null","LF","learning/Slide138.JPG","This is a bim:","","",""
"html-keyboard-response","421","497409","0.0-7.0-0.58","LF","mus0v446tm","1536","864","0","1","0","5f8dda4538ed0614d9ac476b","","null","","","learningBlock2","","","","This is a wug:","null","","","","","",""
"image-keyboard-response","422","497748","0.0-7.0-1.58","LF","mus0v446tm","1536","864","0","1","0","5f8dda4538ed0614d9ac476b","","null","","","","","","","learning/Slide139.JPG","null","","","","","",""
"html-keyboard-response","423","498754","0.0-7.0-2.58","LF","mus0v446tm","1536","864","0","1","0","5f8dda4538ed0614d9ac476b","","null","","","learningBlock2","","","","<div style=""font-size:60px;""> </div>","null","LF","learning/Slide139.JPG","This is a wug:","","",""
"html-keyboard-response","424","499761","0.0-7.0-0.59","LF","mus0v446tm","1536","864","0","1","0","5f8dda4538ed0614d9ac476b","","null","","","learningBlock2","","","","This is a dep:","null","","","","","",""
"image-keyboard-response","425","500088","0.0-7.0-1.59","LF","mus0v446tm","1536","864","0","1","0","5f8dda4538ed0614d9ac476b","","null","","","","","","","learning/Slide140.JPG","null","","","","","",""
"html-keyboard-response","426","501105","0.0-7.0-2.59","LF","mus0v446tm","1536","864","0","1","0","5f8dda4538ed0614d9ac476b","","null","","","learningBlock2","","","","<div style=""font-size:60px;""> </div>","null","LF","learning/Slide140.JPG","This is a dep:","","",""
"html-keyboard-response","427","502114","0.0-7.0-0.60","LF","mus0v446tm","1536","864","0","1","0","5f8dda4538ed0614d9ac476b","","null","","","learningBlock2","","","","This is a tob:","null","","","","","",""
"image-keyboard-response","428","502442","0.0-7.0-1.60","LF","mus0v446tm","1536","864","0","1","0","5f8dda4538ed0614d9ac476b","","null","","","","","","","learning/Slide141.JPG","null","","","","","",""
"html-keyboard-response","429","503456","0.0-7.0-2.60","LF","mus0v446tm","1536","864","0","1","0","5f8dda4538ed0614d9ac476b","","null","","","learningBlock2","","","","<div style=""font-size:60px;""> </div>","null","LF","learning/Slide141.JPG","This is a tob:","","",""
"html-keyboard-response","430","504464","0.0-7.0-0.61","LF","mus0v446tm","1536","864","0","1","0","5f8dda4538ed0614d9ac476b","","null","","","learningBlock2","","","","This is a wug:","null","","","","","",""
"image-keyboard-response","431","504793","0.0-7.0-1.61","LF","mus0v446tm","1536","864","0","1","0","5f8dda4538ed0614d9ac476b","","null","","","","","","","learning/Slide142.JPG","null","","","","","",""
"html-keyboard-response","432","505810","0.0-7.0-2.61","LF","mus0v446tm","1536","864","0","1","0","5f8dda4538ed0614d9ac476b","","null","","","learningBlock2","","","","<div style=""font-size:60px;""> </div>","null","LF","learning/Slide142.JPG","This is a wug:","","",""
"html-keyboard-response","433","506818","0.0-7.0-0.62","LF","mus0v446tm","1536","864","0","1","0","5f8dda4538ed0614d9ac476b","","null","","","learningBlock2","","","","This is a bim:","null","","","","","",""
"image-keyboard-response","434","507153","0.0-7.0-1.62","LF","mus0v446tm","1536","864","0","1","0","5f8dda4538ed0614d9ac476b","","null","","","","","","","learning/Slide143.JPG","null","","","","","",""
"html-keyboard-response","435","508158","0.0-7.0-2.62","LF","mus0v446tm","1536","864","0","1","0","5f8dda4538ed0614d9ac476b","","null","","","learningBlock2","","","","<div style=""font-size:60px;""> </div>","null","LF","learning/Slide143.JPG","This is a bim:","","",""
"html-keyboard-response","436","509169","0.0-7.0-0.63","LF","mus0v446tm","1536","864","0","1","0","5f8dda4538ed0614d9ac476b","","null","","","learningBlock2","","","","This is a dep:","null","","","","","",""
"image-keyboard-response","437","509506","0.0-7.0-1.63","LF","mus0v446tm","1536","864","0","1","0","5f8dda4538ed0614d9ac476b","","null","","","","","","","learning/Slide144.JPG","null","","","","","",""
