"trial_type","trial_index","time_elapsed","internal_node_id","condition","subject","screen_width","screen_height","attention","distraction","conscientious","prolificID","success","rt","url","view_history","test_part","final_height_px","final_width_px","scale_factor","stimulus","key_press","learningType","presentedImage","presentedLabel","button_pressed","response","responses"
"pavlovia","0","258","0.0-0.0","FL","mvqchu948c","1366","768","0","1","0","5b421b9ac2e3810001763252","","","","","","","","","","","","","","","",""
"fullscreen","1","217522","0.0-1.0","FL","mvqchu948c","1366","768","0","1","0","5b421b9ac2e3810001763252","true","","","","","","","","","","","","","","",""
"external-html","2","233797","0.0-2.0-0.0","FL","mvqchu948c","1366","768","0","1","0","5b421b9ac2e3810001763252","","15860.024999972666","text/information_english.html","","","","","","","","","","","","",""
"external-html","3","244113","0.0-2.0-1.0","FL","mvqchu948c","1366","768","0","1","0","5b421b9ac2e3810001763252","","10249.469999980647","text/consent_english.html","","","","","","","","","","","","",""
"instructions","4","258862","0.0-3.0","FL","mvqchu948c","1366","768","0","1","0","5b421b9ac2e3810001763252","","NA","","[{""page_index"":0,""viewing_time"":3112.925000023097},{""page_index"":1,""viewing_time"":11626.814999995986}]","instructions","","","","","","","","","","",""
"resize","5","289278","0.0-4.0","FL","mvqchu948c","1366","768","0","1","0","5b421b9ac2e3810001763252","","","","","","","344","2.1841269841269844","","","","","","","",""
"image-keyboard-response","6","289465","0.0-5.0-0.0","FL","mvqchu948c","1366","768","0","1","0","5b421b9ac2e3810001763252","","null","","","","","","","learning/Slide1.JPG","null","","","","","",""
"html-keyboard-response","7","290623","0.0-5.0-1.0","FL","mvqchu948c","1366","768","0","1","0","5b421b9ac2e3810001763252","","null","","","learningBlock1","","","","That was a tob.","null","","","","","",""
"html-keyboard-response","8","291628","0.0-5.0-2.0","FL","mvqchu948c","1366","768","0","1","0","5b421b9ac2e3810001763252","","null","","","learningBlock1","","","","<div style=""font-size:60px;""> </div>","null","FL","learning/Slide1.JPG","That was a tob.","","",""
"image-keyboard-response","9","291809","0.0-5.0-0.1","FL","mvqchu948c","1366","768","0","1","0","5b421b9ac2e3810001763252","","null","","","","","","","learning/Slide2.JPG","null","","","","","",""
"html-keyboard-response","10","292964","0.0-5.0-1.1","FL","mvqchu948c","1366","768","0","1","0","5b421b9ac2e3810001763252","","null","","","learningBlock1","","","","That was a wug.","null","","","","","",""
"html-keyboard-response","11","293967","0.0-5.0-2.1","FL","mvqchu948c","1366","768","0","1","0","5b421b9ac2e3810001763252","","null","","","learningBlock1","","","","<div style=""font-size:60px;""> </div>","null","FL","learning/Slide2.JPG","That was a wug.","","",""
"image-keyboard-response","12","294168","0.0-5.0-0.2","FL","mvqchu948c","1366","768","0","1","0","5b421b9ac2e3810001763252","","null","","","","","","","learning/Slide3.JPG","null","","","","","",""
"html-keyboard-response","13","295325","0.0-5.0-1.2","FL","mvqchu948c","1366","768","0","1","0","5b421b9ac2e3810001763252","","null","","","learningBlock1","","","","That was a bim.","null","","","","","",""
"html-keyboard-response","14","296335","0.0-5.0-2.2","FL","mvqchu948c","1366","768","0","1","0","5b421b9ac2e3810001763252","","null","","","learningBlock1","","","","<div style=""font-size:60px;""> </div>","null","FL","learning/Slide3.JPG","That was a bim.","","",""
"image-keyboard-response","15","296516","0.0-5.0-0.3","FL","mvqchu948c","1366","768","0","1","0","5b421b9ac2e3810001763252","","null","","","","","","","learning/Slide4.JPG","null","","","","","",""
"html-keyboard-response","16","297669","0.0-5.0-1.3","FL","mvqchu948c","1366","768","0","1","0","5b421b9ac2e3810001763252","","null","","","learningBlock1","","","","That was a dep.","null","","","","","",""
"html-keyboard-response","17","298674","0.0-5.0-2.3","FL","mvqchu948c","1366","768","0","1","0","5b421b9ac2e3810001763252","","null","","","learningBlock1","","","","<div style=""font-size:60px;""> </div>","null","FL","learning/Slide4.JPG","That was a dep.","","",""
"image-keyboard-response","18","298854","0.0-5.0-0.4","FL","mvqchu948c","1366","768","0","1","0","5b421b9ac2e3810001763252","","null","","","","","","","learning/Slide5.JPG","null","","","","","",""
"html-keyboard-response","19","300007","0.0-5.0-1.4","FL","mvqchu948c","1366","768","0","1","0","5b421b9ac2e3810001763252","","null","","","learningBlock1","","","","That was a wug.","null","","","","","",""
"html-keyboard-response","20","301010","0.0-5.0-2.4","FL","mvqchu948c","1366","768","0","1","0","5b421b9ac2e3810001763252","","null","","","learningBlock1","","","","<div style=""font-size:60px;""> </div>","null","FL","learning/Slide5.JPG","That was a wug.","","",""
"image-keyboard-response","21","301190","0.0-5.0-0.5","FL","mvqchu948c","1366","768","0","1","0","5b421b9ac2e3810001763252","","null","","","","","","","learning/Slide6.JPG","null","","","","","",""
"html-keyboard-response","22","302373","0.0-5.0-1.5","FL","mvqchu948c","1366","768","0","1","0","5b421b9ac2e3810001763252","","null","","","learningBlock1","","","","That was a dep.","null","","","","","",""
"html-keyboard-response","23","303379","0.0-5.0-2.5","FL","mvqchu948c","1366","768","0","1","0","5b421b9ac2e3810001763252","","null","","","learningBlock1","","","","<div style=""font-size:60px;""> </div>","null","FL","learning/Slide6.JPG","That was a dep.","","",""
"image-keyboard-response","24","303574","0.0-5.0-0.6","FL","mvqchu948c","1366","768","0","1","0","5b421b9ac2e3810001763252","","null","","","","","","","learning/Slide7.JPG","null","","","","","",""
"html-keyboard-response","25","304730","0.0-5.0-1.6","FL","mvqchu948c","1366","768","0","1","0","5b421b9ac2e3810001763252","","null","","","learningBlock1","","","","That was a wug.","null","","","","","",""
"html-keyboard-response","26","305735","0.0-5.0-2.6","FL","mvqchu948c","1366","768","0","1","0","5b421b9ac2e3810001763252","","null","","","learningBlock1","","","","<div style=""font-size:60px;""> </div>","null","FL","learning/Slide7.JPG","That was a wug.","","",""
"image-keyboard-response","27","305913","0.0-5.0-0.7","FL","mvqchu948c","1366","768","0","1","0","5b421b9ac2e3810001763252","","null","","","","","","","learning/Slide8.JPG","null","","","","","",""
"html-keyboard-response","28","307067","0.0-5.0-1.7","FL","mvqchu948c","1366","768","0","1","0","5b421b9ac2e3810001763252","","null","","","learningBlock1","","","","That was a bim.","null","","","","","",""
"html-keyboard-response","29","308072","0.0-5.0-2.7","FL","mvqchu948c","1366","768","0","1","0","5b421b9ac2e3810001763252","","null","","","learningBlock1","","","","<div style=""font-size:60px;""> </div>","null","FL","learning/Slide8.JPG","That was a bim.","","",""
"image-keyboard-response","30","308257","0.0-5.0-0.8","FL","mvqchu948c","1366","768","0","1","0","5b421b9ac2e3810001763252","","null","","","","","","","learning/Slide9.JPG","null","","","","","",""
"html-keyboard-response","31","309417","0.0-5.0-1.8","FL","mvqchu948c","1366","768","0","1","0","5b421b9ac2e3810001763252","","null","","","learningBlock1","","","","That was a wug.","null","","","","","",""
"html-keyboard-response","32","310433","0.0-5.0-2.8","FL","mvqchu948c","1366","768","0","1","0","5b421b9ac2e3810001763252","","null","","","learningBlock1","","","","<div style=""font-size:60px;""> </div>","null","FL","learning/Slide9.JPG","That was a wug.","","",""
"image-keyboard-response","33","310612","0.0-5.0-0.9","FL","mvqchu948c","1366","768","0","1","0","5b421b9ac2e3810001763252","","null","","","","","","","learning/Slide10.JPG","null","","","","","",""
"html-keyboard-response","34","311767","0.0-5.0-1.9","FL","mvqchu948c","1366","768","0","1","0","5b421b9ac2e3810001763252","","null","","","learningBlock1","","","","That was a dep.","null","","","","","",""
"html-keyboard-response","35","312769","0.0-5.0-2.9","FL","mvqchu948c","1366","768","0","1","0","5b421b9ac2e3810001763252","","null","","","learningBlock1","","","","<div style=""font-size:60px;""> </div>","null","FL","learning/Slide10.JPG","That was a dep.","","",""
"image-keyboard-response","36","312949","0.0-5.0-0.10","FL","mvqchu948c","1366","768","0","1","0","5b421b9ac2e3810001763252","","null","","","","","","","learning/Slide11.JPG","null","","","","","",""
"html-keyboard-response","37","314105","0.0-5.0-1.10","FL","mvqchu948c","1366","768","0","1","0","5b421b9ac2e3810001763252","","null","","","learningBlock1","","","","That was a tob.","null","","","","","",""
"html-keyboard-response","38","315116","0.0-5.0-2.10","FL","mvqchu948c","1366","768","0","1","0","5b421b9ac2e3810001763252","","null","","","learningBlock1","","","","<div style=""font-size:60px;""> </div>","null","FL","learning/Slide11.JPG","That was a tob.","","",""
"image-keyboard-response","39","315302","0.0-5.0-0.11","FL","mvqchu948c","1366","768","0","1","0","5b421b9ac2e3810001763252","","null","","","","","","","learning/Slide12.JPG","null","","","","","",""
"html-keyboard-response","40","316459","0.0-5.0-1.11","FL","mvqchu948c","1366","768","0","1","0","5b421b9ac2e3810001763252","","null","","","learningBlock1","","","","That was a dep.","null","","","","","",""
"html-keyboard-response","41","317469","0.0-5.0-2.11","FL","mvqchu948c","1366","768","0","1","0","5b421b9ac2e3810001763252","","null","","","learningBlock1","","","","<div style=""font-size:60px;""> </div>","null","FL","learning/Slide12.JPG","That was a dep.","","",""
"image-keyboard-response","42","317662","0.0-5.0-0.12","FL","mvqchu948c","1366","768","0","1","0","5b421b9ac2e3810001763252","","null","","","","","","","learning/Slide13.JPG","null","","","","","",""
"html-keyboard-response","43","318816","0.0-5.0-1.12","FL","mvqchu948c","1366","768","0","1","0","5b421b9ac2e3810001763252","","null","","","learningBlock1","","","","That was a bim.","null","","","","","",""
"html-keyboard-response","44","319819","0.0-5.0-2.12","FL","mvqchu948c","1366","768","0","1","0","5b421b9ac2e3810001763252","","null","","","learningBlock1","","","","<div style=""font-size:60px;""> </div>","null","FL","learning/Slide13.JPG","That was a bim.","","",""
"image-keyboard-response","45","319998","0.0-5.0-0.13","FL","mvqchu948c","1366","768","0","1","0","5b421b9ac2e3810001763252","","null","","","","","","","learning/Slide14.JPG","null","","","","","",""
"html-keyboard-response","46","321154","0.0-5.0-1.13","FL","mvqchu948c","1366","768","0","1","0","5b421b9ac2e3810001763252","","null","","","learningBlock1","","","","That was a wug.","null","","","","","",""
"html-keyboard-response","47","322163","0.0-5.0-2.13","FL","mvqchu948c","1366","768","0","1","0","5b421b9ac2e3810001763252","","null","","","learningBlock1","","","","<div style=""font-size:60px;""> </div>","null","FL","learning/Slide14.JPG","That was a wug.","","",""
"image-keyboard-response","48","322355","0.0-5.0-0.14","FL","mvqchu948c","1366","768","0","1","0","5b421b9ac2e3810001763252","","null","","","","","","","learning/Slide15.JPG","null","","","","","",""
"html-keyboard-response","49","323508","0.0-5.0-1.14","FL","mvqchu948c","1366","768","0","1","0","5b421b9ac2e3810001763252","","null","","","learningBlock1","","","","That was a tob.","null","","","","","",""
"html-keyboard-response","50","324533","0.0-5.0-2.14","FL","mvqchu948c","1366","768","0","1","0","5b421b9ac2e3810001763252","","null","","","learningBlock1","","","","<div style=""font-size:60px;""> </div>","null","FL","learning/Slide15.JPG","That was a tob.","","",""
"image-keyboard-response","51","324729","0.0-5.0-0.15","FL","mvqchu948c","1366","768","0","1","0","5b421b9ac2e3810001763252","","null","","","","","","","learning/Slide16.JPG","null","","","","","",""
"html-keyboard-response","52","325885","0.0-5.0-1.15","FL","mvqchu948c","1366","768","0","1","0","5b421b9ac2e3810001763252","","null","","","learningBlock1","","","","That was a dep.","null","","","","","",""
"html-keyboard-response","53","326892","0.0-5.0-2.15","FL","mvqchu948c","1366","768","0","1","0","5b421b9ac2e3810001763252","","null","","","learningBlock1","","","","<div style=""font-size:60px;""> </div>","null","FL","learning/Slide16.JPG","That was a dep.","","",""
"image-keyboard-response","54","327079","0.0-5.0-0.16","FL","mvqchu948c","1366","768","0","1","0","5b421b9ac2e3810001763252","","null","","","","","","","learning/Slide17.JPG","null","","","","","",""
"html-keyboard-response","55","328235","0.0-5.0-1.16","FL","mvqchu948c","1366","768","0","1","0","5b421b9ac2e3810001763252","","null","","","learningBlock1","","","","That was a bim.","null","","","","","",""
"html-keyboard-response","56","329241","0.0-5.0-2.16","FL","mvqchu948c","1366","768","0","1","0","5b421b9ac2e3810001763252","","null","","","learningBlock1","","","","<div style=""font-size:60px;""> </div>","null","FL","learning/Slide17.JPG","That was a bim.","","",""
"image-keyboard-response","57","329423","0.0-5.0-0.17","FL","mvqchu948c","1366","768","0","1","0","5b421b9ac2e3810001763252","","null","","","","","","","learning/Slide18.JPG","null","","","","","",""
"html-keyboard-response","58","330581","0.0-5.0-1.17","FL","mvqchu948c","1366","768","0","1","0","5b421b9ac2e3810001763252","","null","","","learningBlock1","","","","That was a tob.","null","","","","","",""
"html-keyboard-response","59","331587","0.0-5.0-2.17","FL","mvqchu948c","1366","768","0","1","0","5b421b9ac2e3810001763252","","null","","","learningBlock1","","","","<div style=""font-size:60px;""> </div>","null","FL","learning/Slide18.JPG","That was a tob.","","",""
"image-keyboard-response","60","331786","0.0-5.0-0.18","FL","mvqchu948c","1366","768","0","1","0","5b421b9ac2e3810001763252","","null","","","","","","","learning/Slide19.JPG","null","","","","","",""
"html-keyboard-response","61","332943","0.0-5.0-1.18","FL","mvqchu948c","1366","768","0","1","0","5b421b9ac2e3810001763252","","null","","","learningBlock1","","","","That was a wug.","null","","","","","",""
"html-keyboard-response","62","333948","0.0-5.0-2.18","FL","mvqchu948c","1366","768","0","1","0","5b421b9ac2e3810001763252","","null","","","learningBlock1","","","","<div style=""font-size:60px;""> </div>","null","FL","learning/Slide19.JPG","That was a wug.","","",""
"image-keyboard-response","63","334131","0.0-5.0-0.19","FL","mvqchu948c","1366","768","0","1","0","5b421b9ac2e3810001763252","","null","","","","","","","learning/Slide20.JPG","null","","","","","",""
"html-keyboard-response","64","335287","0.0-5.0-1.19","FL","mvqchu948c","1366","768","0","1","0","5b421b9ac2e3810001763252","","null","","","learningBlock1","","","","That was a bim.","null","","","","","",""
"html-keyboard-response","65","336297","0.0-5.0-2.19","FL","mvqchu948c","1366","768","0","1","0","5b421b9ac2e3810001763252","","null","","","learningBlock1","","","","<div style=""font-size:60px;""> </div>","null","FL","learning/Slide20.JPG","That was a bim.","","",""
"image-keyboard-response","66","336477","0.0-5.0-0.20","FL","mvqchu948c","1366","768","0","1","0","5b421b9ac2e3810001763252","","null","","","","","","","learning/Slide21.JPG","null","","","","","",""
"html-keyboard-response","67","337634","0.0-5.0-1.20","FL","mvqchu948c","1366","768","0","1","0","5b421b9ac2e3810001763252","","null","","","learningBlock1","","","","That was a dep.","null","","","","","",""
"html-keyboard-response","68","338637","0.0-5.0-2.20","FL","mvqchu948c","1366","768","0","1","0","5b421b9ac2e3810001763252","","null","","","learningBlock1","","","","<div style=""font-size:60px;""> </div>","null","FL","learning/Slide21.JPG","That was a dep.","","",""
"image-keyboard-response","69","338823","0.0-5.0-0.21","FL","mvqchu948c","1366","768","0","1","0","5b421b9ac2e3810001763252","","null","","","","","","","learning/Slide22.JPG","null","","","","","",""
"html-keyboard-response","70","339976","0.0-5.0-1.21","FL","mvqchu948c","1366","768","0","1","0","5b421b9ac2e3810001763252","","null","","","learningBlock1","","","","That was a bim.","null","","","","","",""
"html-keyboard-response","71","340978","0.0-5.0-2.21","FL","mvqchu948c","1366","768","0","1","0","5b421b9ac2e3810001763252","","null","","","learningBlock1","","","","<div style=""font-size:60px;""> </div>","null","FL","learning/Slide22.JPG","That was a bim.","","",""
"image-keyboard-response","72","341155","0.0-5.0-0.22","FL","mvqchu948c","1366","768","0","1","0","5b421b9ac2e3810001763252","","null","","","","","","","learning/Slide23.JPG","null","","","","","",""
"html-keyboard-response","73","342312","0.0-5.0-1.22","FL","mvqchu948c","1366","768","0","1","0","5b421b9ac2e3810001763252","","null","","","learningBlock1","","","","That was a tob.","null","","","","","",""
"html-keyboard-response","74","343321","0.0-5.0-2.22","FL","mvqchu948c","1366","768","0","1","0","5b421b9ac2e3810001763252","","null","","","learningBlock1","","","","<div style=""font-size:60px;""> </div>","null","FL","learning/Slide23.JPG","That was a tob.","","",""
"image-keyboard-response","75","343520","0.0-5.0-0.23","FL","mvqchu948c","1366","768","0","1","0","5b421b9ac2e3810001763252","","null","","","","","","","learning/Slide24.JPG","null","","","","","",""
"html-keyboard-response","76","344675","0.0-5.0-1.23","FL","mvqchu948c","1366","768","0","1","0","5b421b9ac2e3810001763252","","null","","","learningBlock1","","","","That was a wug.","null","","","","","",""
"html-keyboard-response","77","345679","0.0-5.0-2.23","FL","mvqchu948c","1366","768","0","1","0","5b421b9ac2e3810001763252","","null","","","learningBlock1","","","","<div style=""font-size:60px;""> </div>","null","FL","learning/Slide24.JPG","That was a wug.","","",""
"image-keyboard-response","78","345859","0.0-5.0-0.24","FL","mvqchu948c","1366","768","0","1","0","5b421b9ac2e3810001763252","","null","","","","","","","learning/Slide25.JPG","null","","","","","",""
"html-keyboard-response","79","347013","0.0-5.0-1.24","FL","mvqchu948c","1366","768","0","1","0","5b421b9ac2e3810001763252","","null","","","learningBlock1","","","","That was a dep.","null","","","","","",""
"html-keyboard-response","80","348017","0.0-5.0-2.24","FL","mvqchu948c","1366","768","0","1","0","5b421b9ac2e3810001763252","","null","","","learningBlock1","","","","<div style=""font-size:60px;""> </div>","null","FL","learning/Slide25.JPG","That was a dep.","","",""
"image-keyboard-response","81","348195","0.0-5.0-0.25","FL","mvqchu948c","1366","768","0","1","0","5b421b9ac2e3810001763252","","null","","","","","","","learning/Slide26.JPG","null","","","","","",""
"html-keyboard-response","82","349349","0.0-5.0-1.25","FL","mvqchu948c","1366","768","0","1","0","5b421b9ac2e3810001763252","","null","","","learningBlock1","","","","That was a wug.","null","","","","","",""
"html-keyboard-response","83","350352","0.0-5.0-2.25","FL","mvqchu948c","1366","768","0","1","0","5b421b9ac2e3810001763252","","null","","","learningBlock1","","","","<div style=""font-size:60px;""> </div>","null","FL","learning/Slide26.JPG","That was a wug.","","",""
"image-keyboard-response","84","350532","0.0-5.0-0.26","FL","mvqchu948c","1366","768","0","1","0","5b421b9ac2e3810001763252","","null","","","","","","","learning/Slide27.JPG","null","","","","","",""
"html-keyboard-response","85","351688","0.0-5.0-1.26","FL","mvqchu948c","1366","768","0","1","0","5b421b9ac2e3810001763252","","null","","","learningBlock1","","","","That was a bim.","null","","","","","",""
"html-keyboard-response","86","352692","0.0-5.0-2.26","FL","mvqchu948c","1366","768","0","1","0","5b421b9ac2e3810001763252","","null","","","learningBlock1","","","","<div style=""font-size:60px;""> </div>","null","FL","learning/Slide27.JPG","That was a bim.","","",""
"image-keyboard-response","87","352883","0.0-5.0-0.27","FL","mvqchu948c","1366","768","0","1","0","5b421b9ac2e3810001763252","","null","","","","","","","learning/Slide28.JPG","null","","","","","",""
"html-keyboard-response","88","354037","0.0-5.0-1.27","FL","mvqchu948c","1366","768","0","1","0","5b421b9ac2e3810001763252","","null","","","learningBlock1","","","","That was a dep.","null","","","","","",""
"html-keyboard-response","89","355041","0.0-5.0-2.27","FL","mvqchu948c","1366","768","0","1","0","5b421b9ac2e3810001763252","","null","","","learningBlock1","","","","<div style=""font-size:60px;""> </div>","null","FL","learning/Slide28.JPG","That was a dep.","","",""
"image-keyboard-response","90","355220","0.0-5.0-0.28","FL","mvqchu948c","1366","768","0","1","0","5b421b9ac2e3810001763252","","null","","","","","","","learning/Slide29.JPG","null","","","","","",""
"html-keyboard-response","91","356374","0.0-5.0-1.28","FL","mvqchu948c","1366","768","0","1","0","5b421b9ac2e3810001763252","","null","","","learningBlock1","","","","That was a tob.","null","","","","","",""
"html-keyboard-response","92","357383","0.0-5.0-2.28","FL","mvqchu948c","1366","768","0","1","0","5b421b9ac2e3810001763252","","null","","","learningBlock1","","","","<div style=""font-size:60px;""> </div>","null","FL","learning/Slide29.JPG","That was a tob.","","",""
"image-keyboard-response","93","357561","0.0-5.0-0.29","FL","mvqchu948c","1366","768","0","1","0","5b421b9ac2e3810001763252","","null","","","","","","","learning/Slide30.JPG","null","","","","","",""
"html-keyboard-response","94","358716","0.0-5.0-1.29","FL","mvqchu948c","1366","768","0","1","0","5b421b9ac2e3810001763252","","null","","","learningBlock1","","","","That was a dep.","null","","","","","",""
"html-keyboard-response","95","359721","0.0-5.0-2.29","FL","mvqchu948c","1366","768","0","1","0","5b421b9ac2e3810001763252","","null","","","learningBlock1","","","","<div style=""font-size:60px;""> </div>","null","FL","learning/Slide30.JPG","That was a dep.","","",""
"image-keyboard-response","96","359901","0.0-5.0-0.30","FL","mvqchu948c","1366","768","0","1","0","5b421b9ac2e3810001763252","","null","","","","","","","learning/Slide31.JPG","null","","","","","",""
"html-keyboard-response","97","361065","0.0-5.0-1.30","FL","mvqchu948c","1366","768","0","1","0","5b421b9ac2e3810001763252","","null","","","learningBlock1","","","","That was a wug.","null","","","","","",""
"html-keyboard-response","98","362074","0.0-5.0-2.30","FL","mvqchu948c","1366","768","0","1","0","5b421b9ac2e3810001763252","","null","","","learningBlock1","","","","<div style=""font-size:60px;""> </div>","null","FL","learning/Slide31.JPG","That was a wug.","","",""
"image-keyboard-response","99","362255","0.0-5.0-0.31","FL","mvqchu948c","1366","768","0","1","0","5b421b9ac2e3810001763252","","null","","","","","","","learning/Slide32.JPG","null","","","","","",""
"html-keyboard-response","100","363414","0.0-5.0-1.31","FL","mvqchu948c","1366","768","0","1","0","5b421b9ac2e3810001763252","","null","","","learningBlock1","","","","That was a tob.","null","","","","","",""
"html-keyboard-response","101","364419","0.0-5.0-2.31","FL","mvqchu948c","1366","768","0","1","0","5b421b9ac2e3810001763252","","null","","","learningBlock1","","","","<div style=""font-size:60px;""> </div>","null","FL","learning/Slide32.JPG","That was a tob.","","",""
"image-keyboard-response","102","364600","0.0-5.0-0.32","FL","mvqchu948c","1366","768","0","1","0","5b421b9ac2e3810001763252","","null","","","","","","","learning/Slide33.JPG","null","","","","","",""
"html-keyboard-response","103","365769","0.0-5.0-1.32","FL","mvqchu948c","1366","768","0","1","0","5b421b9ac2e3810001763252","","null","","","learningBlock1","","","","That was a bim.","null","","","","","",""
"html-keyboard-response","104","366774","0.0-5.0-2.32","FL","mvqchu948c","1366","768","0","1","0","5b421b9ac2e3810001763252","","null","","","learningBlock1","","","","<div style=""font-size:60px;""> </div>","null","FL","learning/Slide33.JPG","That was a bim.","","",""
"image-keyboard-response","105","366960","0.0-5.0-0.33","FL","mvqchu948c","1366","768","0","1","0","5b421b9ac2e3810001763252","","null","","","","","","","learning/Slide34.JPG","null","","","","","",""
"html-keyboard-response","106","368122","0.0-5.0-1.33","FL","mvqchu948c","1366","768","0","1","0","5b421b9ac2e3810001763252","","null","","","learningBlock1","","","","That was a tob.","null","","","","","",""
"html-keyboard-response","107","369129","0.0-5.0-2.33","FL","mvqchu948c","1366","768","0","1","0","5b421b9ac2e3810001763252","","null","","","learningBlock1","","","","<div style=""font-size:60px;""> </div>","null","FL","learning/Slide34.JPG","That was a tob.","","",""
"image-keyboard-response","108","369307","0.0-5.0-0.34","FL","mvqchu948c","1366","768","0","1","0","5b421b9ac2e3810001763252","","null","","","","","","","learning/Slide35.JPG","null","","","","","",""
"html-keyboard-response","109","370464","0.0-5.0-1.34","FL","mvqchu948c","1366","768","0","1","0","5b421b9ac2e3810001763252","","null","","","learningBlock1","","","","That was a bim.","null","","","","","",""
"html-keyboard-response","110","371473","0.0-5.0-2.34","FL","mvqchu948c","1366","768","0","1","0","5b421b9ac2e3810001763252","","null","","","learningBlock1","","","","<div style=""font-size:60px;""> </div>","null","FL","learning/Slide35.JPG","That was a bim.","","",""
"image-keyboard-response","111","371659","0.0-5.0-0.35","FL","mvqchu948c","1366","768","0","1","0","5b421b9ac2e3810001763252","","null","","","","","","","learning/Slide36.JPG","null","","","","","",""
"html-keyboard-response","112","372825","0.0-5.0-1.35","FL","mvqchu948c","1366","768","0","1","0","5b421b9ac2e3810001763252","","null","","","learningBlock1","","","","That was a dep.","null","","","","","",""
"html-keyboard-response","113","373832","0.0-5.0-2.35","FL","mvqchu948c","1366","768","0","1","0","5b421b9ac2e3810001763252","","null","","","learningBlock1","","","","<div style=""font-size:60px;""> </div>","null","FL","learning/Slide36.JPG","That was a dep.","","",""
"image-keyboard-response","114","374013","0.0-5.0-0.36","FL","mvqchu948c","1366","768","0","1","0","5b421b9ac2e3810001763252","","null","","","","","","","learning/Slide37.JPG","null","","","","","",""
"html-keyboard-response","115","375169","0.0-5.0-1.36","FL","mvqchu948c","1366","768","0","1","0","5b421b9ac2e3810001763252","","null","","","learningBlock1","","","","That was a tob.","null","","","","","",""
"html-keyboard-response","116","376173","0.0-5.0-2.36","FL","mvqchu948c","1366","768","0","1","0","5b421b9ac2e3810001763252","","null","","","learningBlock1","","","","<div style=""font-size:60px;""> </div>","null","FL","learning/Slide37.JPG","That was a tob.","","",""
"image-keyboard-response","117","376354","0.0-5.0-0.37","FL","mvqchu948c","1366","768","0","1","0","5b421b9ac2e3810001763252","","null","","","","","","","learning/Slide38.JPG","null","","","","","",""
"html-keyboard-response","118","377513","0.0-5.0-1.37","FL","mvqchu948c","1366","768","0","1","0","5b421b9ac2e3810001763252","","null","","","learningBlock1","","","","That was a wug.","null","","","","","",""
"html-keyboard-response","119","378516","0.0-5.0-2.37","FL","mvqchu948c","1366","768","0","1","0","5b421b9ac2e3810001763252","","null","","","learningBlock1","","","","<div style=""font-size:60px;""> </div>","null","FL","learning/Slide38.JPG","That was a wug.","","",""
"image-keyboard-response","120","378694","0.0-5.0-0.38","FL","mvqchu948c","1366","768","0","1","0","5b421b9ac2e3810001763252","","null","","","","","","","learning/Slide39.JPG","null","","","","","",""
"html-keyboard-response","121","379851","0.0-5.0-1.38","FL","mvqchu948c","1366","768","0","1","0","5b421b9ac2e3810001763252","","null","","","learningBlock1","","","","That was a bim.","null","","","","","",""
"html-keyboard-response","122","380855","0.0-5.0-2.38","FL","mvqchu948c","1366","768","0","1","0","5b421b9ac2e3810001763252","","null","","","learningBlock1","","","","<div style=""font-size:60px;""> </div>","null","FL","learning/Slide39.JPG","That was a bim.","","",""
"image-keyboard-response","123","381036","0.0-5.0-0.39","FL","mvqchu948c","1366","768","0","1","0","5b421b9ac2e3810001763252","","null","","","","","","","learning/Slide40.JPG","null","","","","","",""
"html-keyboard-response","124","382206","0.0-5.0-1.39","FL","mvqchu948c","1366","768","0","1","0","5b421b9ac2e3810001763252","","null","","","learningBlock1","","","","That was a tob.","null","","","","","",""
"html-keyboard-response","125","383210","0.0-5.0-2.39","FL","mvqchu948c","1366","768","0","1","0","5b421b9ac2e3810001763252","","null","","","learningBlock1","","","","<div style=""font-size:60px;""> </div>","null","FL","learning/Slide40.JPG","That was a tob.","","",""
"image-keyboard-response","126","383402","0.0-5.0-0.40","FL","mvqchu948c","1366","768","0","1","0","5b421b9ac2e3810001763252","","null","","","","","","","learning/Slide41.JPG","null","","","","","",""
"html-keyboard-response","127","384565","0.0-5.0-1.40","FL","mvqchu948c","1366","768","0","1","0","5b421b9ac2e3810001763252","","null","","","learningBlock1","","","","That was a bim.","null","","","","","",""
"html-keyboard-response","128","385572","0.0-5.0-2.40","FL","mvqchu948c","1366","768","0","1","0","5b421b9ac2e3810001763252","","null","","","learningBlock1","","","","<div style=""font-size:60px;""> </div>","null","FL","learning/Slide41.JPG","That was a bim.","","",""
"image-keyboard-response","129","385753","0.0-5.0-0.41","FL","mvqchu948c","1366","768","0","1","0","5b421b9ac2e3810001763252","","null","","","","","","","learning/Slide42.JPG","null","","","","","",""
"html-keyboard-response","130","386912","0.0-5.0-1.41","FL","mvqchu948c","1366","768","0","1","0","5b421b9ac2e3810001763252","","null","","","learningBlock1","","","","That was a dep.","null","","","","","",""
"html-keyboard-response","131","387919","0.0-5.0-2.41","FL","mvqchu948c","1366","768","0","1","0","5b421b9ac2e3810001763252","","null","","","learningBlock1","","","","<div style=""font-size:60px;""> </div>","null","FL","learning/Slide42.JPG","That was a dep.","","",""
"image-keyboard-response","132","388099","0.0-5.0-0.42","FL","mvqchu948c","1366","768","0","1","0","5b421b9ac2e3810001763252","","null","","","","","","","learning/Slide43.JPG","null","","","","","",""
"html-keyboard-response","133","389273","0.0-5.0-1.42","FL","mvqchu948c","1366","768","0","1","0","5b421b9ac2e3810001763252","","null","","","learningBlock1","","","","That was a wug.","null","","","","","",""
"html-keyboard-response","134","390275","0.0-5.0-2.42","FL","mvqchu948c","1366","768","0","1","0","5b421b9ac2e3810001763252","","null","","","learningBlock1","","","","<div style=""font-size:60px;""> </div>","null","FL","learning/Slide43.JPG","That was a wug.","","",""
"image-keyboard-response","135","390453","0.0-5.0-0.43","FL","mvqchu948c","1366","768","0","1","0","5b421b9ac2e3810001763252","","null","","","","","","","learning/Slide44.JPG","null","","","","","",""
"html-keyboard-response","136","391609","0.0-5.0-1.43","FL","mvqchu948c","1366","768","0","1","0","5b421b9ac2e3810001763252","","null","","","learningBlock1","","","","That was a bim.","null","","","","","",""
"html-keyboard-response","137","392614","0.0-5.0-2.43","FL","mvqchu948c","1366","768","0","1","0","5b421b9ac2e3810001763252","","null","","","learningBlock1","","","","<div style=""font-size:60px;""> </div>","null","FL","learning/Slide44.JPG","That was a bim.","","",""
"image-keyboard-response","138","392794","0.0-5.0-0.44","FL","mvqchu948c","1366","768","0","1","0","5b421b9ac2e3810001763252","","null","","","","","","","learning/Slide45.JPG","null","","","","","",""
"html-keyboard-response","139","393949","0.0-5.0-1.44","FL","mvqchu948c","1366","768","0","1","0","5b421b9ac2e3810001763252","","null","","","learningBlock1","","","","That was a wug.","null","","","","","",""
"html-keyboard-response","140","394955","0.0-5.0-2.44","FL","mvqchu948c","1366","768","0","1","0","5b421b9ac2e3810001763252","","null","","","learningBlock1","","","","<div style=""font-size:60px;""> </div>","null","FL","learning/Slide45.JPG","That was a wug.","","",""
"image-keyboard-response","141","395135","0.0-5.0-0.45","FL","mvqchu948c","1366","768","0","1","0","5b421b9ac2e3810001763252","","null","","","","","","","learning/Slide46.JPG","null","","","","","",""
"html-keyboard-response","142","396295","0.0-5.0-1.45","FL","mvqchu948c","1366","768","0","1","0","5b421b9ac2e3810001763252","","null","","","learningBlock1","","","","That was a dep.","null","","","","","",""
"html-keyboard-response","143","397302","0.0-5.0-2.45","FL","mvqchu948c","1366","768","0","1","0","5b421b9ac2e3810001763252","","null","","","learningBlock1","","","","<div style=""font-size:60px;""> </div>","null","FL","learning/Slide46.JPG","That was a dep.","","",""
"image-keyboard-response","144","397502","0.0-5.0-0.46","FL","mvqchu948c","1366","768","0","1","0","5b421b9ac2e3810001763252","","null","","","","","","","learning/Slide47.JPG","null","","","","","",""
"html-keyboard-response","145","398660","0.0-5.0-1.46","FL","mvqchu948c","1366","768","0","1","0","5b421b9ac2e3810001763252","","null","","","learningBlock1","","","","That was a tob.","null","","","","","",""
"html-keyboard-response","146","399666","0.0-5.0-2.46","FL","mvqchu948c","1366","768","0","1","0","5b421b9ac2e3810001763252","","null","","","learningBlock1","","","","<div style=""font-size:60px;""> </div>","null","FL","learning/Slide47.JPG","That was a tob.","","",""
"image-keyboard-response","147","399844","0.0-5.0-0.47","FL","mvqchu948c","1366","768","0","1","0","5b421b9ac2e3810001763252","","null","","","","","","","learning/Slide48.JPG","null","","","","","",""
"html-keyboard-response","148","400997","0.0-5.0-1.47","FL","mvqchu948c","1366","768","0","1","0","5b421b9ac2e3810001763252","","null","","","learningBlock1","","","","That was a bim.","null","","","","","",""
"html-keyboard-response","149","402025","0.0-5.0-2.47","FL","mvqchu948c","1366","768","0","1","0","5b421b9ac2e3810001763252","","null","","","learningBlock1","","","","<div style=""font-size:60px;""> </div>","null","FL","learning/Slide48.JPG","That was a bim.","","",""
"image-keyboard-response","150","402203","0.0-5.0-0.48","FL","mvqchu948c","1366","768","0","1","0","5b421b9ac2e3810001763252","","null","","","","","","","learning/Slide49.JPG","null","","","","","",""
"html-keyboard-response","151","403358","0.0-5.0-1.48","FL","mvqchu948c","1366","768","0","1","0","5b421b9ac2e3810001763252","","null","","","learningBlock1","","","","That was a dep.","null","","","","","",""
"html-keyboard-response","152","404365","0.0-5.0-2.48","FL","mvqchu948c","1366","768","0","1","0","5b421b9ac2e3810001763252","","null","","","learningBlock1","","","","<div style=""font-size:60px;""> </div>","null","FL","learning/Slide49.JPG","That was a dep.","","",""
"image-keyboard-response","153","404546","0.0-5.0-0.49","FL","mvqchu948c","1366","768","0","1","0","5b421b9ac2e3810001763252","","null","","","","","","","learning/Slide50.JPG","null","","","","","",""
"html-keyboard-response","154","405707","0.0-5.0-1.49","FL","mvqchu948c","1366","768","0","1","0","5b421b9ac2e3810001763252","","null","","","learningBlock1","","","","That was a tob.","null","","","","","",""
"html-keyboard-response","155","406732","0.0-5.0-2.49","FL","mvqchu948c","1366","768","0","1","0","5b421b9ac2e3810001763252","","null","","","learningBlock1","","","","<div style=""font-size:60px;""> </div>","null","FL","learning/Slide50.JPG","That was a tob.","","",""
"image-keyboard-response","156","406930","0.0-5.0-0.50","FL","mvqchu948c","1366","768","0","1","0","5b421b9ac2e3810001763252","","null","","","","","","","learning/Slide51.JPG","null","","","","","",""
"html-keyboard-response","157","408092","0.0-5.0-1.50","FL","mvqchu948c","1366","768","0","1","0","5b421b9ac2e3810001763252","","null","","","learningBlock1","","","","That was a bim.","null","","","","","",""
"html-keyboard-response","158","409099","0.0-5.0-2.50","FL","mvqchu948c","1366","768","0","1","0","5b421b9ac2e3810001763252","","null","","","learningBlock1","","","","<div style=""font-size:60px;""> </div>","null","FL","learning/Slide51.JPG","That was a bim.","","",""
"image-keyboard-response","159","409277","0.0-5.0-0.51","FL","mvqchu948c","1366","768","0","1","0","5b421b9ac2e3810001763252","","null","","","","","","","learning/Slide52.JPG","null","","","","","",""
"html-keyboard-response","160","410433","0.0-5.0-1.51","FL","mvqchu948c","1366","768","0","1","0","5b421b9ac2e3810001763252","","null","","","learningBlock1","","","","That was a wug.","null","","","","","",""
"html-keyboard-response","161","411437","0.0-5.0-2.51","FL","mvqchu948c","1366","768","0","1","0","5b421b9ac2e3810001763252","","null","","","learningBlock1","","","","<div style=""font-size:60px;""> </div>","null","FL","learning/Slide52.JPG","That was a wug.","","",""
"image-keyboard-response","162","411664","0.0-5.0-0.52","FL","mvqchu948c","1366","768","0","1","0","5b421b9ac2e3810001763252","","null","","","","","","","learning/Slide53.JPG","null","","","","","",""
"html-keyboard-response","163","412817","0.0-5.0-1.52","FL","mvqchu948c","1366","768","0","1","0","5b421b9ac2e3810001763252","","null","","","learningBlock1","","","","That was a tob.","null","","","","","",""
"html-keyboard-response","164","413821","0.0-5.0-2.52","FL","mvqchu948c","1366","768","0","1","0","5b421b9ac2e3810001763252","","null","","","learningBlock1","","","","<div style=""font-size:60px;""> </div>","null","FL","learning/Slide53.JPG","That was a tob.","","",""
"image-keyboard-response","165","414004","0.0-5.0-0.53","FL","mvqchu948c","1366","768","0","1","0","5b421b9ac2e3810001763252","","null","","","","","","","learning/Slide54.JPG","null","","","","","",""
"html-keyboard-response","166","415158","0.0-5.0-1.53","FL","mvqchu948c","1366","768","0","1","0","5b421b9ac2e3810001763252","","null","","","learningBlock1","","","","That was a dep.","null","","","","","",""
"html-keyboard-response","167","416163","0.0-5.0-2.53","FL","mvqchu948c","1366","768","0","1","0","5b421b9ac2e3810001763252","","null","","","learningBlock1","","","","<div style=""font-size:60px;""> </div>","null","FL","learning/Slide54.JPG","That was a dep.","","",""
"image-keyboard-response","168","416358","0.0-5.0-0.54","FL","mvqchu948c","1366","768","0","1","0","5b421b9ac2e3810001763252","","null","","","","","","","learning/Slide55.JPG","null","","","","","",""
"html-keyboard-response","169","417511","0.0-5.0-1.54","FL","mvqchu948c","1366","768","0","1","0","5b421b9ac2e3810001763252","","null","","","learningBlock1","","","","That was a bim.","null","","","","","",""
"html-keyboard-response","170","418514","0.0-5.0-2.54","FL","mvqchu948c","1366","768","0","1","0","5b421b9ac2e3810001763252","","null","","","learningBlock1","","","","<div style=""font-size:60px;""> </div>","null","FL","learning/Slide55.JPG","That was a bim.","","",""
"image-keyboard-response","171","418693","0.0-5.0-0.55","FL","mvqchu948c","1366","768","0","1","0","5b421b9ac2e3810001763252","","null","","","","","","","learning/Slide56.JPG","null","","","","","",""
"html-keyboard-response","172","419847","0.0-5.0-1.55","FL","mvqchu948c","1366","768","0","1","0","5b421b9ac2e3810001763252","","null","","","learningBlock1","","","","That was a tob.","null","","","","","",""
"html-keyboard-response","173","420850","0.0-5.0-2.55","FL","mvqchu948c","1366","768","0","1","0","5b421b9ac2e3810001763252","","null","","","learningBlock1","","","","<div style=""font-size:60px;""> </div>","null","FL","learning/Slide56.JPG","That was a tob.","","",""
"image-keyboard-response","174","421029","0.0-5.0-0.56","FL","mvqchu948c","1366","768","0","1","0","5b421b9ac2e3810001763252","","null","","","","","","","learning/Slide57.JPG","null","","","","","",""
"html-keyboard-response","175","422182","0.0-5.0-1.56","FL","mvqchu948c","1366","768","0","1","0","5b421b9ac2e3810001763252","","null","","","learningBlock1","","","","That was a dep.","null","","","","","",""
"html-keyboard-response","176","423185","0.0-5.0-2.56","FL","mvqchu948c","1366","768","0","1","0","5b421b9ac2e3810001763252","","null","","","learningBlock1","","","","<div style=""font-size:60px;""> </div>","null","FL","learning/Slide57.JPG","That was a dep.","","",""
"image-keyboard-response","177","423363","0.0-5.0-0.57","FL","mvqchu948c","1366","768","0","1","0","5b421b9ac2e3810001763252","","null","","","","","","","learning/Slide58.JPG","null","","","","","",""
"html-keyboard-response","178","424535","0.0-5.0-1.57","FL","mvqchu948c","1366","768","0","1","0","5b421b9ac2e3810001763252","","null","","","learningBlock1","","","","That was a wug.","null","","","","","",""
"html-keyboard-response","179","425539","0.0-5.0-2.57","FL","mvqchu948c","1366","768","0","1","0","5b421b9ac2e3810001763252","","null","","","learningBlock1","","","","<div style=""font-size:60px;""> </div>","null","FL","learning/Slide58.JPG","That was a wug.","","",""
"image-keyboard-response","180","425718","0.0-5.0-0.58","FL","mvqchu948c","1366","768","0","1","0","5b421b9ac2e3810001763252","","null","","","","","","","learning/Slide59.JPG","null","","","","","",""
"html-keyboard-response","181","426872","0.0-5.0-1.58","FL","mvqchu948c","1366","768","0","1","0","5b421b9ac2e3810001763252","","null","","","learningBlock1","","","","That was a dep.","null","","","","","",""
"html-keyboard-response","182","427879","0.0-5.0-2.58","FL","mvqchu948c","1366","768","0","1","0","5b421b9ac2e3810001763252","","null","","","learningBlock1","","","","<div style=""font-size:60px;""> </div>","null","FL","learning/Slide59.JPG","That was a dep.","","",""
"image-keyboard-response","183","428070","0.0-5.0-0.59","FL","mvqchu948c","1366","768","0","1","0","5b421b9ac2e3810001763252","","null","","","","","","","learning/Slide60.JPG","null","","","","","",""
"html-keyboard-response","184","429226","0.0-5.0-1.59","FL","mvqchu948c","1366","768","0","1","0","5b421b9ac2e3810001763252","","null","","","learningBlock1","","","","That was a wug.","null","","","","","",""
"html-keyboard-response","185","430252","0.0-5.0-2.59","FL","mvqchu948c","1366","768","0","1","0","5b421b9ac2e3810001763252","","null","","","learningBlock1","","","","<div style=""font-size:60px;""> </div>","null","FL","learning/Slide60.JPG","That was a wug.","","",""
"image-keyboard-response","186","430446","0.0-5.0-0.60","FL","mvqchu948c","1366","768","0","1","0","5b421b9ac2e3810001763252","","null","","","","","","","learning/Slide61.JPG","null","","","","","",""
"html-keyboard-response","187","431599","0.0-5.0-1.60","FL","mvqchu948c","1366","768","0","1","0","5b421b9ac2e3810001763252","","null","","","learningBlock1","","","","That was a bim.","null","","","","","",""
"html-keyboard-response","188","432604","0.0-5.0-2.60","FL","mvqchu948c","1366","768","0","1","0","5b421b9ac2e3810001763252","","null","","","learningBlock1","","","","<div style=""font-size:60px;""> </div>","null","FL","learning/Slide61.JPG","That was a bim.","","",""
"image-keyboard-response","189","432801","0.0-5.0-0.61","FL","mvqchu948c","1366","768","0","1","0","5b421b9ac2e3810001763252","","null","","","","","","","learning/Slide62.JPG","null","","","","","",""
"html-keyboard-response","190","433977","0.0-5.0-1.61","FL","mvqchu948c","1366","768","0","1","0","5b421b9ac2e3810001763252","","null","","","learningBlock1","","","","That was a dep.","null","","","","","",""
"html-keyboard-response","191","434979","0.0-5.0-2.61","FL","mvqchu948c","1366","768","0","1","0","5b421b9ac2e3810001763252","","null","","","learningBlock1","","","","<div style=""font-size:60px;""> </div>","null","FL","learning/Slide62.JPG","That was a dep.","","",""
"image-keyboard-response","192","435162","0.0-5.0-0.62","FL","mvqchu948c","1366","768","0","1","0","5b421b9ac2e3810001763252","","null","","","","","","","learning/Slide63.JPG","null","","","","","",""
"html-keyboard-response","193","436317","0.0-5.0-1.62","FL","mvqchu948c","1366","768","0","1","0","5b421b9ac2e3810001763252","","null","","","learningBlock1","","","","That was a bim.","null","","","","","",""
"html-keyboard-response","194","437325","0.0-5.0-2.62","FL","mvqchu948c","1366","768","0","1","0","5b421b9ac2e3810001763252","","null","","","learningBlock1","","","","<div style=""font-size:60px;""> </div>","null","FL","learning/Slide63.JPG","That was a bim.","","",""
"image-keyboard-response","195","437521","0.0-5.0-0.63","FL","mvqchu948c","1366","768","0","1","0","5b421b9ac2e3810001763252","","null","","","","","","","learning/Slide64.JPG","null","","","","","",""
"html-keyboard-response","196","438675","0.0-5.0-1.63","FL","mvqchu948c","1366","768","0","1","0","5b421b9ac2e3810001763252","","null","","","learningBlock1","","","","That was a tob.","null","","","","","",""
"html-keyboard-response","197","439679","0.0-5.0-2.63","FL","mvqchu948c","1366","768","0","1","0","5b421b9ac2e3810001763252","","null","","","learningBlock1","","","","<div style=""font-size:60px;""> </div>","null","FL","learning/Slide64.JPG","That was a tob.","","",""
"image-keyboard-response","198","439859","0.0-5.0-0.64","FL","mvqchu948c","1366","768","0","1","0","5b421b9ac2e3810001763252","","null","","","","","","","learning/Slide65.JPG","null","","","","","",""
"html-keyboard-response","199","441026","0.0-5.0-1.64","FL","mvqchu948c","1366","768","0","1","0","5b421b9ac2e3810001763252","","null","","","learningBlock1","","","","That was a wug.","null","","","","","",""
"html-keyboard-response","200","442032","0.0-5.0-2.64","FL","mvqchu948c","1366","768","0","1","0","5b421b9ac2e3810001763252","","null","","","learningBlock1","","","","<div style=""font-size:60px;""> </div>","null","FL","learning/Slide65.JPG","That was a wug.","","",""
"image-keyboard-response","201","442212","0.0-5.0-0.65","FL","mvqchu948c","1366","768","0","1","0","5b421b9ac2e3810001763252","","null","","","","","","","learning/Slide66.JPG","null","","","","","",""
"html-keyboard-response","202","443369","0.0-5.0-1.65","FL","mvqchu948c","1366","768","0","1","0","5b421b9ac2e3810001763252","","null","","","learningBlock1","","","","That was a dep.","null","","","","","",""
"html-keyboard-response","203","444373","0.0-5.0-2.65","FL","mvqchu948c","1366","768","0","1","0","5b421b9ac2e3810001763252","","null","","","learningBlock1","","","","<div style=""font-size:60px;""> </div>","null","FL","learning/Slide66.JPG","That was a dep.","","",""
"image-keyboard-response","204","444553","0.0-5.0-0.66","FL","mvqchu948c","1366","768","0","1","0","5b421b9ac2e3810001763252","","null","","","","","","","learning/Slide67.JPG","null","","","","","",""
"html-keyboard-response","205","445720","0.0-5.0-1.66","FL","mvqchu948c","1366","768","0","1","0","5b421b9ac2e3810001763252","","null","","","learningBlock1","","","","That was a tob.","null","","","","","",""
"html-keyboard-response","206","446730","0.0-5.0-2.66","FL","mvqchu948c","1366","768","0","1","0","5b421b9ac2e3810001763252","","null","","","learningBlock1","","","","<div style=""font-size:60px;""> </div>","null","FL","learning/Slide67.JPG","That was a tob.","","",""
"image-keyboard-response","207","446929","0.0-5.0-0.67","FL","mvqchu948c","1366","768","0","1","0","5b421b9ac2e3810001763252","","null","","","","","","","learning/Slide68.JPG","null","","","","","",""
"html-keyboard-response","208","448083","0.0-5.0-1.67","FL","mvqchu948c","1366","768","0","1","0","5b421b9ac2e3810001763252","","null","","","learningBlock1","","","","That was a wug.","null","","","","","",""
"html-keyboard-response","209","449087","0.0-5.0-2.67","FL","mvqchu948c","1366","768","0","1","0","5b421b9ac2e3810001763252","","null","","","learningBlock1","","","","<div style=""font-size:60px;""> </div>","null","FL","learning/Slide68.JPG","That was a wug.","","",""
"image-keyboard-response","210","449290","0.0-5.0-0.68","FL","mvqchu948c","1366","768","0","1","0","5b421b9ac2e3810001763252","","null","","","","","","","learning/Slide69.JPG","null","","","","","",""
"html-keyboard-response","211","450444","0.0-5.0-1.68","FL","mvqchu948c","1366","768","0","1","0","5b421b9ac2e3810001763252","","null","","","learningBlock1","","","","That was a tob.","null","","","","","",""
"html-keyboard-response","212","451450","0.0-5.0-2.68","FL","mvqchu948c","1366","768","0","1","0","5b421b9ac2e3810001763252","","null","","","learningBlock1","","","","<div style=""font-size:60px;""> </div>","null","FL","learning/Slide69.JPG","That was a tob.","","",""
"image-keyboard-response","213","451630","0.0-5.0-0.69","FL","mvqchu948c","1366","768","0","1","0","5b421b9ac2e3810001763252","","null","","","","","","","learning/Slide70.JPG","null","","","","","",""
"html-keyboard-response","214","452787","0.0-5.0-1.69","FL","mvqchu948c","1366","768","0","1","0","5b421b9ac2e3810001763252","","null","","","learningBlock1","","","","That was a dep.","null","","","","","",""
"html-keyboard-response","215","453792","0.0-5.0-2.69","FL","mvqchu948c","1366","768","0","1","0","5b421b9ac2e3810001763252","","null","","","learningBlock1","","","","<div style=""font-size:60px;""> </div>","null","FL","learning/Slide70.JPG","That was a dep.","","",""
"image-keyboard-response","216","453972","0.0-5.0-0.70","FL","mvqchu948c","1366","768","0","1","0","5b421b9ac2e3810001763252","","null","","","","","","","learning/Slide71.JPG","null","","","","","",""
"html-keyboard-response","217","455128","0.0-5.0-1.70","FL","mvqchu948c","1366","768","0","1","0","5b421b9ac2e3810001763252","","null","","","learningBlock1","","","","That was a wug.","null","","","","","",""
"html-keyboard-response","218","456136","0.0-5.0-2.70","FL","mvqchu948c","1366","768","0","1","0","5b421b9ac2e3810001763252","","null","","","learningBlock1","","","","<div style=""font-size:60px;""> </div>","null","FL","learning/Slide71.JPG","That was a wug.","","",""
"image-keyboard-response","219","456339","0.0-5.0-0.71","FL","mvqchu948c","1366","768","0","1","0","5b421b9ac2e3810001763252","","null","","","","","","","learning/Slide72.JPG","null","","","","","",""
"html-keyboard-response","220","457493","0.0-5.0-1.71","FL","mvqchu948c","1366","768","0","1","0","5b421b9ac2e3810001763252","","null","","","learningBlock1","","","","That was a bim.","null","","","","","",""
"html-keyboard-response","221","458497","0.0-5.0-2.71","FL","mvqchu948c","1366","768","0","1","0","5b421b9ac2e3810001763252","","null","","","learningBlock1","","","","<div style=""font-size:60px;""> </div>","null","FL","learning/Slide72.JPG","That was a bim.","","",""
"image-keyboard-response","222","458677","0.0-5.0-0.72","FL","mvqchu948c","1366","768","0","1","0","5b421b9ac2e3810001763252","","null","","","","","","","learning/Slide73.JPG","null","","","","","",""
"html-keyboard-response","223","459838","0.0-5.0-1.72","FL","mvqchu948c","1366","768","0","1","0","5b421b9ac2e3810001763252","","null","","","learningBlock1","","","","That was a wug.","null","","","","","",""
"html-keyboard-response","224","460841","0.0-5.0-2.72","FL","mvqchu948c","1366","768","0","1","0","5b421b9ac2e3810001763252","","null","","","learningBlock1","","","","<div style=""font-size:60px;""> </div>","null","FL","learning/Slide73.JPG","That was a wug.","","",""
"image-keyboard-response","225","461021","0.0-5.0-0.73","FL","mvqchu948c","1366","768","0","1","0","5b421b9ac2e3810001763252","","null","","","","","","","learning/Slide74.JPG","null","","","","","",""
"html-keyboard-response","226","462202","0.0-5.0-1.73","FL","mvqchu948c","1366","768","0","1","0","5b421b9ac2e3810001763252","","null","","","learningBlock1","","","","That was a dep.","null","","","","","",""
"html-keyboard-response","227","463205","0.0-5.0-2.73","FL","mvqchu948c","1366","768","0","1","0","5b421b9ac2e3810001763252","","null","","","learningBlock1","","","","<div style=""font-size:60px;""> </div>","null","FL","learning/Slide74.JPG","That was a dep.","","",""
"image-keyboard-response","228","463383","0.0-5.0-0.74","FL","mvqchu948c","1366","768","0","1","0","5b421b9ac2e3810001763252","","null","","","","","","","learning/Slide75.JPG","null","","","","","",""
"html-keyboard-response","229","464539","0.0-5.0-1.74","FL","mvqchu948c","1366","768","0","1","0","5b421b9ac2e3810001763252","","null","","","learningBlock1","","","","That was a tob.","null","","","","","",""
"html-keyboard-response","230","465546","0.0-5.0-2.74","FL","mvqchu948c","1366","768","0","1","0","5b421b9ac2e3810001763252","","null","","","learningBlock1","","","","<div style=""font-size:60px;""> </div>","null","FL","learning/Slide75.JPG","That was a tob.","","",""
"image-keyboard-response","231","465725","0.0-5.0-0.75","FL","mvqchu948c","1366","768","0","1","0","5b421b9ac2e3810001763252","","null","","","","","","","learning/Slide76.JPG","null","","","","","",""
"html-keyboard-response","232","466881","0.0-5.0-1.75","FL","mvqchu948c","1366","768","0","1","0","5b421b9ac2e3810001763252","","null","","","learningBlock1","","","","That was a bim.","null","","","","","",""
"html-keyboard-response","233","467885","0.0-5.0-2.75","FL","mvqchu948c","1366","768","0","1","0","5b421b9ac2e3810001763252","","null","","","learningBlock1","","","","<div style=""font-size:60px;""> </div>","null","FL","learning/Slide76.JPG","That was a bim.","","",""
"image-keyboard-response","234","468066","0.0-5.0-0.76","FL","mvqchu948c","1366","768","0","1","0","5b421b9ac2e3810001763252","","null","","","","","","","learning/Slide77.JPG","null","","","","","",""
"html-keyboard-response","235","469246","0.0-5.0-1.76","FL","mvqchu948c","1366","768","0","1","0","5b421b9ac2e3810001763252","","null","","","learningBlock1","","","","That was a tob.","null","","","","","",""
"html-keyboard-response","236","470249","0.0-5.0-2.76","FL","mvqchu948c","1366","768","0","1","0","5b421b9ac2e3810001763252","","null","","","learningBlock1","","","","<div style=""font-size:60px;""> </div>","null","FL","learning/Slide77.JPG","That was a tob.","","",""
"image-keyboard-response","237","470446","0.0-5.0-0.77","FL","mvqchu948c","1366","768","0","1","0","5b421b9ac2e3810001763252","","null","","","","","","","learning/Slide78.JPG","null","","","","","",""
"html-keyboard-response","238","471613","0.0-5.0-1.77","FL","mvqchu948c","1366","768","0","1","0","5b421b9ac2e3810001763252","","null","","","learningBlock1","","","","That was a wug.","null","","","","","",""
"html-keyboard-response","239","472618","0.0-5.0-2.77","FL","mvqchu948c","1366","768","0","1","0","5b421b9ac2e3810001763252","","null","","","learningBlock1","","","","<div style=""font-size:60px;""> </div>","null","FL","learning/Slide78.JPG","That was a wug.","","",""
"image-keyboard-response","240","472796","0.0-5.0-0.78","FL","mvqchu948c","1366","768","0","1","0","5b421b9ac2e3810001763252","","null","","","","","","","learning/Slide79.JPG","null","","","","","",""
"html-keyboard-response","241","473949","0.0-5.0-1.78","FL","mvqchu948c","1366","768","0","1","0","5b421b9ac2e3810001763252","","null","","","learningBlock1","","","","That was a bim.","null","","","","","",""
"html-keyboard-response","242","474959","0.0-5.0-2.78","FL","mvqchu948c","1366","768","0","1","0","5b421b9ac2e3810001763252","","null","","","learningBlock1","","","","<div style=""font-size:60px;""> </div>","null","FL","learning/Slide79.JPG","That was a bim.","","",""
"image-keyboard-response","243","475138","0.0-5.0-0.79","FL","mvqchu948c","1366","768","0","1","0","5b421b9ac2e3810001763252","","null","","","","","","","learning/Slide80.JPG","null","","","","","",""
"html-keyboard-response","244","476304","0.0-5.0-1.79","FL","mvqchu948c","1366","768","0","1","0","5b421b9ac2e3810001763252","","null","","","learningBlock1","","","","That was a tob.","null","","","","","",""
"html-keyboard-response","245","477308","0.0-5.0-2.79","FL","mvqchu948c","1366","768","0","1","0","5b421b9ac2e3810001763252","","null","","","learningBlock1","","","","<div style=""font-size:60px;""> </div>","null","FL","learning/Slide80.JPG","That was a tob.","","",""
"instructions","246","481035","0.0-6.0","FL","mvqchu948c","1366","768","0","1","0","5b421b9ac2e3810001763252","","NA","","[{""page_index"":0,""viewing_time"":3722.0849999866914}]","instructions","","","","","","","","","","",""
"image-keyboard-response","247","481243","0.0-7.0-0.0","FL","mvqchu948c","1366","768","0","1","0","5b421b9ac2e3810001763252","","null","","","","","","","learning/Slide81.JPG","null","","","","","",""
"html-keyboard-response","248","482397","0.0-7.0-1.0","FL","mvqchu948c","1366","768","0","1","0","5b421b9ac2e3810001763252","","null","","","learningBlock2","","","","That was a wug.","null","","","","","",""
"html-keyboard-response","249","483399","0.0-7.0-2.0","FL","mvqchu948c","1366","768","0","1","0","5b421b9ac2e3810001763252","","null","","","learningBlock2","","","","<div style=""font-size:60px;""> </div>","null","FL","learning/Slide81.JPG","That was a wug.","","",""
"image-keyboard-response","250","483584","0.0-7.0-0.1","FL","mvqchu948c","1366","768","0","1","0","5b421b9ac2e3810001763252","","null","","","","","","","learning/Slide82.JPG","null","","","","","",""
"html-keyboard-response","251","484737","0.0-7.0-1.1","FL","mvqchu948c","1366","768","0","1","0","5b421b9ac2e3810001763252","","null","","","learningBlock2","","","","That was a bim.","null","","","","","",""
"html-keyboard-response","252","485745","0.0-7.0-2.1","FL","mvqchu948c","1366","768","0","1","0","5b421b9ac2e3810001763252","","null","","","learningBlock2","","","","<div style=""font-size:60px;""> </div>","null","FL","learning/Slide82.JPG","That was a bim.","","",""
"image-keyboard-response","253","485925","0.0-7.0-0.2","FL","mvqchu948c","1366","768","0","1","0","5b421b9ac2e3810001763252","","null","","","","","","","learning/Slide83.JPG","null","","","","","",""
"html-keyboard-response","254","487080","0.0-7.0-1.2","FL","mvqchu948c","1366","768","0","1","0","5b421b9ac2e3810001763252","","null","","","learningBlock2","","","","That was a wug.","null","","","","","",""
"html-keyboard-response","255","488086","0.0-7.0-2.2","FL","mvqchu948c","1366","768","0","1","0","5b421b9ac2e3810001763252","","null","","","learningBlock2","","","","<div style=""font-size:60px;""> </div>","null","FL","learning/Slide83.JPG","That was a wug.","","",""
"image-keyboard-response","256","488265","0.0-7.0-0.3","FL","mvqchu948c","1366","768","0","1","0","5b421b9ac2e3810001763252","","null","","","","","","","learning/Slide84.JPG","null","","","","","",""
"html-keyboard-response","257","489423","0.0-7.0-1.3","FL","mvqchu948c","1366","768","0","1","0","5b421b9ac2e3810001763252","","null","","","learningBlock2","","","","That was a dep.","null","","","","","",""
"html-keyboard-response","258","490426","0.0-7.0-2.3","FL","mvqchu948c","1366","768","0","1","0","5b421b9ac2e3810001763252","","null","","","learningBlock2","","","","<div style=""font-size:60px;""> </div>","null","FL","learning/Slide84.JPG","That was a dep.","","",""
"image-keyboard-response","259","490605","0.0-7.0-0.4","FL","mvqchu948c","1366","768","0","1","0","5b421b9ac2e3810001763252","","null","","","","","","","learning/Slide85.JPG","null","","","","","",""
"html-keyboard-response","260","491760","0.0-7.0-1.4","FL","mvqchu948c","1366","768","0","1","0","5b421b9ac2e3810001763252","","null","","","learningBlock2","","","","That was a bim.","null","","","","","",""
"html-keyboard-response","261","492766","0.0-7.0-2.4","FL","mvqchu948c","1366","768","0","1","0","5b421b9ac2e3810001763252","","null","","","learningBlock2","","","","<div style=""font-size:60px;""> </div>","null","FL","learning/Slide85.JPG","That was a bim.","","",""
"image-keyboard-response","262","492955","0.0-7.0-0.5","FL","mvqchu948c","1366","768","0","1","0","5b421b9ac2e3810001763252","","null","","","","","","","learning/Slide86.JPG","null","","","","","",""
"html-keyboard-response","263","494108","0.0-7.0-1.5","FL","mvqchu948c","1366","768","0","1","0","5b421b9ac2e3810001763252","","null","","","learningBlock2","","","","That was a tob.","null","","","","","",""
"html-keyboard-response","264","495112","0.0-7.0-2.5","FL","mvqchu948c","1366","768","0","1","0","5b421b9ac2e3810001763252","","null","","","learningBlock2","","","","<div style=""font-size:60px;""> </div>","null","FL","learning/Slide86.JPG","That was a tob.","","",""
"image-keyboard-response","265","495310","0.0-7.0-0.6","FL","mvqchu948c","1366","768","0","1","0","5b421b9ac2e3810001763252","","null","","","","","","","learning/Slide87.JPG","null","","","","","",""
"html-keyboard-response","266","496473","0.0-7.0-1.6","FL","mvqchu948c","1366","768","0","1","0","5b421b9ac2e3810001763252","","null","","","learningBlock2","","","","That was a wug.","null","","","","","",""
"html-keyboard-response","267","497481","0.0-7.0-2.6","FL","mvqchu948c","1366","768","0","1","0","5b421b9ac2e3810001763252","","null","","","learningBlock2","","","","<div style=""font-size:60px;""> </div>","null","FL","learning/Slide87.JPG","That was a wug.","","",""
"image-keyboard-response","268","497693","0.0-7.0-0.7","FL","mvqchu948c","1366","768","0","1","0","5b421b9ac2e3810001763252","","null","","","","","","","learning/Slide88.JPG","null","","","","","",""
"html-keyboard-response","269","498848","0.0-7.0-1.7","FL","mvqchu948c","1366","768","0","1","0","5b421b9ac2e3810001763252","","null","","","learningBlock2","","","","That was a tob.","null","","","","","",""
"html-keyboard-response","270","499852","0.0-7.0-2.7","FL","mvqchu948c","1366","768","0","1","0","5b421b9ac2e3810001763252","","null","","","learningBlock2","","","","<div style=""font-size:60px;""> </div>","null","FL","learning/Slide88.JPG","That was a tob.","","",""
"image-keyboard-response","271","500032","0.0-7.0-0.8","FL","mvqchu948c","1366","768","0","1","0","5b421b9ac2e3810001763252","","null","","","","","","","learning/Slide89.JPG","null","","","","","",""
"html-keyboard-response","272","501185","0.0-7.0-1.8","FL","mvqchu948c","1366","768","0","1","0","5b421b9ac2e3810001763252","","null","","","learningBlock2","","","","That was a bim.","null","","","","","",""
"html-keyboard-response","273","502191","0.0-7.0-2.8","FL","mvqchu948c","1366","768","0","1","0","5b421b9ac2e3810001763252","","null","","","learningBlock2","","","","<div style=""font-size:60px;""> </div>","null","FL","learning/Slide89.JPG","That was a bim.","","",""
"image-keyboard-response","274","502370","0.0-7.0-0.9","FL","mvqchu948c","1366","768","0","1","0","5b421b9ac2e3810001763252","","null","","","","","","","learning/Slide90.JPG","null","","","","","",""
"html-keyboard-response","275","503525","0.0-7.0-1.9","FL","mvqchu948c","1366","768","0","1","0","5b421b9ac2e3810001763252","","null","","","learningBlock2","","","","That was a dep.","null","","","","","",""
"html-keyboard-response","276","504530","0.0-7.0-2.9","FL","mvqchu948c","1366","768","0","1","0","5b421b9ac2e3810001763252","","null","","","learningBlock2","","","","<div style=""font-size:60px;""> </div>","null","FL","learning/Slide90.JPG","That was a dep.","","",""
"image-keyboard-response","277","504709","0.0-7.0-0.10","FL","mvqchu948c","1366","768","0","1","0","5b421b9ac2e3810001763252","","null","","","","","","","learning/Slide91.JPG","null","","","","","",""
"html-keyboard-response","278","505879","0.0-7.0-1.10","FL","mvqchu948c","1366","768","0","1","0","5b421b9ac2e3810001763252","","null","","","learningBlock2","","","","That was a wug.","null","","","","","",""
"html-keyboard-response","279","506885","0.0-7.0-2.10","FL","mvqchu948c","1366","768","0","1","0","5b421b9ac2e3810001763252","","null","","","learningBlock2","","","","<div style=""font-size:60px;""> </div>","null","FL","learning/Slide91.JPG","That was a wug.","","",""
"image-keyboard-response","280","507066","0.0-7.0-0.11","FL","mvqchu948c","1366","768","0","1","0","5b421b9ac2e3810001763252","","null","","","","","","","learning/Slide92.JPG","null","","","","","",""
"html-keyboard-response","281","508227","0.0-7.0-1.11","FL","mvqchu948c","1366","768","0","1","0","5b421b9ac2e3810001763252","","null","","","learningBlock2","","","","That was a tob.","null","","","","","",""
"html-keyboard-response","282","509236","0.0-7.0-2.11","FL","mvqchu948c","1366","768","0","1","0","5b421b9ac2e3810001763252","","null","","","learningBlock2","","","","<div style=""font-size:60px;""> </div>","null","FL","learning/Slide92.JPG","That was a tob.","","",""
"image-keyboard-response","283","509417","0.0-7.0-0.12","FL","mvqchu948c","1366","768","0","1","0","5b421b9ac2e3810001763252","","null","","","","","","","learning/Slide93.JPG","null","","","","","",""
"html-keyboard-response","284","510571","0.0-7.0-1.12","FL","mvqchu948c","1366","768","0","1","0","5b421b9ac2e3810001763252","","null","","","learningBlock2","","","","That was a bim.","null","","","","","",""
"html-keyboard-response","285","511576","0.0-7.0-2.12","FL","mvqchu948c","1366","768","0","1","0","5b421b9ac2e3810001763252","","null","","","learningBlock2","","","","<div style=""font-size:60px;""> </div>","null","FL","learning/Slide93.JPG","That was a bim.","","",""
"image-keyboard-response","286","511756","0.0-7.0-0.13","FL","mvqchu948c","1366","768","0","1","0","5b421b9ac2e3810001763252","","null","","","","","","","learning/Slide94.JPG","null","","","","","",""
"html-keyboard-response","287","512914","0.0-7.0-1.13","FL","mvqchu948c","1366","768","0","1","0","5b421b9ac2e3810001763252","","null","","","learningBlock2","","","","That was a tob.","null","","","","","",""
"html-keyboard-response","288","513917","0.0-7.0-2.13","FL","mvqchu948c","1366","768","0","1","0","5b421b9ac2e3810001763252","","null","","","learningBlock2","","","","<div style=""font-size:60px;""> </div>","null","FL","learning/Slide94.JPG","That was a tob.","","",""
"image-keyboard-response","289","514096","0.0-7.0-0.14","FL","mvqchu948c","1366","768","0","1","0","5b421b9ac2e3810001763252","","null","","","","","","","learning/Slide95.JPG","null","","","","","",""
"html-keyboard-response","290","515252","0.0-7.0-1.14","FL","mvqchu948c","1366","768","0","1","0","5b421b9ac2e3810001763252","","null","","","learningBlock2","","","","That was a wug.","null","","","","","",""
"html-keyboard-response","291","516257","0.0-7.0-2.14","FL","mvqchu948c","1366","768","0","1","0","5b421b9ac2e3810001763252","","null","","","learningBlock2","","","","<div style=""font-size:60px;""> </div>","null","FL","learning/Slide95.JPG","That was a wug.","","",""
"image-keyboard-response","292","516454","0.0-7.0-0.15","FL","mvqchu948c","1366","768","0","1","0","5b421b9ac2e3810001763252","","null","","","","","","","learning/Slide96.JPG","null","","","","","",""
"html-keyboard-response","293","517614","0.0-7.0-1.15","FL","mvqchu948c","1366","768","0","1","0","5b421b9ac2e3810001763252","","null","","","learningBlock2","","","","That was a tob.","null","","","","","",""
"html-keyboard-response","294","518621","0.0-7.0-2.15","FL","mvqchu948c","1366","768","0","1","0","5b421b9ac2e3810001763252","","null","","","learningBlock2","","","","<div style=""font-size:60px;""> </div>","null","FL","learning/Slide96.JPG","That was a tob.","","",""
"image-keyboard-response","295","518802","0.0-7.0-0.16","FL","mvqchu948c","1366","768","0","1","0","5b421b9ac2e3810001763252","","null","","","","","","","learning/Slide97.JPG","null","","","","","",""
"html-keyboard-response","296","519958","0.0-7.0-1.16","FL","mvqchu948c","1366","768","0","1","0","5b421b9ac2e3810001763252","","null","","","learningBlock2","","","","That was a dep.","null","","","","","",""
"html-keyboard-response","297","520965","0.0-7.0-2.16","FL","mvqchu948c","1366","768","0","1","0","5b421b9ac2e3810001763252","","null","","","learningBlock2","","","","<div style=""font-size:60px;""> </div>","null","FL","learning/Slide97.JPG","That was a dep.","","",""
"image-keyboard-response","298","521164","0.0-7.0-0.17","FL","mvqchu948c","1366","768","0","1","0","5b421b9ac2e3810001763252","","null","","","","","","","learning/Slide98.JPG","null","","","","","",""
"html-keyboard-response","299","522318","0.0-7.0-1.17","FL","mvqchu948c","1366","768","0","1","0","5b421b9ac2e3810001763252","","null","","","learningBlock2","","","","That was a bim.","null","","","","","",""
"html-keyboard-response","300","523328","0.0-7.0-2.17","FL","mvqchu948c","1366","768","0","1","0","5b421b9ac2e3810001763252","","null","","","learningBlock2","","","","<div style=""font-size:60px;""> </div>","null","FL","learning/Slide98.JPG","That was a bim.","","",""
"image-keyboard-response","301","523519","0.0-7.0-0.18","FL","mvqchu948c","1366","768","0","1","0","5b421b9ac2e3810001763252","","null","","","","","","","learning/Slide99.JPG","null","","","","","",""
"html-keyboard-response","302","524674","0.0-7.0-1.18","FL","mvqchu948c","1366","768","0","1","0","5b421b9ac2e3810001763252","","null","","","learningBlock2","","","","That was a dep.","null","","","","","",""
"html-keyboard-response","303","525679","0.0-7.0-2.18","FL","mvqchu948c","1366","768","0","1","0","5b421b9ac2e3810001763252","","null","","","learningBlock2","","","","<div style=""font-size:60px;""> </div>","null","FL","learning/Slide99.JPG","That was a dep.","","",""
"image-keyboard-response","304","525878","0.0-7.0-0.19","FL","mvqchu948c","1366","768","0","1","0","5b421b9ac2e3810001763252","","null","","","","","","","learning/Slide100.JPG","null","","","","","",""
"html-keyboard-response","305","527039","0.0-7.0-1.19","FL","mvqchu948c","1366","768","0","1","0","5b421b9ac2e3810001763252","","null","","","learningBlock2","","","","That was a bim.","null","","","","","",""
"html-keyboard-response","306","528053","0.0-7.0-2.19","FL","mvqchu948c","1366","768","0","1","0","5b421b9ac2e3810001763252","","null","","","learningBlock2","","","","<div style=""font-size:60px;""> </div>","null","FL","learning/Slide100.JPG","That was a bim.","","",""
"image-keyboard-response","307","528231","0.0-7.0-0.20","FL","mvqchu948c","1366","768","0","1","0","5b421b9ac2e3810001763252","","null","","","","","","","learning/Slide101.JPG","null","","","","","",""
"html-keyboard-response","308","529384","0.0-7.0-1.20","FL","mvqchu948c","1366","768","0","1","0","5b421b9ac2e3810001763252","","null","","","learningBlock2","","","","That was a tob.","null","","","","","",""
"html-keyboard-response","309","530389","0.0-7.0-2.20","FL","mvqchu948c","1366","768","0","1","0","5b421b9ac2e3810001763252","","null","","","learningBlock2","","","","<div style=""font-size:60px;""> </div>","null","FL","learning/Slide101.JPG","That was a tob.","","",""
"image-keyboard-response","310","530588","0.0-7.0-0.21","FL","mvqchu948c","1366","768","0","1","0","5b421b9ac2e3810001763252","","null","","","","","","","learning/Slide102.JPG","null","","","","","",""
"html-keyboard-response","311","531742","0.0-7.0-1.21","FL","mvqchu948c","1366","768","0","1","0","5b421b9ac2e3810001763252","","null","","","learningBlock2","","","","That was a bim.","null","","","","","",""
"html-keyboard-response","312","532746","0.0-7.0-2.21","FL","mvqchu948c","1366","768","0","1","0","5b421b9ac2e3810001763252","","null","","","learningBlock2","","","","<div style=""font-size:60px;""> </div>","null","FL","learning/Slide102.JPG","That was a bim.","","",""
"image-keyboard-response","313","532945","0.0-7.0-0.22","FL","mvqchu948c","1366","768","0","1","0","5b421b9ac2e3810001763252","","null","","","","","","","learning/Slide103.JPG","null","","","","","",""
"html-keyboard-response","314","534114","0.0-7.0-1.22","FL","mvqchu948c","1366","768","0","1","0","5b421b9ac2e3810001763252","","null","","","learningBlock2","","","","That was a dep.","null","","","","","",""
"html-keyboard-response","315","535117","0.0-7.0-2.22","FL","mvqchu948c","1366","768","0","1","0","5b421b9ac2e3810001763252","","null","","","learningBlock2","","","","<div style=""font-size:60px;""> </div>","null","FL","learning/Slide103.JPG","That was a dep.","","",""
"image-keyboard-response","316","535297","0.0-7.0-0.23","FL","mvqchu948c","1366","768","0","1","0","5b421b9ac2e3810001763252","","null","","","","","","","learning/Slide104.JPG","null","","","","","",""
"html-keyboard-response","317","536463","0.0-7.0-1.23","FL","mvqchu948c","1366","768","0","1","0","5b421b9ac2e3810001763252","","null","","","learningBlock2","","","","That was a tob.","null","","","","","",""
"html-keyboard-response","318","537474","0.0-7.0-2.23","FL","mvqchu948c","1366","768","0","1","0","5b421b9ac2e3810001763252","","null","","","learningBlock2","","","","<div style=""font-size:60px;""> </div>","null","FL","learning/Slide104.JPG","That was a tob.","","",""
"image-keyboard-response","319","537655","0.0-7.0-0.24","FL","mvqchu948c","1366","768","0","1","0","5b421b9ac2e3810001763252","","null","","","","","","","learning/Slide105.JPG","null","","","","","",""
"html-keyboard-response","320","538811","0.0-7.0-1.24","FL","mvqchu948c","1366","768","0","1","0","5b421b9ac2e3810001763252","","null","","","learningBlock2","","","","That was a dep.","null","","","","","",""
"html-keyboard-response","321","539817","0.0-7.0-2.24","FL","mvqchu948c","1366","768","0","1","0","5b421b9ac2e3810001763252","","null","","","learningBlock2","","","","<div style=""font-size:60px;""> </div>","null","FL","learning/Slide105.JPG","That was a dep.","","",""
"image-keyboard-response","322","540004","0.0-7.0-0.25","FL","mvqchu948c","1366","768","0","1","0","5b421b9ac2e3810001763252","","null","","","","","","","learning/Slide106.JPG","null","","","","","",""
"html-keyboard-response","323","541164","0.0-7.0-1.25","FL","mvqchu948c","1366","768","0","1","0","5b421b9ac2e3810001763252","","null","","","learningBlock2","","","","That was a wug.","null","","","","","",""
"html-keyboard-response","324","542173","0.0-7.0-2.25","FL","mvqchu948c","1366","768","0","1","0","5b421b9ac2e3810001763252","","null","","","learningBlock2","","","","<div style=""font-size:60px;""> </div>","null","FL","learning/Slide106.JPG","That was a wug.","","",""
"image-keyboard-response","325","542354","0.0-7.0-0.26","FL","mvqchu948c","1366","768","0","1","0","5b421b9ac2e3810001763252","","null","","","","","","","learning/Slide107.JPG","null","","","","","",""
"html-keyboard-response","326","543536","0.0-7.0-1.26","FL","mvqchu948c","1366","768","0","1","0","5b421b9ac2e3810001763252","","null","","","learningBlock2","","","","That was a bim.","null","","","","","",""
"html-keyboard-response","327","544539","0.0-7.0-2.26","FL","mvqchu948c","1366","768","0","1","0","5b421b9ac2e3810001763252","","null","","","learningBlock2","","","","<div style=""font-size:60px;""> </div>","null","FL","learning/Slide107.JPG","That was a bim.","","",""
"image-keyboard-response","328","544720","0.0-7.0-0.27","FL","mvqchu948c","1366","768","0","1","0","5b421b9ac2e3810001763252","","null","","","","","","","learning/Slide108.JPG","null","","","","","",""
"html-keyboard-response","329","545875","0.0-7.0-1.27","FL","mvqchu948c","1366","768","0","1","0","5b421b9ac2e3810001763252","","null","","","learningBlock2","","","","That was a dep.","null","","","","","",""
"html-keyboard-response","330","546884","0.0-7.0-2.27","FL","mvqchu948c","1366","768","0","1","0","5b421b9ac2e3810001763252","","null","","","learningBlock2","","","","<div style=""font-size:60px;""> </div>","null","FL","learning/Slide108.JPG","That was a dep.","","",""
"image-keyboard-response","331","547085","0.0-7.0-0.28","FL","mvqchu948c","1366","768","0","1","0","5b421b9ac2e3810001763252","","null","","","","","","","learning/Slide109.JPG","null","","","","","",""
"html-keyboard-response","332","548253","0.0-7.0-1.28","FL","mvqchu948c","1366","768","0","1","0","5b421b9ac2e3810001763252","","null","","","learningBlock2","","","","That was a wug.","null","","","","","",""
"html-keyboard-response","333","549256","0.0-7.0-2.28","FL","mvqchu948c","1366","768","0","1","0","5b421b9ac2e3810001763252","","null","","","learningBlock2","","","","<div style=""font-size:60px;""> </div>","null","FL","learning/Slide109.JPG","That was a wug.","","",""
"image-keyboard-response","334","549442","0.0-7.0-0.29","FL","mvqchu948c","1366","768","0","1","0","5b421b9ac2e3810001763252","","null","","","","","","","learning/Slide110.JPG","null","","","","","",""
"html-keyboard-response","335","550599","0.0-7.0-1.29","FL","mvqchu948c","1366","768","0","1","0","5b421b9ac2e3810001763252","","null","","","learningBlock2","","","","That was a bim.","null","","","","","",""
"html-keyboard-response","336","551603","0.0-7.0-2.29","FL","mvqchu948c","1366","768","0","1","0","5b421b9ac2e3810001763252","","null","","","learningBlock2","","","","<div style=""font-size:60px;""> </div>","null","FL","learning/Slide110.JPG","That was a bim.","","",""
"image-keyboard-response","337","551782","0.0-7.0-0.30","FL","mvqchu948c","1366","768","0","1","0","5b421b9ac2e3810001763252","","null","","","","","","","learning/Slide111.JPG","null","","","","","",""
"html-keyboard-response","338","552946","0.0-7.0-1.30","FL","mvqchu948c","1366","768","0","1","0","5b421b9ac2e3810001763252","","null","","","learningBlock2","","","","That was a tob.","null","","","","","",""
"html-keyboard-response","339","553954","0.0-7.0-2.30","FL","mvqchu948c","1366","768","0","1","0","5b421b9ac2e3810001763252","","null","","","learningBlock2","","","","<div style=""font-size:60px;""> </div>","null","FL","learning/Slide111.JPG","That was a tob.","","",""
"image-keyboard-response","340","554136","0.0-7.0-0.31","FL","mvqchu948c","1366","768","0","1","0","5b421b9ac2e3810001763252","","null","","","","","","","learning/Slide112.JPG","null","","","","","",""
"html-keyboard-response","341","555292","0.0-7.0-1.31","FL","mvqchu948c","1366","768","0","1","0","5b421b9ac2e3810001763252","","null","","","learningBlock2","","","","That was a wug.","null","","","","","",""
"html-keyboard-response","342","556296","0.0-7.0-2.31","FL","mvqchu948c","1366","768","0","1","0","5b421b9ac2e3810001763252","","null","","","learningBlock2","","","","<div style=""font-size:60px;""> </div>","null","FL","learning/Slide112.JPG","That was a wug.","","",""
"image-keyboard-response","343","556476","0.0-7.0-0.32","FL","mvqchu948c","1366","768","0","1","0","5b421b9ac2e3810001763252","","null","","","","","","","learning/Slide113.JPG","null","","","","","",""
"html-keyboard-response","344","557630","0.0-7.0-1.32","FL","mvqchu948c","1366","768","0","1","0","5b421b9ac2e3810001763252","","null","","","learningBlock2","","","","That was a tob.","null","","","","","",""
"html-keyboard-response","345","558636","0.0-7.0-2.32","FL","mvqchu948c","1366","768","0","1","0","5b421b9ac2e3810001763252","","null","","","learningBlock2","","","","<div style=""font-size:60px;""> </div>","null","FL","learning/Slide113.JPG","That was a tob.","","",""
"image-keyboard-response","346","558834","0.0-7.0-0.33","FL","mvqchu948c","1366","768","0","1","0","5b421b9ac2e3810001763252","","null","","","","","","","learning/Slide114.JPG","null","","","","","",""
"html-keyboard-response","347","559989","0.0-7.0-1.33","FL","mvqchu948c","1366","768","0","1","0","5b421b9ac2e3810001763252","","null","","","learningBlock2","","","","That was a wug.","null","","","","","",""
"html-keyboard-response","348","560993","0.0-7.0-2.33","FL","mvqchu948c","1366","768","0","1","0","5b421b9ac2e3810001763252","","null","","","learningBlock2","","","","<div style=""font-size:60px;""> </div>","null","FL","learning/Slide114.JPG","That was a wug.","","",""
"image-keyboard-response","349","561182","0.0-7.0-0.34","FL","mvqchu948c","1366","768","0","1","0","5b421b9ac2e3810001763252","","null","","","","","","","learning/Slide115.JPG","null","","","","","",""
"html-keyboard-response","350","562337","0.0-7.0-1.34","FL","mvqchu948c","1366","768","0","1","0","5b421b9ac2e3810001763252","","null","","","learningBlock2","","","","That was a bim.","null","","","","","",""
"html-keyboard-response","351","563341","0.0-7.0-2.34","FL","mvqchu948c","1366","768","0","1","0","5b421b9ac2e3810001763252","","null","","","learningBlock2","","","","<div style=""font-size:60px;""> </div>","null","FL","learning/Slide115.JPG","That was a bim.","","",""
"image-keyboard-response","352","563519","0.0-7.0-0.35","FL","mvqchu948c","1366","768","0","1","0","5b421b9ac2e3810001763252","","null","","","","","","","learning/Slide116.JPG","null","","","","","",""
"html-keyboard-response","353","564674","0.0-7.0-1.35","FL","mvqchu948c","1366","768","0","1","0","5b421b9ac2e3810001763252","","null","","","learningBlock2","","","","That was a dep.","null","","","","","",""
"html-keyboard-response","354","565680","0.0-7.0-2.35","FL","mvqchu948c","1366","768","0","1","0","5b421b9ac2e3810001763252","","null","","","learningBlock2","","","","<div style=""font-size:60px;""> </div>","null","FL","learning/Slide116.JPG","That was a dep.","","",""
"image-keyboard-response","355","565874","0.0-7.0-0.36","FL","mvqchu948c","1366","768","0","1","0","5b421b9ac2e3810001763252","","null","","","","","","","learning/Slide117.JPG","null","","","","","",""
"html-keyboard-response","356","567051","0.0-7.0-1.36","FL","mvqchu948c","1366","768","0","1","0","5b421b9ac2e3810001763252","","null","","","learningBlock2","","","","That was a tob.","null","","","","","",""
"html-keyboard-response","357","568060","0.0-7.0-2.36","FL","mvqchu948c","1366","768","0","1","0","5b421b9ac2e3810001763252","","null","","","learningBlock2","","","","<div style=""font-size:60px;""> </div>","null","FL","learning/Slide117.JPG","That was a tob.","","",""
"image-keyboard-response","358","568241","0.0-7.0-0.37","FL","mvqchu948c","1366","768","0","1","0","5b421b9ac2e3810001763252","","null","","","","","","","learning/Slide118.JPG","null","","","","","",""
"html-keyboard-response","359","569395","0.0-7.0-1.37","FL","mvqchu948c","1366","768","0","1","0","5b421b9ac2e3810001763252","","null","","","learningBlock2","","","","That was a dep.","null","","","","","",""
"html-keyboard-response","360","570404","0.0-7.0-2.37","FL","mvqchu948c","1366","768","0","1","0","5b421b9ac2e3810001763252","","null","","","learningBlock2","","","","<div style=""font-size:60px;""> </div>","null","FL","learning/Slide118.JPG","That was a dep.","","",""
"image-keyboard-response","361","570585","0.0-7.0-0.38","FL","mvqchu948c","1366","768","0","1","0","5b421b9ac2e3810001763252","","null","","","","","","","learning/Slide119.JPG","null","","","","","",""
"html-keyboard-response","362","571762","0.0-7.0-1.38","FL","mvqchu948c","1366","768","0","1","0","5b421b9ac2e3810001763252","","null","","","learningBlock2","","","","That was a wug.","null","","","","","",""
"html-keyboard-response","363","572766","0.0-7.0-2.38","FL","mvqchu948c","1366","768","0","1","0","5b421b9ac2e3810001763252","","null","","","learningBlock2","","","","<div style=""font-size:60px;""> </div>","null","FL","learning/Slide119.JPG","That was a wug.","","",""
"image-keyboard-response","364","572945","0.0-7.0-0.39","FL","mvqchu948c","1366","768","0","1","0","5b421b9ac2e3810001763252","","null","","","","","","","learning/Slide120.JPG","null","","","","","",""
"html-keyboard-response","365","574099","0.0-7.0-1.39","FL","mvqchu948c","1366","768","0","1","0","5b421b9ac2e3810001763252","","null","","","learningBlock2","","","","That was a dep.","null","","","","","",""
"html-keyboard-response","366","575104","0.0-7.0-2.39","FL","mvqchu948c","1366","768","0","1","0","5b421b9ac2e3810001763252","","null","","","learningBlock2","","","","<div style=""font-size:60px;""> </div>","null","FL","learning/Slide120.JPG","That was a dep.","","",""
"image-keyboard-response","367","575286","0.0-7.0-0.40","FL","mvqchu948c","1366","768","0","1","0","5b421b9ac2e3810001763252","","null","","","","","","","learning/Slide121.JPG","null","","","","","",""
"html-keyboard-response","368","576441","0.0-7.0-1.40","FL","mvqchu948c","1366","768","0","1","0","5b421b9ac2e3810001763252","","null","","","learningBlock2","","","","That was a bim.","null","","","","","",""
"html-keyboard-response","369","577445","0.0-7.0-2.40","FL","mvqchu948c","1366","768","0","1","0","5b421b9ac2e3810001763252","","null","","","learningBlock2","","","","<div style=""font-size:60px;""> </div>","null","FL","learning/Slide121.JPG","That was a bim.","","",""
"image-keyboard-response","370","577632","0.0-7.0-0.41","FL","mvqchu948c","1366","768","0","1","0","5b421b9ac2e3810001763252","","null","","","","","","","learning/Slide122.JPG","null","","","","","",""
"html-keyboard-response","371","578793","0.0-7.0-1.41","FL","mvqchu948c","1366","768","0","1","0","5b421b9ac2e3810001763252","","null","","","learningBlock2","","","","That was a wug.","null","","","","","",""
"html-keyboard-response","372","579799","0.0-7.0-2.41","FL","mvqchu948c","1366","768","0","1","0","5b421b9ac2e3810001763252","","null","","","learningBlock2","","","","<div style=""font-size:60px;""> </div>","null","FL","learning/Slide122.JPG","That was a wug.","","",""
"image-keyboard-response","373","579985","0.0-7.0-0.42","FL","mvqchu948c","1366","768","0","1","0","5b421b9ac2e3810001763252","","null","","","","","","","learning/Slide123.JPG","null","","","","","",""
"html-keyboard-response","374","581138","0.0-7.0-1.42","FL","mvqchu948c","1366","768","0","1","0","5b421b9ac2e3810001763252","","null","","","learningBlock2","","","","That was a bim.","null","","","","","",""
"html-keyboard-response","375","582149","0.0-7.0-2.42","FL","mvqchu948c","1366","768","0","1","0","5b421b9ac2e3810001763252","","null","","","learningBlock2","","","","<div style=""font-size:60px;""> </div>","null","FL","learning/Slide123.JPG","That was a bim.","","",""
"image-keyboard-response","376","582352","0.0-7.0-0.43","FL","mvqchu948c","1366","768","0","1","0","5b421b9ac2e3810001763252","","null","","","","","","","learning/Slide124.JPG","null","","","","","",""
"html-keyboard-response","377","583507","0.0-7.0-1.43","FL","mvqchu948c","1366","768","0","1","0","5b421b9ac2e3810001763252","","null","","","learningBlock2","","","","That was a tob.","null","","","","","",""
"html-keyboard-response","378","584512","0.0-7.0-2.43","FL","mvqchu948c","1366","768","0","1","0","5b421b9ac2e3810001763252","","null","","","learningBlock2","","","","<div style=""font-size:60px;""> </div>","null","FL","learning/Slide124.JPG","That was a tob.","","",""
"image-keyboard-response","379","584691","0.0-7.0-0.44","FL","mvqchu948c","1366","768","0","1","0","5b421b9ac2e3810001763252","","null","","","","","","","learning/Slide125.JPG","null","","","","","",""
"html-keyboard-response","380","585846","0.0-7.0-1.44","FL","mvqchu948c","1366","768","0","1","0","5b421b9ac2e3810001763252","","null","","","learningBlock2","","","","That was a bim.","null","","","","","",""
"html-keyboard-response","381","586854","0.0-7.0-2.44","FL","mvqchu948c","1366","768","0","1","0","5b421b9ac2e3810001763252","","null","","","learningBlock2","","","","<div style=""font-size:60px;""> </div>","null","FL","learning/Slide125.JPG","That was a bim.","","",""
"image-keyboard-response","382","587034","0.0-7.0-0.45","FL","mvqchu948c","1366","768","0","1","0","5b421b9ac2e3810001763252","","null","","","","","","","learning/Slide126.JPG","null","","","","","",""
"html-keyboard-response","383","588188","0.0-7.0-1.45","FL","mvqchu948c","1366","768","0","1","0","5b421b9ac2e3810001763252","","null","","","learningBlock2","","","","That was a tob.","null","","","","","",""
"html-keyboard-response","384","589191","0.0-7.0-2.45","FL","mvqchu948c","1366","768","0","1","0","5b421b9ac2e3810001763252","","null","","","learningBlock2","","","","<div style=""font-size:60px;""> </div>","null","FL","learning/Slide126.JPG","That was a tob.","","",""
"image-keyboard-response","385","589371","0.0-7.0-0.46","FL","mvqchu948c","1366","768","0","1","0","5b421b9ac2e3810001763252","","null","","","","","","","learning/Slide127.JPG","null","","","","","",""
"html-keyboard-response","386","590526","0.0-7.0-1.46","FL","mvqchu948c","1366","768","0","1","0","5b421b9ac2e3810001763252","","null","","","learningBlock2","","","","That was a dep.","null","","","","","",""
"html-keyboard-response","387","591531","0.0-7.0-2.46","FL","mvqchu948c","1366","768","0","1","0","5b421b9ac2e3810001763252","","null","","","learningBlock2","","","","<div style=""font-size:60px;""> </div>","null","FL","learning/Slide127.JPG","That was a dep.","","",""
"image-keyboard-response","388","591713","0.0-7.0-0.47","FL","mvqchu948c","1366","768","0","1","0","5b421b9ac2e3810001763252","","null","","","","","","","learning/Slide128.JPG","null","","","","","",""
"html-keyboard-response","389","592868","0.0-7.0-1.47","FL","mvqchu948c","1366","768","0","1","0","5b421b9ac2e3810001763252","","null","","","learningBlock2","","","","That was a wug.","null","","","","","",""
"html-keyboard-response","390","593879","0.0-7.0-2.47","FL","mvqchu948c","1366","768","0","1","0","5b421b9ac2e3810001763252","","null","","","learningBlock2","","","","<div style=""font-size:60px;""> </div>","null","FL","learning/Slide128.JPG","That was a wug.","","",""
"image-keyboard-response","391","594059","0.0-7.0-0.48","FL","mvqchu948c","1366","768","0","1","0","5b421b9ac2e3810001763252","","null","","","","","","","learning/Slide129.JPG","null","","","","","",""
"html-keyboard-response","392","595212","0.0-7.0-1.48","FL","mvqchu948c","1366","768","0","1","0","5b421b9ac2e3810001763252","","null","","","learningBlock2","","","","That was a tob.","null","","","","","",""
"html-keyboard-response","393","596217","0.0-7.0-2.48","FL","mvqchu948c","1366","768","0","1","0","5b421b9ac2e3810001763252","","null","","","learningBlock2","","","","<div style=""font-size:60px;""> </div>","null","FL","learning/Slide129.JPG","That was a tob.","","",""
"image-keyboard-response","394","596397","0.0-7.0-0.49","FL","mvqchu948c","1366","768","0","1","0","5b421b9ac2e3810001763252","","null","","","","","","","learning/Slide130.JPG","null","","","","","",""
"html-keyboard-response","395","597552","0.0-7.0-1.49","FL","mvqchu948c","1366","768","0","1","0","5b421b9ac2e3810001763252","","null","","","learningBlock2","","","","That was a wug.","null","","","","","",""
"html-keyboard-response","396","598558","0.0-7.0-2.49","FL","mvqchu948c","1366","768","0","1","0","5b421b9ac2e3810001763252","","null","","","learningBlock2","","","","<div style=""font-size:60px;""> </div>","null","FL","learning/Slide130.JPG","That was a wug.","","",""
"image-keyboard-response","397","598735","0.0-7.0-0.50","FL","mvqchu948c","1366","768","0","1","0","5b421b9ac2e3810001763252","","null","","","","","","","learning/Slide131.JPG","null","","","","","",""
"html-keyboard-response","398","599892","0.0-7.0-1.50","FL","mvqchu948c","1366","768","0","1","0","5b421b9ac2e3810001763252","","null","","","learningBlock2","","","","That was a bim.","null","","","","","",""
"html-keyboard-response","399","600898","0.0-7.0-2.50","FL","mvqchu948c","1366","768","0","1","0","5b421b9ac2e3810001763252","","null","","","learningBlock2","","","","<div style=""font-size:60px;""> </div>","null","FL","learning/Slide131.JPG","That was a bim.","","",""
"image-keyboard-response","400","601078","0.0-7.0-0.51","FL","mvqchu948c","1366","768","0","1","0","5b421b9ac2e3810001763252","","null","","","","","","","learning/Slide132.JPG","null","","","","","",""
"html-keyboard-response","401","602233","0.0-7.0-1.51","FL","mvqchu948c","1366","768","0","1","0","5b421b9ac2e3810001763252","","null","","","learningBlock2","","","","That was a dep.","null","","","","","",""
"html-keyboard-response","402","603241","0.0-7.0-2.51","FL","mvqchu948c","1366","768","0","1","0","5b421b9ac2e3810001763252","","null","","","learningBlock2","","","","<div style=""font-size:60px;""> </div>","null","FL","learning/Slide132.JPG","That was a dep.","","",""
"image-keyboard-response","403","603426","0.0-7.0-0.52","FL","mvqchu948c","1366","768","0","1","0","5b421b9ac2e3810001763252","","null","","","","","","","learning/Slide133.JPG","null","","","","","",""
"html-keyboard-response","404","604607","0.0-7.0-1.52","FL","mvqchu948c","1366","768","0","1","0","5b421b9ac2e3810001763252","","null","","","learningBlock2","","","","That was a tob.","null","","","","","",""
"html-keyboard-response","405","605628","0.0-7.0-2.52","FL","mvqchu948c","1366","768","0","1","0","5b421b9ac2e3810001763252","","null","","","learningBlock2","","","","<div style=""font-size:60px;""> </div>","null","FL","learning/Slide133.JPG","That was a tob.","","",""
"image-keyboard-response","406","605817","0.0-7.0-0.53","FL","mvqchu948c","1366","768","0","1","0","5b421b9ac2e3810001763252","","null","","","","","","","learning/Slide134.JPG","null","","","","","",""
"html-keyboard-response","407","606971","0.0-7.0-1.53","FL","mvqchu948c","1366","768","0","1","0","5b421b9ac2e3810001763252","","null","","","learningBlock2","","","","That was a dep.","null","","","","","",""
"html-keyboard-response","408","607975","0.0-7.0-2.53","FL","mvqchu948c","1366","768","0","1","0","5b421b9ac2e3810001763252","","null","","","learningBlock2","","","","<div style=""font-size:60px;""> </div>","null","FL","learning/Slide134.JPG","That was a dep.","","",""
"image-keyboard-response","409","608154","0.0-7.0-0.54","FL","mvqchu948c","1366","768","0","1","0","5b421b9ac2e3810001763252","","null","","","","","","","learning/Slide135.JPG","null","","","","","",""
"html-keyboard-response","410","609311","0.0-7.0-1.54","FL","mvqchu948c","1366","768","0","1","0","5b421b9ac2e3810001763252","","null","","","learningBlock2","","","","That was a tob.","null","","","","","",""
"html-keyboard-response","411","610316","0.0-7.0-2.54","FL","mvqchu948c","1366","768","0","1","0","5b421b9ac2e3810001763252","","null","","","learningBlock2","","","","<div style=""font-size:60px;""> </div>","null","FL","learning/Slide135.JPG","That was a tob.","","",""
"image-keyboard-response","412","610495","0.0-7.0-0.55","FL","mvqchu948c","1366","768","0","1","0","5b421b9ac2e3810001763252","","null","","","","","","","learning/Slide136.JPG","null","","","","","",""
"html-keyboard-response","413","611651","0.0-7.0-1.55","FL","mvqchu948c","1366","768","0","1","0","5b421b9ac2e3810001763252","","null","","","learningBlock2","","","","That was a wug.","null","","","","","",""
"html-keyboard-response","414","612657","0.0-7.0-2.55","FL","mvqchu948c","1366","768","0","1","0","5b421b9ac2e3810001763252","","null","","","learningBlock2","","","","<div style=""font-size:60px;""> </div>","null","FL","learning/Slide136.JPG","That was a wug.","","",""
"image-keyboard-response","415","612834","0.0-7.0-0.56","FL","mvqchu948c","1366","768","0","1","0","5b421b9ac2e3810001763252","","null","","","","","","","learning/Slide137.JPG","null","","","","","",""
"html-keyboard-response","416","613988","0.0-7.0-1.56","FL","mvqchu948c","1366","768","0","1","0","5b421b9ac2e3810001763252","","null","","","learningBlock2","","","","That was a tob.","null","","","","","",""
"html-keyboard-response","417","614992","0.0-7.0-2.56","FL","mvqchu948c","1366","768","0","1","0","5b421b9ac2e3810001763252","","null","","","learningBlock2","","","","<div style=""font-size:60px;""> </div>","null","FL","learning/Slide137.JPG","That was a tob.","","",""
"image-keyboard-response","418","615170","0.0-7.0-0.57","FL","mvqchu948c","1366","768","0","1","0","5b421b9ac2e3810001763252","","null","","","","","","","learning/Slide138.JPG","null","","","","","",""
"html-keyboard-response","419","616325","0.0-7.0-1.57","FL","mvqchu948c","1366","768","0","1","0","5b421b9ac2e3810001763252","","null","","","learningBlock2","","","","That was a bim.","null","","","","","",""
"html-keyboard-response","420","617329","0.0-7.0-2.57","FL","mvqchu948c","1366","768","0","1","0","5b421b9ac2e3810001763252","","null","","","learningBlock2","","","","<div style=""font-size:60px;""> </div>","null","FL","learning/Slide138.JPG","That was a bim.","","",""
"image-keyboard-response","421","617507","0.0-7.0-0.58","FL","mvqchu948c","1366","768","0","1","0","5b421b9ac2e3810001763252","","null","","","","","","","learning/Slide139.JPG","null","","","","","",""
"html-keyboard-response","422","618662","0.0-7.0-1.58","FL","mvqchu948c","1366","768","0","1","0","5b421b9ac2e3810001763252","","null","","","learningBlock2","","","","That was a wug.","null","","","","","",""
"html-keyboard-response","423","619668","0.0-7.0-2.58","FL","mvqchu948c","1366","768","0","1","0","5b421b9ac2e3810001763252","","null","","","learningBlock2","","","","<div style=""font-size:60px;""> </div>","null","FL","learning/Slide139.JPG","That was a wug.","","",""
"image-keyboard-response","424","619845","0.0-7.0-0.59","FL","mvqchu948c","1366","768","0","1","0","5b421b9ac2e3810001763252","","null","","","","","","","learning/Slide140.JPG","null","","","","","",""
"html-keyboard-response","425","621004","0.0-7.0-1.59","FL","mvqchu948c","1366","768","0","1","0","5b421b9ac2e3810001763252","","null","","","learningBlock2","","","","That was a dep.","null","","","","","",""
"html-keyboard-response","426","622009","0.0-7.0-2.59","FL","mvqchu948c","1366","768","0","1","0","5b421b9ac2e3810001763252","","null","","","learningBlock2","","","","<div style=""font-size:60px;""> </div>","null","FL","learning/Slide140.JPG","That was a dep.","","",""
"image-keyboard-response","427","622188","0.0-7.0-0.60","FL","mvqchu948c","1366","768","0","1","0","5b421b9ac2e3810001763252","","null","","","","","","","learning/Slide141.JPG","null","","","","","",""
"html-keyboard-response","428","623344","0.0-7.0-1.60","FL","mvqchu948c","1366","768","0","1","0","5b421b9ac2e3810001763252","","null","","","learningBlock2","","","","That was a tob.","null","","","","","",""
"html-keyboard-response","429","624349","0.0-7.0-2.60","FL","mvqchu948c","1366","768","0","1","0","5b421b9ac2e3810001763252","","null","","","learningBlock2","","","","<div style=""font-size:60px;""> </div>","null","FL","learning/Slide141.JPG","That was a tob.","","",""
"image-keyboard-response","430","624534","0.0-7.0-0.61","FL","mvqchu948c","1366","768","0","1","0","5b421b9ac2e3810001763252","","null","","","","","","","learning/Slide142.JPG","null","","","","","",""
"html-keyboard-response","431","625691","0.0-7.0-1.61","FL","mvqchu948c","1366","768","0","1","0","5b421b9ac2e3810001763252","","null","","","learningBlock2","","","","That was a wug.","null","","","","","",""
"html-keyboard-response","432","626696","0.0-7.0-2.61","FL","mvqchu948c","1366","768","0","1","0","5b421b9ac2e3810001763252","","null","","","learningBlock2","","","","<div style=""font-size:60px;""> </div>","null","FL","learning/Slide142.JPG","That was a wug.","","",""
"image-keyboard-response","433","626875","0.0-7.0-0.62","FL","mvqchu948c","1366","768","0","1","0","5b421b9ac2e3810001763252","","null","","","","","","","learning/Slide143.JPG","null","","","","","",""
"html-keyboard-response","434","628028","0.0-7.0-1.62","FL","mvqchu948c","1366","768","0","1","0","5b421b9ac2e3810001763252","","null","","","learningBlock2","","","","That was a bim.","null","","","","","",""
"html-keyboard-response","435","629037","0.0-7.0-2.62","FL","mvqchu948c","1366","768","0","1","0","5b421b9ac2e3810001763252","","null","","","learningBlock2","","","","<div style=""font-size:60px;""> </div>","null","FL","learning/Slide143.JPG","That was a bim.","","",""
"image-keyboard-response","436","629218","0.0-7.0-0.63","FL","mvqchu948c","1366","768","0","1","0","5b421b9ac2e3810001763252","","null","","","","","","","learning/Slide144.JPG","null","","","","","",""
