"trial_type","trial_index","time_elapsed","internal_node_id","condition","subject","screen_width","screen_height","attention","distraction","conscientious","prolificID","success","rt","url","view_history","test_part","final_height_px","final_width_px","scale_factor","stimulus","key_press","learningType","presentedImage","presentedLabel","button_pressed","response","responses"
"pavlovia","0","13","0.0-0.0","FL","rhglzajksw","1920","1080","0","1","0","5ea98f445ef6ee093f4f05ec","","","","","","","","","","","","","","","",""
"fullscreen","1","4869","0.0-1.0","FL","rhglzajksw","1920","1080","0","1","0","5ea98f445ef6ee093f4f05ec","true","","","","","","","","","","","","","","",""
"external-html","2","28209","0.0-2.0-0.0","FL","rhglzajksw","1920","1080","0","1","0","5ea98f445ef6ee093f4f05ec","","23302.20000000554","text/information_english.html","","","","","","","","","","","","",""
"external-html","3","74343","0.0-2.0-1.0","FL","rhglzajksw","1920","1080","0","1","0","5ea98f445ef6ee093f4f05ec","","46088.95500001381","text/consent_english.html","","","","","","","","","","","","",""
"instructions","4","94753","0.0-3.0","FL","rhglzajksw","1920","1080","0","1","0","5ea98f445ef6ee093f4f05ec","","NA","","[{""page_index"":0,""viewing_time"":5026.249999995343},{""page_index"":1,""viewing_time"":15376.61500001559}]","instructions","","","","","","","","","","",""
"resize","5","110142","0.0-4.0","FL","rhglzajksw","1920","1080","0","1","0","5ea98f445ef6ee093f4f05ec","","","","","","","378","2.4","","","","","","","",""
"image-keyboard-response","6","110323","0.0-5.0-0.0","FL","rhglzajksw","1920","1080","0","1","0","5ea98f445ef6ee093f4f05ec","","null","","","","","","","learning/Slide1.JPG","null","","","","","",""
"html-keyboard-response","7","111483","0.0-5.0-1.0","FL","rhglzajksw","1920","1080","0","1","0","5ea98f445ef6ee093f4f05ec","","null","","","learningBlock1","","","","That was a tob.","null","","","","","",""
"html-keyboard-response","8","112496","0.0-5.0-2.0","FL","rhglzajksw","1920","1080","0","1","0","5ea98f445ef6ee093f4f05ec","","null","","","learningBlock1","","","","<div style=""font-size:60px;""> </div>","null","FL","learning/Slide1.JPG","That was a tob.","","",""
"image-keyboard-response","9","112681","0.0-5.0-0.1","FL","rhglzajksw","1920","1080","0","1","0","5ea98f445ef6ee093f4f05ec","","null","","","","","","","learning/Slide2.JPG","null","","","","","",""
"html-keyboard-response","10","113839","0.0-5.0-1.1","FL","rhglzajksw","1920","1080","0","1","0","5ea98f445ef6ee093f4f05ec","","null","","","learningBlock1","","","","That was a wug.","null","","","","","",""
"html-keyboard-response","11","114850","0.0-5.0-2.1","FL","rhglzajksw","1920","1080","0","1","0","5ea98f445ef6ee093f4f05ec","","null","","","learningBlock1","","","","<div style=""font-size:60px;""> </div>","null","FL","learning/Slide2.JPG","That was a wug.","","",""
"image-keyboard-response","12","115036","0.0-5.0-0.2","FL","rhglzajksw","1920","1080","0","1","0","5ea98f445ef6ee093f4f05ec","","null","","","","","","","learning/Slide3.JPG","null","","","","","",""
"html-keyboard-response","13","116198","0.0-5.0-1.2","FL","rhglzajksw","1920","1080","0","1","0","5ea98f445ef6ee093f4f05ec","","null","","","learningBlock1","","","","That was a bim.","null","","","","","",""
"html-keyboard-response","14","117207","0.0-5.0-2.2","FL","rhglzajksw","1920","1080","0","1","0","5ea98f445ef6ee093f4f05ec","","null","","","learningBlock1","","","","<div style=""font-size:60px;""> </div>","null","FL","learning/Slide3.JPG","That was a bim.","","",""
"image-keyboard-response","15","117384","0.0-5.0-0.3","FL","rhglzajksw","1920","1080","0","1","0","5ea98f445ef6ee093f4f05ec","","null","","","","","","","learning/Slide4.JPG","null","","","","","",""
"html-keyboard-response","16","118552","0.0-5.0-1.3","FL","rhglzajksw","1920","1080","0","1","0","5ea98f445ef6ee093f4f05ec","","null","","","learningBlock1","","","","That was a dep.","null","","","","","",""
"html-keyboard-response","17","119563","0.0-5.0-2.3","FL","rhglzajksw","1920","1080","0","1","0","5ea98f445ef6ee093f4f05ec","","null","","","learningBlock1","","","","<div style=""font-size:60px;""> </div>","null","FL","learning/Slide4.JPG","That was a dep.","","",""
"image-keyboard-response","18","119740","0.0-5.0-0.4","FL","rhglzajksw","1920","1080","0","1","0","5ea98f445ef6ee093f4f05ec","","null","","","","","","","learning/Slide5.JPG","null","","","","","",""
"html-keyboard-response","19","120906","0.0-5.0-1.4","FL","rhglzajksw","1920","1080","0","1","0","5ea98f445ef6ee093f4f05ec","","null","","","learningBlock1","","","","That was a wug.","null","","","","","",""
"html-keyboard-response","20","121914","0.0-5.0-2.4","FL","rhglzajksw","1920","1080","0","1","0","5ea98f445ef6ee093f4f05ec","","null","","","learningBlock1","","","","<div style=""font-size:60px;""> </div>","null","FL","learning/Slide5.JPG","That was a wug.","","",""
"image-keyboard-response","21","122102","0.0-5.0-0.5","FL","rhglzajksw","1920","1080","0","1","0","5ea98f445ef6ee093f4f05ec","","null","","","","","","","learning/Slide6.JPG","null","","","","","",""
"html-keyboard-response","22","123265","0.0-5.0-1.5","FL","rhglzajksw","1920","1080","0","1","0","5ea98f445ef6ee093f4f05ec","","null","","","learningBlock1","","","","That was a dep.","null","","","","","",""
"html-keyboard-response","23","124272","0.0-5.0-2.5","FL","rhglzajksw","1920","1080","0","1","0","5ea98f445ef6ee093f4f05ec","","null","","","learningBlock1","","","","<div style=""font-size:60px;""> </div>","null","FL","learning/Slide6.JPG","That was a dep.","","",""
"image-keyboard-response","24","124449","0.0-5.0-0.6","FL","rhglzajksw","1920","1080","0","1","0","5ea98f445ef6ee093f4f05ec","","null","","","","","","","learning/Slide7.JPG","null","","","","","",""
"html-keyboard-response","25","125611","0.0-5.0-1.6","FL","rhglzajksw","1920","1080","0","1","0","5ea98f445ef6ee093f4f05ec","","null","","","learningBlock1","","","","That was a wug.","null","","","","","",""
"html-keyboard-response","26","126617","0.0-5.0-2.6","FL","rhglzajksw","1920","1080","0","1","0","5ea98f445ef6ee093f4f05ec","","null","","","learningBlock1","","","","<div style=""font-size:60px;""> </div>","null","FL","learning/Slide7.JPG","That was a wug.","","",""
"image-keyboard-response","27","126803","0.0-5.0-0.7","FL","rhglzajksw","1920","1080","0","1","0","5ea98f445ef6ee093f4f05ec","","null","","","","","","","learning/Slide8.JPG","null","","","","","",""
"html-keyboard-response","28","127955","0.0-5.0-1.7","FL","rhglzajksw","1920","1080","0","1","0","5ea98f445ef6ee093f4f05ec","","null","","","learningBlock1","","","","That was a bim.","null","","","","","",""
"html-keyboard-response","29","128969","0.0-5.0-2.7","FL","rhglzajksw","1920","1080","0","1","0","5ea98f445ef6ee093f4f05ec","","null","","","learningBlock1","","","","<div style=""font-size:60px;""> </div>","null","FL","learning/Slide8.JPG","That was a bim.","","",""
"image-keyboard-response","30","129155","0.0-5.0-0.8","FL","rhglzajksw","1920","1080","0","1","0","5ea98f445ef6ee093f4f05ec","","null","","","","","","","learning/Slide9.JPG","null","","","","","",""
"html-keyboard-response","31","130318","0.0-5.0-1.8","FL","rhglzajksw","1920","1080","0","1","0","5ea98f445ef6ee093f4f05ec","","null","","","learningBlock1","","","","That was a wug.","null","","","","","",""
"html-keyboard-response","32","131327","0.0-5.0-2.8","FL","rhglzajksw","1920","1080","0","1","0","5ea98f445ef6ee093f4f05ec","","null","","","learningBlock1","","","","<div style=""font-size:60px;""> </div>","null","FL","learning/Slide9.JPG","That was a wug.","","",""
"image-keyboard-response","33","131503","0.0-5.0-0.9","FL","rhglzajksw","1920","1080","0","1","0","5ea98f445ef6ee093f4f05ec","","null","","","","","","","learning/Slide10.JPG","null","","","","","",""
"html-keyboard-response","34","132670","0.0-5.0-1.9","FL","rhglzajksw","1920","1080","0","1","0","5ea98f445ef6ee093f4f05ec","","null","","","learningBlock1","","","","That was a dep.","null","","","","","",""
"html-keyboard-response","35","133675","0.0-5.0-2.9","FL","rhglzajksw","1920","1080","0","1","0","5ea98f445ef6ee093f4f05ec","","null","","","learningBlock1","","","","<div style=""font-size:60px;""> </div>","null","FL","learning/Slide10.JPG","That was a dep.","","",""
"image-keyboard-response","36","133860","0.0-5.0-0.10","FL","rhglzajksw","1920","1080","0","1","0","5ea98f445ef6ee093f4f05ec","","null","","","","","","","learning/Slide11.JPG","null","","","","","",""
"html-keyboard-response","37","135023","0.0-5.0-1.10","FL","rhglzajksw","1920","1080","0","1","0","5ea98f445ef6ee093f4f05ec","","null","","","learningBlock1","","","","That was a tob.","null","","","","","",""
"html-keyboard-response","38","136028","0.0-5.0-2.10","FL","rhglzajksw","1920","1080","0","1","0","5ea98f445ef6ee093f4f05ec","","null","","","learningBlock1","","","","<div style=""font-size:60px;""> </div>","null","FL","learning/Slide11.JPG","That was a tob.","","",""
"image-keyboard-response","39","136205","0.0-5.0-0.11","FL","rhglzajksw","1920","1080","0","1","0","5ea98f445ef6ee093f4f05ec","","null","","","","","","","learning/Slide12.JPG","null","","","","","",""
"html-keyboard-response","40","137378","0.0-5.0-1.11","FL","rhglzajksw","1920","1080","0","1","0","5ea98f445ef6ee093f4f05ec","","null","","","learningBlock1","","","","That was a dep.","null","","","","","",""
"html-keyboard-response","41","138387","0.0-5.0-2.11","FL","rhglzajksw","1920","1080","0","1","0","5ea98f445ef6ee093f4f05ec","","null","","","learningBlock1","","","","<div style=""font-size:60px;""> </div>","null","FL","learning/Slide12.JPG","That was a dep.","","",""
"image-keyboard-response","42","138573","0.0-5.0-0.12","FL","rhglzajksw","1920","1080","0","1","0","5ea98f445ef6ee093f4f05ec","","null","","","","","","","learning/Slide13.JPG","null","","","","","",""
"html-keyboard-response","43","139738","0.0-5.0-1.12","FL","rhglzajksw","1920","1080","0","1","0","5ea98f445ef6ee093f4f05ec","","null","","","learningBlock1","","","","That was a bim.","null","","","","","",""
"html-keyboard-response","44","140746","0.0-5.0-2.12","FL","rhglzajksw","1920","1080","0","1","0","5ea98f445ef6ee093f4f05ec","","null","","","learningBlock1","","","","<div style=""font-size:60px;""> </div>","null","FL","learning/Slide13.JPG","That was a bim.","","",""
"image-keyboard-response","45","140923","0.0-5.0-0.13","FL","rhglzajksw","1920","1080","0","1","0","5ea98f445ef6ee093f4f05ec","","null","","","","","","","learning/Slide14.JPG","null","","","","","",""
"html-keyboard-response","46","142095","0.0-5.0-1.13","FL","rhglzajksw","1920","1080","0","1","0","5ea98f445ef6ee093f4f05ec","","null","","","learningBlock1","","","","That was a wug.","null","","","","","",""
"html-keyboard-response","47","143104","0.0-5.0-2.13","FL","rhglzajksw","1920","1080","0","1","0","5ea98f445ef6ee093f4f05ec","","null","","","learningBlock1","","","","<div style=""font-size:60px;""> </div>","null","FL","learning/Slide14.JPG","That was a wug.","","",""
"image-keyboard-response","48","143280","0.0-5.0-0.14","FL","rhglzajksw","1920","1080","0","1","0","5ea98f445ef6ee093f4f05ec","","null","","","","","","","learning/Slide15.JPG","null","","","","","",""
"html-keyboard-response","49","144457","0.0-5.0-1.14","FL","rhglzajksw","1920","1080","0","1","0","5ea98f445ef6ee093f4f05ec","","null","","","learningBlock1","","","","That was a tob.","null","","","","","",""
"html-keyboard-response","50","145466","0.0-5.0-2.14","FL","rhglzajksw","1920","1080","0","1","0","5ea98f445ef6ee093f4f05ec","","null","","","learningBlock1","","","","<div style=""font-size:60px;""> </div>","null","FL","learning/Slide15.JPG","That was a tob.","","",""
"image-keyboard-response","51","145652","0.0-5.0-0.15","FL","rhglzajksw","1920","1080","0","1","0","5ea98f445ef6ee093f4f05ec","","null","","","","","","","learning/Slide16.JPG","null","","","","","",""
"html-keyboard-response","52","146814","0.0-5.0-1.15","FL","rhglzajksw","1920","1080","0","1","0","5ea98f445ef6ee093f4f05ec","","null","","","learningBlock1","","","","That was a dep.","null","","","","","",""
"html-keyboard-response","53","147824","0.0-5.0-2.15","FL","rhglzajksw","1920","1080","0","1","0","5ea98f445ef6ee093f4f05ec","","null","","","learningBlock1","","","","<div style=""font-size:60px;""> </div>","null","FL","learning/Slide16.JPG","That was a dep.","","",""
"image-keyboard-response","54","148001","0.0-5.0-0.16","FL","rhglzajksw","1920","1080","0","1","0","5ea98f445ef6ee093f4f05ec","","null","","","","","","","learning/Slide17.JPG","null","","","","","",""
"html-keyboard-response","55","149154","0.0-5.0-1.16","FL","rhglzajksw","1920","1080","0","1","0","5ea98f445ef6ee093f4f05ec","","null","","","learningBlock1","","","","That was a bim.","null","","","","","",""
"html-keyboard-response","56","150155","0.0-5.0-2.16","FL","rhglzajksw","1920","1080","0","1","0","5ea98f445ef6ee093f4f05ec","","null","","","learningBlock1","","","","<div style=""font-size:60px;""> </div>","null","FL","learning/Slide17.JPG","That was a bim.","","",""
"image-keyboard-response","57","150347","0.0-5.0-0.17","FL","rhglzajksw","1920","1080","0","1","0","5ea98f445ef6ee093f4f05ec","","null","","","","","","","learning/Slide18.JPG","null","","","","","",""
"html-keyboard-response","58","151502","0.0-5.0-1.17","FL","rhglzajksw","1920","1080","0","1","0","5ea98f445ef6ee093f4f05ec","","null","","","learningBlock1","","","","That was a tob.","null","","","","","",""
"html-keyboard-response","59","152507","0.0-5.0-2.17","FL","rhglzajksw","1920","1080","0","1","0","5ea98f445ef6ee093f4f05ec","","null","","","learningBlock1","","","","<div style=""font-size:60px;""> </div>","null","FL","learning/Slide18.JPG","That was a tob.","","",""
"image-keyboard-response","60","152692","0.0-5.0-0.18","FL","rhglzajksw","1920","1080","0","1","0","5ea98f445ef6ee093f4f05ec","","null","","","","","","","learning/Slide19.JPG","null","","","","","",""
"html-keyboard-response","61","153856","0.0-5.0-1.18","FL","rhglzajksw","1920","1080","0","1","0","5ea98f445ef6ee093f4f05ec","","null","","","learningBlock1","","","","That was a wug.","null","","","","","",""
"html-keyboard-response","62","154867","0.0-5.0-2.18","FL","rhglzajksw","1920","1080","0","1","0","5ea98f445ef6ee093f4f05ec","","null","","","learningBlock1","","","","<div style=""font-size:60px;""> </div>","null","FL","learning/Slide19.JPG","That was a wug.","","",""
"image-keyboard-response","63","155053","0.0-5.0-0.19","FL","rhglzajksw","1920","1080","0","1","0","5ea98f445ef6ee093f4f05ec","","null","","","","","","","learning/Slide20.JPG","null","","","","","",""
"html-keyboard-response","64","156217","0.0-5.0-1.19","FL","rhglzajksw","1920","1080","0","1","0","5ea98f445ef6ee093f4f05ec","","null","","","learningBlock1","","","","That was a bim.","null","","","","","",""
"html-keyboard-response","65","157218","0.0-5.0-2.19","FL","rhglzajksw","1920","1080","0","1","0","5ea98f445ef6ee093f4f05ec","","null","","","learningBlock1","","","","<div style=""font-size:60px;""> </div>","null","FL","learning/Slide20.JPG","That was a bim.","","",""
"image-keyboard-response","66","157396","0.0-5.0-0.20","FL","rhglzajksw","1920","1080","0","1","0","5ea98f445ef6ee093f4f05ec","","null","","","","","","","learning/Slide21.JPG","null","","","","","",""
"html-keyboard-response","67","158560","0.0-5.0-1.20","FL","rhglzajksw","1920","1080","0","1","0","5ea98f445ef6ee093f4f05ec","","null","","","learningBlock1","","","","That was a dep.","null","","","","","",""
"html-keyboard-response","68","159566","0.0-5.0-2.20","FL","rhglzajksw","1920","1080","0","1","0","5ea98f445ef6ee093f4f05ec","","null","","","learningBlock1","","","","<div style=""font-size:60px;""> </div>","null","FL","learning/Slide21.JPG","That was a dep.","","",""
"image-keyboard-response","69","159743","0.0-5.0-0.21","FL","rhglzajksw","1920","1080","0","1","0","5ea98f445ef6ee093f4f05ec","","null","","","","","","","learning/Slide22.JPG","null","","","","","",""
"html-keyboard-response","70","160904","0.0-5.0-1.21","FL","rhglzajksw","1920","1080","0","1","0","5ea98f445ef6ee093f4f05ec","","null","","","learningBlock1","","","","That was a bim.","null","","","","","",""
"html-keyboard-response","71","161914","0.0-5.0-2.21","FL","rhglzajksw","1920","1080","0","1","0","5ea98f445ef6ee093f4f05ec","","null","","","learningBlock1","","","","<div style=""font-size:60px;""> </div>","null","FL","learning/Slide22.JPG","That was a bim.","","",""
"image-keyboard-response","72","162091","0.0-5.0-0.22","FL","rhglzajksw","1920","1080","0","1","0","5ea98f445ef6ee093f4f05ec","","null","","","","","","","learning/Slide23.JPG","null","","","","","",""
"html-keyboard-response","73","163247","0.0-5.0-1.22","FL","rhglzajksw","1920","1080","0","1","0","5ea98f445ef6ee093f4f05ec","","null","","","learningBlock1","","","","That was a tob.","null","","","","","",""
"html-keyboard-response","74","164253","0.0-5.0-2.22","FL","rhglzajksw","1920","1080","0","1","0","5ea98f445ef6ee093f4f05ec","","null","","","learningBlock1","","","","<div style=""font-size:60px;""> </div>","null","FL","learning/Slide23.JPG","That was a tob.","","",""
"image-keyboard-response","75","164439","0.0-5.0-0.23","FL","rhglzajksw","1920","1080","0","1","0","5ea98f445ef6ee093f4f05ec","","null","","","","","","","learning/Slide24.JPG","null","","","","","",""
"html-keyboard-response","76","165599","0.0-5.0-1.23","FL","rhglzajksw","1920","1080","0","1","0","5ea98f445ef6ee093f4f05ec","","null","","","learningBlock1","","","","That was a wug.","null","","","","","",""
"html-keyboard-response","77","166606","0.0-5.0-2.23","FL","rhglzajksw","1920","1080","0","1","0","5ea98f445ef6ee093f4f05ec","","null","","","learningBlock1","","","","<div style=""font-size:60px;""> </div>","null","FL","learning/Slide24.JPG","That was a wug.","","",""
"image-keyboard-response","78","166782","0.0-5.0-0.24","FL","rhglzajksw","1920","1080","0","1","0","5ea98f445ef6ee093f4f05ec","","null","","","","","","","learning/Slide25.JPG","null","","","","","",""
"html-keyboard-response","79","167957","0.0-5.0-1.24","FL","rhglzajksw","1920","1080","0","1","0","5ea98f445ef6ee093f4f05ec","","null","","","learningBlock1","","","","That was a dep.","null","","","","","",""
"html-keyboard-response","80","168966","0.0-5.0-2.24","FL","rhglzajksw","1920","1080","0","1","0","5ea98f445ef6ee093f4f05ec","","null","","","learningBlock1","","","","<div style=""font-size:60px;""> </div>","null","FL","learning/Slide25.JPG","That was a dep.","","",""
"image-keyboard-response","81","169152","0.0-5.0-0.25","FL","rhglzajksw","1920","1080","0","1","0","5ea98f445ef6ee093f4f05ec","","null","","","","","","","learning/Slide26.JPG","null","","","","","",""
"html-keyboard-response","82","170328","0.0-5.0-1.25","FL","rhglzajksw","1920","1080","0","1","0","5ea98f445ef6ee093f4f05ec","","null","","","learningBlock1","","","","That was a wug.","null","","","","","",""
"html-keyboard-response","83","171329","0.0-5.0-2.25","FL","rhglzajksw","1920","1080","0","1","0","5ea98f445ef6ee093f4f05ec","","null","","","learningBlock1","","","","<div style=""font-size:60px;""> </div>","null","FL","learning/Slide26.JPG","That was a wug.","","",""
"image-keyboard-response","84","171506","0.0-5.0-0.26","FL","rhglzajksw","1920","1080","0","1","0","5ea98f445ef6ee093f4f05ec","","null","","","","","","","learning/Slide27.JPG","null","","","","","",""
"html-keyboard-response","85","172683","0.0-5.0-1.26","FL","rhglzajksw","1920","1080","0","1","0","5ea98f445ef6ee093f4f05ec","","null","","","learningBlock1","","","","That was a bim.","null","","","","","",""
"html-keyboard-response","86","173691","0.0-5.0-2.26","FL","rhglzajksw","1920","1080","0","1","0","5ea98f445ef6ee093f4f05ec","","null","","","learningBlock1","","","","<div style=""font-size:60px;""> </div>","null","FL","learning/Slide27.JPG","That was a bim.","","",""
"image-keyboard-response","87","173878","0.0-5.0-0.27","FL","rhglzajksw","1920","1080","0","1","0","5ea98f445ef6ee093f4f05ec","","null","","","","","","","learning/Slide28.JPG","null","","","","","",""
"html-keyboard-response","88","175042","0.0-5.0-1.27","FL","rhglzajksw","1920","1080","0","1","0","5ea98f445ef6ee093f4f05ec","","null","","","learningBlock1","","","","That was a dep.","null","","","","","",""
"html-keyboard-response","89","176050","0.0-5.0-2.27","FL","rhglzajksw","1920","1080","0","1","0","5ea98f445ef6ee093f4f05ec","","null","","","learningBlock1","","","","<div style=""font-size:60px;""> </div>","null","FL","learning/Slide28.JPG","That was a dep.","","",""
"image-keyboard-response","90","176237","0.0-5.0-0.28","FL","rhglzajksw","1920","1080","0","1","0","5ea98f445ef6ee093f4f05ec","","null","","","","","","","learning/Slide29.JPG","null","","","","","",""
"html-keyboard-response","91","177400","0.0-5.0-1.28","FL","rhglzajksw","1920","1080","0","1","0","5ea98f445ef6ee093f4f05ec","","null","","","learningBlock1","","","","That was a tob.","null","","","","","",""
"html-keyboard-response","92","178408","0.0-5.0-2.28","FL","rhglzajksw","1920","1080","0","1","0","5ea98f445ef6ee093f4f05ec","","null","","","learningBlock1","","","","<div style=""font-size:60px;""> </div>","null","FL","learning/Slide29.JPG","That was a tob.","","",""
"image-keyboard-response","93","178593","0.0-5.0-0.29","FL","rhglzajksw","1920","1080","0","1","0","5ea98f445ef6ee093f4f05ec","","null","","","","","","","learning/Slide30.JPG","null","","","","","",""
"html-keyboard-response","94","179753","0.0-5.0-1.29","FL","rhglzajksw","1920","1080","0","1","0","5ea98f445ef6ee093f4f05ec","","null","","","learningBlock1","","","","That was a dep.","null","","","","","",""
"html-keyboard-response","95","180758","0.0-5.0-2.29","FL","rhglzajksw","1920","1080","0","1","0","5ea98f445ef6ee093f4f05ec","","null","","","learningBlock1","","","","<div style=""font-size:60px;""> </div>","null","FL","learning/Slide30.JPG","That was a dep.","","",""
"image-keyboard-response","96","180945","0.0-5.0-0.30","FL","rhglzajksw","1920","1080","0","1","0","5ea98f445ef6ee093f4f05ec","","null","","","","","","","learning/Slide31.JPG","null","","","","","",""
"html-keyboard-response","97","182107","0.0-5.0-1.30","FL","rhglzajksw","1920","1080","0","1","0","5ea98f445ef6ee093f4f05ec","","null","","","learningBlock1","","","","That was a wug.","null","","","","","",""
"html-keyboard-response","98","183113","0.0-5.0-2.30","FL","rhglzajksw","1920","1080","0","1","0","5ea98f445ef6ee093f4f05ec","","null","","","learningBlock1","","","","<div style=""font-size:60px;""> </div>","null","FL","learning/Slide31.JPG","That was a wug.","","",""
"image-keyboard-response","99","183299","0.0-5.0-0.31","FL","rhglzajksw","1920","1080","0","1","0","5ea98f445ef6ee093f4f05ec","","null","","","","","","","learning/Slide32.JPG","null","","","","","",""
"html-keyboard-response","100","184462","0.0-5.0-1.31","FL","rhglzajksw","1920","1080","0","1","0","5ea98f445ef6ee093f4f05ec","","null","","","learningBlock1","","","","That was a tob.","null","","","","","",""
"html-keyboard-response","101","185470","0.0-5.0-2.31","FL","rhglzajksw","1920","1080","0","1","0","5ea98f445ef6ee093f4f05ec","","null","","","learningBlock1","","","","<div style=""font-size:60px;""> </div>","null","FL","learning/Slide32.JPG","That was a tob.","","",""
"image-keyboard-response","102","185647","0.0-5.0-0.32","FL","rhglzajksw","1920","1080","0","1","0","5ea98f445ef6ee093f4f05ec","","null","","","","","","","learning/Slide33.JPG","null","","","","","",""
"html-keyboard-response","103","186822","0.0-5.0-1.32","FL","rhglzajksw","1920","1080","0","1","0","5ea98f445ef6ee093f4f05ec","","null","","","learningBlock1","","","","That was a bim.","null","","","","","",""
"html-keyboard-response","104","187832","0.0-5.0-2.32","FL","rhglzajksw","1920","1080","0","1","0","5ea98f445ef6ee093f4f05ec","","null","","","learningBlock1","","","","<div style=""font-size:60px;""> </div>","null","FL","learning/Slide33.JPG","That was a bim.","","",""
"image-keyboard-response","105","188009","0.0-5.0-0.33","FL","rhglzajksw","1920","1080","0","1","0","5ea98f445ef6ee093f4f05ec","","null","","","","","","","learning/Slide34.JPG","null","","","","","",""
"html-keyboard-response","106","189163","0.0-5.0-1.33","FL","rhglzajksw","1920","1080","0","1","0","5ea98f445ef6ee093f4f05ec","","null","","","learningBlock1","","","","That was a tob.","null","","","","","",""
"html-keyboard-response","107","190177","0.0-5.0-2.33","FL","rhglzajksw","1920","1080","0","1","0","5ea98f445ef6ee093f4f05ec","","null","","","learningBlock1","","","","<div style=""font-size:60px;""> </div>","null","FL","learning/Slide34.JPG","That was a tob.","","",""
"image-keyboard-response","108","190354","0.0-5.0-0.34","FL","rhglzajksw","1920","1080","0","1","0","5ea98f445ef6ee093f4f05ec","","null","","","","","","","learning/Slide35.JPG","null","","","","","",""
"html-keyboard-response","109","191524","0.0-5.0-1.34","FL","rhglzajksw","1920","1080","0","1","0","5ea98f445ef6ee093f4f05ec","","null","","","learningBlock1","","","","That was a bim.","null","","","","","",""
"html-keyboard-response","110","192531","0.0-5.0-2.34","FL","rhglzajksw","1920","1080","0","1","0","5ea98f445ef6ee093f4f05ec","","null","","","learningBlock1","","","","<div style=""font-size:60px;""> </div>","null","FL","learning/Slide35.JPG","That was a bim.","","",""
"image-keyboard-response","111","192708","0.0-5.0-0.35","FL","rhglzajksw","1920","1080","0","1","0","5ea98f445ef6ee093f4f05ec","","null","","","","","","","learning/Slide36.JPG","null","","","","","",""
"html-keyboard-response","112","193877","0.0-5.0-1.35","FL","rhglzajksw","1920","1080","0","1","0","5ea98f445ef6ee093f4f05ec","","null","","","learningBlock1","","","","That was a dep.","null","","","","","",""
"html-keyboard-response","113","194886","0.0-5.0-2.35","FL","rhglzajksw","1920","1080","0","1","0","5ea98f445ef6ee093f4f05ec","","null","","","learningBlock1","","","","<div style=""font-size:60px;""> </div>","null","FL","learning/Slide36.JPG","That was a dep.","","",""
"image-keyboard-response","114","195072","0.0-5.0-0.36","FL","rhglzajksw","1920","1080","0","1","0","5ea98f445ef6ee093f4f05ec","","null","","","","","","","learning/Slide37.JPG","null","","","","","",""
"html-keyboard-response","115","196235","0.0-5.0-1.36","FL","rhglzajksw","1920","1080","0","1","0","5ea98f445ef6ee093f4f05ec","","null","","","learningBlock1","","","","That was a tob.","null","","","","","",""
"html-keyboard-response","116","197244","0.0-5.0-2.36","FL","rhglzajksw","1920","1080","0","1","0","5ea98f445ef6ee093f4f05ec","","null","","","learningBlock1","","","","<div style=""font-size:60px;""> </div>","null","FL","learning/Slide37.JPG","That was a tob.","","",""
"image-keyboard-response","117","197420","0.0-5.0-0.37","FL","rhglzajksw","1920","1080","0","1","0","5ea98f445ef6ee093f4f05ec","","null","","","","","","","learning/Slide38.JPG","null","","","","","",""
"html-keyboard-response","118","198592","0.0-5.0-1.37","FL","rhglzajksw","1920","1080","0","1","0","5ea98f445ef6ee093f4f05ec","","null","","","learningBlock1","","","","That was a wug.","null","","","","","",""
"html-keyboard-response","119","199600","0.0-5.0-2.37","FL","rhglzajksw","1920","1080","0","1","0","5ea98f445ef6ee093f4f05ec","","null","","","learningBlock1","","","","<div style=""font-size:60px;""> </div>","null","FL","learning/Slide38.JPG","That was a wug.","","",""
"image-keyboard-response","120","199786","0.0-5.0-0.38","FL","rhglzajksw","1920","1080","0","1","0","5ea98f445ef6ee093f4f05ec","","null","","","","","","","learning/Slide39.JPG","null","","","","","",""
"html-keyboard-response","121","200946","0.0-5.0-1.38","FL","rhglzajksw","1920","1080","0","1","0","5ea98f445ef6ee093f4f05ec","","null","","","learningBlock1","","","","That was a bim.","null","","","","","",""
"html-keyboard-response","122","201953","0.0-5.0-2.38","FL","rhglzajksw","1920","1080","0","1","0","5ea98f445ef6ee093f4f05ec","","null","","","learningBlock1","","","","<div style=""font-size:60px;""> </div>","null","FL","learning/Slide39.JPG","That was a bim.","","",""
"image-keyboard-response","123","202139","0.0-5.0-0.39","FL","rhglzajksw","1920","1080","0","1","0","5ea98f445ef6ee093f4f05ec","","null","","","","","","","learning/Slide40.JPG","null","","","","","",""
"html-keyboard-response","124","203300","0.0-5.0-1.39","FL","rhglzajksw","1920","1080","0","1","0","5ea98f445ef6ee093f4f05ec","","null","","","learningBlock1","","","","That was a tob.","null","","","","","",""
"html-keyboard-response","125","204307","0.0-5.0-2.39","FL","rhglzajksw","1920","1080","0","1","0","5ea98f445ef6ee093f4f05ec","","null","","","learningBlock1","","","","<div style=""font-size:60px;""> </div>","null","FL","learning/Slide40.JPG","That was a tob.","","",""
"image-keyboard-response","126","204491","0.0-5.0-0.40","FL","rhglzajksw","1920","1080","0","1","0","5ea98f445ef6ee093f4f05ec","","null","","","","","","","learning/Slide41.JPG","null","","","","","",""
"html-keyboard-response","127","205653","0.0-5.0-1.40","FL","rhglzajksw","1920","1080","0","1","0","5ea98f445ef6ee093f4f05ec","","null","","","learningBlock1","","","","That was a bim.","null","","","","","",""
"html-keyboard-response","128","206658","0.0-5.0-2.40","FL","rhglzajksw","1920","1080","0","1","0","5ea98f445ef6ee093f4f05ec","","null","","","learningBlock1","","","","<div style=""font-size:60px;""> </div>","null","FL","learning/Slide41.JPG","That was a bim.","","",""
"image-keyboard-response","129","206844","0.0-5.0-0.41","FL","rhglzajksw","1920","1080","0","1","0","5ea98f445ef6ee093f4f05ec","","null","","","","","","","learning/Slide42.JPG","null","","","","","",""
"html-keyboard-response","130","208008","0.0-5.0-1.41","FL","rhglzajksw","1920","1080","0","1","0","5ea98f445ef6ee093f4f05ec","","null","","","learningBlock1","","","","That was a dep.","null","","","","","",""
"html-keyboard-response","131","209016","0.0-5.0-2.41","FL","rhglzajksw","1920","1080","0","1","0","5ea98f445ef6ee093f4f05ec","","null","","","learningBlock1","","","","<div style=""font-size:60px;""> </div>","null","FL","learning/Slide42.JPG","That was a dep.","","",""
"image-keyboard-response","132","209193","0.0-5.0-0.42","FL","rhglzajksw","1920","1080","0","1","0","5ea98f445ef6ee093f4f05ec","","null","","","","","","","learning/Slide43.JPG","null","","","","","",""
"html-keyboard-response","133","210352","0.0-5.0-1.42","FL","rhglzajksw","1920","1080","0","1","0","5ea98f445ef6ee093f4f05ec","","null","","","learningBlock1","","","","That was a wug.","null","","","","","",""
"html-keyboard-response","134","211360","0.0-5.0-2.42","FL","rhglzajksw","1920","1080","0","1","0","5ea98f445ef6ee093f4f05ec","","null","","","learningBlock1","","","","<div style=""font-size:60px;""> </div>","null","FL","learning/Slide43.JPG","That was a wug.","","",""
"image-keyboard-response","135","211547","0.0-5.0-0.43","FL","rhglzajksw","1920","1080","0","1","0","5ea98f445ef6ee093f4f05ec","","null","","","","","","","learning/Slide44.JPG","null","","","","","",""
"html-keyboard-response","136","212713","0.0-5.0-1.43","FL","rhglzajksw","1920","1080","0","1","0","5ea98f445ef6ee093f4f05ec","","null","","","learningBlock1","","","","That was a bim.","null","","","","","",""
"html-keyboard-response","137","213722","0.0-5.0-2.43","FL","rhglzajksw","1920","1080","0","1","0","5ea98f445ef6ee093f4f05ec","","null","","","learningBlock1","","","","<div style=""font-size:60px;""> </div>","null","FL","learning/Slide44.JPG","That was a bim.","","",""
"image-keyboard-response","138","213908","0.0-5.0-0.44","FL","rhglzajksw","1920","1080","0","1","0","5ea98f445ef6ee093f4f05ec","","null","","","","","","","learning/Slide45.JPG","null","","","","","",""
"html-keyboard-response","139","215070","0.0-5.0-1.44","FL","rhglzajksw","1920","1080","0","1","0","5ea98f445ef6ee093f4f05ec","","null","","","learningBlock1","","","","That was a wug.","null","","","","","",""
"html-keyboard-response","140","216081","0.0-5.0-2.44","FL","rhglzajksw","1920","1080","0","1","0","5ea98f445ef6ee093f4f05ec","","null","","","learningBlock1","","","","<div style=""font-size:60px;""> </div>","null","FL","learning/Slide45.JPG","That was a wug.","","",""
"image-keyboard-response","141","216258","0.0-5.0-0.45","FL","rhglzajksw","1920","1080","0","1","0","5ea98f445ef6ee093f4f05ec","","null","","","","","","","learning/Slide46.JPG","null","","","","","",""
"html-keyboard-response","142","217429","0.0-5.0-1.45","FL","rhglzajksw","1920","1080","0","1","0","5ea98f445ef6ee093f4f05ec","","null","","","learningBlock1","","","","That was a dep.","null","","","","","",""
"html-keyboard-response","143","218437","0.0-5.0-2.45","FL","rhglzajksw","1920","1080","0","1","0","5ea98f445ef6ee093f4f05ec","","null","","","learningBlock1","","","","<div style=""font-size:60px;""> </div>","null","FL","learning/Slide46.JPG","That was a dep.","","",""
"image-keyboard-response","144","218624","0.0-5.0-0.46","FL","rhglzajksw","1920","1080","0","1","0","5ea98f445ef6ee093f4f05ec","","null","","","","","","","learning/Slide47.JPG","null","","","","","",""
"html-keyboard-response","145","219785","0.0-5.0-1.46","FL","rhglzajksw","1920","1080","0","1","0","5ea98f445ef6ee093f4f05ec","","null","","","learningBlock1","","","","That was a tob.","null","","","","","",""
"html-keyboard-response","146","220793","0.0-5.0-2.46","FL","rhglzajksw","1920","1080","0","1","0","5ea98f445ef6ee093f4f05ec","","null","","","learningBlock1","","","","<div style=""font-size:60px;""> </div>","null","FL","learning/Slide47.JPG","That was a tob.","","",""
"image-keyboard-response","147","220977","0.0-5.0-0.47","FL","rhglzajksw","1920","1080","0","1","0","5ea98f445ef6ee093f4f05ec","","null","","","","","","","learning/Slide48.JPG","null","","","","","",""
"html-keyboard-response","148","222139","0.0-5.0-1.47","FL","rhglzajksw","1920","1080","0","1","0","5ea98f445ef6ee093f4f05ec","","null","","","learningBlock1","","","","That was a bim.","null","","","","","",""
"html-keyboard-response","149","223146","0.0-5.0-2.47","FL","rhglzajksw","1920","1080","0","1","0","5ea98f445ef6ee093f4f05ec","","null","","","learningBlock1","","","","<div style=""font-size:60px;""> </div>","null","FL","learning/Slide48.JPG","That was a bim.","","",""
"image-keyboard-response","150","223322","0.0-5.0-0.48","FL","rhglzajksw","1920","1080","0","1","0","5ea98f445ef6ee093f4f05ec","","null","","","","","","","learning/Slide49.JPG","null","","","","","",""
"html-keyboard-response","151","224493","0.0-5.0-1.48","FL","rhglzajksw","1920","1080","0","1","0","5ea98f445ef6ee093f4f05ec","","null","","","learningBlock1","","","","That was a dep.","null","","","","","",""
"html-keyboard-response","152","225504","0.0-5.0-2.48","FL","rhglzajksw","1920","1080","0","1","0","5ea98f445ef6ee093f4f05ec","","null","","","learningBlock1","","","","<div style=""font-size:60px;""> </div>","null","FL","learning/Slide49.JPG","That was a dep.","","",""
"image-keyboard-response","153","225689","0.0-5.0-0.49","FL","rhglzajksw","1920","1080","0","1","0","5ea98f445ef6ee093f4f05ec","","null","","","","","","","learning/Slide50.JPG","null","","","","","",""
"html-keyboard-response","154","226853","0.0-5.0-1.49","FL","rhglzajksw","1920","1080","0","1","0","5ea98f445ef6ee093f4f05ec","","null","","","learningBlock1","","","","That was a tob.","null","","","","","",""
"html-keyboard-response","155","227861","0.0-5.0-2.49","FL","rhglzajksw","1920","1080","0","1","0","5ea98f445ef6ee093f4f05ec","","null","","","learningBlock1","","","","<div style=""font-size:60px;""> </div>","null","FL","learning/Slide50.JPG","That was a tob.","","",""
"image-keyboard-response","156","228048","0.0-5.0-0.50","FL","rhglzajksw","1920","1080","0","1","0","5ea98f445ef6ee093f4f05ec","","null","","","","","","","learning/Slide51.JPG","null","","","","","",""
"html-keyboard-response","157","229213","0.0-5.0-1.50","FL","rhglzajksw","1920","1080","0","1","0","5ea98f445ef6ee093f4f05ec","","null","","","learningBlock1","","","","That was a bim.","null","","","","","",""
"html-keyboard-response","158","230219","0.0-5.0-2.50","FL","rhglzajksw","1920","1080","0","1","0","5ea98f445ef6ee093f4f05ec","","null","","","learningBlock1","","","","<div style=""font-size:60px;""> </div>","null","FL","learning/Slide51.JPG","That was a bim.","","",""
"image-keyboard-response","159","230405","0.0-5.0-0.51","FL","rhglzajksw","1920","1080","0","1","0","5ea98f445ef6ee093f4f05ec","","null","","","","","","","learning/Slide52.JPG","null","","","","","",""
"html-keyboard-response","160","231563","0.0-5.0-1.51","FL","rhglzajksw","1920","1080","0","1","0","5ea98f445ef6ee093f4f05ec","","null","","","learningBlock1","","","","That was a wug.","null","","","","","",""
"html-keyboard-response","161","232570","0.0-5.0-2.51","FL","rhglzajksw","1920","1080","0","1","0","5ea98f445ef6ee093f4f05ec","","null","","","learningBlock1","","","","<div style=""font-size:60px;""> </div>","null","FL","learning/Slide52.JPG","That was a wug.","","",""
"image-keyboard-response","162","232755","0.0-5.0-0.52","FL","rhglzajksw","1920","1080","0","1","0","5ea98f445ef6ee093f4f05ec","","null","","","","","","","learning/Slide53.JPG","null","","","","","",""
"html-keyboard-response","163","233920","0.0-5.0-1.52","FL","rhglzajksw","1920","1080","0","1","0","5ea98f445ef6ee093f4f05ec","","null","","","learningBlock1","","","","That was a tob.","null","","","","","",""
"html-keyboard-response","164","234935","0.0-5.0-2.52","FL","rhglzajksw","1920","1080","0","1","0","5ea98f445ef6ee093f4f05ec","","null","","","learningBlock1","","","","<div style=""font-size:60px;""> </div>","null","FL","learning/Slide53.JPG","That was a tob.","","",""
"image-keyboard-response","165","235120","0.0-5.0-0.53","FL","rhglzajksw","1920","1080","0","1","0","5ea98f445ef6ee093f4f05ec","","null","","","","","","","learning/Slide54.JPG","null","","","","","",""
"html-keyboard-response","166","236290","0.0-5.0-1.53","FL","rhglzajksw","1920","1080","0","1","0","5ea98f445ef6ee093f4f05ec","","null","","","learningBlock1","","","","That was a dep.","null","","","","","",""
"html-keyboard-response","167","237305","0.0-5.0-2.53","FL","rhglzajksw","1920","1080","0","1","0","5ea98f445ef6ee093f4f05ec","","null","","","learningBlock1","","","","<div style=""font-size:60px;""> </div>","null","FL","learning/Slide54.JPG","That was a dep.","","",""
"image-keyboard-response","168","237491","0.0-5.0-0.54","FL","rhglzajksw","1920","1080","0","1","0","5ea98f445ef6ee093f4f05ec","","null","","","","","","","learning/Slide55.JPG","null","","","","","",""
"html-keyboard-response","169","238659","0.0-5.0-1.54","FL","rhglzajksw","1920","1080","0","1","0","5ea98f445ef6ee093f4f05ec","","null","","","learningBlock1","","","","That was a bim.","null","","","","","",""
"html-keyboard-response","170","239666","0.0-5.0-2.54","FL","rhglzajksw","1920","1080","0","1","0","5ea98f445ef6ee093f4f05ec","","null","","","learningBlock1","","","","<div style=""font-size:60px;""> </div>","null","FL","learning/Slide55.JPG","That was a bim.","","",""
"image-keyboard-response","171","239852","0.0-5.0-0.55","FL","rhglzajksw","1920","1080","0","1","0","5ea98f445ef6ee093f4f05ec","","null","","","","","","","learning/Slide56.JPG","null","","","","","",""
"html-keyboard-response","172","241014","0.0-5.0-1.55","FL","rhglzajksw","1920","1080","0","1","0","5ea98f445ef6ee093f4f05ec","","null","","","learningBlock1","","","","That was a tob.","null","","","","","",""
"html-keyboard-response","173","242022","0.0-5.0-2.55","FL","rhglzajksw","1920","1080","0","1","0","5ea98f445ef6ee093f4f05ec","","null","","","learningBlock1","","","","<div style=""font-size:60px;""> </div>","null","FL","learning/Slide56.JPG","That was a tob.","","",""
"image-keyboard-response","174","242206","0.0-5.0-0.56","FL","rhglzajksw","1920","1080","0","1","0","5ea98f445ef6ee093f4f05ec","","null","","","","","","","learning/Slide57.JPG","null","","","","","",""
"html-keyboard-response","175","243370","0.0-5.0-1.56","FL","rhglzajksw","1920","1080","0","1","0","5ea98f445ef6ee093f4f05ec","","null","","","learningBlock1","","","","That was a dep.","null","","","","","",""
"html-keyboard-response","176","244376","0.0-5.0-2.56","FL","rhglzajksw","1920","1080","0","1","0","5ea98f445ef6ee093f4f05ec","","null","","","learningBlock1","","","","<div style=""font-size:60px;""> </div>","null","FL","learning/Slide57.JPG","That was a dep.","","",""
"image-keyboard-response","177","244563","0.0-5.0-0.57","FL","rhglzajksw","1920","1080","0","1","0","5ea98f445ef6ee093f4f05ec","","null","","","","","","","learning/Slide58.JPG","null","","","","","",""
"html-keyboard-response","178","245726","0.0-5.0-1.57","FL","rhglzajksw","1920","1080","0","1","0","5ea98f445ef6ee093f4f05ec","","null","","","learningBlock1","","","","That was a wug.","null","","","","","",""
"html-keyboard-response","179","246737","0.0-5.0-2.57","FL","rhglzajksw","1920","1080","0","1","0","5ea98f445ef6ee093f4f05ec","","null","","","learningBlock1","","","","<div style=""font-size:60px;""> </div>","null","FL","learning/Slide58.JPG","That was a wug.","","",""
"image-keyboard-response","180","246924","0.0-5.0-0.58","FL","rhglzajksw","1920","1080","0","1","0","5ea98f445ef6ee093f4f05ec","","null","","","","","","","learning/Slide59.JPG","null","","","","","",""
"html-keyboard-response","181","248088","0.0-5.0-1.58","FL","rhglzajksw","1920","1080","0","1","0","5ea98f445ef6ee093f4f05ec","","null","","","learningBlock1","","","","That was a dep.","null","","","","","",""
"html-keyboard-response","182","249095","0.0-5.0-2.58","FL","rhglzajksw","1920","1080","0","1","0","5ea98f445ef6ee093f4f05ec","","null","","","learningBlock1","","","","<div style=""font-size:60px;""> </div>","null","FL","learning/Slide59.JPG","That was a dep.","","",""
"image-keyboard-response","183","249282","0.0-5.0-0.59","FL","rhglzajksw","1920","1080","0","1","0","5ea98f445ef6ee093f4f05ec","","null","","","","","","","learning/Slide60.JPG","null","","","","","",""
"html-keyboard-response","184","250443","0.0-5.0-1.59","FL","rhglzajksw","1920","1080","0","1","0","5ea98f445ef6ee093f4f05ec","","null","","","learningBlock1","","","","That was a wug.","null","","","","","",""
"html-keyboard-response","185","251453","0.0-5.0-2.59","FL","rhglzajksw","1920","1080","0","1","0","5ea98f445ef6ee093f4f05ec","","null","","","learningBlock1","","","","<div style=""font-size:60px;""> </div>","null","FL","learning/Slide60.JPG","That was a wug.","","",""
"image-keyboard-response","186","251629","0.0-5.0-0.60","FL","rhglzajksw","1920","1080","0","1","0","5ea98f445ef6ee093f4f05ec","","null","","","","","","","learning/Slide61.JPG","null","","","","","",""
"html-keyboard-response","187","252802","0.0-5.0-1.60","FL","rhglzajksw","1920","1080","0","1","0","5ea98f445ef6ee093f4f05ec","","null","","","learningBlock1","","","","That was a bim.","null","","","","","",""
"html-keyboard-response","188","253808","0.0-5.0-2.60","FL","rhglzajksw","1920","1080","0","1","0","5ea98f445ef6ee093f4f05ec","","null","","","learningBlock1","","","","<div style=""font-size:60px;""> </div>","null","FL","learning/Slide61.JPG","That was a bim.","","",""
"image-keyboard-response","189","253994","0.0-5.0-0.61","FL","rhglzajksw","1920","1080","0","1","0","5ea98f445ef6ee093f4f05ec","","null","","","","","","","learning/Slide62.JPG","null","","","","","",""
"html-keyboard-response","190","255158","0.0-5.0-1.61","FL","rhglzajksw","1920","1080","0","1","0","5ea98f445ef6ee093f4f05ec","","null","","","learningBlock1","","","","That was a dep.","null","","","","","",""
"html-keyboard-response","191","256165","0.0-5.0-2.61","FL","rhglzajksw","1920","1080","0","1","0","5ea98f445ef6ee093f4f05ec","","null","","","learningBlock1","","","","<div style=""font-size:60px;""> </div>","null","FL","learning/Slide62.JPG","That was a dep.","","",""
"image-keyboard-response","192","256342","0.0-5.0-0.62","FL","rhglzajksw","1920","1080","0","1","0","5ea98f445ef6ee093f4f05ec","","null","","","","","","","learning/Slide63.JPG","null","","","","","",""
"html-keyboard-response","193","257513","0.0-5.0-1.62","FL","rhglzajksw","1920","1080","0","1","0","5ea98f445ef6ee093f4f05ec","","null","","","learningBlock1","","","","That was a bim.","null","","","","","",""
"html-keyboard-response","194","258518","0.0-5.0-2.62","FL","rhglzajksw","1920","1080","0","1","0","5ea98f445ef6ee093f4f05ec","","null","","","learningBlock1","","","","<div style=""font-size:60px;""> </div>","null","FL","learning/Slide63.JPG","That was a bim.","","",""
"image-keyboard-response","195","258703","0.0-5.0-0.63","FL","rhglzajksw","1920","1080","0","1","0","5ea98f445ef6ee093f4f05ec","","null","","","","","","","learning/Slide64.JPG","null","","","","","",""
"html-keyboard-response","196","259864","0.0-5.0-1.63","FL","rhglzajksw","1920","1080","0","1","0","5ea98f445ef6ee093f4f05ec","","null","","","learningBlock1","","","","That was a tob.","null","","","","","",""
"html-keyboard-response","197","260868","0.0-5.0-2.63","FL","rhglzajksw","1920","1080","0","1","0","5ea98f445ef6ee093f4f05ec","","null","","","learningBlock1","","","","<div style=""font-size:60px;""> </div>","null","FL","learning/Slide64.JPG","That was a tob.","","",""
"image-keyboard-response","198","261045","0.0-5.0-0.64","FL","rhglzajksw","1920","1080","0","1","0","5ea98f445ef6ee093f4f05ec","","null","","","","","","","learning/Slide65.JPG","null","","","","","",""
"html-keyboard-response","199","262216","0.0-5.0-1.64","FL","rhglzajksw","1920","1080","0","1","0","5ea98f445ef6ee093f4f05ec","","null","","","learningBlock1","","","","That was a wug.","null","","","","","",""
"html-keyboard-response","200","263225","0.0-5.0-2.64","FL","rhglzajksw","1920","1080","0","1","0","5ea98f445ef6ee093f4f05ec","","null","","","learningBlock1","","","","<div style=""font-size:60px;""> </div>","null","FL","learning/Slide65.JPG","That was a wug.","","",""
"image-keyboard-response","201","263401","0.0-5.0-0.65","FL","rhglzajksw","1920","1080","0","1","0","5ea98f445ef6ee093f4f05ec","","null","","","","","","","learning/Slide66.JPG","null","","","","","",""
"html-keyboard-response","202","264574","0.0-5.0-1.65","FL","rhglzajksw","1920","1080","0","1","0","5ea98f445ef6ee093f4f05ec","","null","","","learningBlock1","","","","That was a dep.","null","","","","","",""
"html-keyboard-response","203","265584","0.0-5.0-2.65","FL","rhglzajksw","1920","1080","0","1","0","5ea98f445ef6ee093f4f05ec","","null","","","learningBlock1","","","","<div style=""font-size:60px;""> </div>","null","FL","learning/Slide66.JPG","That was a dep.","","",""
"image-keyboard-response","204","265760","0.0-5.0-0.66","FL","rhglzajksw","1920","1080","0","1","0","5ea98f445ef6ee093f4f05ec","","null","","","","","","","learning/Slide67.JPG","null","","","","","",""
"html-keyboard-response","205","266933","0.0-5.0-1.66","FL","rhglzajksw","1920","1080","0","1","0","5ea98f445ef6ee093f4f05ec","","null","","","learningBlock1","","","","That was a tob.","null","","","","","",""
"html-keyboard-response","206","267941","0.0-5.0-2.66","FL","rhglzajksw","1920","1080","0","1","0","5ea98f445ef6ee093f4f05ec","","null","","","learningBlock1","","","","<div style=""font-size:60px;""> </div>","null","FL","learning/Slide67.JPG","That was a tob.","","",""
"image-keyboard-response","207","268127","0.0-5.0-0.67","FL","rhglzajksw","1920","1080","0","1","0","5ea98f445ef6ee093f4f05ec","","null","","","","","","","learning/Slide68.JPG","null","","","","","",""
"html-keyboard-response","208","269289","0.0-5.0-1.67","FL","rhglzajksw","1920","1080","0","1","0","5ea98f445ef6ee093f4f05ec","","null","","","learningBlock1","","","","That was a wug.","null","","","","","",""
"html-keyboard-response","209","270296","0.0-5.0-2.67","FL","rhglzajksw","1920","1080","0","1","0","5ea98f445ef6ee093f4f05ec","","null","","","learningBlock1","","","","<div style=""font-size:60px;""> </div>","null","FL","learning/Slide68.JPG","That was a wug.","","",""
"image-keyboard-response","210","270483","0.0-5.0-0.68","FL","rhglzajksw","1920","1080","0","1","0","5ea98f445ef6ee093f4f05ec","","null","","","","","","","learning/Slide69.JPG","null","","","","","",""
"html-keyboard-response","211","271649","0.0-5.0-1.68","FL","rhglzajksw","1920","1080","0","1","0","5ea98f445ef6ee093f4f05ec","","null","","","learningBlock1","","","","That was a tob.","null","","","","","",""
"html-keyboard-response","212","272658","0.0-5.0-2.68","FL","rhglzajksw","1920","1080","0","1","0","5ea98f445ef6ee093f4f05ec","","null","","","learningBlock1","","","","<div style=""font-size:60px;""> </div>","null","FL","learning/Slide69.JPG","That was a tob.","","",""
"image-keyboard-response","213","272844","0.0-5.0-0.69","FL","rhglzajksw","1920","1080","0","1","0","5ea98f445ef6ee093f4f05ec","","null","","","","","","","learning/Slide70.JPG","null","","","","","",""
"html-keyboard-response","214","274004","0.0-5.0-1.69","FL","rhglzajksw","1920","1080","0","1","0","5ea98f445ef6ee093f4f05ec","","null","","","learningBlock1","","","","That was a dep.","null","","","","","",""
"html-keyboard-response","215","275013","0.0-5.0-2.69","FL","rhglzajksw","1920","1080","0","1","0","5ea98f445ef6ee093f4f05ec","","null","","","learningBlock1","","","","<div style=""font-size:60px;""> </div>","null","FL","learning/Slide70.JPG","That was a dep.","","",""
"image-keyboard-response","216","275197","0.0-5.0-0.70","FL","rhglzajksw","1920","1080","0","1","0","5ea98f445ef6ee093f4f05ec","","null","","","","","","","learning/Slide71.JPG","null","","","","","",""
"html-keyboard-response","217","276359","0.0-5.0-1.70","FL","rhglzajksw","1920","1080","0","1","0","5ea98f445ef6ee093f4f05ec","","null","","","learningBlock1","","","","That was a wug.","null","","","","","",""
"html-keyboard-response","218","277367","0.0-5.0-2.70","FL","rhglzajksw","1920","1080","0","1","0","5ea98f445ef6ee093f4f05ec","","null","","","learningBlock1","","","","<div style=""font-size:60px;""> </div>","null","FL","learning/Slide71.JPG","That was a wug.","","",""
"image-keyboard-response","219","277543","0.0-5.0-0.71","FL","rhglzajksw","1920","1080","0","1","0","5ea98f445ef6ee093f4f05ec","","null","","","","","","","learning/Slide72.JPG","null","","","","","",""
"html-keyboard-response","220","278700","0.0-5.0-1.71","FL","rhglzajksw","1920","1080","0","1","0","5ea98f445ef6ee093f4f05ec","","null","","","learningBlock1","","","","That was a bim.","null","","","","","",""
"html-keyboard-response","221","279707","0.0-5.0-2.71","FL","rhglzajksw","1920","1080","0","1","0","5ea98f445ef6ee093f4f05ec","","null","","","learningBlock1","","","","<div style=""font-size:60px;""> </div>","null","FL","learning/Slide72.JPG","That was a bim.","","",""
"image-keyboard-response","222","279892","0.0-5.0-0.72","FL","rhglzajksw","1920","1080","0","1","0","5ea98f445ef6ee093f4f05ec","","null","","","","","","","learning/Slide73.JPG","null","","","","","",""
"html-keyboard-response","223","281054","0.0-5.0-1.72","FL","rhglzajksw","1920","1080","0","1","0","5ea98f445ef6ee093f4f05ec","","null","","","learningBlock1","","","","That was a wug.","null","","","","","",""
"html-keyboard-response","224","282060","0.0-5.0-2.72","FL","rhglzajksw","1920","1080","0","1","0","5ea98f445ef6ee093f4f05ec","","null","","","learningBlock1","","","","<div style=""font-size:60px;""> </div>","null","FL","learning/Slide73.JPG","That was a wug.","","",""
"image-keyboard-response","225","282245","0.0-5.0-0.73","FL","rhglzajksw","1920","1080","0","1","0","5ea98f445ef6ee093f4f05ec","","null","","","","","","","learning/Slide74.JPG","null","","","","","",""
"html-keyboard-response","226","283409","0.0-5.0-1.73","FL","rhglzajksw","1920","1080","0","1","0","5ea98f445ef6ee093f4f05ec","","null","","","learningBlock1","","","","That was a dep.","null","","","","","",""
"html-keyboard-response","227","284415","0.0-5.0-2.73","FL","rhglzajksw","1920","1080","0","1","0","5ea98f445ef6ee093f4f05ec","","null","","","learningBlock1","","","","<div style=""font-size:60px;""> </div>","null","FL","learning/Slide74.JPG","That was a dep.","","",""
"image-keyboard-response","228","284600","0.0-5.0-0.74","FL","rhglzajksw","1920","1080","0","1","0","5ea98f445ef6ee093f4f05ec","","null","","","","","","","learning/Slide75.JPG","null","","","","","",""
"html-keyboard-response","229","285764","0.0-5.0-1.74","FL","rhglzajksw","1920","1080","0","1","0","5ea98f445ef6ee093f4f05ec","","null","","","learningBlock1","","","","That was a tob.","null","","","","","",""
"html-keyboard-response","230","286771","0.0-5.0-2.74","FL","rhglzajksw","1920","1080","0","1","0","5ea98f445ef6ee093f4f05ec","","null","","","learningBlock1","","","","<div style=""font-size:60px;""> </div>","null","FL","learning/Slide75.JPG","That was a tob.","","",""
"image-keyboard-response","231","286947","0.0-5.0-0.75","FL","rhglzajksw","1920","1080","0","1","0","5ea98f445ef6ee093f4f05ec","","null","","","","","","","learning/Slide76.JPG","null","","","","","",""
"html-keyboard-response","232","288106","0.0-5.0-1.75","FL","rhglzajksw","1920","1080","0","1","0","5ea98f445ef6ee093f4f05ec","","null","","","learningBlock1","","","","That was a bim.","null","","","","","",""
"html-keyboard-response","233","289114","0.0-5.0-2.75","FL","rhglzajksw","1920","1080","0","1","0","5ea98f445ef6ee093f4f05ec","","null","","","learningBlock1","","","","<div style=""font-size:60px;""> </div>","null","FL","learning/Slide76.JPG","That was a bim.","","",""
"image-keyboard-response","234","289299","0.0-5.0-0.76","FL","rhglzajksw","1920","1080","0","1","0","5ea98f445ef6ee093f4f05ec","","null","","","","","","","learning/Slide77.JPG","null","","","","","",""
"html-keyboard-response","235","290459","0.0-5.0-1.76","FL","rhglzajksw","1920","1080","0","1","0","5ea98f445ef6ee093f4f05ec","","null","","","learningBlock1","","","","That was a tob.","null","","","","","",""
"html-keyboard-response","236","291467","0.0-5.0-2.76","FL","rhglzajksw","1920","1080","0","1","0","5ea98f445ef6ee093f4f05ec","","null","","","learningBlock1","","","","<div style=""font-size:60px;""> </div>","null","FL","learning/Slide77.JPG","That was a tob.","","",""
"image-keyboard-response","237","291653","0.0-5.0-0.77","FL","rhglzajksw","1920","1080","0","1","0","5ea98f445ef6ee093f4f05ec","","null","","","","","","","learning/Slide78.JPG","null","","","","","",""
"html-keyboard-response","238","292816","0.0-5.0-1.77","FL","rhglzajksw","1920","1080","0","1","0","5ea98f445ef6ee093f4f05ec","","null","","","learningBlock1","","","","That was a wug.","null","","","","","",""
"html-keyboard-response","239","293825","0.0-5.0-2.77","FL","rhglzajksw","1920","1080","0","1","0","5ea98f445ef6ee093f4f05ec","","null","","","learningBlock1","","","","<div style=""font-size:60px;""> </div>","null","FL","learning/Slide78.JPG","That was a wug.","","",""
"image-keyboard-response","240","294011","0.0-5.0-0.78","FL","rhglzajksw","1920","1080","0","1","0","5ea98f445ef6ee093f4f05ec","","null","","","","","","","learning/Slide79.JPG","null","","","","","",""
"html-keyboard-response","241","295174","0.0-5.0-1.78","FL","rhglzajksw","1920","1080","0","1","0","5ea98f445ef6ee093f4f05ec","","null","","","learningBlock1","","","","That was a bim.","null","","","","","",""
"html-keyboard-response","242","296179","0.0-5.0-2.78","FL","rhglzajksw","1920","1080","0","1","0","5ea98f445ef6ee093f4f05ec","","null","","","learningBlock1","","","","<div style=""font-size:60px;""> </div>","null","FL","learning/Slide79.JPG","That was a bim.","","",""
"image-keyboard-response","243","296365","0.0-5.0-0.79","FL","rhglzajksw","1920","1080","0","1","0","5ea98f445ef6ee093f4f05ec","","null","","","","","","","learning/Slide80.JPG","null","","","","","",""
"html-keyboard-response","244","297533","0.0-5.0-1.79","FL","rhglzajksw","1920","1080","0","1","0","5ea98f445ef6ee093f4f05ec","","null","","","learningBlock1","","","","That was a tob.","null","","","","","",""
"html-keyboard-response","245","298542","0.0-5.0-2.79","FL","rhglzajksw","1920","1080","0","1","0","5ea98f445ef6ee093f4f05ec","","null","","","learningBlock1","","","","<div style=""font-size:60px;""> </div>","null","FL","learning/Slide80.JPG","That was a tob.","","",""
"instructions","246","301361","0.0-6.0","FL","rhglzajksw","1920","1080","0","1","0","5ea98f445ef6ee093f4f05ec","","NA","","[{""page_index"":0,""viewing_time"":2818.3049999934155}]","instructions","","","","","","","","","","",""
"image-keyboard-response","247","301544","0.0-7.0-0.0","FL","rhglzajksw","1920","1080","0","1","0","5ea98f445ef6ee093f4f05ec","","null","","","","","","","learning/Slide81.JPG","null","","","","","",""
"html-keyboard-response","248","302697","0.0-7.0-1.0","FL","rhglzajksw","1920","1080","0","1","0","5ea98f445ef6ee093f4f05ec","","null","","","learningBlock2","","","","That was a wug.","null","","","","","",""
"html-keyboard-response","249","303711","0.0-7.0-2.0","FL","rhglzajksw","1920","1080","0","1","0","5ea98f445ef6ee093f4f05ec","","null","","","learningBlock2","","","","<div style=""font-size:60px;""> </div>","null","FL","learning/Slide81.JPG","That was a wug.","","",""
"image-keyboard-response","250","303897","0.0-7.0-0.1","FL","rhglzajksw","1920","1080","0","1","0","5ea98f445ef6ee093f4f05ec","","null","","","","","","","learning/Slide82.JPG","null","","","","","",""
"html-keyboard-response","251","305068","0.0-7.0-1.1","FL","rhglzajksw","1920","1080","0","1","0","5ea98f445ef6ee093f4f05ec","","null","","","learningBlock2","","","","That was a bim.","null","","","","","",""
"html-keyboard-response","252","306077","0.0-7.0-2.1","FL","rhglzajksw","1920","1080","0","1","0","5ea98f445ef6ee093f4f05ec","","null","","","learningBlock2","","","","<div style=""font-size:60px;""> </div>","null","FL","learning/Slide82.JPG","That was a bim.","","",""
"image-keyboard-response","253","306254","0.0-7.0-0.2","FL","rhglzajksw","1920","1080","0","1","0","5ea98f445ef6ee093f4f05ec","","null","","","","","","","learning/Slide83.JPG","null","","","","","",""
"html-keyboard-response","254","307408","0.0-7.0-1.2","FL","rhglzajksw","1920","1080","0","1","0","5ea98f445ef6ee093f4f05ec","","null","","","learningBlock2","","","","That was a wug.","null","","","","","",""
"html-keyboard-response","255","308415","0.0-7.0-2.2","FL","rhglzajksw","1920","1080","0","1","0","5ea98f445ef6ee093f4f05ec","","null","","","learningBlock2","","","","<div style=""font-size:60px;""> </div>","null","FL","learning/Slide83.JPG","That was a wug.","","",""
"image-keyboard-response","256","308600","0.0-7.0-0.3","FL","rhglzajksw","1920","1080","0","1","0","5ea98f445ef6ee093f4f05ec","","null","","","","","","","learning/Slide84.JPG","null","","","","","",""
"html-keyboard-response","257","309762","0.0-7.0-1.3","FL","rhglzajksw","1920","1080","0","1","0","5ea98f445ef6ee093f4f05ec","","null","","","learningBlock2","","","","That was a dep.","null","","","","","",""
"html-keyboard-response","258","310770","0.0-7.0-2.3","FL","rhglzajksw","1920","1080","0","1","0","5ea98f445ef6ee093f4f05ec","","null","","","learningBlock2","","","","<div style=""font-size:60px;""> </div>","null","FL","learning/Slide84.JPG","That was a dep.","","",""
"image-keyboard-response","259","310957","0.0-7.0-0.4","FL","rhglzajksw","1920","1080","0","1","0","5ea98f445ef6ee093f4f05ec","","null","","","","","","","learning/Slide85.JPG","null","","","","","",""
"html-keyboard-response","260","312120","0.0-7.0-1.4","FL","rhglzajksw","1920","1080","0","1","0","5ea98f445ef6ee093f4f05ec","","null","","","learningBlock2","","","","That was a bim.","null","","","","","",""
"html-keyboard-response","261","313128","0.0-7.0-2.4","FL","rhglzajksw","1920","1080","0","1","0","5ea98f445ef6ee093f4f05ec","","null","","","learningBlock2","","","","<div style=""font-size:60px;""> </div>","null","FL","learning/Slide85.JPG","That was a bim.","","",""
"image-keyboard-response","262","313314","0.0-7.0-0.5","FL","rhglzajksw","1920","1080","0","1","0","5ea98f445ef6ee093f4f05ec","","null","","","","","","","learning/Slide86.JPG","null","","","","","",""
"html-keyboard-response","263","314475","0.0-7.0-1.5","FL","rhglzajksw","1920","1080","0","1","0","5ea98f445ef6ee093f4f05ec","","null","","","learningBlock2","","","","That was a tob.","null","","","","","",""
"html-keyboard-response","264","315481","0.0-7.0-2.5","FL","rhglzajksw","1920","1080","0","1","0","5ea98f445ef6ee093f4f05ec","","null","","","learningBlock2","","","","<div style=""font-size:60px;""> </div>","null","FL","learning/Slide86.JPG","That was a tob.","","",""
"image-keyboard-response","265","315657","0.0-7.0-0.6","FL","rhglzajksw","1920","1080","0","1","0","5ea98f445ef6ee093f4f05ec","","null","","","","","","","learning/Slide87.JPG","null","","","","","",""
"html-keyboard-response","266","316814","0.0-7.0-1.6","FL","rhglzajksw","1920","1080","0","1","0","5ea98f445ef6ee093f4f05ec","","null","","","learningBlock2","","","","That was a wug.","null","","","","","",""
"html-keyboard-response","267","317823","0.0-7.0-2.6","FL","rhglzajksw","1920","1080","0","1","0","5ea98f445ef6ee093f4f05ec","","null","","","learningBlock2","","","","<div style=""font-size:60px;""> </div>","null","FL","learning/Slide87.JPG","That was a wug.","","",""
"image-keyboard-response","268","318000","0.0-7.0-0.7","FL","rhglzajksw","1920","1080","0","1","0","5ea98f445ef6ee093f4f05ec","","null","","","","","","","learning/Slide88.JPG","null","","","","","",""
"html-keyboard-response","269","319169","0.0-7.0-1.7","FL","rhglzajksw","1920","1080","0","1","0","5ea98f445ef6ee093f4f05ec","","null","","","learningBlock2","","","","That was a tob.","null","","","","","",""
"html-keyboard-response","270","320176","0.0-7.0-2.7","FL","rhglzajksw","1920","1080","0","1","0","5ea98f445ef6ee093f4f05ec","","null","","","learningBlock2","","","","<div style=""font-size:60px;""> </div>","null","FL","learning/Slide88.JPG","That was a tob.","","",""
"image-keyboard-response","271","320364","0.0-7.0-0.8","FL","rhglzajksw","1920","1080","0","1","0","5ea98f445ef6ee093f4f05ec","","null","","","","","","","learning/Slide89.JPG","null","","","","","",""
"html-keyboard-response","272","321526","0.0-7.0-1.8","FL","rhglzajksw","1920","1080","0","1","0","5ea98f445ef6ee093f4f05ec","","null","","","learningBlock2","","","","That was a bim.","null","","","","","",""
"html-keyboard-response","273","322532","0.0-7.0-2.8","FL","rhglzajksw","1920","1080","0","1","0","5ea98f445ef6ee093f4f05ec","","null","","","learningBlock2","","","","<div style=""font-size:60px;""> </div>","null","FL","learning/Slide89.JPG","That was a bim.","","",""
"image-keyboard-response","274","322717","0.0-7.0-0.9","FL","rhglzajksw","1920","1080","0","1","0","5ea98f445ef6ee093f4f05ec","","null","","","","","","","learning/Slide90.JPG","null","","","","","",""
"html-keyboard-response","275","323875","0.0-7.0-1.9","FL","rhglzajksw","1920","1080","0","1","0","5ea98f445ef6ee093f4f05ec","","null","","","learningBlock2","","","","That was a dep.","null","","","","","",""
"html-keyboard-response","276","324883","0.0-7.0-2.9","FL","rhglzajksw","1920","1080","0","1","0","5ea98f445ef6ee093f4f05ec","","null","","","learningBlock2","","","","<div style=""font-size:60px;""> </div>","null","FL","learning/Slide90.JPG","That was a dep.","","",""
"image-keyboard-response","277","325068","0.0-7.0-0.10","FL","rhglzajksw","1920","1080","0","1","0","5ea98f445ef6ee093f4f05ec","","null","","","","","","","learning/Slide91.JPG","null","","","","","",""
"html-keyboard-response","278","326231","0.0-7.0-1.10","FL","rhglzajksw","1920","1080","0","1","0","5ea98f445ef6ee093f4f05ec","","null","","","learningBlock2","","","","That was a wug.","null","","","","","",""
"html-keyboard-response","279","327238","0.0-7.0-2.10","FL","rhglzajksw","1920","1080","0","1","0","5ea98f445ef6ee093f4f05ec","","null","","","learningBlock2","","","","<div style=""font-size:60px;""> </div>","null","FL","learning/Slide91.JPG","That was a wug.","","",""
"image-keyboard-response","280","327414","0.0-7.0-0.11","FL","rhglzajksw","1920","1080","0","1","0","5ea98f445ef6ee093f4f05ec","","null","","","","","","","learning/Slide92.JPG","null","","","","","",""
"html-keyboard-response","281","328585","0.0-7.0-1.11","FL","rhglzajksw","1920","1080","0","1","0","5ea98f445ef6ee093f4f05ec","","null","","","learningBlock2","","","","That was a tob.","null","","","","","",""
"html-keyboard-response","282","329592","0.0-7.0-2.11","FL","rhglzajksw","1920","1080","0","1","0","5ea98f445ef6ee093f4f05ec","","null","","","learningBlock2","","","","<div style=""font-size:60px;""> </div>","null","FL","learning/Slide92.JPG","That was a tob.","","",""
"image-keyboard-response","283","329769","0.0-7.0-0.12","FL","rhglzajksw","1920","1080","0","1","0","5ea98f445ef6ee093f4f05ec","","null","","","","","","","learning/Slide93.JPG","null","","","","","",""
"html-keyboard-response","284","330944","0.0-7.0-1.12","FL","rhglzajksw","1920","1080","0","1","0","5ea98f445ef6ee093f4f05ec","","null","","","learningBlock2","","","","That was a bim.","null","","","","","",""
"html-keyboard-response","285","331951","0.0-7.0-2.12","FL","rhglzajksw","1920","1080","0","1","0","5ea98f445ef6ee093f4f05ec","","null","","","learningBlock2","","","","<div style=""font-size:60px;""> </div>","null","FL","learning/Slide93.JPG","That was a bim.","","",""
"image-keyboard-response","286","332127","0.0-7.0-0.13","FL","rhglzajksw","1920","1080","0","1","0","5ea98f445ef6ee093f4f05ec","","null","","","","","","","learning/Slide94.JPG","null","","","","","",""
"html-keyboard-response","287","333282","0.0-7.0-1.13","FL","rhglzajksw","1920","1080","0","1","0","5ea98f445ef6ee093f4f05ec","","null","","","learningBlock2","","","","That was a tob.","null","","","","","",""
"html-keyboard-response","288","334288","0.0-7.0-2.13","FL","rhglzajksw","1920","1080","0","1","0","5ea98f445ef6ee093f4f05ec","","null","","","learningBlock2","","","","<div style=""font-size:60px;""> </div>","null","FL","learning/Slide94.JPG","That was a tob.","","",""
"image-keyboard-response","289","334472","0.0-7.0-0.14","FL","rhglzajksw","1920","1080","0","1","0","5ea98f445ef6ee093f4f05ec","","null","","","","","","","learning/Slide95.JPG","null","","","","","",""
"html-keyboard-response","290","335638","0.0-7.0-1.14","FL","rhglzajksw","1920","1080","0","1","0","5ea98f445ef6ee093f4f05ec","","null","","","learningBlock2","","","","That was a wug.","null","","","","","",""
"html-keyboard-response","291","336648","0.0-7.0-2.14","FL","rhglzajksw","1920","1080","0","1","0","5ea98f445ef6ee093f4f05ec","","null","","","learningBlock2","","","","<div style=""font-size:60px;""> </div>","null","FL","learning/Slide95.JPG","That was a wug.","","",""
"image-keyboard-response","292","336825","0.0-7.0-0.15","FL","rhglzajksw","1920","1080","0","1","0","5ea98f445ef6ee093f4f05ec","","null","","","","","","","learning/Slide96.JPG","null","","","","","",""
"html-keyboard-response","293","337995","0.0-7.0-1.15","FL","rhglzajksw","1920","1080","0","1","0","5ea98f445ef6ee093f4f05ec","","null","","","learningBlock2","","","","That was a tob.","null","","","","","",""
"html-keyboard-response","294","339002","0.0-7.0-2.15","FL","rhglzajksw","1920","1080","0","1","0","5ea98f445ef6ee093f4f05ec","","null","","","learningBlock2","","","","<div style=""font-size:60px;""> </div>","null","FL","learning/Slide96.JPG","That was a tob.","","",""
"image-keyboard-response","295","339179","0.0-7.0-0.16","FL","rhglzajksw","1920","1080","0","1","0","5ea98f445ef6ee093f4f05ec","","null","","","","","","","learning/Slide97.JPG","null","","","","","",""
"html-keyboard-response","296","340352","0.0-7.0-1.16","FL","rhglzajksw","1920","1080","0","1","0","5ea98f445ef6ee093f4f05ec","","null","","","learningBlock2","","","","That was a dep.","null","","","","","",""
"html-keyboard-response","297","341360","0.0-7.0-2.16","FL","rhglzajksw","1920","1080","0","1","0","5ea98f445ef6ee093f4f05ec","","null","","","learningBlock2","","","","<div style=""font-size:60px;""> </div>","null","FL","learning/Slide97.JPG","That was a dep.","","",""
"image-keyboard-response","298","341548","0.0-7.0-0.17","FL","rhglzajksw","1920","1080","0","1","0","5ea98f445ef6ee093f4f05ec","","null","","","","","","","learning/Slide98.JPG","null","","","","","",""
"html-keyboard-response","299","342711","0.0-7.0-1.17","FL","rhglzajksw","1920","1080","0","1","0","5ea98f445ef6ee093f4f05ec","","null","","","learningBlock2","","","","That was a bim.","null","","","","","",""
"html-keyboard-response","300","343716","0.0-7.0-2.17","FL","rhglzajksw","1920","1080","0","1","0","5ea98f445ef6ee093f4f05ec","","null","","","learningBlock2","","","","<div style=""font-size:60px;""> </div>","null","FL","learning/Slide98.JPG","That was a bim.","","",""
"image-keyboard-response","301","343892","0.0-7.0-0.18","FL","rhglzajksw","1920","1080","0","1","0","5ea98f445ef6ee093f4f05ec","","null","","","","","","","learning/Slide99.JPG","null","","","","","",""
"html-keyboard-response","302","345064","0.0-7.0-1.18","FL","rhglzajksw","1920","1080","0","1","0","5ea98f445ef6ee093f4f05ec","","null","","","learningBlock2","","","","That was a dep.","null","","","","","",""
"html-keyboard-response","303","346070","0.0-7.0-2.18","FL","rhglzajksw","1920","1080","0","1","0","5ea98f445ef6ee093f4f05ec","","null","","","learningBlock2","","","","<div style=""font-size:60px;""> </div>","null","FL","learning/Slide99.JPG","That was a dep.","","",""
"image-keyboard-response","304","346246","0.0-7.0-0.19","FL","rhglzajksw","1920","1080","0","1","0","5ea98f445ef6ee093f4f05ec","","null","","","","","","","learning/Slide100.JPG","null","","","","","",""
"html-keyboard-response","305","347416","0.0-7.0-1.19","FL","rhglzajksw","1920","1080","0","1","0","5ea98f445ef6ee093f4f05ec","","null","","","learningBlock2","","","","That was a bim.","null","","","","","",""
"html-keyboard-response","306","348426","0.0-7.0-2.19","FL","rhglzajksw","1920","1080","0","1","0","5ea98f445ef6ee093f4f05ec","","null","","","learningBlock2","","","","<div style=""font-size:60px;""> </div>","null","FL","learning/Slide100.JPG","That was a bim.","","",""
"image-keyboard-response","307","348612","0.0-7.0-0.20","FL","rhglzajksw","1920","1080","0","1","0","5ea98f445ef6ee093f4f05ec","","null","","","","","","","learning/Slide101.JPG","null","","","","","",""
"html-keyboard-response","308","349775","0.0-7.0-1.20","FL","rhglzajksw","1920","1080","0","1","0","5ea98f445ef6ee093f4f05ec","","null","","","learningBlock2","","","","That was a tob.","null","","","","","",""
"html-keyboard-response","309","350785","0.0-7.0-2.20","FL","rhglzajksw","1920","1080","0","1","0","5ea98f445ef6ee093f4f05ec","","null","","","learningBlock2","","","","<div style=""font-size:60px;""> </div>","null","FL","learning/Slide101.JPG","That was a tob.","","",""
"image-keyboard-response","310","350962","0.0-7.0-0.21","FL","rhglzajksw","1920","1080","0","1","0","5ea98f445ef6ee093f4f05ec","","null","","","","","","","learning/Slide102.JPG","null","","","","","",""
"html-keyboard-response","311","352117","0.0-7.0-1.21","FL","rhglzajksw","1920","1080","0","1","0","5ea98f445ef6ee093f4f05ec","","null","","","learningBlock2","","","","That was a bim.","null","","","","","",""
"html-keyboard-response","312","353126","0.0-7.0-2.21","FL","rhglzajksw","1920","1080","0","1","0","5ea98f445ef6ee093f4f05ec","","null","","","learningBlock2","","","","<div style=""font-size:60px;""> </div>","null","FL","learning/Slide102.JPG","That was a bim.","","",""
"image-keyboard-response","313","353302","0.0-7.0-0.22","FL","rhglzajksw","1920","1080","0","1","0","5ea98f445ef6ee093f4f05ec","","null","","","","","","","learning/Slide103.JPG","null","","","","","",""
"html-keyboard-response","314","354475","0.0-7.0-1.22","FL","rhglzajksw","1920","1080","0","1","0","5ea98f445ef6ee093f4f05ec","","null","","","learningBlock2","","","","That was a dep.","null","","","","","",""
"html-keyboard-response","315","355484","0.0-7.0-2.22","FL","rhglzajksw","1920","1080","0","1","0","5ea98f445ef6ee093f4f05ec","","null","","","learningBlock2","","","","<div style=""font-size:60px;""> </div>","null","FL","learning/Slide103.JPG","That was a dep.","","",""
"image-keyboard-response","316","355669","0.0-7.0-0.23","FL","rhglzajksw","1920","1080","0","1","0","5ea98f445ef6ee093f4f05ec","","null","","","","","","","learning/Slide104.JPG","null","","","","","",""
"html-keyboard-response","317","356833","0.0-7.0-1.23","FL","rhglzajksw","1920","1080","0","1","0","5ea98f445ef6ee093f4f05ec","","null","","","learningBlock2","","","","That was a tob.","null","","","","","",""
"html-keyboard-response","318","357841","0.0-7.0-2.23","FL","rhglzajksw","1920","1080","0","1","0","5ea98f445ef6ee093f4f05ec","","null","","","learningBlock2","","","","<div style=""font-size:60px;""> </div>","null","FL","learning/Slide104.JPG","That was a tob.","","",""
"image-keyboard-response","319","358018","0.0-7.0-0.24","FL","rhglzajksw","1920","1080","0","1","0","5ea98f445ef6ee093f4f05ec","","null","","","","","","","learning/Slide105.JPG","null","","","","","",""
"html-keyboard-response","320","359189","0.0-7.0-1.24","FL","rhglzajksw","1920","1080","0","1","0","5ea98f445ef6ee093f4f05ec","","null","","","learningBlock2","","","","That was a dep.","null","","","","","",""
"html-keyboard-response","321","360198","0.0-7.0-2.24","FL","rhglzajksw","1920","1080","0","1","0","5ea98f445ef6ee093f4f05ec","","null","","","learningBlock2","","","","<div style=""font-size:60px;""> </div>","null","FL","learning/Slide105.JPG","That was a dep.","","",""
"image-keyboard-response","322","360385","0.0-7.0-0.25","FL","rhglzajksw","1920","1080","0","1","0","5ea98f445ef6ee093f4f05ec","","null","","","","","","","learning/Slide106.JPG","null","","","","","",""
"html-keyboard-response","323","361550","0.0-7.0-1.25","FL","rhglzajksw","1920","1080","0","1","0","5ea98f445ef6ee093f4f05ec","","null","","","learningBlock2","","","","That was a wug.","null","","","","","",""
"html-keyboard-response","324","362557","0.0-7.0-2.25","FL","rhglzajksw","1920","1080","0","1","0","5ea98f445ef6ee093f4f05ec","","null","","","learningBlock2","","","","<div style=""font-size:60px;""> </div>","null","FL","learning/Slide106.JPG","That was a wug.","","",""
"image-keyboard-response","325","362743","0.0-7.0-0.26","FL","rhglzajksw","1920","1080","0","1","0","5ea98f445ef6ee093f4f05ec","","null","","","","","","","learning/Slide107.JPG","null","","","","","",""
"html-keyboard-response","326","363906","0.0-7.0-1.26","FL","rhglzajksw","1920","1080","0","1","0","5ea98f445ef6ee093f4f05ec","","null","","","learningBlock2","","","","That was a bim.","null","","","","","",""
"html-keyboard-response","327","364918","0.0-7.0-2.26","FL","rhglzajksw","1920","1080","0","1","0","5ea98f445ef6ee093f4f05ec","","null","","","learningBlock2","","","","<div style=""font-size:60px;""> </div>","null","FL","learning/Slide107.JPG","That was a bim.","","",""
"image-keyboard-response","328","365105","0.0-7.0-0.27","FL","rhglzajksw","1920","1080","0","1","0","5ea98f445ef6ee093f4f05ec","","null","","","","","","","learning/Slide108.JPG","null","","","","","",""
"html-keyboard-response","329","366268","0.0-7.0-1.27","FL","rhglzajksw","1920","1080","0","1","0","5ea98f445ef6ee093f4f05ec","","null","","","learningBlock2","","","","That was a dep.","null","","","","","",""
"html-keyboard-response","330","367281","0.0-7.0-2.27","FL","rhglzajksw","1920","1080","0","1","0","5ea98f445ef6ee093f4f05ec","","null","","","learningBlock2","","","","<div style=""font-size:60px;""> </div>","null","FL","learning/Slide108.JPG","That was a dep.","","",""
"image-keyboard-response","331","367467","0.0-7.0-0.28","FL","rhglzajksw","1920","1080","0","1","0","5ea98f445ef6ee093f4f05ec","","null","","","","","","","learning/Slide109.JPG","null","","","","","",""
"html-keyboard-response","332","368624","0.0-7.0-1.28","FL","rhglzajksw","1920","1080","0","1","0","5ea98f445ef6ee093f4f05ec","","null","","","learningBlock2","","","","That was a wug.","null","","","","","",""
"html-keyboard-response","333","369632","0.0-7.0-2.28","FL","rhglzajksw","1920","1080","0","1","0","5ea98f445ef6ee093f4f05ec","","null","","","learningBlock2","","","","<div style=""font-size:60px;""> </div>","null","FL","learning/Slide109.JPG","That was a wug.","","",""
"image-keyboard-response","334","369808","0.0-7.0-0.29","FL","rhglzajksw","1920","1080","0","1","0","5ea98f445ef6ee093f4f05ec","","null","","","","","","","learning/Slide110.JPG","null","","","","","",""
"html-keyboard-response","335","370975","0.0-7.0-1.29","FL","rhglzajksw","1920","1080","0","1","0","5ea98f445ef6ee093f4f05ec","","null","","","learningBlock2","","","","That was a bim.","null","","","","","",""
"html-keyboard-response","336","371986","0.0-7.0-2.29","FL","rhglzajksw","1920","1080","0","1","0","5ea98f445ef6ee093f4f05ec","","null","","","learningBlock2","","","","<div style=""font-size:60px;""> </div>","null","FL","learning/Slide110.JPG","That was a bim.","","",""
"image-keyboard-response","337","372171","0.0-7.0-0.30","FL","rhglzajksw","1920","1080","0","1","0","5ea98f445ef6ee093f4f05ec","","null","","","","","","","learning/Slide111.JPG","null","","","","","",""
"html-keyboard-response","338","373335","0.0-7.0-1.30","FL","rhglzajksw","1920","1080","0","1","0","5ea98f445ef6ee093f4f05ec","","null","","","learningBlock2","","","","That was a tob.","null","","","","","",""
"html-keyboard-response","339","374341","0.0-7.0-2.30","FL","rhglzajksw","1920","1080","0","1","0","5ea98f445ef6ee093f4f05ec","","null","","","learningBlock2","","","","<div style=""font-size:60px;""> </div>","null","FL","learning/Slide111.JPG","That was a tob.","","",""
"image-keyboard-response","340","374528","0.0-7.0-0.31","FL","rhglzajksw","1920","1080","0","1","0","5ea98f445ef6ee093f4f05ec","","null","","","","","","","learning/Slide112.JPG","null","","","","","",""
"html-keyboard-response","341","375694","0.0-7.0-1.31","FL","rhglzajksw","1920","1080","0","1","0","5ea98f445ef6ee093f4f05ec","","null","","","learningBlock2","","","","That was a wug.","null","","","","","",""
"html-keyboard-response","342","376702","0.0-7.0-2.31","FL","rhglzajksw","1920","1080","0","1","0","5ea98f445ef6ee093f4f05ec","","null","","","learningBlock2","","","","<div style=""font-size:60px;""> </div>","null","FL","learning/Slide112.JPG","That was a wug.","","",""
"image-keyboard-response","343","376889","0.0-7.0-0.32","FL","rhglzajksw","1920","1080","0","1","0","5ea98f445ef6ee093f4f05ec","","null","","","","","","","learning/Slide113.JPG","null","","","","","",""
"html-keyboard-response","344","378052","0.0-7.0-1.32","FL","rhglzajksw","1920","1080","0","1","0","5ea98f445ef6ee093f4f05ec","","null","","","learningBlock2","","","","That was a tob.","null","","","","","",""
"html-keyboard-response","345","379060","0.0-7.0-2.32","FL","rhglzajksw","1920","1080","0","1","0","5ea98f445ef6ee093f4f05ec","","null","","","learningBlock2","","","","<div style=""font-size:60px;""> </div>","null","FL","learning/Slide113.JPG","That was a tob.","","",""
"image-keyboard-response","346","379236","0.0-7.0-0.33","FL","rhglzajksw","1920","1080","0","1","0","5ea98f445ef6ee093f4f05ec","","null","","","","","","","learning/Slide114.JPG","null","","","","","",""
"html-keyboard-response","347","380409","0.0-7.0-1.33","FL","rhglzajksw","1920","1080","0","1","0","5ea98f445ef6ee093f4f05ec","","null","","","learningBlock2","","","","That was a wug.","null","","","","","",""
"html-keyboard-response","348","381415","0.0-7.0-2.33","FL","rhglzajksw","1920","1080","0","1","0","5ea98f445ef6ee093f4f05ec","","null","","","learningBlock2","","","","<div style=""font-size:60px;""> </div>","null","FL","learning/Slide114.JPG","That was a wug.","","",""
"image-keyboard-response","349","381601","0.0-7.0-0.34","FL","rhglzajksw","1920","1080","0","1","0","5ea98f445ef6ee093f4f05ec","","null","","","","","","","learning/Slide115.JPG","null","","","","","",""
"html-keyboard-response","350","382767","0.0-7.0-1.34","FL","rhglzajksw","1920","1080","0","1","0","5ea98f445ef6ee093f4f05ec","","null","","","learningBlock2","","","","That was a bim.","null","","","","","",""
"html-keyboard-response","351","383777","0.0-7.0-2.34","FL","rhglzajksw","1920","1080","0","1","0","5ea98f445ef6ee093f4f05ec","","null","","","learningBlock2","","","","<div style=""font-size:60px;""> </div>","null","FL","learning/Slide115.JPG","That was a bim.","","",""
"image-keyboard-response","352","383954","0.0-7.0-0.35","FL","rhglzajksw","1920","1080","0","1","0","5ea98f445ef6ee093f4f05ec","","null","","","","","","","learning/Slide116.JPG","null","","","","","",""
"html-keyboard-response","353","385127","0.0-7.0-1.35","FL","rhglzajksw","1920","1080","0","1","0","5ea98f445ef6ee093f4f05ec","","null","","","learningBlock2","","","","That was a dep.","null","","","","","",""
"html-keyboard-response","354","386136","0.0-7.0-2.35","FL","rhglzajksw","1920","1080","0","1","0","5ea98f445ef6ee093f4f05ec","","null","","","learningBlock2","","","","<div style=""font-size:60px;""> </div>","null","FL","learning/Slide116.JPG","That was a dep.","","",""
"image-keyboard-response","355","386321","0.0-7.0-0.36","FL","rhglzajksw","1920","1080","0","1","0","5ea98f445ef6ee093f4f05ec","","null","","","","","","","learning/Slide117.JPG","null","","","","","",""
"html-keyboard-response","356","387486","0.0-7.0-1.36","FL","rhglzajksw","1920","1080","0","1","0","5ea98f445ef6ee093f4f05ec","","null","","","learningBlock2","","","","That was a tob.","null","","","","","",""
"html-keyboard-response","357","388493","0.0-7.0-2.36","FL","rhglzajksw","1920","1080","0","1","0","5ea98f445ef6ee093f4f05ec","","null","","","learningBlock2","","","","<div style=""font-size:60px;""> </div>","null","FL","learning/Slide117.JPG","That was a tob.","","",""
"image-keyboard-response","358","388680","0.0-7.0-0.37","FL","rhglzajksw","1920","1080","0","1","0","5ea98f445ef6ee093f4f05ec","","null","","","","","","","learning/Slide118.JPG","null","","","","","",""
"html-keyboard-response","359","389843","0.0-7.0-1.37","FL","rhglzajksw","1920","1080","0","1","0","5ea98f445ef6ee093f4f05ec","","null","","","learningBlock2","","","","That was a dep.","null","","","","","",""
"html-keyboard-response","360","390853","0.0-7.0-2.37","FL","rhglzajksw","1920","1080","0","1","0","5ea98f445ef6ee093f4f05ec","","null","","","learningBlock2","","","","<div style=""font-size:60px;""> </div>","null","FL","learning/Slide118.JPG","That was a dep.","","",""
"image-keyboard-response","361","391037","0.0-7.0-0.38","FL","rhglzajksw","1920","1080","0","1","0","5ea98f445ef6ee093f4f05ec","","null","","","","","","","learning/Slide119.JPG","null","","","","","",""
"html-keyboard-response","362","392199","0.0-7.0-1.38","FL","rhglzajksw","1920","1080","0","1","0","5ea98f445ef6ee093f4f05ec","","null","","","learningBlock2","","","","That was a wug.","null","","","","","",""
"html-keyboard-response","363","393210","0.0-7.0-2.38","FL","rhglzajksw","1920","1080","0","1","0","5ea98f445ef6ee093f4f05ec","","null","","","learningBlock2","","","","<div style=""font-size:60px;""> </div>","null","FL","learning/Slide119.JPG","That was a wug.","","",""
"image-keyboard-response","364","393396","0.0-7.0-0.39","FL","rhglzajksw","1920","1080","0","1","0","5ea98f445ef6ee093f4f05ec","","null","","","","","","","learning/Slide120.JPG","null","","","","","",""
"html-keyboard-response","365","394562","0.0-7.0-1.39","FL","rhglzajksw","1920","1080","0","1","0","5ea98f445ef6ee093f4f05ec","","null","","","learningBlock2","","","","That was a dep.","null","","","","","",""
"html-keyboard-response","366","395568","0.0-7.0-2.39","FL","rhglzajksw","1920","1080","0","1","0","5ea98f445ef6ee093f4f05ec","","null","","","learningBlock2","","","","<div style=""font-size:60px;""> </div>","null","FL","learning/Slide120.JPG","That was a dep.","","",""
"image-keyboard-response","367","395744","0.0-7.0-0.40","FL","rhglzajksw","1920","1080","0","1","0","5ea98f445ef6ee093f4f05ec","","null","","","","","","","learning/Slide121.JPG","null","","","","","",""
"html-keyboard-response","368","396917","0.0-7.0-1.40","FL","rhglzajksw","1920","1080","0","1","0","5ea98f445ef6ee093f4f05ec","","null","","","learningBlock2","","","","That was a bim.","null","","","","","",""
"html-keyboard-response","369","397924","0.0-7.0-2.40","FL","rhglzajksw","1920","1080","0","1","0","5ea98f445ef6ee093f4f05ec","","null","","","learningBlock2","","","","<div style=""font-size:60px;""> </div>","null","FL","learning/Slide121.JPG","That was a bim.","","",""
"image-keyboard-response","370","398100","0.0-7.0-0.41","FL","rhglzajksw","1920","1080","0","1","0","5ea98f445ef6ee093f4f05ec","","null","","","","","","","learning/Slide122.JPG","null","","","","","",""
"html-keyboard-response","371","399271","0.0-7.0-1.41","FL","rhglzajksw","1920","1080","0","1","0","5ea98f445ef6ee093f4f05ec","","null","","","learningBlock2","","","","That was a wug.","null","","","","","",""
"html-keyboard-response","372","400278","0.0-7.0-2.41","FL","rhglzajksw","1920","1080","0","1","0","5ea98f445ef6ee093f4f05ec","","null","","","learningBlock2","","","","<div style=""font-size:60px;""> </div>","null","FL","learning/Slide122.JPG","That was a wug.","","",""
"image-keyboard-response","373","400465","0.0-7.0-0.42","FL","rhglzajksw","1920","1080","0","1","0","5ea98f445ef6ee093f4f05ec","","null","","","","","","","learning/Slide123.JPG","null","","","","","",""
"html-keyboard-response","374","401627","0.0-7.0-1.42","FL","rhglzajksw","1920","1080","0","1","0","5ea98f445ef6ee093f4f05ec","","null","","","learningBlock2","","","","That was a bim.","null","","","","","",""
"html-keyboard-response","375","402633","0.0-7.0-2.42","FL","rhglzajksw","1920","1080","0","1","0","5ea98f445ef6ee093f4f05ec","","null","","","learningBlock2","","","","<div style=""font-size:60px;""> </div>","null","FL","learning/Slide123.JPG","That was a bim.","","",""
"image-keyboard-response","376","402809","0.0-7.0-0.43","FL","rhglzajksw","1920","1080","0","1","0","5ea98f445ef6ee093f4f05ec","","null","","","","","","","learning/Slide124.JPG","null","","","","","",""
"html-keyboard-response","377","403967","0.0-7.0-1.43","FL","rhglzajksw","1920","1080","0","1","0","5ea98f445ef6ee093f4f05ec","","null","","","learningBlock2","","","","That was a tob.","null","","","","","",""
"html-keyboard-response","378","404975","0.0-7.0-2.43","FL","rhglzajksw","1920","1080","0","1","0","5ea98f445ef6ee093f4f05ec","","null","","","learningBlock2","","","","<div style=""font-size:60px;""> </div>","null","FL","learning/Slide124.JPG","That was a tob.","","",""
"image-keyboard-response","379","405158","0.0-7.0-0.44","FL","rhglzajksw","1920","1080","0","1","0","5ea98f445ef6ee093f4f05ec","","null","","","","","","","learning/Slide125.JPG","null","","","","","",""
"html-keyboard-response","380","406319","0.0-7.0-1.44","FL","rhglzajksw","1920","1080","0","1","0","5ea98f445ef6ee093f4f05ec","","null","","","learningBlock2","","","","That was a bim.","null","","","","","",""
"html-keyboard-response","381","407327","0.0-7.0-2.44","FL","rhglzajksw","1920","1080","0","1","0","5ea98f445ef6ee093f4f05ec","","null","","","learningBlock2","","","","<div style=""font-size:60px;""> </div>","null","FL","learning/Slide125.JPG","That was a bim.","","",""
"image-keyboard-response","382","407503","0.0-7.0-0.45","FL","rhglzajksw","1920","1080","0","1","0","5ea98f445ef6ee093f4f05ec","","null","","","","","","","learning/Slide126.JPG","null","","","","","",""
"html-keyboard-response","383","408675","0.0-7.0-1.45","FL","rhglzajksw","1920","1080","0","1","0","5ea98f445ef6ee093f4f05ec","","null","","","learningBlock2","","","","That was a tob.","null","","","","","",""
"html-keyboard-response","384","409685","0.0-7.0-2.45","FL","rhglzajksw","1920","1080","0","1","0","5ea98f445ef6ee093f4f05ec","","null","","","learningBlock2","","","","<div style=""font-size:60px;""> </div>","null","FL","learning/Slide126.JPG","That was a tob.","","",""
"image-keyboard-response","385","409870","0.0-7.0-0.46","FL","rhglzajksw","1920","1080","0","1","0","5ea98f445ef6ee093f4f05ec","","null","","","","","","","learning/Slide127.JPG","null","","","","","",""
"html-keyboard-response","386","411032","0.0-7.0-1.46","FL","rhglzajksw","1920","1080","0","1","0","5ea98f445ef6ee093f4f05ec","","null","","","learningBlock2","","","","That was a dep.","null","","","","","",""
"html-keyboard-response","387","412039","0.0-7.0-2.46","FL","rhglzajksw","1920","1080","0","1","0","5ea98f445ef6ee093f4f05ec","","null","","","learningBlock2","","","","<div style=""font-size:60px;""> </div>","null","FL","learning/Slide127.JPG","That was a dep.","","",""
"image-keyboard-response","388","412223","0.0-7.0-0.47","FL","rhglzajksw","1920","1080","0","1","0","5ea98f445ef6ee093f4f05ec","","null","","","","","","","learning/Slide128.JPG","null","","","","","",""
"html-keyboard-response","389","413379","0.0-7.0-1.47","FL","rhglzajksw","1920","1080","0","1","0","5ea98f445ef6ee093f4f05ec","","null","","","learningBlock2","","","","That was a wug.","null","","","","","",""
"html-keyboard-response","390","414387","0.0-7.0-2.47","FL","rhglzajksw","1920","1080","0","1","0","5ea98f445ef6ee093f4f05ec","","null","","","learningBlock2","","","","<div style=""font-size:60px;""> </div>","null","FL","learning/Slide128.JPG","That was a wug.","","",""
"image-keyboard-response","391","414573","0.0-7.0-0.48","FL","rhglzajksw","1920","1080","0","1","0","5ea98f445ef6ee093f4f05ec","","null","","","","","","","learning/Slide129.JPG","null","","","","","",""
"html-keyboard-response","392","415734","0.0-7.0-1.48","FL","rhglzajksw","1920","1080","0","1","0","5ea98f445ef6ee093f4f05ec","","null","","","learningBlock2","","","","That was a tob.","null","","","","","",""
"html-keyboard-response","393","416743","0.0-7.0-2.48","FL","rhglzajksw","1920","1080","0","1","0","5ea98f445ef6ee093f4f05ec","","null","","","learningBlock2","","","","<div style=""font-size:60px;""> </div>","null","FL","learning/Slide129.JPG","That was a tob.","","",""
"image-keyboard-response","394","416920","0.0-7.0-0.49","FL","rhglzajksw","1920","1080","0","1","0","5ea98f445ef6ee093f4f05ec","","null","","","","","","","learning/Slide130.JPG","null","","","","","",""
"html-keyboard-response","395","418092","0.0-7.0-1.49","FL","rhglzajksw","1920","1080","0","1","0","5ea98f445ef6ee093f4f05ec","","null","","","learningBlock2","","","","That was a wug.","null","","","","","",""
"html-keyboard-response","396","419098","0.0-7.0-2.49","FL","rhglzajksw","1920","1080","0","1","0","5ea98f445ef6ee093f4f05ec","","null","","","learningBlock2","","","","<div style=""font-size:60px;""> </div>","null","FL","learning/Slide130.JPG","That was a wug.","","",""
"image-keyboard-response","397","419284","0.0-7.0-0.50","FL","rhglzajksw","1920","1080","0","1","0","5ea98f445ef6ee093f4f05ec","","null","","","","","","","learning/Slide131.JPG","null","","","","","",""
"html-keyboard-response","398","420447","0.0-7.0-1.50","FL","rhglzajksw","1920","1080","0","1","0","5ea98f445ef6ee093f4f05ec","","null","","","learningBlock2","","","","That was a bim.","null","","","","","",""
"html-keyboard-response","399","421456","0.0-7.0-2.50","FL","rhglzajksw","1920","1080","0","1","0","5ea98f445ef6ee093f4f05ec","","null","","","learningBlock2","","","","<div style=""font-size:60px;""> </div>","null","FL","learning/Slide131.JPG","That was a bim.","","",""
"image-keyboard-response","400","421633","0.0-7.0-0.51","FL","rhglzajksw","1920","1080","0","1","0","5ea98f445ef6ee093f4f05ec","","null","","","","","","","learning/Slide132.JPG","null","","","","","",""
"html-keyboard-response","401","422805","0.0-7.0-1.51","FL","rhglzajksw","1920","1080","0","1","0","5ea98f445ef6ee093f4f05ec","","null","","","learningBlock2","","","","That was a dep.","null","","","","","",""
"html-keyboard-response","402","423812","0.0-7.0-2.51","FL","rhglzajksw","1920","1080","0","1","0","5ea98f445ef6ee093f4f05ec","","null","","","learningBlock2","","","","<div style=""font-size:60px;""> </div>","null","FL","learning/Slide132.JPG","That was a dep.","","",""
"image-keyboard-response","403","423989","0.0-7.0-0.52","FL","rhglzajksw","1920","1080","0","1","0","5ea98f445ef6ee093f4f05ec","","null","","","","","","","learning/Slide133.JPG","null","","","","","",""
"html-keyboard-response","404","425152","0.0-7.0-1.52","FL","rhglzajksw","1920","1080","0","1","0","5ea98f445ef6ee093f4f05ec","","null","","","learningBlock2","","","","That was a tob.","null","","","","","",""
"html-keyboard-response","405","426159","0.0-7.0-2.52","FL","rhglzajksw","1920","1080","0","1","0","5ea98f445ef6ee093f4f05ec","","null","","","learningBlock2","","","","<div style=""font-size:60px;""> </div>","null","FL","learning/Slide133.JPG","That was a tob.","","",""
"image-keyboard-response","406","426335","0.0-7.0-0.53","FL","rhglzajksw","1920","1080","0","1","0","5ea98f445ef6ee093f4f05ec","","null","","","","","","","learning/Slide134.JPG","null","","","","","",""
"html-keyboard-response","407","427507","0.0-7.0-1.53","FL","rhglzajksw","1920","1080","0","1","0","5ea98f445ef6ee093f4f05ec","","null","","","learningBlock2","","","","That was a dep.","null","","","","","",""
"html-keyboard-response","408","428513","0.0-7.0-2.53","FL","rhglzajksw","1920","1080","0","1","0","5ea98f445ef6ee093f4f05ec","","null","","","learningBlock2","","","","<div style=""font-size:60px;""> </div>","null","FL","learning/Slide134.JPG","That was a dep.","","",""
"image-keyboard-response","409","428700","0.0-7.0-0.54","FL","rhglzajksw","1920","1080","0","1","0","5ea98f445ef6ee093f4f05ec","","null","","","","","","","learning/Slide135.JPG","null","","","","","",""
"html-keyboard-response","410","429864","0.0-7.0-1.54","FL","rhglzajksw","1920","1080","0","1","0","5ea98f445ef6ee093f4f05ec","","null","","","learningBlock2","","","","That was a tob.","null","","","","","",""
"html-keyboard-response","411","430870","0.0-7.0-2.54","FL","rhglzajksw","1920","1080","0","1","0","5ea98f445ef6ee093f4f05ec","","null","","","learningBlock2","","","","<div style=""font-size:60px;""> </div>","null","FL","learning/Slide135.JPG","That was a tob.","","",""
"image-keyboard-response","412","431057","0.0-7.0-0.55","FL","rhglzajksw","1920","1080","0","1","0","5ea98f445ef6ee093f4f05ec","","null","","","","","","","learning/Slide136.JPG","null","","","","","",""
"html-keyboard-response","413","432219","0.0-7.0-1.55","FL","rhglzajksw","1920","1080","0","1","0","5ea98f445ef6ee093f4f05ec","","null","","","learningBlock2","","","","That was a wug.","null","","","","","",""
"html-keyboard-response","414","433230","0.0-7.0-2.55","FL","rhglzajksw","1920","1080","0","1","0","5ea98f445ef6ee093f4f05ec","","null","","","learningBlock2","","","","<div style=""font-size:60px;""> </div>","null","FL","learning/Slide136.JPG","That was a wug.","","",""
"image-keyboard-response","415","433417","0.0-7.0-0.56","FL","rhglzajksw","1920","1080","0","1","0","5ea98f445ef6ee093f4f05ec","","null","","","","","","","learning/Slide137.JPG","null","","","","","",""
"html-keyboard-response","416","434575","0.0-7.0-1.56","FL","rhglzajksw","1920","1080","0","1","0","5ea98f445ef6ee093f4f05ec","","null","","","learningBlock2","","","","That was a tob.","null","","","","","",""
"html-keyboard-response","417","435588","0.0-7.0-2.56","FL","rhglzajksw","1920","1080","0","1","0","5ea98f445ef6ee093f4f05ec","","null","","","learningBlock2","","","","<div style=""font-size:60px;""> </div>","null","FL","learning/Slide137.JPG","That was a tob.","","",""
"image-keyboard-response","418","435776","0.0-7.0-0.57","FL","rhglzajksw","1920","1080","0","1","0","5ea98f445ef6ee093f4f05ec","","null","","","","","","","learning/Slide138.JPG","null","","","","","",""
"html-keyboard-response","419","436942","0.0-7.0-1.57","FL","rhglzajksw","1920","1080","0","1","0","5ea98f445ef6ee093f4f05ec","","null","","","learningBlock2","","","","That was a bim.","null","","","","","",""
"html-keyboard-response","420","437952","0.0-7.0-2.57","FL","rhglzajksw","1920","1080","0","1","0","5ea98f445ef6ee093f4f05ec","","null","","","learningBlock2","","","","<div style=""font-size:60px;""> </div>","null","FL","learning/Slide138.JPG","That was a bim.","","",""
"image-keyboard-response","421","438136","0.0-7.0-0.58","FL","rhglzajksw","1920","1080","0","1","0","5ea98f445ef6ee093f4f05ec","","null","","","","","","","learning/Slide139.JPG","null","","","","","",""
"html-keyboard-response","422","439296","0.0-7.0-1.58","FL","rhglzajksw","1920","1080","0","1","0","5ea98f445ef6ee093f4f05ec","","null","","","learningBlock2","","","","That was a wug.","null","","","","","",""
"html-keyboard-response","423","440303","0.0-7.0-2.58","FL","rhglzajksw","1920","1080","0","1","0","5ea98f445ef6ee093f4f05ec","","null","","","learningBlock2","","","","<div style=""font-size:60px;""> </div>","null","FL","learning/Slide139.JPG","That was a wug.","","",""
"image-keyboard-response","424","440489","0.0-7.0-0.59","FL","rhglzajksw","1920","1080","0","1","0","5ea98f445ef6ee093f4f05ec","","null","","","","","","","learning/Slide140.JPG","null","","","","","",""
"html-keyboard-response","425","441652","0.0-7.0-1.59","FL","rhglzajksw","1920","1080","0","1","0","5ea98f445ef6ee093f4f05ec","","null","","","learningBlock2","","","","That was a dep.","null","","","","","",""
"html-keyboard-response","426","442660","0.0-7.0-2.59","FL","rhglzajksw","1920","1080","0","1","0","5ea98f445ef6ee093f4f05ec","","null","","","learningBlock2","","","","<div style=""font-size:60px;""> </div>","null","FL","learning/Slide140.JPG","That was a dep.","","",""
"image-keyboard-response","427","442836","0.0-7.0-0.60","FL","rhglzajksw","1920","1080","0","1","0","5ea98f445ef6ee093f4f05ec","","null","","","","","","","learning/Slide141.JPG","null","","","","","",""
"html-keyboard-response","428","444005","0.0-7.0-1.60","FL","rhglzajksw","1920","1080","0","1","0","5ea98f445ef6ee093f4f05ec","","null","","","learningBlock2","","","","That was a tob.","null","","","","","",""
"html-keyboard-response","429","445012","0.0-7.0-2.60","FL","rhglzajksw","1920","1080","0","1","0","5ea98f445ef6ee093f4f05ec","","null","","","learningBlock2","","","","<div style=""font-size:60px;""> </div>","null","FL","learning/Slide141.JPG","That was a tob.","","",""
"image-keyboard-response","430","445189","0.0-7.0-0.61","FL","rhglzajksw","1920","1080","0","1","0","5ea98f445ef6ee093f4f05ec","","null","","","","","","","learning/Slide142.JPG","null","","","","","",""
"html-keyboard-response","431","446362","0.0-7.0-1.61","FL","rhglzajksw","1920","1080","0","1","0","5ea98f445ef6ee093f4f05ec","","null","","","learningBlock2","","","","That was a wug.","null","","","","","",""
"html-keyboard-response","432","447374","0.0-7.0-2.61","FL","rhglzajksw","1920","1080","0","1","0","5ea98f445ef6ee093f4f05ec","","null","","","learningBlock2","","","","<div style=""font-size:60px;""> </div>","null","FL","learning/Slide142.JPG","That was a wug.","","",""
"image-keyboard-response","433","447551","0.0-7.0-0.62","FL","rhglzajksw","1920","1080","0","1","0","5ea98f445ef6ee093f4f05ec","","null","","","","","","","learning/Slide143.JPG","null","","","","","",""
"html-keyboard-response","434","448722","0.0-7.0-1.62","FL","rhglzajksw","1920","1080","0","1","0","5ea98f445ef6ee093f4f05ec","","null","","","learningBlock2","","","","That was a bim.","null","","","","","",""
