"trial_type","trial_index","time_elapsed","internal_node_id","condition","subject","screen_width","screen_height","attention","distraction","conscientious","prolificID","success","rt","url","view_history","test_part","final_height_px","final_width_px","scale_factor","stimulus","key_press","learningType","presentedImage","presentedLabel","button_pressed","response","responses"
"pavlovia","0","14","0.0-0.0","LF","t2ubvm70lv","1920","1080","0","1","0","5f858743256d25036d9fa693","","","","","","","","","","","","","","","",""
"fullscreen","1","5286","0.0-1.0","LF","t2ubvm70lv","1920","1080","0","1","0","5f858743256d25036d9fa693","true","","","","","","","","","","","","","","",""
"external-html","2","131189","0.0-2.0-0.0","LF","t2ubvm70lv","1920","1080","0","1","0","5f858743256d25036d9fa693","","125543.97999999857","text/information_english.html","","","","","","","","","","","","",""
"external-html","3","221307","0.0-2.0-1.0","LF","t2ubvm70lv","1920","1080","0","1","0","5f858743256d25036d9fa693","","90033.04500000016","text/consent_english.html","","","","","","","","","","","","",""
"instructions","4","234084","0.0-3.0","LF","t2ubvm70lv","1920","1080","0","1","0","5f858743256d25036d9fa693","","NA","","[{""page_index"":0,""viewing_time"":2399.644999999524},{""page_index"":1,""viewing_time"":10363.550000000017}]","instructions","","","","","","","","","","",""
"resize","5","344551","0.0-4.0","LF","t2ubvm70lv","1920","1080","0","1","0","5f858743256d25036d9fa693","","","","","","","356","2.2603174603174603","","","","","","","",""
"html-keyboard-response","6","345556","0.0-5.0-0.0","LF","t2ubvm70lv","1920","1080","0","1","0","5f858743256d25036d9fa693","","null","","","learningBlock1","","","","This is a tob:","null","","","","","",""
"image-keyboard-response","7","345884","0.0-5.0-1.0","LF","t2ubvm70lv","1920","1080","0","1","0","5f858743256d25036d9fa693","","null","","","","","","","learning/Slide1.JPG","null","","","","","",""
"html-keyboard-response","8","346887","0.0-5.0-2.0","LF","t2ubvm70lv","1920","1080","0","1","0","5f858743256d25036d9fa693","","null","","","learningBlock1","","","","<div style=""font-size:60px;""> </div>","null","LF","learning/Slide1.JPG","This is a tob:","","",""
"html-keyboard-response","9","347889","0.0-5.0-0.1","LF","t2ubvm70lv","1920","1080","0","1","0","5f858743256d25036d9fa693","","null","","","learningBlock1","","","","This is a wug:","null","","","","","",""
"image-keyboard-response","10","348218","0.0-5.0-1.1","LF","t2ubvm70lv","1920","1080","0","1","0","5f858743256d25036d9fa693","","null","","","","","","","learning/Slide2.JPG","null","","","","","",""
"html-keyboard-response","11","349220","0.0-5.0-2.1","LF","t2ubvm70lv","1920","1080","0","1","0","5f858743256d25036d9fa693","","null","","","learningBlock1","","","","<div style=""font-size:60px;""> </div>","null","LF","learning/Slide2.JPG","This is a wug:","","",""
"html-keyboard-response","12","350221","0.0-5.0-0.2","LF","t2ubvm70lv","1920","1080","0","1","0","5f858743256d25036d9fa693","","null","","","learningBlock1","","","","This is a bim:","null","","","","","",""
"image-keyboard-response","13","350548","0.0-5.0-1.2","LF","t2ubvm70lv","1920","1080","0","1","0","5f858743256d25036d9fa693","","null","","","","","","","learning/Slide3.JPG","null","","","","","",""
"html-keyboard-response","14","351550","0.0-5.0-2.2","LF","t2ubvm70lv","1920","1080","0","1","0","5f858743256d25036d9fa693","","null","","","learningBlock1","","","","<div style=""font-size:60px;""> </div>","null","LF","learning/Slide3.JPG","This is a bim:","","",""
"html-keyboard-response","15","352552","0.0-5.0-0.3","LF","t2ubvm70lv","1920","1080","0","1","0","5f858743256d25036d9fa693","","null","","","learningBlock1","","","","This is a dep:","null","","","","","",""
"image-keyboard-response","16","352878","0.0-5.0-1.3","LF","t2ubvm70lv","1920","1080","0","1","0","5f858743256d25036d9fa693","","null","","","","","","","learning/Slide4.JPG","null","","","","","",""
"html-keyboard-response","17","353880","0.0-5.0-2.3","LF","t2ubvm70lv","1920","1080","0","1","0","5f858743256d25036d9fa693","","null","","","learningBlock1","","","","<div style=""font-size:60px;""> </div>","null","LF","learning/Slide4.JPG","This is a dep:","","",""
"html-keyboard-response","18","354882","0.0-5.0-0.4","LF","t2ubvm70lv","1920","1080","0","1","0","5f858743256d25036d9fa693","","null","","","learningBlock1","","","","This is a wug:","null","","","","","",""
"image-keyboard-response","19","355209","0.0-5.0-1.4","LF","t2ubvm70lv","1920","1080","0","1","0","5f858743256d25036d9fa693","","null","","","","","","","learning/Slide5.JPG","null","","","","","",""
"html-keyboard-response","20","356211","0.0-5.0-2.4","LF","t2ubvm70lv","1920","1080","0","1","0","5f858743256d25036d9fa693","","null","","","learningBlock1","","","","<div style=""font-size:60px;""> </div>","null","LF","learning/Slide5.JPG","This is a wug:","","",""
"html-keyboard-response","21","357213","0.0-5.0-0.5","LF","t2ubvm70lv","1920","1080","0","1","0","5f858743256d25036d9fa693","","null","","","learningBlock1","","","","This is a dep:","null","","","","","",""
"image-keyboard-response","22","357540","0.0-5.0-1.5","LF","t2ubvm70lv","1920","1080","0","1","0","5f858743256d25036d9fa693","","null","","","","","","","learning/Slide6.JPG","null","","","","","",""
"html-keyboard-response","23","358542","0.0-5.0-2.5","LF","t2ubvm70lv","1920","1080","0","1","0","5f858743256d25036d9fa693","","null","","","learningBlock1","","","","<div style=""font-size:60px;""> </div>","null","LF","learning/Slide6.JPG","This is a dep:","","",""
"html-keyboard-response","24","359544","0.0-5.0-0.6","LF","t2ubvm70lv","1920","1080","0","1","0","5f858743256d25036d9fa693","","null","","","learningBlock1","","","","This is a wug:","null","","","","","",""
"image-keyboard-response","25","359872","0.0-5.0-1.6","LF","t2ubvm70lv","1920","1080","0","1","0","5f858743256d25036d9fa693","","null","","","","","","","learning/Slide7.JPG","null","","","","","",""
"html-keyboard-response","26","360874","0.0-5.0-2.6","LF","t2ubvm70lv","1920","1080","0","1","0","5f858743256d25036d9fa693","","null","","","learningBlock1","","","","<div style=""font-size:60px;""> </div>","null","LF","learning/Slide7.JPG","This is a wug:","","",""
"html-keyboard-response","27","361875","0.0-5.0-0.7","LF","t2ubvm70lv","1920","1080","0","1","0","5f858743256d25036d9fa693","","null","","","learningBlock1","","","","This is a bim:","null","","","","","",""
"image-keyboard-response","28","362202","0.0-5.0-1.7","LF","t2ubvm70lv","1920","1080","0","1","0","5f858743256d25036d9fa693","","null","","","","","","","learning/Slide8.JPG","null","","","","","",""
"html-keyboard-response","29","363204","0.0-5.0-2.7","LF","t2ubvm70lv","1920","1080","0","1","0","5f858743256d25036d9fa693","","null","","","learningBlock1","","","","<div style=""font-size:60px;""> </div>","null","LF","learning/Slide8.JPG","This is a bim:","","",""
"html-keyboard-response","30","364206","0.0-5.0-0.8","LF","t2ubvm70lv","1920","1080","0","1","0","5f858743256d25036d9fa693","","null","","","learningBlock1","","","","This is a wug:","null","","","","","",""
"image-keyboard-response","31","364533","0.0-5.0-1.8","LF","t2ubvm70lv","1920","1080","0","1","0","5f858743256d25036d9fa693","","null","","","","","","","learning/Slide9.JPG","null","","","","","",""
"html-keyboard-response","32","365535","0.0-5.0-2.8","LF","t2ubvm70lv","1920","1080","0","1","0","5f858743256d25036d9fa693","","null","","","learningBlock1","","","","<div style=""font-size:60px;""> </div>","null","LF","learning/Slide9.JPG","This is a wug:","","",""
"html-keyboard-response","33","366537","0.0-5.0-0.9","LF","t2ubvm70lv","1920","1080","0","1","0","5f858743256d25036d9fa693","","null","","","learningBlock1","","","","This is a dep:","null","","","","","",""
"image-keyboard-response","34","366864","0.0-5.0-1.9","LF","t2ubvm70lv","1920","1080","0","1","0","5f858743256d25036d9fa693","","null","","","","","","","learning/Slide10.JPG","null","","","","","",""
"html-keyboard-response","35","367866","0.0-5.0-2.9","LF","t2ubvm70lv","1920","1080","0","1","0","5f858743256d25036d9fa693","","null","","","learningBlock1","","","","<div style=""font-size:60px;""> </div>","null","LF","learning/Slide10.JPG","This is a dep:","","",""
"html-keyboard-response","36","368868","0.0-5.0-0.10","LF","t2ubvm70lv","1920","1080","0","1","0","5f858743256d25036d9fa693","","null","","","learningBlock1","","","","This is a tob:","null","","","","","",""
"image-keyboard-response","37","369195","0.0-5.0-1.10","LF","t2ubvm70lv","1920","1080","0","1","0","5f858743256d25036d9fa693","","null","","","","","","","learning/Slide11.JPG","null","","","","","",""
"html-keyboard-response","38","370197","0.0-5.0-2.10","LF","t2ubvm70lv","1920","1080","0","1","0","5f858743256d25036d9fa693","","null","","","learningBlock1","","","","<div style=""font-size:60px;""> </div>","null","LF","learning/Slide11.JPG","This is a tob:","","",""
"html-keyboard-response","39","371200","0.0-5.0-0.11","LF","t2ubvm70lv","1920","1080","0","1","0","5f858743256d25036d9fa693","","null","","","learningBlock1","","","","This is a dep:","null","","","","","",""
"image-keyboard-response","40","371527","0.0-5.0-1.11","LF","t2ubvm70lv","1920","1080","0","1","0","5f858743256d25036d9fa693","","null","","","","","","","learning/Slide12.JPG","null","","","","","",""
"html-keyboard-response","41","372529","0.0-5.0-2.11","LF","t2ubvm70lv","1920","1080","0","1","0","5f858743256d25036d9fa693","","null","","","learningBlock1","","","","<div style=""font-size:60px;""> </div>","null","LF","learning/Slide12.JPG","This is a dep:","","",""
"html-keyboard-response","42","373530","0.0-5.0-0.12","LF","t2ubvm70lv","1920","1080","0","1","0","5f858743256d25036d9fa693","","null","","","learningBlock1","","","","This is a bim:","null","","","","","",""
"image-keyboard-response","43","373857","0.0-5.0-1.12","LF","t2ubvm70lv","1920","1080","0","1","0","5f858743256d25036d9fa693","","null","","","","","","","learning/Slide13.JPG","null","","","","","",""
"html-keyboard-response","44","374859","0.0-5.0-2.12","LF","t2ubvm70lv","1920","1080","0","1","0","5f858743256d25036d9fa693","","null","","","learningBlock1","","","","<div style=""font-size:60px;""> </div>","null","LF","learning/Slide13.JPG","This is a bim:","","",""
"html-keyboard-response","45","375860","0.0-5.0-0.13","LF","t2ubvm70lv","1920","1080","0","1","0","5f858743256d25036d9fa693","","null","","","learningBlock1","","","","This is a wug:","null","","","","","",""
"image-keyboard-response","46","376188","0.0-5.0-1.13","LF","t2ubvm70lv","1920","1080","0","1","0","5f858743256d25036d9fa693","","null","","","","","","","learning/Slide14.JPG","null","","","","","",""
"html-keyboard-response","47","377190","0.0-5.0-2.13","LF","t2ubvm70lv","1920","1080","0","1","0","5f858743256d25036d9fa693","","null","","","learningBlock1","","","","<div style=""font-size:60px;""> </div>","null","LF","learning/Slide14.JPG","This is a wug:","","",""
"html-keyboard-response","48","378192","0.0-5.0-0.14","LF","t2ubvm70lv","1920","1080","0","1","0","5f858743256d25036d9fa693","","null","","","learningBlock1","","","","This is a tob:","null","","","","","",""
"image-keyboard-response","49","378519","0.0-5.0-1.14","LF","t2ubvm70lv","1920","1080","0","1","0","5f858743256d25036d9fa693","","null","","","","","","","learning/Slide15.JPG","null","","","","","",""
"html-keyboard-response","50","379521","0.0-5.0-2.14","LF","t2ubvm70lv","1920","1080","0","1","0","5f858743256d25036d9fa693","","null","","","learningBlock1","","","","<div style=""font-size:60px;""> </div>","null","LF","learning/Slide15.JPG","This is a tob:","","",""
"html-keyboard-response","51","380522","0.0-5.0-0.15","LF","t2ubvm70lv","1920","1080","0","1","0","5f858743256d25036d9fa693","","null","","","learningBlock1","","","","This is a dep:","null","","","","","",""
"image-keyboard-response","52","380849","0.0-5.0-1.15","LF","t2ubvm70lv","1920","1080","0","1","0","5f858743256d25036d9fa693","","null","","","","","","","learning/Slide16.JPG","null","","","","","",""
"html-keyboard-response","53","381850","0.0-5.0-2.15","LF","t2ubvm70lv","1920","1080","0","1","0","5f858743256d25036d9fa693","","null","","","learningBlock1","","","","<div style=""font-size:60px;""> </div>","null","LF","learning/Slide16.JPG","This is a dep:","","",""
"html-keyboard-response","54","382851","0.0-5.0-0.16","LF","t2ubvm70lv","1920","1080","0","1","0","5f858743256d25036d9fa693","","null","","","learningBlock1","","","","This is a bim:","null","","","","","",""
"image-keyboard-response","55","383178","0.0-5.0-1.16","LF","t2ubvm70lv","1920","1080","0","1","0","5f858743256d25036d9fa693","","null","","","","","","","learning/Slide17.JPG","null","","","","","",""
"html-keyboard-response","56","384180","0.0-5.0-2.16","LF","t2ubvm70lv","1920","1080","0","1","0","5f858743256d25036d9fa693","","null","","","learningBlock1","","","","<div style=""font-size:60px;""> </div>","null","LF","learning/Slide17.JPG","This is a bim:","","",""
"html-keyboard-response","57","385182","0.0-5.0-0.17","LF","t2ubvm70lv","1920","1080","0","1","0","5f858743256d25036d9fa693","","null","","","learningBlock1","","","","This is a tob:","null","","","","","",""
"image-keyboard-response","58","385509","0.0-5.0-1.17","LF","t2ubvm70lv","1920","1080","0","1","0","5f858743256d25036d9fa693","","null","","","","","","","learning/Slide18.JPG","null","","","","","",""
"html-keyboard-response","59","386511","0.0-5.0-2.17","LF","t2ubvm70lv","1920","1080","0","1","0","5f858743256d25036d9fa693","","null","","","learningBlock1","","","","<div style=""font-size:60px;""> </div>","null","LF","learning/Slide18.JPG","This is a tob:","","",""
"html-keyboard-response","60","387513","0.0-5.0-0.18","LF","t2ubvm70lv","1920","1080","0","1","0","5f858743256d25036d9fa693","","null","","","learningBlock1","","","","This is a wug:","null","","","","","",""
"image-keyboard-response","61","387839","0.0-5.0-1.18","LF","t2ubvm70lv","1920","1080","0","1","0","5f858743256d25036d9fa693","","null","","","","","","","learning/Slide19.JPG","null","","","","","",""
"html-keyboard-response","62","388841","0.0-5.0-2.18","LF","t2ubvm70lv","1920","1080","0","1","0","5f858743256d25036d9fa693","","null","","","learningBlock1","","","","<div style=""font-size:60px;""> </div>","null","LF","learning/Slide19.JPG","This is a wug:","","",""
"html-keyboard-response","63","389843","0.0-5.0-0.19","LF","t2ubvm70lv","1920","1080","0","1","0","5f858743256d25036d9fa693","","null","","","learningBlock1","","","","This is a bim:","null","","","","","",""
"image-keyboard-response","64","390170","0.0-5.0-1.19","LF","t2ubvm70lv","1920","1080","0","1","0","5f858743256d25036d9fa693","","null","","","","","","","learning/Slide20.JPG","null","","","","","",""
"html-keyboard-response","65","391172","0.0-5.0-2.19","LF","t2ubvm70lv","1920","1080","0","1","0","5f858743256d25036d9fa693","","null","","","learningBlock1","","","","<div style=""font-size:60px;""> </div>","null","LF","learning/Slide20.JPG","This is a bim:","","",""
"html-keyboard-response","66","392174","0.0-5.0-0.20","LF","t2ubvm70lv","1920","1080","0","1","0","5f858743256d25036d9fa693","","null","","","learningBlock1","","","","This is a dep:","null","","","","","",""
"image-keyboard-response","67","392501","0.0-5.0-1.20","LF","t2ubvm70lv","1920","1080","0","1","0","5f858743256d25036d9fa693","","null","","","","","","","learning/Slide21.JPG","null","","","","","",""
"html-keyboard-response","68","393503","0.0-5.0-2.20","LF","t2ubvm70lv","1920","1080","0","1","0","5f858743256d25036d9fa693","","null","","","learningBlock1","","","","<div style=""font-size:60px;""> </div>","null","LF","learning/Slide21.JPG","This is a dep:","","",""
"html-keyboard-response","69","394507","0.0-5.0-0.21","LF","t2ubvm70lv","1920","1080","0","1","0","5f858743256d25036d9fa693","","null","","","learningBlock1","","","","This is a bim:","null","","","","","",""
"image-keyboard-response","70","394834","0.0-5.0-1.21","LF","t2ubvm70lv","1920","1080","0","1","0","5f858743256d25036d9fa693","","null","","","","","","","learning/Slide22.JPG","null","","","","","",""
"html-keyboard-response","71","395836","0.0-5.0-2.21","LF","t2ubvm70lv","1920","1080","0","1","0","5f858743256d25036d9fa693","","null","","","learningBlock1","","","","<div style=""font-size:60px;""> </div>","null","LF","learning/Slide22.JPG","This is a bim:","","",""
"html-keyboard-response","72","396837","0.0-5.0-0.22","LF","t2ubvm70lv","1920","1080","0","1","0","5f858743256d25036d9fa693","","null","","","learningBlock1","","","","This is a tob:","null","","","","","",""
"image-keyboard-response","73","397164","0.0-5.0-1.22","LF","t2ubvm70lv","1920","1080","0","1","0","5f858743256d25036d9fa693","","null","","","","","","","learning/Slide23.JPG","null","","","","","",""
"html-keyboard-response","74","398166","0.0-5.0-2.22","LF","t2ubvm70lv","1920","1080","0","1","0","5f858743256d25036d9fa693","","null","","","learningBlock1","","","","<div style=""font-size:60px;""> </div>","null","LF","learning/Slide23.JPG","This is a tob:","","",""
"html-keyboard-response","75","399167","0.0-5.0-0.23","LF","t2ubvm70lv","1920","1080","0","1","0","5f858743256d25036d9fa693","","null","","","learningBlock1","","","","This is a wug:","null","","","","","",""
"image-keyboard-response","76","399495","0.0-5.0-1.23","LF","t2ubvm70lv","1920","1080","0","1","0","5f858743256d25036d9fa693","","null","","","","","","","learning/Slide24.JPG","null","","","","","",""
"html-keyboard-response","77","400497","0.0-5.0-2.23","LF","t2ubvm70lv","1920","1080","0","1","0","5f858743256d25036d9fa693","","null","","","learningBlock1","","","","<div style=""font-size:60px;""> </div>","null","LF","learning/Slide24.JPG","This is a wug:","","",""
"html-keyboard-response","78","401498","0.0-5.0-0.24","LF","t2ubvm70lv","1920","1080","0","1","0","5f858743256d25036d9fa693","","null","","","learningBlock1","","","","This is a dep:","null","","","","","",""
"image-keyboard-response","79","401825","0.0-5.0-1.24","LF","t2ubvm70lv","1920","1080","0","1","0","5f858743256d25036d9fa693","","null","","","","","","","learning/Slide25.JPG","null","","","","","",""
"html-keyboard-response","80","402827","0.0-5.0-2.24","LF","t2ubvm70lv","1920","1080","0","1","0","5f858743256d25036d9fa693","","null","","","learningBlock1","","","","<div style=""font-size:60px;""> </div>","null","LF","learning/Slide25.JPG","This is a dep:","","",""
"html-keyboard-response","81","403828","0.0-5.0-0.25","LF","t2ubvm70lv","1920","1080","0","1","0","5f858743256d25036d9fa693","","null","","","learningBlock1","","","","This is a wug:","null","","","","","",""
"image-keyboard-response","82","404155","0.0-5.0-1.25","LF","t2ubvm70lv","1920","1080","0","1","0","5f858743256d25036d9fa693","","null","","","","","","","learning/Slide26.JPG","null","","","","","",""
"html-keyboard-response","83","405157","0.0-5.0-2.25","LF","t2ubvm70lv","1920","1080","0","1","0","5f858743256d25036d9fa693","","null","","","learningBlock1","","","","<div style=""font-size:60px;""> </div>","null","LF","learning/Slide26.JPG","This is a wug:","","",""
"html-keyboard-response","84","406159","0.0-5.0-0.26","LF","t2ubvm70lv","1920","1080","0","1","0","5f858743256d25036d9fa693","","null","","","learningBlock1","","","","This is a bim:","null","","","","","",""
"image-keyboard-response","85","406486","0.0-5.0-1.26","LF","t2ubvm70lv","1920","1080","0","1","0","5f858743256d25036d9fa693","","null","","","","","","","learning/Slide27.JPG","null","","","","","",""
"html-keyboard-response","86","407488","0.0-5.0-2.26","LF","t2ubvm70lv","1920","1080","0","1","0","5f858743256d25036d9fa693","","null","","","learningBlock1","","","","<div style=""font-size:60px;""> </div>","null","LF","learning/Slide27.JPG","This is a bim:","","",""
"html-keyboard-response","87","408489","0.0-5.0-0.27","LF","t2ubvm70lv","1920","1080","0","1","0","5f858743256d25036d9fa693","","null","","","learningBlock1","","","","This is a dep:","null","","","","","",""
"image-keyboard-response","88","408817","0.0-5.0-1.27","LF","t2ubvm70lv","1920","1080","0","1","0","5f858743256d25036d9fa693","","null","","","","","","","learning/Slide28.JPG","null","","","","","",""
"html-keyboard-response","89","409819","0.0-5.0-2.27","LF","t2ubvm70lv","1920","1080","0","1","0","5f858743256d25036d9fa693","","null","","","learningBlock1","","","","<div style=""font-size:60px;""> </div>","null","LF","learning/Slide28.JPG","This is a dep:","","",""
"html-keyboard-response","90","410821","0.0-5.0-0.28","LF","t2ubvm70lv","1920","1080","0","1","0","5f858743256d25036d9fa693","","null","","","learningBlock1","","","","This is a tob:","null","","","","","",""
"image-keyboard-response","91","411148","0.0-5.0-1.28","LF","t2ubvm70lv","1920","1080","0","1","0","5f858743256d25036d9fa693","","null","","","","","","","learning/Slide29.JPG","null","","","","","",""
"html-keyboard-response","92","412150","0.0-5.0-2.28","LF","t2ubvm70lv","1920","1080","0","1","0","5f858743256d25036d9fa693","","null","","","learningBlock1","","","","<div style=""font-size:60px;""> </div>","null","LF","learning/Slide29.JPG","This is a tob:","","",""
"html-keyboard-response","93","413152","0.0-5.0-0.29","LF","t2ubvm70lv","1920","1080","0","1","0","5f858743256d25036d9fa693","","null","","","learningBlock1","","","","This is a dep:","null","","","","","",""
"image-keyboard-response","94","413479","0.0-5.0-1.29","LF","t2ubvm70lv","1920","1080","0","1","0","5f858743256d25036d9fa693","","null","","","","","","","learning/Slide30.JPG","null","","","","","",""
"html-keyboard-response","95","414481","0.0-5.0-2.29","LF","t2ubvm70lv","1920","1080","0","1","0","5f858743256d25036d9fa693","","null","","","learningBlock1","","","","<div style=""font-size:60px;""> </div>","null","LF","learning/Slide30.JPG","This is a dep:","","",""
"html-keyboard-response","96","415482","0.0-5.0-0.30","LF","t2ubvm70lv","1920","1080","0","1","0","5f858743256d25036d9fa693","","null","","","learningBlock1","","","","This is a wug:","null","","","","","",""
"image-keyboard-response","97","415809","0.0-5.0-1.30","LF","t2ubvm70lv","1920","1080","0","1","0","5f858743256d25036d9fa693","","null","","","","","","","learning/Slide31.JPG","null","","","","","",""
"html-keyboard-response","98","416811","0.0-5.0-2.30","LF","t2ubvm70lv","1920","1080","0","1","0","5f858743256d25036d9fa693","","null","","","learningBlock1","","","","<div style=""font-size:60px;""> </div>","null","LF","learning/Slide31.JPG","This is a wug:","","",""
"html-keyboard-response","99","417813","0.0-5.0-0.31","LF","t2ubvm70lv","1920","1080","0","1","0","5f858743256d25036d9fa693","","null","","","learningBlock1","","","","This is a tob:","null","","","","","",""
"image-keyboard-response","100","418140","0.0-5.0-1.31","LF","t2ubvm70lv","1920","1080","0","1","0","5f858743256d25036d9fa693","","null","","","","","","","learning/Slide32.JPG","null","","","","","",""
"html-keyboard-response","101","419142","0.0-5.0-2.31","LF","t2ubvm70lv","1920","1080","0","1","0","5f858743256d25036d9fa693","","null","","","learningBlock1","","","","<div style=""font-size:60px;""> </div>","null","LF","learning/Slide32.JPG","This is a tob:","","",""
"html-keyboard-response","102","420143","0.0-5.0-0.32","LF","t2ubvm70lv","1920","1080","0","1","0","5f858743256d25036d9fa693","","null","","","learningBlock1","","","","This is a bim:","null","","","","","",""
"image-keyboard-response","103","420470","0.0-5.0-1.32","LF","t2ubvm70lv","1920","1080","0","1","0","5f858743256d25036d9fa693","","null","","","","","","","learning/Slide33.JPG","null","","","","","",""
"html-keyboard-response","104","421472","0.0-5.0-2.32","LF","t2ubvm70lv","1920","1080","0","1","0","5f858743256d25036d9fa693","","null","","","learningBlock1","","","","<div style=""font-size:60px;""> </div>","null","LF","learning/Slide33.JPG","This is a bim:","","",""
"html-keyboard-response","105","422473","0.0-5.0-0.33","LF","t2ubvm70lv","1920","1080","0","1","0","5f858743256d25036d9fa693","","null","","","learningBlock1","","","","This is a tob:","null","","","","","",""
"image-keyboard-response","106","422800","0.0-5.0-1.33","LF","t2ubvm70lv","1920","1080","0","1","0","5f858743256d25036d9fa693","","null","","","","","","","learning/Slide34.JPG","null","","","","","",""
"html-keyboard-response","107","423802","0.0-5.0-2.33","LF","t2ubvm70lv","1920","1080","0","1","0","5f858743256d25036d9fa693","","null","","","learningBlock1","","","","<div style=""font-size:60px;""> </div>","null","LF","learning/Slide34.JPG","This is a tob:","","",""
"html-keyboard-response","108","424803","0.0-5.0-0.34","LF","t2ubvm70lv","1920","1080","0","1","0","5f858743256d25036d9fa693","","null","","","learningBlock1","","","","This is a bim:","null","","","","","",""
"image-keyboard-response","109","425130","0.0-5.0-1.34","LF","t2ubvm70lv","1920","1080","0","1","0","5f858743256d25036d9fa693","","null","","","","","","","learning/Slide35.JPG","null","","","","","",""
"html-keyboard-response","110","426132","0.0-5.0-2.34","LF","t2ubvm70lv","1920","1080","0","1","0","5f858743256d25036d9fa693","","null","","","learningBlock1","","","","<div style=""font-size:60px;""> </div>","null","LF","learning/Slide35.JPG","This is a bim:","","",""
"html-keyboard-response","111","427133","0.0-5.0-0.35","LF","t2ubvm70lv","1920","1080","0","1","0","5f858743256d25036d9fa693","","null","","","learningBlock1","","","","This is a dep:","null","","","","","",""
"image-keyboard-response","112","427460","0.0-5.0-1.35","LF","t2ubvm70lv","1920","1080","0","1","0","5f858743256d25036d9fa693","","null","","","","","","","learning/Slide36.JPG","null","","","","","",""
"html-keyboard-response","113","428462","0.0-5.0-2.35","LF","t2ubvm70lv","1920","1080","0","1","0","5f858743256d25036d9fa693","","null","","","learningBlock1","","","","<div style=""font-size:60px;""> </div>","null","LF","learning/Slide36.JPG","This is a dep:","","",""
"html-keyboard-response","114","429464","0.0-5.0-0.36","LF","t2ubvm70lv","1920","1080","0","1","0","5f858743256d25036d9fa693","","null","","","learningBlock1","","","","This is a tob:","null","","","","","",""
"image-keyboard-response","115","429791","0.0-5.0-1.36","LF","t2ubvm70lv","1920","1080","0","1","0","5f858743256d25036d9fa693","","null","","","","","","","learning/Slide37.JPG","null","","","","","",""
"html-keyboard-response","116","430793","0.0-5.0-2.36","LF","t2ubvm70lv","1920","1080","0","1","0","5f858743256d25036d9fa693","","null","","","learningBlock1","","","","<div style=""font-size:60px;""> </div>","null","LF","learning/Slide37.JPG","This is a tob:","","",""
"html-keyboard-response","117","431794","0.0-5.0-0.37","LF","t2ubvm70lv","1920","1080","0","1","0","5f858743256d25036d9fa693","","null","","","learningBlock1","","","","This is a wug:","null","","","","","",""
"image-keyboard-response","118","432121","0.0-5.0-1.37","LF","t2ubvm70lv","1920","1080","0","1","0","5f858743256d25036d9fa693","","null","","","","","","","learning/Slide38.JPG","null","","","","","",""
"html-keyboard-response","119","433123","0.0-5.0-2.37","LF","t2ubvm70lv","1920","1080","0","1","0","5f858743256d25036d9fa693","","null","","","learningBlock1","","","","<div style=""font-size:60px;""> </div>","null","LF","learning/Slide38.JPG","This is a wug:","","",""
"html-keyboard-response","120","434124","0.0-5.0-0.38","LF","t2ubvm70lv","1920","1080","0","1","0","5f858743256d25036d9fa693","","null","","","learningBlock1","","","","This is a bim:","null","","","","","",""
"image-keyboard-response","121","434451","0.0-5.0-1.38","LF","t2ubvm70lv","1920","1080","0","1","0","5f858743256d25036d9fa693","","null","","","","","","","learning/Slide39.JPG","null","","","","","",""
"html-keyboard-response","122","435453","0.0-5.0-2.38","LF","t2ubvm70lv","1920","1080","0","1","0","5f858743256d25036d9fa693","","null","","","learningBlock1","","","","<div style=""font-size:60px;""> </div>","null","LF","learning/Slide39.JPG","This is a bim:","","",""
"html-keyboard-response","123","436455","0.0-5.0-0.39","LF","t2ubvm70lv","1920","1080","0","1","0","5f858743256d25036d9fa693","","null","","","learningBlock1","","","","This is a tob:","null","","","","","",""
"image-keyboard-response","124","436782","0.0-5.0-1.39","LF","t2ubvm70lv","1920","1080","0","1","0","5f858743256d25036d9fa693","","null","","","","","","","learning/Slide40.JPG","null","","","","","",""
"html-keyboard-response","125","437784","0.0-5.0-2.39","LF","t2ubvm70lv","1920","1080","0","1","0","5f858743256d25036d9fa693","","null","","","learningBlock1","","","","<div style=""font-size:60px;""> </div>","null","LF","learning/Slide40.JPG","This is a tob:","","",""
"html-keyboard-response","126","438786","0.0-5.0-0.40","LF","t2ubvm70lv","1920","1080","0","1","0","5f858743256d25036d9fa693","","null","","","learningBlock1","","","","This is a bim:","null","","","","","",""
"image-keyboard-response","127","439113","0.0-5.0-1.40","LF","t2ubvm70lv","1920","1080","0","1","0","5f858743256d25036d9fa693","","null","","","","","","","learning/Slide41.JPG","null","","","","","",""
"html-keyboard-response","128","440115","0.0-5.0-2.40","LF","t2ubvm70lv","1920","1080","0","1","0","5f858743256d25036d9fa693","","null","","","learningBlock1","","","","<div style=""font-size:60px;""> </div>","null","LF","learning/Slide41.JPG","This is a bim:","","",""
"html-keyboard-response","129","441117","0.0-5.0-0.41","LF","t2ubvm70lv","1920","1080","0","1","0","5f858743256d25036d9fa693","","null","","","learningBlock1","","","","This is a dep:","null","","","","","",""
"image-keyboard-response","130","441444","0.0-5.0-1.41","LF","t2ubvm70lv","1920","1080","0","1","0","5f858743256d25036d9fa693","","null","","","","","","","learning/Slide42.JPG","null","","","","","",""
"html-keyboard-response","131","442446","0.0-5.0-2.41","LF","t2ubvm70lv","1920","1080","0","1","0","5f858743256d25036d9fa693","","null","","","learningBlock1","","","","<div style=""font-size:60px;""> </div>","null","LF","learning/Slide42.JPG","This is a dep:","","",""
"html-keyboard-response","132","443447","0.0-5.0-0.42","LF","t2ubvm70lv","1920","1080","0","1","0","5f858743256d25036d9fa693","","null","","","learningBlock1","","","","This is a wug:","null","","","","","",""
"image-keyboard-response","133","443775","0.0-5.0-1.42","LF","t2ubvm70lv","1920","1080","0","1","0","5f858743256d25036d9fa693","","null","","","","","","","learning/Slide43.JPG","null","","","","","",""
"html-keyboard-response","134","444777","0.0-5.0-2.42","LF","t2ubvm70lv","1920","1080","0","1","0","5f858743256d25036d9fa693","","null","","","learningBlock1","","","","<div style=""font-size:60px;""> </div>","null","LF","learning/Slide43.JPG","This is a wug:","","",""
"html-keyboard-response","135","445779","0.0-5.0-0.43","LF","t2ubvm70lv","1920","1080","0","1","0","5f858743256d25036d9fa693","","null","","","learningBlock1","","","","This is a bim:","null","","","","","",""
"image-keyboard-response","136","446106","0.0-5.0-1.43","LF","t2ubvm70lv","1920","1080","0","1","0","5f858743256d25036d9fa693","","null","","","","","","","learning/Slide44.JPG","null","","","","","",""
"html-keyboard-response","137","447108","0.0-5.0-2.43","LF","t2ubvm70lv","1920","1080","0","1","0","5f858743256d25036d9fa693","","null","","","learningBlock1","","","","<div style=""font-size:60px;""> </div>","null","LF","learning/Slide44.JPG","This is a bim:","","",""
"html-keyboard-response","138","448109","0.0-5.0-0.44","LF","t2ubvm70lv","1920","1080","0","1","0","5f858743256d25036d9fa693","","null","","","learningBlock1","","","","This is a wug:","null","","","","","",""
"image-keyboard-response","139","448436","0.0-5.0-1.44","LF","t2ubvm70lv","1920","1080","0","1","0","5f858743256d25036d9fa693","","null","","","","","","","learning/Slide45.JPG","null","","","","","",""
"html-keyboard-response","140","449438","0.0-5.0-2.44","LF","t2ubvm70lv","1920","1080","0","1","0","5f858743256d25036d9fa693","","null","","","learningBlock1","","","","<div style=""font-size:60px;""> </div>","null","LF","learning/Slide45.JPG","This is a wug:","","",""
"html-keyboard-response","141","450439","0.0-5.0-0.45","LF","t2ubvm70lv","1920","1080","0","1","0","5f858743256d25036d9fa693","","null","","","learningBlock1","","","","This is a dep:","null","","","","","",""
"image-keyboard-response","142","450766","0.0-5.0-1.45","LF","t2ubvm70lv","1920","1080","0","1","0","5f858743256d25036d9fa693","","null","","","","","","","learning/Slide46.JPG","null","","","","","",""
"html-keyboard-response","143","451768","0.0-5.0-2.45","LF","t2ubvm70lv","1920","1080","0","1","0","5f858743256d25036d9fa693","","null","","","learningBlock1","","","","<div style=""font-size:60px;""> </div>","null","LF","learning/Slide46.JPG","This is a dep:","","",""
"html-keyboard-response","144","452769","0.0-5.0-0.46","LF","t2ubvm70lv","1920","1080","0","1","0","5f858743256d25036d9fa693","","null","","","learningBlock1","","","","This is a tob:","null","","","","","",""
"image-keyboard-response","145","453096","0.0-5.0-1.46","LF","t2ubvm70lv","1920","1080","0","1","0","5f858743256d25036d9fa693","","null","","","","","","","learning/Slide47.JPG","null","","","","","",""
"html-keyboard-response","146","454097","0.0-5.0-2.46","LF","t2ubvm70lv","1920","1080","0","1","0","5f858743256d25036d9fa693","","null","","","learningBlock1","","","","<div style=""font-size:60px;""> </div>","null","LF","learning/Slide47.JPG","This is a tob:","","",""
"html-keyboard-response","147","455098","0.0-5.0-0.47","LF","t2ubvm70lv","1920","1080","0","1","0","5f858743256d25036d9fa693","","null","","","learningBlock1","","","","This is a bim:","null","","","","","",""
"image-keyboard-response","148","455425","0.0-5.0-1.47","LF","t2ubvm70lv","1920","1080","0","1","0","5f858743256d25036d9fa693","","null","","","","","","","learning/Slide48.JPG","null","","","","","",""
"html-keyboard-response","149","456427","0.0-5.0-2.47","LF","t2ubvm70lv","1920","1080","0","1","0","5f858743256d25036d9fa693","","null","","","learningBlock1","","","","<div style=""font-size:60px;""> </div>","null","LF","learning/Slide48.JPG","This is a bim:","","",""
"html-keyboard-response","150","457429","0.0-5.0-0.48","LF","t2ubvm70lv","1920","1080","0","1","0","5f858743256d25036d9fa693","","null","","","learningBlock1","","","","This is a dep:","null","","","","","",""
"image-keyboard-response","151","457756","0.0-5.0-1.48","LF","t2ubvm70lv","1920","1080","0","1","0","5f858743256d25036d9fa693","","null","","","","","","","learning/Slide49.JPG","null","","","","","",""
"html-keyboard-response","152","458758","0.0-5.0-2.48","LF","t2ubvm70lv","1920","1080","0","1","0","5f858743256d25036d9fa693","","null","","","learningBlock1","","","","<div style=""font-size:60px;""> </div>","null","LF","learning/Slide49.JPG","This is a dep:","","",""
"html-keyboard-response","153","459759","0.0-5.0-0.49","LF","t2ubvm70lv","1920","1080","0","1","0","5f858743256d25036d9fa693","","null","","","learningBlock1","","","","This is a tob:","null","","","","","",""
"image-keyboard-response","154","460086","0.0-5.0-1.49","LF","t2ubvm70lv","1920","1080","0","1","0","5f858743256d25036d9fa693","","null","","","","","","","learning/Slide50.JPG","null","","","","","",""
"html-keyboard-response","155","461088","0.0-5.0-2.49","LF","t2ubvm70lv","1920","1080","0","1","0","5f858743256d25036d9fa693","","null","","","learningBlock1","","","","<div style=""font-size:60px;""> </div>","null","LF","learning/Slide50.JPG","This is a tob:","","",""
"html-keyboard-response","156","462090","0.0-5.0-0.50","LF","t2ubvm70lv","1920","1080","0","1","0","5f858743256d25036d9fa693","","null","","","learningBlock1","","","","This is a bim:","null","","","","","",""
"image-keyboard-response","157","462418","0.0-5.0-1.50","LF","t2ubvm70lv","1920","1080","0","1","0","5f858743256d25036d9fa693","","null","","","","","","","learning/Slide51.JPG","null","","","","","",""
"html-keyboard-response","158","463419","0.0-5.0-2.50","LF","t2ubvm70lv","1920","1080","0","1","0","5f858743256d25036d9fa693","","null","","","learningBlock1","","","","<div style=""font-size:60px;""> </div>","null","LF","learning/Slide51.JPG","This is a bim:","","",""
"html-keyboard-response","159","464421","0.0-5.0-0.51","LF","t2ubvm70lv","1920","1080","0","1","0","5f858743256d25036d9fa693","","null","","","learningBlock1","","","","This is a wug:","null","","","","","",""
"image-keyboard-response","160","464747","0.0-5.0-1.51","LF","t2ubvm70lv","1920","1080","0","1","0","5f858743256d25036d9fa693","","null","","","","","","","learning/Slide52.JPG","null","","","","","",""
"html-keyboard-response","161","465751","0.0-5.0-2.51","LF","t2ubvm70lv","1920","1080","0","1","0","5f858743256d25036d9fa693","","null","","","learningBlock1","","","","<div style=""font-size:60px;""> </div>","null","LF","learning/Slide52.JPG","This is a wug:","","",""
"html-keyboard-response","162","466753","0.0-5.0-0.52","LF","t2ubvm70lv","1920","1080","0","1","0","5f858743256d25036d9fa693","","null","","","learningBlock1","","","","This is a tob:","null","","","","","",""
"image-keyboard-response","163","467080","0.0-5.0-1.52","LF","t2ubvm70lv","1920","1080","0","1","0","5f858743256d25036d9fa693","","null","","","","","","","learning/Slide53.JPG","null","","","","","",""
"html-keyboard-response","164","468082","0.0-5.0-2.52","LF","t2ubvm70lv","1920","1080","0","1","0","5f858743256d25036d9fa693","","null","","","learningBlock1","","","","<div style=""font-size:60px;""> </div>","null","LF","learning/Slide53.JPG","This is a tob:","","",""
"html-keyboard-response","165","469083","0.0-5.0-0.53","LF","t2ubvm70lv","1920","1080","0","1","0","5f858743256d25036d9fa693","","null","","","learningBlock1","","","","This is a dep:","null","","","","","",""
"image-keyboard-response","166","469410","0.0-5.0-1.53","LF","t2ubvm70lv","1920","1080","0","1","0","5f858743256d25036d9fa693","","null","","","","","","","learning/Slide54.JPG","null","","","","","",""
"html-keyboard-response","167","470412","0.0-5.0-2.53","LF","t2ubvm70lv","1920","1080","0","1","0","5f858743256d25036d9fa693","","null","","","learningBlock1","","","","<div style=""font-size:60px;""> </div>","null","LF","learning/Slide54.JPG","This is a dep:","","",""
"html-keyboard-response","168","471413","0.0-5.0-0.54","LF","t2ubvm70lv","1920","1080","0","1","0","5f858743256d25036d9fa693","","null","","","learningBlock1","","","","This is a bim:","null","","","","","",""
"image-keyboard-response","169","471740","0.0-5.0-1.54","LF","t2ubvm70lv","1920","1080","0","1","0","5f858743256d25036d9fa693","","null","","","","","","","learning/Slide55.JPG","null","","","","","",""
"html-keyboard-response","170","472742","0.0-5.0-2.54","LF","t2ubvm70lv","1920","1080","0","1","0","5f858743256d25036d9fa693","","null","","","learningBlock1","","","","<div style=""font-size:60px;""> </div>","null","LF","learning/Slide55.JPG","This is a bim:","","",""
"html-keyboard-response","171","473743","0.0-5.0-0.55","LF","t2ubvm70lv","1920","1080","0","1","0","5f858743256d25036d9fa693","","null","","","learningBlock1","","","","This is a tob:","null","","","","","",""
"image-keyboard-response","172","474070","0.0-5.0-1.55","LF","t2ubvm70lv","1920","1080","0","1","0","5f858743256d25036d9fa693","","null","","","","","","","learning/Slide56.JPG","null","","","","","",""
"html-keyboard-response","173","475072","0.0-5.0-2.55","LF","t2ubvm70lv","1920","1080","0","1","0","5f858743256d25036d9fa693","","null","","","learningBlock1","","","","<div style=""font-size:60px;""> </div>","null","LF","learning/Slide56.JPG","This is a tob:","","",""
"html-keyboard-response","174","476074","0.0-5.0-0.56","LF","t2ubvm70lv","1920","1080","0","1","0","5f858743256d25036d9fa693","","null","","","learningBlock1","","","","This is a dep:","null","","","","","",""
"image-keyboard-response","175","476401","0.0-5.0-1.56","LF","t2ubvm70lv","1920","1080","0","1","0","5f858743256d25036d9fa693","","null","","","","","","","learning/Slide57.JPG","null","","","","","",""
"html-keyboard-response","176","477403","0.0-5.0-2.56","LF","t2ubvm70lv","1920","1080","0","1","0","5f858743256d25036d9fa693","","null","","","learningBlock1","","","","<div style=""font-size:60px;""> </div>","null","LF","learning/Slide57.JPG","This is a dep:","","",""
"html-keyboard-response","177","478404","0.0-5.0-0.57","LF","t2ubvm70lv","1920","1080","0","1","0","5f858743256d25036d9fa693","","null","","","learningBlock1","","","","This is a wug:","null","","","","","",""
"image-keyboard-response","178","478731","0.0-5.0-1.57","LF","t2ubvm70lv","1920","1080","0","1","0","5f858743256d25036d9fa693","","null","","","","","","","learning/Slide58.JPG","null","","","","","",""
"html-keyboard-response","179","479733","0.0-5.0-2.57","LF","t2ubvm70lv","1920","1080","0","1","0","5f858743256d25036d9fa693","","null","","","learningBlock1","","","","<div style=""font-size:60px;""> </div>","null","LF","learning/Slide58.JPG","This is a wug:","","",""
"html-keyboard-response","180","480734","0.0-5.0-0.58","LF","t2ubvm70lv","1920","1080","0","1","0","5f858743256d25036d9fa693","","null","","","learningBlock1","","","","This is a dep:","null","","","","","",""
"image-keyboard-response","181","481061","0.0-5.0-1.58","LF","t2ubvm70lv","1920","1080","0","1","0","5f858743256d25036d9fa693","","null","","","","","","","learning/Slide59.JPG","null","","","","","",""
"html-keyboard-response","182","482063","0.0-5.0-2.58","LF","t2ubvm70lv","1920","1080","0","1","0","5f858743256d25036d9fa693","","null","","","learningBlock1","","","","<div style=""font-size:60px;""> </div>","null","LF","learning/Slide59.JPG","This is a dep:","","",""
"html-keyboard-response","183","483064","0.0-5.0-0.59","LF","t2ubvm70lv","1920","1080","0","1","0","5f858743256d25036d9fa693","","null","","","learningBlock1","","","","This is a wug:","null","","","","","",""
"image-keyboard-response","184","483392","0.0-5.0-1.59","LF","t2ubvm70lv","1920","1080","0","1","0","5f858743256d25036d9fa693","","null","","","","","","","learning/Slide60.JPG","null","","","","","",""
"html-keyboard-response","185","484394","0.0-5.0-2.59","LF","t2ubvm70lv","1920","1080","0","1","0","5f858743256d25036d9fa693","","null","","","learningBlock1","","","","<div style=""font-size:60px;""> </div>","null","LF","learning/Slide60.JPG","This is a wug:","","",""
"html-keyboard-response","186","485395","0.0-5.0-0.60","LF","t2ubvm70lv","1920","1080","0","1","0","5f858743256d25036d9fa693","","null","","","learningBlock1","","","","This is a bim:","null","","","","","",""
"image-keyboard-response","187","485722","0.0-5.0-1.60","LF","t2ubvm70lv","1920","1080","0","1","0","5f858743256d25036d9fa693","","null","","","","","","","learning/Slide61.JPG","null","","","","","",""
"html-keyboard-response","188","486724","0.0-5.0-2.60","LF","t2ubvm70lv","1920","1080","0","1","0","5f858743256d25036d9fa693","","null","","","learningBlock1","","","","<div style=""font-size:60px;""> </div>","null","LF","learning/Slide61.JPG","This is a bim:","","",""
"html-keyboard-response","189","487726","0.0-5.0-0.61","LF","t2ubvm70lv","1920","1080","0","1","0","5f858743256d25036d9fa693","","null","","","learningBlock1","","","","This is a dep:","null","","","","","",""
"image-keyboard-response","190","488053","0.0-5.0-1.61","LF","t2ubvm70lv","1920","1080","0","1","0","5f858743256d25036d9fa693","","null","","","","","","","learning/Slide62.JPG","null","","","","","",""
"html-keyboard-response","191","489055","0.0-5.0-2.61","LF","t2ubvm70lv","1920","1080","0","1","0","5f858743256d25036d9fa693","","null","","","learningBlock1","","","","<div style=""font-size:60px;""> </div>","null","LF","learning/Slide62.JPG","This is a dep:","","",""
"html-keyboard-response","192","490057","0.0-5.0-0.62","LF","t2ubvm70lv","1920","1080","0","1","0","5f858743256d25036d9fa693","","null","","","learningBlock1","","","","This is a bim:","null","","","","","",""
"image-keyboard-response","193","490384","0.0-5.0-1.62","LF","t2ubvm70lv","1920","1080","0","1","0","5f858743256d25036d9fa693","","null","","","","","","","learning/Slide63.JPG","null","","","","","",""
"html-keyboard-response","194","491387","0.0-5.0-2.62","LF","t2ubvm70lv","1920","1080","0","1","0","5f858743256d25036d9fa693","","null","","","learningBlock1","","","","<div style=""font-size:60px;""> </div>","null","LF","learning/Slide63.JPG","This is a bim:","","",""
"html-keyboard-response","195","492389","0.0-5.0-0.63","LF","t2ubvm70lv","1920","1080","0","1","0","5f858743256d25036d9fa693","","null","","","learningBlock1","","","","This is a tob:","null","","","","","",""
"image-keyboard-response","196","492716","0.0-5.0-1.63","LF","t2ubvm70lv","1920","1080","0","1","0","5f858743256d25036d9fa693","","null","","","","","","","learning/Slide64.JPG","null","","","","","",""
"html-keyboard-response","197","493718","0.0-5.0-2.63","LF","t2ubvm70lv","1920","1080","0","1","0","5f858743256d25036d9fa693","","null","","","learningBlock1","","","","<div style=""font-size:60px;""> </div>","null","LF","learning/Slide64.JPG","This is a tob:","","",""
"html-keyboard-response","198","494719","0.0-5.0-0.64","LF","t2ubvm70lv","1920","1080","0","1","0","5f858743256d25036d9fa693","","null","","","learningBlock1","","","","This is a wug:","null","","","","","",""
"image-keyboard-response","199","495046","0.0-5.0-1.64","LF","t2ubvm70lv","1920","1080","0","1","0","5f858743256d25036d9fa693","","null","","","","","","","learning/Slide65.JPG","null","","","","","",""
"html-keyboard-response","200","496048","0.0-5.0-2.64","LF","t2ubvm70lv","1920","1080","0","1","0","5f858743256d25036d9fa693","","null","","","learningBlock1","","","","<div style=""font-size:60px;""> </div>","null","LF","learning/Slide65.JPG","This is a wug:","","",""
"html-keyboard-response","201","497049","0.0-5.0-0.65","LF","t2ubvm70lv","1920","1080","0","1","0","5f858743256d25036d9fa693","","null","","","learningBlock1","","","","This is a dep:","null","","","","","",""
"image-keyboard-response","202","497377","0.0-5.0-1.65","LF","t2ubvm70lv","1920","1080","0","1","0","5f858743256d25036d9fa693","","null","","","","","","","learning/Slide66.JPG","null","","","","","",""
"html-keyboard-response","203","498379","0.0-5.0-2.65","LF","t2ubvm70lv","1920","1080","0","1","0","5f858743256d25036d9fa693","","null","","","learningBlock1","","","","<div style=""font-size:60px;""> </div>","null","LF","learning/Slide66.JPG","This is a dep:","","",""
"html-keyboard-response","204","499380","0.0-5.0-0.66","LF","t2ubvm70lv","1920","1080","0","1","0","5f858743256d25036d9fa693","","null","","","learningBlock1","","","","This is a tob:","null","","","","","",""
"image-keyboard-response","205","499707","0.0-5.0-1.66","LF","t2ubvm70lv","1920","1080","0","1","0","5f858743256d25036d9fa693","","null","","","","","","","learning/Slide67.JPG","null","","","","","",""
"html-keyboard-response","206","500709","0.0-5.0-2.66","LF","t2ubvm70lv","1920","1080","0","1","0","5f858743256d25036d9fa693","","null","","","learningBlock1","","","","<div style=""font-size:60px;""> </div>","null","LF","learning/Slide67.JPG","This is a tob:","","",""
"html-keyboard-response","207","501710","0.0-5.0-0.67","LF","t2ubvm70lv","1920","1080","0","1","0","5f858743256d25036d9fa693","","null","","","learningBlock1","","","","This is a wug:","null","","","","","",""
"image-keyboard-response","208","502037","0.0-5.0-1.67","LF","t2ubvm70lv","1920","1080","0","1","0","5f858743256d25036d9fa693","","null","","","","","","","learning/Slide68.JPG","null","","","","","",""
"html-keyboard-response","209","503039","0.0-5.0-2.67","LF","t2ubvm70lv","1920","1080","0","1","0","5f858743256d25036d9fa693","","null","","","learningBlock1","","","","<div style=""font-size:60px;""> </div>","null","LF","learning/Slide68.JPG","This is a wug:","","",""
"html-keyboard-response","210","504040","0.0-5.0-0.68","LF","t2ubvm70lv","1920","1080","0","1","0","5f858743256d25036d9fa693","","null","","","learningBlock1","","","","This is a tob:","null","","","","","",""
"image-keyboard-response","211","504367","0.0-5.0-1.68","LF","t2ubvm70lv","1920","1080","0","1","0","5f858743256d25036d9fa693","","null","","","","","","","learning/Slide69.JPG","null","","","","","",""
"html-keyboard-response","212","505369","0.0-5.0-2.68","LF","t2ubvm70lv","1920","1080","0","1","0","5f858743256d25036d9fa693","","null","","","learningBlock1","","","","<div style=""font-size:60px;""> </div>","null","LF","learning/Slide69.JPG","This is a tob:","","",""
"html-keyboard-response","213","506370","0.0-5.0-0.69","LF","t2ubvm70lv","1920","1080","0","1","0","5f858743256d25036d9fa693","","null","","","learningBlock1","","","","This is a dep:","null","","","","","",""
"image-keyboard-response","214","506697","0.0-5.0-1.69","LF","t2ubvm70lv","1920","1080","0","1","0","5f858743256d25036d9fa693","","null","","","","","","","learning/Slide70.JPG","null","","","","","",""
"html-keyboard-response","215","507699","0.0-5.0-2.69","LF","t2ubvm70lv","1920","1080","0","1","0","5f858743256d25036d9fa693","","null","","","learningBlock1","","","","<div style=""font-size:60px;""> </div>","null","LF","learning/Slide70.JPG","This is a dep:","","",""
"html-keyboard-response","216","508700","0.0-5.0-0.70","LF","t2ubvm70lv","1920","1080","0","1","0","5f858743256d25036d9fa693","","null","","","learningBlock1","","","","This is a wug:","null","","","","","",""
"image-keyboard-response","217","509027","0.0-5.0-1.70","LF","t2ubvm70lv","1920","1080","0","1","0","5f858743256d25036d9fa693","","null","","","","","","","learning/Slide71.JPG","null","","","","","",""
"html-keyboard-response","218","510029","0.0-5.0-2.70","LF","t2ubvm70lv","1920","1080","0","1","0","5f858743256d25036d9fa693","","null","","","learningBlock1","","","","<div style=""font-size:60px;""> </div>","null","LF","learning/Slide71.JPG","This is a wug:","","",""
"html-keyboard-response","219","511030","0.0-5.0-0.71","LF","t2ubvm70lv","1920","1080","0","1","0","5f858743256d25036d9fa693","","null","","","learningBlock1","","","","This is a bim:","null","","","","","",""
"image-keyboard-response","220","511357","0.0-5.0-1.71","LF","t2ubvm70lv","1920","1080","0","1","0","5f858743256d25036d9fa693","","null","","","","","","","learning/Slide72.JPG","null","","","","","",""
"html-keyboard-response","221","512360","0.0-5.0-2.71","LF","t2ubvm70lv","1920","1080","0","1","0","5f858743256d25036d9fa693","","null","","","learningBlock1","","","","<div style=""font-size:60px;""> </div>","null","LF","learning/Slide72.JPG","This is a bim:","","",""
"html-keyboard-response","222","513362","0.0-5.0-0.72","LF","t2ubvm70lv","1920","1080","0","1","0","5f858743256d25036d9fa693","","null","","","learningBlock1","","","","This is a wug:","null","","","","","",""
"image-keyboard-response","223","513688","0.0-5.0-1.72","LF","t2ubvm70lv","1920","1080","0","1","0","5f858743256d25036d9fa693","","null","","","","","","","learning/Slide73.JPG","null","","","","","",""
"html-keyboard-response","224","514691","0.0-5.0-2.72","LF","t2ubvm70lv","1920","1080","0","1","0","5f858743256d25036d9fa693","","null","","","learningBlock1","","","","<div style=""font-size:60px;""> </div>","null","LF","learning/Slide73.JPG","This is a wug:","","",""
"html-keyboard-response","225","515692","0.0-5.0-0.73","LF","t2ubvm70lv","1920","1080","0","1","0","5f858743256d25036d9fa693","","null","","","learningBlock1","","","","This is a dep:","null","","","","","",""
"image-keyboard-response","226","516019","0.0-5.0-1.73","LF","t2ubvm70lv","1920","1080","0","1","0","5f858743256d25036d9fa693","","null","","","","","","","learning/Slide74.JPG","null","","","","","",""
"html-keyboard-response","227","517021","0.0-5.0-2.73","LF","t2ubvm70lv","1920","1080","0","1","0","5f858743256d25036d9fa693","","null","","","learningBlock1","","","","<div style=""font-size:60px;""> </div>","null","LF","learning/Slide74.JPG","This is a dep:","","",""
"html-keyboard-response","228","518022","0.0-5.0-0.74","LF","t2ubvm70lv","1920","1080","0","1","0","5f858743256d25036d9fa693","","null","","","learningBlock1","","","","This is a tob:","null","","","","","",""
"image-keyboard-response","229","518349","0.0-5.0-1.74","LF","t2ubvm70lv","1920","1080","0","1","0","5f858743256d25036d9fa693","","null","","","","","","","learning/Slide75.JPG","null","","","","","",""
"html-keyboard-response","230","519351","0.0-5.0-2.74","LF","t2ubvm70lv","1920","1080","0","1","0","5f858743256d25036d9fa693","","null","","","learningBlock1","","","","<div style=""font-size:60px;""> </div>","null","LF","learning/Slide75.JPG","This is a tob:","","",""
"html-keyboard-response","231","520352","0.0-5.0-0.75","LF","t2ubvm70lv","1920","1080","0","1","0","5f858743256d25036d9fa693","","null","","","learningBlock1","","","","This is a bim:","null","","","","","",""
"image-keyboard-response","232","520679","0.0-5.0-1.75","LF","t2ubvm70lv","1920","1080","0","1","0","5f858743256d25036d9fa693","","null","","","","","","","learning/Slide76.JPG","null","","","","","",""
"html-keyboard-response","233","521681","0.0-5.0-2.75","LF","t2ubvm70lv","1920","1080","0","1","0","5f858743256d25036d9fa693","","null","","","learningBlock1","","","","<div style=""font-size:60px;""> </div>","null","LF","learning/Slide76.JPG","This is a bim:","","",""
"html-keyboard-response","234","522682","0.0-5.0-0.76","LF","t2ubvm70lv","1920","1080","0","1","0","5f858743256d25036d9fa693","","null","","","learningBlock1","","","","This is a tob:","null","","","","","",""
"image-keyboard-response","235","523009","0.0-5.0-1.76","LF","t2ubvm70lv","1920","1080","0","1","0","5f858743256d25036d9fa693","","null","","","","","","","learning/Slide77.JPG","null","","","","","",""
"html-keyboard-response","236","524011","0.0-5.0-2.76","LF","t2ubvm70lv","1920","1080","0","1","0","5f858743256d25036d9fa693","","null","","","learningBlock1","","","","<div style=""font-size:60px;""> </div>","null","LF","learning/Slide77.JPG","This is a tob:","","",""
"html-keyboard-response","237","525012","0.0-5.0-0.77","LF","t2ubvm70lv","1920","1080","0","1","0","5f858743256d25036d9fa693","","null","","","learningBlock1","","","","This is a wug:","null","","","","","",""
"image-keyboard-response","238","525339","0.0-5.0-1.77","LF","t2ubvm70lv","1920","1080","0","1","0","5f858743256d25036d9fa693","","null","","","","","","","learning/Slide78.JPG","null","","","","","",""
"html-keyboard-response","239","526341","0.0-5.0-2.77","LF","t2ubvm70lv","1920","1080","0","1","0","5f858743256d25036d9fa693","","null","","","learningBlock1","","","","<div style=""font-size:60px;""> </div>","null","LF","learning/Slide78.JPG","This is a wug:","","",""
"html-keyboard-response","240","527342","0.0-5.0-0.78","LF","t2ubvm70lv","1920","1080","0","1","0","5f858743256d25036d9fa693","","null","","","learningBlock1","","","","This is a bim:","null","","","","","",""
"image-keyboard-response","241","527669","0.0-5.0-1.78","LF","t2ubvm70lv","1920","1080","0","1","0","5f858743256d25036d9fa693","","null","","","","","","","learning/Slide79.JPG","null","","","","","",""
"html-keyboard-response","242","528671","0.0-5.0-2.78","LF","t2ubvm70lv","1920","1080","0","1","0","5f858743256d25036d9fa693","","null","","","learningBlock1","","","","<div style=""font-size:60px;""> </div>","null","LF","learning/Slide79.JPG","This is a bim:","","",""
"html-keyboard-response","243","529672","0.0-5.0-0.79","LF","t2ubvm70lv","1920","1080","0","1","0","5f858743256d25036d9fa693","","null","","","learningBlock1","","","","This is a tob:","null","","","","","",""
"image-keyboard-response","244","529999","0.0-5.0-1.79","LF","t2ubvm70lv","1920","1080","0","1","0","5f858743256d25036d9fa693","","null","","","","","","","learning/Slide80.JPG","null","","","","","",""
"html-keyboard-response","245","531001","0.0-5.0-2.79","LF","t2ubvm70lv","1920","1080","0","1","0","5f858743256d25036d9fa693","","null","","","learningBlock1","","","","<div style=""font-size:60px;""> </div>","null","LF","learning/Slide80.JPG","This is a tob:","","",""
"instructions","246","555164","0.0-6.0","LF","t2ubvm70lv","1920","1080","0","1","0","5f858743256d25036d9fa693","","NA","","[{""page_index"":0,""viewing_time"":24160.674999999115}]","instructions","","","","","","","","","","",""
"html-keyboard-response","247","556168","0.0-7.0-0.0","LF","t2ubvm70lv","1920","1080","0","1","0","5f858743256d25036d9fa693","","null","","","learningBlock2","","","","This is a wug:","null","","","","","",""
"image-keyboard-response","248","556496","0.0-7.0-1.0","LF","t2ubvm70lv","1920","1080","0","1","0","5f858743256d25036d9fa693","","null","","","","","","","learning/Slide81.JPG","null","","","","","",""
"html-keyboard-response","249","557498","0.0-7.0-2.0","LF","t2ubvm70lv","1920","1080","0","1","0","5f858743256d25036d9fa693","","null","","","learningBlock2","","","","<div style=""font-size:60px;""> </div>","null","LF","learning/Slide81.JPG","This is a wug:","","",""
"html-keyboard-response","250","558500","0.0-7.0-0.1","LF","t2ubvm70lv","1920","1080","0","1","0","5f858743256d25036d9fa693","","null","","","learningBlock2","","","","This is a bim:","null","","","","","",""
"image-keyboard-response","251","558827","0.0-7.0-1.1","LF","t2ubvm70lv","1920","1080","0","1","0","5f858743256d25036d9fa693","","null","","","","","","","learning/Slide82.JPG","null","","","","","",""
"html-keyboard-response","252","559828","0.0-7.0-2.1","LF","t2ubvm70lv","1920","1080","0","1","0","5f858743256d25036d9fa693","","null","","","learningBlock2","","","","<div style=""font-size:60px;""> </div>","null","LF","learning/Slide82.JPG","This is a bim:","","",""
"html-keyboard-response","253","560829","0.0-7.0-0.2","LF","t2ubvm70lv","1920","1080","0","1","0","5f858743256d25036d9fa693","","null","","","learningBlock2","","","","This is a wug:","null","","","","","",""
"image-keyboard-response","254","561156","0.0-7.0-1.2","LF","t2ubvm70lv","1920","1080","0","1","0","5f858743256d25036d9fa693","","null","","","","","","","learning/Slide83.JPG","null","","","","","",""
"html-keyboard-response","255","562158","0.0-7.0-2.2","LF","t2ubvm70lv","1920","1080","0","1","0","5f858743256d25036d9fa693","","null","","","learningBlock2","","","","<div style=""font-size:60px;""> </div>","null","LF","learning/Slide83.JPG","This is a wug:","","",""
"html-keyboard-response","256","563159","0.0-7.0-0.3","LF","t2ubvm70lv","1920","1080","0","1","0","5f858743256d25036d9fa693","","null","","","learningBlock2","","","","This is a dep:","null","","","","","",""
"image-keyboard-response","257","563486","0.0-7.0-1.3","LF","t2ubvm70lv","1920","1080","0","1","0","5f858743256d25036d9fa693","","null","","","","","","","learning/Slide84.JPG","null","","","","","",""
"html-keyboard-response","258","564488","0.0-7.0-2.3","LF","t2ubvm70lv","1920","1080","0","1","0","5f858743256d25036d9fa693","","null","","","learningBlock2","","","","<div style=""font-size:60px;""> </div>","null","LF","learning/Slide84.JPG","This is a dep:","","",""
"html-keyboard-response","259","565490","0.0-7.0-0.4","LF","t2ubvm70lv","1920","1080","0","1","0","5f858743256d25036d9fa693","","null","","","learningBlock2","","","","This is a bim:","null","","","","","",""
"image-keyboard-response","260","565816","0.0-7.0-1.4","LF","t2ubvm70lv","1920","1080","0","1","0","5f858743256d25036d9fa693","","null","","","","","","","learning/Slide85.JPG","null","","","","","",""
"html-keyboard-response","261","566819","0.0-7.0-2.4","LF","t2ubvm70lv","1920","1080","0","1","0","5f858743256d25036d9fa693","","null","","","learningBlock2","","","","<div style=""font-size:60px;""> </div>","null","LF","learning/Slide85.JPG","This is a bim:","","",""
"html-keyboard-response","262","567821","0.0-7.0-0.5","LF","t2ubvm70lv","1920","1080","0","1","0","5f858743256d25036d9fa693","","null","","","learningBlock2","","","","This is a tob:","null","","","","","",""
"image-keyboard-response","263","568148","0.0-7.0-1.5","LF","t2ubvm70lv","1920","1080","0","1","0","5f858743256d25036d9fa693","","null","","","","","","","learning/Slide86.JPG","null","","","","","",""
"html-keyboard-response","264","569150","0.0-7.0-2.5","LF","t2ubvm70lv","1920","1080","0","1","0","5f858743256d25036d9fa693","","null","","","learningBlock2","","","","<div style=""font-size:60px;""> </div>","null","LF","learning/Slide86.JPG","This is a tob:","","",""
"html-keyboard-response","265","570151","0.0-7.0-0.6","LF","t2ubvm70lv","1920","1080","0","1","0","5f858743256d25036d9fa693","","null","","","learningBlock2","","","","This is a wug:","null","","","","","",""
"image-keyboard-response","266","570478","0.0-7.0-1.6","LF","t2ubvm70lv","1920","1080","0","1","0","5f858743256d25036d9fa693","","null","","","","","","","learning/Slide87.JPG","null","","","","","",""
"html-keyboard-response","267","571480","0.0-7.0-2.6","LF","t2ubvm70lv","1920","1080","0","1","0","5f858743256d25036d9fa693","","null","","","learningBlock2","","","","<div style=""font-size:60px;""> </div>","null","LF","learning/Slide87.JPG","This is a wug:","","",""
"html-keyboard-response","268","572481","0.0-7.0-0.7","LF","t2ubvm70lv","1920","1080","0","1","0","5f858743256d25036d9fa693","","null","","","learningBlock2","","","","This is a tob:","null","","","","","",""
"image-keyboard-response","269","572809","0.0-7.0-1.7","LF","t2ubvm70lv","1920","1080","0","1","0","5f858743256d25036d9fa693","","null","","","","","","","learning/Slide88.JPG","null","","","","","",""
"html-keyboard-response","270","573811","0.0-7.0-2.7","LF","t2ubvm70lv","1920","1080","0","1","0","5f858743256d25036d9fa693","","null","","","learningBlock2","","","","<div style=""font-size:60px;""> </div>","null","LF","learning/Slide88.JPG","This is a tob:","","",""
"html-keyboard-response","271","574813","0.0-7.0-0.8","LF","t2ubvm70lv","1920","1080","0","1","0","5f858743256d25036d9fa693","","null","","","learningBlock2","","","","This is a bim:","null","","","","","",""
"image-keyboard-response","272","575140","0.0-7.0-1.8","LF","t2ubvm70lv","1920","1080","0","1","0","5f858743256d25036d9fa693","","null","","","","","","","learning/Slide89.JPG","null","","","","","",""
"html-keyboard-response","273","576142","0.0-7.0-2.8","LF","t2ubvm70lv","1920","1080","0","1","0","5f858743256d25036d9fa693","","null","","","learningBlock2","","","","<div style=""font-size:60px;""> </div>","null","LF","learning/Slide89.JPG","This is a bim:","","",""
"html-keyboard-response","274","577143","0.0-7.0-0.9","LF","t2ubvm70lv","1920","1080","0","1","0","5f858743256d25036d9fa693","","null","","","learningBlock2","","","","This is a dep:","null","","","","","",""
"image-keyboard-response","275","577470","0.0-7.0-1.9","LF","t2ubvm70lv","1920","1080","0","1","0","5f858743256d25036d9fa693","","null","","","","","","","learning/Slide90.JPG","null","","","","","",""
"html-keyboard-response","276","578472","0.0-7.0-2.9","LF","t2ubvm70lv","1920","1080","0","1","0","5f858743256d25036d9fa693","","null","","","learningBlock2","","","","<div style=""font-size:60px;""> </div>","null","LF","learning/Slide90.JPG","This is a dep:","","",""
"html-keyboard-response","277","579474","0.0-7.0-0.10","LF","t2ubvm70lv","1920","1080","0","1","0","5f858743256d25036d9fa693","","null","","","learningBlock2","","","","This is a wug:","null","","","","","",""
"image-keyboard-response","278","579801","0.0-7.0-1.10","LF","t2ubvm70lv","1920","1080","0","1","0","5f858743256d25036d9fa693","","null","","","","","","","learning/Slide91.JPG","null","","","","","",""
"html-keyboard-response","279","580803","0.0-7.0-2.10","LF","t2ubvm70lv","1920","1080","0","1","0","5f858743256d25036d9fa693","","null","","","learningBlock2","","","","<div style=""font-size:60px;""> </div>","null","LF","learning/Slide91.JPG","This is a wug:","","",""
"html-keyboard-response","280","581804","0.0-7.0-0.11","LF","t2ubvm70lv","1920","1080","0","1","0","5f858743256d25036d9fa693","","null","","","learningBlock2","","","","This is a tob:","null","","","","","",""
"image-keyboard-response","281","582131","0.0-7.0-1.11","LF","t2ubvm70lv","1920","1080","0","1","0","5f858743256d25036d9fa693","","null","","","","","","","learning/Slide92.JPG","null","","","","","",""
"html-keyboard-response","282","583133","0.0-7.0-2.11","LF","t2ubvm70lv","1920","1080","0","1","0","5f858743256d25036d9fa693","","null","","","learningBlock2","","","","<div style=""font-size:60px;""> </div>","null","LF","learning/Slide92.JPG","This is a tob:","","",""
"html-keyboard-response","283","584134","0.0-7.0-0.12","LF","t2ubvm70lv","1920","1080","0","1","0","5f858743256d25036d9fa693","","null","","","learningBlock2","","","","This is a bim:","null","","","","","",""
"image-keyboard-response","284","584462","0.0-7.0-1.12","LF","t2ubvm70lv","1920","1080","0","1","0","5f858743256d25036d9fa693","","null","","","","","","","learning/Slide93.JPG","null","","","","","",""
"html-keyboard-response","285","585464","0.0-7.0-2.12","LF","t2ubvm70lv","1920","1080","0","1","0","5f858743256d25036d9fa693","","null","","","learningBlock2","","","","<div style=""font-size:60px;""> </div>","null","LF","learning/Slide93.JPG","This is a bim:","","",""
"html-keyboard-response","286","586465","0.0-7.0-0.13","LF","t2ubvm70lv","1920","1080","0","1","0","5f858743256d25036d9fa693","","null","","","learningBlock2","","","","This is a tob:","null","","","","","",""
"image-keyboard-response","287","586792","0.0-7.0-1.13","LF","t2ubvm70lv","1920","1080","0","1","0","5f858743256d25036d9fa693","","null","","","","","","","learning/Slide94.JPG","null","","","","","",""
"html-keyboard-response","288","587795","0.0-7.0-2.13","LF","t2ubvm70lv","1920","1080","0","1","0","5f858743256d25036d9fa693","","null","","","learningBlock2","","","","<div style=""font-size:60px;""> </div>","null","LF","learning/Slide94.JPG","This is a tob:","","",""
"html-keyboard-response","289","588797","0.0-7.0-0.14","LF","t2ubvm70lv","1920","1080","0","1","0","5f858743256d25036d9fa693","","null","","","learningBlock2","","","","This is a wug:","null","","","","","",""
"image-keyboard-response","290","589124","0.0-7.0-1.14","LF","t2ubvm70lv","1920","1080","0","1","0","5f858743256d25036d9fa693","","null","","","","","","","learning/Slide95.JPG","null","","","","","",""
"html-keyboard-response","291","590127","0.0-7.0-2.14","LF","t2ubvm70lv","1920","1080","0","1","0","5f858743256d25036d9fa693","","null","","","learningBlock2","","","","<div style=""font-size:60px;""> </div>","null","LF","learning/Slide95.JPG","This is a wug:","","",""
"html-keyboard-response","292","591129","0.0-7.0-0.15","LF","t2ubvm70lv","1920","1080","0","1","0","5f858743256d25036d9fa693","","null","","","learningBlock2","","","","This is a tob:","null","","","","","",""
"image-keyboard-response","293","591456","0.0-7.0-1.15","LF","t2ubvm70lv","1920","1080","0","1","0","5f858743256d25036d9fa693","","null","","","","","","","learning/Slide96.JPG","null","","","","","",""
"html-keyboard-response","294","592458","0.0-7.0-2.15","LF","t2ubvm70lv","1920","1080","0","1","0","5f858743256d25036d9fa693","","null","","","learningBlock2","","","","<div style=""font-size:60px;""> </div>","null","LF","learning/Slide96.JPG","This is a tob:","","",""
"html-keyboard-response","295","593459","0.0-7.0-0.16","LF","t2ubvm70lv","1920","1080","0","1","0","5f858743256d25036d9fa693","","null","","","learningBlock2","","","","This is a dep:","null","","","","","",""
"image-keyboard-response","296","593786","0.0-7.0-1.16","LF","t2ubvm70lv","1920","1080","0","1","0","5f858743256d25036d9fa693","","null","","","","","","","learning/Slide97.JPG","null","","","","","",""
"html-keyboard-response","297","594788","0.0-7.0-2.16","LF","t2ubvm70lv","1920","1080","0","1","0","5f858743256d25036d9fa693","","null","","","learningBlock2","","","","<div style=""font-size:60px;""> </div>","null","LF","learning/Slide97.JPG","This is a dep:","","",""
"html-keyboard-response","298","595789","0.0-7.0-0.17","LF","t2ubvm70lv","1920","1080","0","1","0","5f858743256d25036d9fa693","","null","","","learningBlock2","","","","This is a bim:","null","","","","","",""
"image-keyboard-response","299","596116","0.0-7.0-1.17","LF","t2ubvm70lv","1920","1080","0","1","0","5f858743256d25036d9fa693","","null","","","","","","","learning/Slide98.JPG","null","","","","","",""
"html-keyboard-response","300","597118","0.0-7.0-2.17","LF","t2ubvm70lv","1920","1080","0","1","0","5f858743256d25036d9fa693","","null","","","learningBlock2","","","","<div style=""font-size:60px;""> </div>","null","LF","learning/Slide98.JPG","This is a bim:","","",""
"html-keyboard-response","301","598119","0.0-7.0-0.18","LF","t2ubvm70lv","1920","1080","0","1","0","5f858743256d25036d9fa693","","null","","","learningBlock2","","","","This is a dep:","null","","","","","",""
"image-keyboard-response","302","598447","0.0-7.0-1.18","LF","t2ubvm70lv","1920","1080","0","1","0","5f858743256d25036d9fa693","","null","","","","","","","learning/Slide99.JPG","null","","","","","",""
"html-keyboard-response","303","599449","0.0-7.0-2.18","LF","t2ubvm70lv","1920","1080","0","1","0","5f858743256d25036d9fa693","","null","","","learningBlock2","","","","<div style=""font-size:60px;""> </div>","null","LF","learning/Slide99.JPG","This is a dep:","","",""
"html-keyboard-response","304","600451","0.0-7.0-0.19","LF","t2ubvm70lv","1920","1080","0","1","0","5f858743256d25036d9fa693","","null","","","learningBlock2","","","","This is a bim:","null","","","","","",""
"image-keyboard-response","305","600778","0.0-7.0-1.19","LF","t2ubvm70lv","1920","1080","0","1","0","5f858743256d25036d9fa693","","null","","","","","","","learning/Slide100.JPG","null","","","","","",""
"html-keyboard-response","306","601780","0.0-7.0-2.19","LF","t2ubvm70lv","1920","1080","0","1","0","5f858743256d25036d9fa693","","null","","","learningBlock2","","","","<div style=""font-size:60px;""> </div>","null","LF","learning/Slide100.JPG","This is a bim:","","",""
"html-keyboard-response","307","602782","0.0-7.0-0.20","LF","t2ubvm70lv","1920","1080","0","1","0","5f858743256d25036d9fa693","","null","","","learningBlock2","","","","This is a tob:","null","","","","","",""
"image-keyboard-response","308","603109","0.0-7.0-1.20","LF","t2ubvm70lv","1920","1080","0","1","0","5f858743256d25036d9fa693","","null","","","","","","","learning/Slide101.JPG","null","","","","","",""
"html-keyboard-response","309","604111","0.0-7.0-2.20","LF","t2ubvm70lv","1920","1080","0","1","0","5f858743256d25036d9fa693","","null","","","learningBlock2","","","","<div style=""font-size:60px;""> </div>","null","LF","learning/Slide101.JPG","This is a tob:","","",""
"html-keyboard-response","310","605112","0.0-7.0-0.21","LF","t2ubvm70lv","1920","1080","0","1","0","5f858743256d25036d9fa693","","null","","","learningBlock2","","","","This is a bim:","null","","","","","",""
"image-keyboard-response","311","605440","0.0-7.0-1.21","LF","t2ubvm70lv","1920","1080","0","1","0","5f858743256d25036d9fa693","","null","","","","","","","learning/Slide102.JPG","null","","","","","",""
"html-keyboard-response","312","606442","0.0-7.0-2.21","LF","t2ubvm70lv","1920","1080","0","1","0","5f858743256d25036d9fa693","","null","","","learningBlock2","","","","<div style=""font-size:60px;""> </div>","null","LF","learning/Slide102.JPG","This is a bim:","","",""
"html-keyboard-response","313","607444","0.0-7.0-0.22","LF","t2ubvm70lv","1920","1080","0","1","0","5f858743256d25036d9fa693","","null","","","learningBlock2","","","","This is a dep:","null","","","","","",""
"image-keyboard-response","314","607772","0.0-7.0-1.22","LF","t2ubvm70lv","1920","1080","0","1","0","5f858743256d25036d9fa693","","null","","","","","","","learning/Slide103.JPG","null","","","","","",""
"html-keyboard-response","315","608774","0.0-7.0-2.22","LF","t2ubvm70lv","1920","1080","0","1","0","5f858743256d25036d9fa693","","null","","","learningBlock2","","","","<div style=""font-size:60px;""> </div>","null","LF","learning/Slide103.JPG","This is a dep:","","",""
"html-keyboard-response","316","609775","0.0-7.0-0.23","LF","t2ubvm70lv","1920","1080","0","1","0","5f858743256d25036d9fa693","","null","","","learningBlock2","","","","This is a tob:","null","","","","","",""
"image-keyboard-response","317","610104","0.0-7.0-1.23","LF","t2ubvm70lv","1920","1080","0","1","0","5f858743256d25036d9fa693","","null","","","","","","","learning/Slide104.JPG","null","","","","","",""
"html-keyboard-response","318","611106","0.0-7.0-2.23","LF","t2ubvm70lv","1920","1080","0","1","0","5f858743256d25036d9fa693","","null","","","learningBlock2","","","","<div style=""font-size:60px;""> </div>","null","LF","learning/Slide104.JPG","This is a tob:","","",""
"html-keyboard-response","319","612107","0.0-7.0-0.24","LF","t2ubvm70lv","1920","1080","0","1","0","5f858743256d25036d9fa693","","null","","","learningBlock2","","","","This is a dep:","null","","","","","",""
"image-keyboard-response","320","612434","0.0-7.0-1.24","LF","t2ubvm70lv","1920","1080","0","1","0","5f858743256d25036d9fa693","","null","","","","","","","learning/Slide105.JPG","null","","","","","",""
"html-keyboard-response","321","613436","0.0-7.0-2.24","LF","t2ubvm70lv","1920","1080","0","1","0","5f858743256d25036d9fa693","","null","","","learningBlock2","","","","<div style=""font-size:60px;""> </div>","null","LF","learning/Slide105.JPG","This is a dep:","","",""
"html-keyboard-response","322","614438","0.0-7.0-0.25","LF","t2ubvm70lv","1920","1080","0","1","0","5f858743256d25036d9fa693","","null","","","learningBlock2","","","","This is a wug:","null","","","","","",""
"image-keyboard-response","323","614765","0.0-7.0-1.25","LF","t2ubvm70lv","1920","1080","0","1","0","5f858743256d25036d9fa693","","null","","","","","","","learning/Slide106.JPG","null","","","","","",""
"html-keyboard-response","324","615767","0.0-7.0-2.25","LF","t2ubvm70lv","1920","1080","0","1","0","5f858743256d25036d9fa693","","null","","","learningBlock2","","","","<div style=""font-size:60px;""> </div>","null","LF","learning/Slide106.JPG","This is a wug:","","",""
"html-keyboard-response","325","616768","0.0-7.0-0.26","LF","t2ubvm70lv","1920","1080","0","1","0","5f858743256d25036d9fa693","","null","","","learningBlock2","","","","This is a bim:","null","","","","","",""
"image-keyboard-response","326","617095","0.0-7.0-1.26","LF","t2ubvm70lv","1920","1080","0","1","0","5f858743256d25036d9fa693","","null","","","","","","","learning/Slide107.JPG","null","","","","","",""
"html-keyboard-response","327","618097","0.0-7.0-2.26","LF","t2ubvm70lv","1920","1080","0","1","0","5f858743256d25036d9fa693","","null","","","learningBlock2","","","","<div style=""font-size:60px;""> </div>","null","LF","learning/Slide107.JPG","This is a bim:","","",""
"html-keyboard-response","328","619098","0.0-7.0-0.27","LF","t2ubvm70lv","1920","1080","0","1","0","5f858743256d25036d9fa693","","null","","","learningBlock2","","","","This is a dep:","null","","","","","",""
"image-keyboard-response","329","619425","0.0-7.0-1.27","LF","t2ubvm70lv","1920","1080","0","1","0","5f858743256d25036d9fa693","","null","","","","","","","learning/Slide108.JPG","null","","","","","",""
"html-keyboard-response","330","620427","0.0-7.0-2.27","LF","t2ubvm70lv","1920","1080","0","1","0","5f858743256d25036d9fa693","","null","","","learningBlock2","","","","<div style=""font-size:60px;""> </div>","null","LF","learning/Slide108.JPG","This is a dep:","","",""
"html-keyboard-response","331","621429","0.0-7.0-0.28","LF","t2ubvm70lv","1920","1080","0","1","0","5f858743256d25036d9fa693","","null","","","learningBlock2","","","","This is a wug:","null","","","","","",""
"image-keyboard-response","332","621756","0.0-7.0-1.28","LF","t2ubvm70lv","1920","1080","0","1","0","5f858743256d25036d9fa693","","null","","","","","","","learning/Slide109.JPG","null","","","","","",""
"html-keyboard-response","333","622758","0.0-7.0-2.28","LF","t2ubvm70lv","1920","1080","0","1","0","5f858743256d25036d9fa693","","null","","","learningBlock2","","","","<div style=""font-size:60px;""> </div>","null","LF","learning/Slide109.JPG","This is a wug:","","",""
"html-keyboard-response","334","623760","0.0-7.0-0.29","LF","t2ubvm70lv","1920","1080","0","1","0","5f858743256d25036d9fa693","","null","","","learningBlock2","","","","This is a bim:","null","","","","","",""
"image-keyboard-response","335","624086","0.0-7.0-1.29","LF","t2ubvm70lv","1920","1080","0","1","0","5f858743256d25036d9fa693","","null","","","","","","","learning/Slide110.JPG","null","","","","","",""
"html-keyboard-response","336","625088","0.0-7.0-2.29","LF","t2ubvm70lv","1920","1080","0","1","0","5f858743256d25036d9fa693","","null","","","learningBlock2","","","","<div style=""font-size:60px;""> </div>","null","LF","learning/Slide110.JPG","This is a bim:","","",""
"html-keyboard-response","337","626090","0.0-7.0-0.30","LF","t2ubvm70lv","1920","1080","0","1","0","5f858743256d25036d9fa693","","null","","","learningBlock2","","","","This is a tob:","null","","","","","",""
"image-keyboard-response","338","626417","0.0-7.0-1.30","LF","t2ubvm70lv","1920","1080","0","1","0","5f858743256d25036d9fa693","","null","","","","","","","learning/Slide111.JPG","null","","","","","",""
"html-keyboard-response","339","627419","0.0-7.0-2.30","LF","t2ubvm70lv","1920","1080","0","1","0","5f858743256d25036d9fa693","","null","","","learningBlock2","","","","<div style=""font-size:60px;""> </div>","null","LF","learning/Slide111.JPG","This is a tob:","","",""
"html-keyboard-response","340","628420","0.0-7.0-0.31","LF","t2ubvm70lv","1920","1080","0","1","0","5f858743256d25036d9fa693","","null","","","learningBlock2","","","","This is a wug:","null","","","","","",""
"image-keyboard-response","341","628747","0.0-7.0-1.31","LF","t2ubvm70lv","1920","1080","0","1","0","5f858743256d25036d9fa693","","null","","","","","","","learning/Slide112.JPG","null","","","","","",""
"html-keyboard-response","342","629750","0.0-7.0-2.31","LF","t2ubvm70lv","1920","1080","0","1","0","5f858743256d25036d9fa693","","null","","","learningBlock2","","","","<div style=""font-size:60px;""> </div>","null","LF","learning/Slide112.JPG","This is a wug:","","",""
"html-keyboard-response","343","630753","0.0-7.0-0.32","LF","t2ubvm70lv","1920","1080","0","1","0","5f858743256d25036d9fa693","","null","","","learningBlock2","","","","This is a tob:","null","","","","","",""
"image-keyboard-response","344","631080","0.0-7.0-1.32","LF","t2ubvm70lv","1920","1080","0","1","0","5f858743256d25036d9fa693","","null","","","","","","","learning/Slide113.JPG","null","","","","","",""
"html-keyboard-response","345","632082","0.0-7.0-2.32","LF","t2ubvm70lv","1920","1080","0","1","0","5f858743256d25036d9fa693","","null","","","learningBlock2","","","","<div style=""font-size:60px;""> </div>","null","LF","learning/Slide113.JPG","This is a tob:","","",""
"html-keyboard-response","346","633083","0.0-7.0-0.33","LF","t2ubvm70lv","1920","1080","0","1","0","5f858743256d25036d9fa693","","null","","","learningBlock2","","","","This is a wug:","null","","","","","",""
"image-keyboard-response","347","633411","0.0-7.0-1.33","LF","t2ubvm70lv","1920","1080","0","1","0","5f858743256d25036d9fa693","","null","","","","","","","learning/Slide114.JPG","null","","","","","",""
"html-keyboard-response","348","634413","0.0-7.0-2.33","LF","t2ubvm70lv","1920","1080","0","1","0","5f858743256d25036d9fa693","","null","","","learningBlock2","","","","<div style=""font-size:60px;""> </div>","null","LF","learning/Slide114.JPG","This is a wug:","","",""
"html-keyboard-response","349","635414","0.0-7.0-0.34","LF","t2ubvm70lv","1920","1080","0","1","0","5f858743256d25036d9fa693","","null","","","learningBlock2","","","","This is a bim:","null","","","","","",""
"image-keyboard-response","350","635741","0.0-7.0-1.34","LF","t2ubvm70lv","1920","1080","0","1","0","5f858743256d25036d9fa693","","null","","","","","","","learning/Slide115.JPG","null","","","","","",""
"html-keyboard-response","351","636743","0.0-7.0-2.34","LF","t2ubvm70lv","1920","1080","0","1","0","5f858743256d25036d9fa693","","null","","","learningBlock2","","","","<div style=""font-size:60px;""> </div>","null","LF","learning/Slide115.JPG","This is a bim:","","",""
"html-keyboard-response","352","637744","0.0-7.0-0.35","LF","t2ubvm70lv","1920","1080","0","1","0","5f858743256d25036d9fa693","","null","","","learningBlock2","","","","This is a dep:","null","","","","","",""
"image-keyboard-response","353","638071","0.0-7.0-1.35","LF","t2ubvm70lv","1920","1080","0","1","0","5f858743256d25036d9fa693","","null","","","","","","","learning/Slide116.JPG","null","","","","","",""
"html-keyboard-response","354","639073","0.0-7.0-2.35","LF","t2ubvm70lv","1920","1080","0","1","0","5f858743256d25036d9fa693","","null","","","learningBlock2","","","","<div style=""font-size:60px;""> </div>","null","LF","learning/Slide116.JPG","This is a dep:","","",""
"html-keyboard-response","355","640074","0.0-7.0-0.36","LF","t2ubvm70lv","1920","1080","0","1","0","5f858743256d25036d9fa693","","null","","","learningBlock2","","","","This is a tob:","null","","","","","",""
"image-keyboard-response","356","640401","0.0-7.0-1.36","LF","t2ubvm70lv","1920","1080","0","1","0","5f858743256d25036d9fa693","","null","","","","","","","learning/Slide117.JPG","null","","","","","",""
"html-keyboard-response","357","641403","0.0-7.0-2.36","LF","t2ubvm70lv","1920","1080","0","1","0","5f858743256d25036d9fa693","","null","","","learningBlock2","","","","<div style=""font-size:60px;""> </div>","null","LF","learning/Slide117.JPG","This is a tob:","","",""
"html-keyboard-response","358","642405","0.0-7.0-0.37","LF","t2ubvm70lv","1920","1080","0","1","0","5f858743256d25036d9fa693","","null","","","learningBlock2","","","","This is a dep:","null","","","","","",""
"image-keyboard-response","359","642733","0.0-7.0-1.37","LF","t2ubvm70lv","1920","1080","0","1","0","5f858743256d25036d9fa693","","null","","","","","","","learning/Slide118.JPG","null","","","","","",""
"html-keyboard-response","360","643735","0.0-7.0-2.37","LF","t2ubvm70lv","1920","1080","0","1","0","5f858743256d25036d9fa693","","null","","","learningBlock2","","","","<div style=""font-size:60px;""> </div>","null","LF","learning/Slide118.JPG","This is a dep:","","",""
"html-keyboard-response","361","644737","0.0-7.0-0.38","LF","t2ubvm70lv","1920","1080","0","1","0","5f858743256d25036d9fa693","","null","","","learningBlock2","","","","This is a wug:","null","","","","","",""
"image-keyboard-response","362","645064","0.0-7.0-1.38","LF","t2ubvm70lv","1920","1080","0","1","0","5f858743256d25036d9fa693","","null","","","","","","","learning/Slide119.JPG","null","","","","","",""
"html-keyboard-response","363","646066","0.0-7.0-2.38","LF","t2ubvm70lv","1920","1080","0","1","0","5f858743256d25036d9fa693","","null","","","learningBlock2","","","","<div style=""font-size:60px;""> </div>","null","LF","learning/Slide119.JPG","This is a wug:","","",""
"html-keyboard-response","364","647067","0.0-7.0-0.39","LF","t2ubvm70lv","1920","1080","0","1","0","5f858743256d25036d9fa693","","null","","","learningBlock2","","","","This is a dep:","null","","","","","",""
"image-keyboard-response","365","647394","0.0-7.0-1.39","LF","t2ubvm70lv","1920","1080","0","1","0","5f858743256d25036d9fa693","","null","","","","","","","learning/Slide120.JPG","null","","","","","",""
"html-keyboard-response","366","648396","0.0-7.0-2.39","LF","t2ubvm70lv","1920","1080","0","1","0","5f858743256d25036d9fa693","","null","","","learningBlock2","","","","<div style=""font-size:60px;""> </div>","null","LF","learning/Slide120.JPG","This is a dep:","","",""
"html-keyboard-response","367","649399","0.0-7.0-0.40","LF","t2ubvm70lv","1920","1080","0","1","0","5f858743256d25036d9fa693","","null","","","learningBlock2","","","","This is a bim:","null","","","","","",""
"image-keyboard-response","368","649725","0.0-7.0-1.40","LF","t2ubvm70lv","1920","1080","0","1","0","5f858743256d25036d9fa693","","null","","","","","","","learning/Slide121.JPG","null","","","","","",""
"html-keyboard-response","369","650727","0.0-7.0-2.40","LF","t2ubvm70lv","1920","1080","0","1","0","5f858743256d25036d9fa693","","null","","","learningBlock2","","","","<div style=""font-size:60px;""> </div>","null","LF","learning/Slide121.JPG","This is a bim:","","",""
"html-keyboard-response","370","651729","0.0-7.0-0.41","LF","t2ubvm70lv","1920","1080","0","1","0","5f858743256d25036d9fa693","","null","","","learningBlock2","","","","This is a wug:","null","","","","","",""
"image-keyboard-response","371","652055","0.0-7.0-1.41","LF","t2ubvm70lv","1920","1080","0","1","0","5f858743256d25036d9fa693","","null","","","","","","","learning/Slide122.JPG","null","","","","","",""
"html-keyboard-response","372","653057","0.0-7.0-2.41","LF","t2ubvm70lv","1920","1080","0","1","0","5f858743256d25036d9fa693","","null","","","learningBlock2","","","","<div style=""font-size:60px;""> </div>","null","LF","learning/Slide122.JPG","This is a wug:","","",""
"html-keyboard-response","373","654059","0.0-7.0-0.42","LF","t2ubvm70lv","1920","1080","0","1","0","5f858743256d25036d9fa693","","null","","","learningBlock2","","","","This is a bim:","null","","","","","",""
"image-keyboard-response","374","654386","0.0-7.0-1.42","LF","t2ubvm70lv","1920","1080","0","1","0","5f858743256d25036d9fa693","","null","","","","","","","learning/Slide123.JPG","null","","","","","",""
"html-keyboard-response","375","655388","0.0-7.0-2.42","LF","t2ubvm70lv","1920","1080","0","1","0","5f858743256d25036d9fa693","","null","","","learningBlock2","","","","<div style=""font-size:60px;""> </div>","null","LF","learning/Slide123.JPG","This is a bim:","","",""
"html-keyboard-response","376","656390","0.0-7.0-0.43","LF","t2ubvm70lv","1920","1080","0","1","0","5f858743256d25036d9fa693","","null","","","learningBlock2","","","","This is a tob:","null","","","","","",""
"image-keyboard-response","377","656717","0.0-7.0-1.43","LF","t2ubvm70lv","1920","1080","0","1","0","5f858743256d25036d9fa693","","null","","","","","","","learning/Slide124.JPG","null","","","","","",""
"html-keyboard-response","378","657719","0.0-7.0-2.43","LF","t2ubvm70lv","1920","1080","0","1","0","5f858743256d25036d9fa693","","null","","","learningBlock2","","","","<div style=""font-size:60px;""> </div>","null","LF","learning/Slide124.JPG","This is a tob:","","",""
"html-keyboard-response","379","658721","0.0-7.0-0.44","LF","t2ubvm70lv","1920","1080","0","1","0","5f858743256d25036d9fa693","","null","","","learningBlock2","","","","This is a bim:","null","","","","","",""
"image-keyboard-response","380","659048","0.0-7.0-1.44","LF","t2ubvm70lv","1920","1080","0","1","0","5f858743256d25036d9fa693","","null","","","","","","","learning/Slide125.JPG","null","","","","","",""
"html-keyboard-response","381","660050","0.0-7.0-2.44","LF","t2ubvm70lv","1920","1080","0","1","0","5f858743256d25036d9fa693","","null","","","learningBlock2","","","","<div style=""font-size:60px;""> </div>","null","LF","learning/Slide125.JPG","This is a bim:","","",""
"html-keyboard-response","382","661051","0.0-7.0-0.45","LF","t2ubvm70lv","1920","1080","0","1","0","5f858743256d25036d9fa693","","null","","","learningBlock2","","","","This is a tob:","null","","","","","",""
"image-keyboard-response","383","661378","0.0-7.0-1.45","LF","t2ubvm70lv","1920","1080","0","1","0","5f858743256d25036d9fa693","","null","","","","","","","learning/Slide126.JPG","null","","","","","",""
"html-keyboard-response","384","662380","0.0-7.0-2.45","LF","t2ubvm70lv","1920","1080","0","1","0","5f858743256d25036d9fa693","","null","","","learningBlock2","","","","<div style=""font-size:60px;""> </div>","null","LF","learning/Slide126.JPG","This is a tob:","","",""
"html-keyboard-response","385","663381","0.0-7.0-0.46","LF","t2ubvm70lv","1920","1080","0","1","0","5f858743256d25036d9fa693","","null","","","learningBlock2","","","","This is a dep:","null","","","","","",""
"image-keyboard-response","386","663708","0.0-7.0-1.46","LF","t2ubvm70lv","1920","1080","0","1","0","5f858743256d25036d9fa693","","null","","","","","","","learning/Slide127.JPG","null","","","","","",""
"html-keyboard-response","387","664710","0.0-7.0-2.46","LF","t2ubvm70lv","1920","1080","0","1","0","5f858743256d25036d9fa693","","null","","","learningBlock2","","","","<div style=""font-size:60px;""> </div>","null","LF","learning/Slide127.JPG","This is a dep:","","",""
"html-keyboard-response","388","665712","0.0-7.0-0.47","LF","t2ubvm70lv","1920","1080","0","1","0","5f858743256d25036d9fa693","","null","","","learningBlock2","","","","This is a wug:","null","","","","","",""
"image-keyboard-response","389","666039","0.0-7.0-1.47","LF","t2ubvm70lv","1920","1080","0","1","0","5f858743256d25036d9fa693","","null","","","","","","","learning/Slide128.JPG","null","","","","","",""
"html-keyboard-response","390","667041","0.0-7.0-2.47","LF","t2ubvm70lv","1920","1080","0","1","0","5f858743256d25036d9fa693","","null","","","learningBlock2","","","","<div style=""font-size:60px;""> </div>","null","LF","learning/Slide128.JPG","This is a wug:","","",""
"html-keyboard-response","391","668042","0.0-7.0-0.48","LF","t2ubvm70lv","1920","1080","0","1","0","5f858743256d25036d9fa693","","null","","","learningBlock2","","","","This is a tob:","null","","","","","",""
"image-keyboard-response","392","668369","0.0-7.0-1.48","LF","t2ubvm70lv","1920","1080","0","1","0","5f858743256d25036d9fa693","","null","","","","","","","learning/Slide129.JPG","null","","","","","",""
"html-keyboard-response","393","669371","0.0-7.0-2.48","LF","t2ubvm70lv","1920","1080","0","1","0","5f858743256d25036d9fa693","","null","","","learningBlock2","","","","<div style=""font-size:60px;""> </div>","null","LF","learning/Slide129.JPG","This is a tob:","","",""
"html-keyboard-response","394","670373","0.0-7.0-0.49","LF","t2ubvm70lv","1920","1080","0","1","0","5f858743256d25036d9fa693","","null","","","learningBlock2","","","","This is a wug:","null","","","","","",""
"image-keyboard-response","395","670700","0.0-7.0-1.49","LF","t2ubvm70lv","1920","1080","0","1","0","5f858743256d25036d9fa693","","null","","","","","","","learning/Slide130.JPG","null","","","","","",""
"html-keyboard-response","396","671702","0.0-7.0-2.49","LF","t2ubvm70lv","1920","1080","0","1","0","5f858743256d25036d9fa693","","null","","","learningBlock2","","","","<div style=""font-size:60px;""> </div>","null","LF","learning/Slide130.JPG","This is a wug:","","",""
"html-keyboard-response","397","672704","0.0-7.0-0.50","LF","t2ubvm70lv","1920","1080","0","1","0","5f858743256d25036d9fa693","","null","","","learningBlock2","","","","This is a bim:","null","","","","","",""
"image-keyboard-response","398","673031","0.0-7.0-1.50","LF","t2ubvm70lv","1920","1080","0","1","0","5f858743256d25036d9fa693","","null","","","","","","","learning/Slide131.JPG","null","","","","","",""
"html-keyboard-response","399","674033","0.0-7.0-2.50","LF","t2ubvm70lv","1920","1080","0","1","0","5f858743256d25036d9fa693","","null","","","learningBlock2","","","","<div style=""font-size:60px;""> </div>","null","LF","learning/Slide131.JPG","This is a bim:","","",""
"html-keyboard-response","400","675035","0.0-7.0-0.51","LF","t2ubvm70lv","1920","1080","0","1","0","5f858743256d25036d9fa693","","null","","","learningBlock2","","","","This is a dep:","null","","","","","",""
"image-keyboard-response","401","675362","0.0-7.0-1.51","LF","t2ubvm70lv","1920","1080","0","1","0","5f858743256d25036d9fa693","","null","","","","","","","learning/Slide132.JPG","null","","","","","",""
"html-keyboard-response","402","676364","0.0-7.0-2.51","LF","t2ubvm70lv","1920","1080","0","1","0","5f858743256d25036d9fa693","","null","","","learningBlock2","","","","<div style=""font-size:60px;""> </div>","null","LF","learning/Slide132.JPG","This is a dep:","","",""
"html-keyboard-response","403","677366","0.0-7.0-0.52","LF","t2ubvm70lv","1920","1080","0","1","0","5f858743256d25036d9fa693","","null","","","learningBlock2","","","","This is a tob:","null","","","","","",""
"image-keyboard-response","404","677698","0.0-7.0-1.52","LF","t2ubvm70lv","1920","1080","0","1","0","5f858743256d25036d9fa693","","null","","","","","","","learning/Slide133.JPG","null","","","","","",""
"html-keyboard-response","405","678700","0.0-7.0-2.52","LF","t2ubvm70lv","1920","1080","0","1","0","5f858743256d25036d9fa693","","null","","","learningBlock2","","","","<div style=""font-size:60px;""> </div>","null","LF","learning/Slide133.JPG","This is a tob:","","",""
"html-keyboard-response","406","679701","0.0-7.0-0.53","LF","t2ubvm70lv","1920","1080","0","1","0","5f858743256d25036d9fa693","","null","","","learningBlock2","","","","This is a dep:","null","","","","","",""
"image-keyboard-response","407","680028","0.0-7.0-1.53","LF","t2ubvm70lv","1920","1080","0","1","0","5f858743256d25036d9fa693","","null","","","","","","","learning/Slide134.JPG","null","","","","","",""
"html-keyboard-response","408","681030","0.0-7.0-2.53","LF","t2ubvm70lv","1920","1080","0","1","0","5f858743256d25036d9fa693","","null","","","learningBlock2","","","","<div style=""font-size:60px;""> </div>","null","LF","learning/Slide134.JPG","This is a dep:","","",""
"html-keyboard-response","409","682032","0.0-7.0-0.54","LF","t2ubvm70lv","1920","1080","0","1","0","5f858743256d25036d9fa693","","null","","","learningBlock2","","","","This is a tob:","null","","","","","",""
"image-keyboard-response","410","682359","0.0-7.0-1.54","LF","t2ubvm70lv","1920","1080","0","1","0","5f858743256d25036d9fa693","","null","","","","","","","learning/Slide135.JPG","null","","","","","",""
"html-keyboard-response","411","683361","0.0-7.0-2.54","LF","t2ubvm70lv","1920","1080","0","1","0","5f858743256d25036d9fa693","","null","","","learningBlock2","","","","<div style=""font-size:60px;""> </div>","null","LF","learning/Slide135.JPG","This is a tob:","","",""
"html-keyboard-response","412","684362","0.0-7.0-0.55","LF","t2ubvm70lv","1920","1080","0","1","0","5f858743256d25036d9fa693","","null","","","learningBlock2","","","","This is a wug:","null","","","","","",""
"image-keyboard-response","413","684689","0.0-7.0-1.55","LF","t2ubvm70lv","1920","1080","0","1","0","5f858743256d25036d9fa693","","null","","","","","","","learning/Slide136.JPG","null","","","","","",""
"html-keyboard-response","414","685691","0.0-7.0-2.55","LF","t2ubvm70lv","1920","1080","0","1","0","5f858743256d25036d9fa693","","null","","","learningBlock2","","","","<div style=""font-size:60px;""> </div>","null","LF","learning/Slide136.JPG","This is a wug:","","",""
"html-keyboard-response","415","686692","0.0-7.0-0.56","LF","t2ubvm70lv","1920","1080","0","1","0","5f858743256d25036d9fa693","","null","","","learningBlock2","","","","This is a tob:","null","","","","","",""
"image-keyboard-response","416","687019","0.0-7.0-1.56","LF","t2ubvm70lv","1920","1080","0","1","0","5f858743256d25036d9fa693","","null","","","","","","","learning/Slide137.JPG","null","","","","","",""
"html-keyboard-response","417","688021","0.0-7.0-2.56","LF","t2ubvm70lv","1920","1080","0","1","0","5f858743256d25036d9fa693","","null","","","learningBlock2","","","","<div style=""font-size:60px;""> </div>","null","LF","learning/Slide137.JPG","This is a tob:","","",""
"html-keyboard-response","418","689022","0.0-7.0-0.57","LF","t2ubvm70lv","1920","1080","0","1","0","5f858743256d25036d9fa693","","null","","","learningBlock2","","","","This is a bim:","null","","","","","",""
"image-keyboard-response","419","689349","0.0-7.0-1.57","LF","t2ubvm70lv","1920","1080","0","1","0","5f858743256d25036d9fa693","","null","","","","","","","learning/Slide138.JPG","null","","","","","",""
"html-keyboard-response","420","690351","0.0-7.0-2.57","LF","t2ubvm70lv","1920","1080","0","1","0","5f858743256d25036d9fa693","","null","","","learningBlock2","","","","<div style=""font-size:60px;""> </div>","null","LF","learning/Slide138.JPG","This is a bim:","","",""
"html-keyboard-response","421","691352","0.0-7.0-0.58","LF","t2ubvm70lv","1920","1080","0","1","0","5f858743256d25036d9fa693","","null","","","learningBlock2","","","","This is a wug:","null","","","","","",""
"image-keyboard-response","422","691679","0.0-7.0-1.58","LF","t2ubvm70lv","1920","1080","0","1","0","5f858743256d25036d9fa693","","null","","","","","","","learning/Slide139.JPG","null","","","","","",""
"html-keyboard-response","423","692681","0.0-7.0-2.58","LF","t2ubvm70lv","1920","1080","0","1","0","5f858743256d25036d9fa693","","null","","","learningBlock2","","","","<div style=""font-size:60px;""> </div>","null","LF","learning/Slide139.JPG","This is a wug:","","",""
"html-keyboard-response","424","693682","0.0-7.0-0.59","LF","t2ubvm70lv","1920","1080","0","1","0","5f858743256d25036d9fa693","","null","","","learningBlock2","","","","This is a dep:","null","","","","","",""
"image-keyboard-response","425","694009","0.0-7.0-1.59","LF","t2ubvm70lv","1920","1080","0","1","0","5f858743256d25036d9fa693","","null","","","","","","","learning/Slide140.JPG","null","","","","","",""
"html-keyboard-response","426","695011","0.0-7.0-2.59","LF","t2ubvm70lv","1920","1080","0","1","0","5f858743256d25036d9fa693","","null","","","learningBlock2","","","","<div style=""font-size:60px;""> </div>","null","LF","learning/Slide140.JPG","This is a dep:","","",""
"html-keyboard-response","427","696012","0.0-7.0-0.60","LF","t2ubvm70lv","1920","1080","0","1","0","5f858743256d25036d9fa693","","null","","","learningBlock2","","","","This is a tob:","null","","","","","",""
"image-keyboard-response","428","696339","0.0-7.0-1.60","LF","t2ubvm70lv","1920","1080","0","1","0","5f858743256d25036d9fa693","","null","","","","","","","learning/Slide141.JPG","null","","","","","",""
"html-keyboard-response","429","697341","0.0-7.0-2.60","LF","t2ubvm70lv","1920","1080","0","1","0","5f858743256d25036d9fa693","","null","","","learningBlock2","","","","<div style=""font-size:60px;""> </div>","null","LF","learning/Slide141.JPG","This is a tob:","","",""
"html-keyboard-response","430","698342","0.0-7.0-0.61","LF","t2ubvm70lv","1920","1080","0","1","0","5f858743256d25036d9fa693","","null","","","learningBlock2","","","","This is a wug:","null","","","","","",""
"image-keyboard-response","431","698669","0.0-7.0-1.61","LF","t2ubvm70lv","1920","1080","0","1","0","5f858743256d25036d9fa693","","null","","","","","","","learning/Slide142.JPG","null","","","","","",""
"html-keyboard-response","432","699671","0.0-7.0-2.61","LF","t2ubvm70lv","1920","1080","0","1","0","5f858743256d25036d9fa693","","null","","","learningBlock2","","","","<div style=""font-size:60px;""> </div>","null","LF","learning/Slide142.JPG","This is a wug:","","",""
"html-keyboard-response","433","700673","0.0-7.0-0.62","LF","t2ubvm70lv","1920","1080","0","1","0","5f858743256d25036d9fa693","","null","","","learningBlock2","","","","This is a bim:","null","","","","","",""
"image-keyboard-response","434","700999","0.0-7.0-1.62","LF","t2ubvm70lv","1920","1080","0","1","0","5f858743256d25036d9fa693","","null","","","","","","","learning/Slide143.JPG","null","","","","","",""
"html-keyboard-response","435","702001","0.0-7.0-2.62","LF","t2ubvm70lv","1920","1080","0","1","0","5f858743256d25036d9fa693","","null","","","learningBlock2","","","","<div style=""font-size:60px;""> </div>","null","LF","learning/Slide143.JPG","This is a bim:","","",""
