"trial_type","trial_index","time_elapsed","internal_node_id","condition","subject","screen_width","screen_height","attention","distraction","conscientious","prolificID","success","rt","url","view_history","test_part","final_height_px","final_width_px","scale_factor","stimulus","key_press","learningType","presentedImage","presentedLabel","button_pressed","response","responses"
"pavlovia","0","17","0.0-0.0","FL","9x75jv8vpf","1600","900","0","1","0","5f34cb60fa6cf63ecf31902d","","","","","","","","","","","","","","","",""
"fullscreen","1","2226","0.0-1.0","FL","9x75jv8vpf","1600","900","0","1","0","5f34cb60fa6cf63ecf31902d","true","","","","","","","","","","","","","","",""
"external-html","2","15761","0.0-2.0-0.0","FL","9x75jv8vpf","1600","900","0","1","0","5f34cb60fa6cf63ecf31902d","","13528.36500000194","text/information_english.html","","","","","","","","","","","","",""
"external-html","3","18146","0.0-2.0-1.0","FL","9x75jv8vpf","1600","900","0","1","0","5f34cb60fa6cf63ecf31902d","","2378.0449999976554","text/consent_english.html","","","","","","","","","","","","",""
"instructions","4","20686","0.0-3.0","FL","9x75jv8vpf","1600","900","0","1","0","5f34cb60fa6cf63ecf31902d","","NA","","[{""page_index"":0,""viewing_time"":927.8500000000349},{""page_index"":1,""viewing_time"":1609.7250000020722}]","instructions","","","","","","","","","","",""
"resize","5","31148","0.0-4.0","FL","9x75jv8vpf","1600","900","0","1","0","5f34cb60fa6cf63ecf31902d","","","","","","","264","1.6761904761904762","","","","","","","",""
"image-keyboard-response","6","31326","0.0-5.0-0.0","FL","9x75jv8vpf","1600","900","0","1","0","5f34cb60fa6cf63ecf31902d","","null","","","","","","","learning/Slide1.JPG","null","","","","","",""
"html-keyboard-response","7","32478","0.0-5.0-1.0","FL","9x75jv8vpf","1600","900","0","1","0","5f34cb60fa6cf63ecf31902d","","null","","","learningBlock1","","","","That was a tob.","null","","","","","",""
"html-keyboard-response","8","33480","0.0-5.0-2.0","FL","9x75jv8vpf","1600","900","0","1","0","5f34cb60fa6cf63ecf31902d","","null","","","learningBlock1","","","","<div style=""font-size:60px;""> </div>","null","FL","learning/Slide1.JPG","That was a tob.","","",""
"image-keyboard-response","9","33657","0.0-5.0-0.1","FL","9x75jv8vpf","1600","900","0","1","0","5f34cb60fa6cf63ecf31902d","","null","","","","","","","learning/Slide2.JPG","null","","","","","",""
"html-keyboard-response","10","34809","0.0-5.0-1.1","FL","9x75jv8vpf","1600","900","0","1","0","5f34cb60fa6cf63ecf31902d","","null","","","learningBlock1","","","","That was a wug.","null","","","","","",""
"html-keyboard-response","11","35811","0.0-5.0-2.1","FL","9x75jv8vpf","1600","900","0","1","0","5f34cb60fa6cf63ecf31902d","","null","","","learningBlock1","","","","<div style=""font-size:60px;""> </div>","null","FL","learning/Slide2.JPG","That was a wug.","","",""
"image-keyboard-response","12","35988","0.0-5.0-0.2","FL","9x75jv8vpf","1600","900","0","1","0","5f34cb60fa6cf63ecf31902d","","null","","","","","","","learning/Slide3.JPG","null","","","","","",""
"html-keyboard-response","13","37139","0.0-5.0-1.2","FL","9x75jv8vpf","1600","900","0","1","0","5f34cb60fa6cf63ecf31902d","","null","","","learningBlock1","","","","That was a bim.","null","","","","","",""
"html-keyboard-response","14","38141","0.0-5.0-2.2","FL","9x75jv8vpf","1600","900","0","1","0","5f34cb60fa6cf63ecf31902d","","null","","","learningBlock1","","","","<div style=""font-size:60px;""> </div>","null","FL","learning/Slide3.JPG","That was a bim.","","",""
"image-keyboard-response","15","38317","0.0-5.0-0.3","FL","9x75jv8vpf","1600","900","0","1","0","5f34cb60fa6cf63ecf31902d","","null","","","","","","","learning/Slide4.JPG","null","","","","","",""
"html-keyboard-response","16","39469","0.0-5.0-1.3","FL","9x75jv8vpf","1600","900","0","1","0","5f34cb60fa6cf63ecf31902d","","null","","","learningBlock1","","","","That was a dep.","null","","","","","",""
"html-keyboard-response","17","40470","0.0-5.0-2.3","FL","9x75jv8vpf","1600","900","0","1","0","5f34cb60fa6cf63ecf31902d","","null","","","learningBlock1","","","","<div style=""font-size:60px;""> </div>","null","FL","learning/Slide4.JPG","That was a dep.","","",""
"image-keyboard-response","18","40647","0.0-5.0-0.4","FL","9x75jv8vpf","1600","900","0","1","0","5f34cb60fa6cf63ecf31902d","","null","","","","","","","learning/Slide5.JPG","null","","","","","",""
"html-keyboard-response","19","41799","0.0-5.0-1.4","FL","9x75jv8vpf","1600","900","0","1","0","5f34cb60fa6cf63ecf31902d","","null","","","learningBlock1","","","","That was a wug.","null","","","","","",""
"html-keyboard-response","20","42800","0.0-5.0-2.4","FL","9x75jv8vpf","1600","900","0","1","0","5f34cb60fa6cf63ecf31902d","","null","","","learningBlock1","","","","<div style=""font-size:60px;""> </div>","null","FL","learning/Slide5.JPG","That was a wug.","","",""
"image-keyboard-response","21","42977","0.0-5.0-0.5","FL","9x75jv8vpf","1600","900","0","1","0","5f34cb60fa6cf63ecf31902d","","null","","","","","","","learning/Slide6.JPG","null","","","","","",""
"html-keyboard-response","22","44129","0.0-5.0-1.5","FL","9x75jv8vpf","1600","900","0","1","0","5f34cb60fa6cf63ecf31902d","","null","","","learningBlock1","","","","That was a dep.","null","","","","","",""
"html-keyboard-response","23","45130","0.0-5.0-2.5","FL","9x75jv8vpf","1600","900","0","1","0","5f34cb60fa6cf63ecf31902d","","null","","","learningBlock1","","","","<div style=""font-size:60px;""> </div>","null","FL","learning/Slide6.JPG","That was a dep.","","",""
"image-keyboard-response","24","45307","0.0-5.0-0.6","FL","9x75jv8vpf","1600","900","0","1","0","5f34cb60fa6cf63ecf31902d","","null","","","","","","","learning/Slide7.JPG","null","","","","","",""
"html-keyboard-response","25","46459","0.0-5.0-1.6","FL","9x75jv8vpf","1600","900","0","1","0","5f34cb60fa6cf63ecf31902d","","null","","","learningBlock1","","","","That was a wug.","null","","","","","",""
"html-keyboard-response","26","47460","0.0-5.0-2.6","FL","9x75jv8vpf","1600","900","0","1","0","5f34cb60fa6cf63ecf31902d","","null","","","learningBlock1","","","","<div style=""font-size:60px;""> </div>","null","FL","learning/Slide7.JPG","That was a wug.","","",""
"image-keyboard-response","27","47637","0.0-5.0-0.7","FL","9x75jv8vpf","1600","900","0","1","0","5f34cb60fa6cf63ecf31902d","","null","","","","","","","learning/Slide8.JPG","null","","","","","",""
"html-keyboard-response","28","48789","0.0-5.0-1.7","FL","9x75jv8vpf","1600","900","0","1","0","5f34cb60fa6cf63ecf31902d","","null","","","learningBlock1","","","","That was a bim.","null","","","","","",""
"html-keyboard-response","29","49790","0.0-5.0-2.7","FL","9x75jv8vpf","1600","900","0","1","0","5f34cb60fa6cf63ecf31902d","","null","","","learningBlock1","","","","<div style=""font-size:60px;""> </div>","null","FL","learning/Slide8.JPG","That was a bim.","","",""
"image-keyboard-response","30","49967","0.0-5.0-0.8","FL","9x75jv8vpf","1600","900","0","1","0","5f34cb60fa6cf63ecf31902d","","null","","","","","","","learning/Slide9.JPG","null","","","","","",""
"html-keyboard-response","31","51119","0.0-5.0-1.8","FL","9x75jv8vpf","1600","900","0","1","0","5f34cb60fa6cf63ecf31902d","","null","","","learningBlock1","","","","That was a wug.","null","","","","","",""
"html-keyboard-response","32","52120","0.0-5.0-2.8","FL","9x75jv8vpf","1600","900","0","1","0","5f34cb60fa6cf63ecf31902d","","null","","","learningBlock1","","","","<div style=""font-size:60px;""> </div>","null","FL","learning/Slide9.JPG","That was a wug.","","",""
"image-keyboard-response","33","52297","0.0-5.0-0.9","FL","9x75jv8vpf","1600","900","0","1","0","5f34cb60fa6cf63ecf31902d","","null","","","","","","","learning/Slide10.JPG","null","","","","","",""
"html-keyboard-response","34","53449","0.0-5.0-1.9","FL","9x75jv8vpf","1600","900","0","1","0","5f34cb60fa6cf63ecf31902d","","null","","","learningBlock1","","","","That was a dep.","null","","","","","",""
"html-keyboard-response","35","54450","0.0-5.0-2.9","FL","9x75jv8vpf","1600","900","0","1","0","5f34cb60fa6cf63ecf31902d","","null","","","learningBlock1","","","","<div style=""font-size:60px;""> </div>","null","FL","learning/Slide10.JPG","That was a dep.","","",""
"image-keyboard-response","36","54627","0.0-5.0-0.10","FL","9x75jv8vpf","1600","900","0","1","0","5f34cb60fa6cf63ecf31902d","","null","","","","","","","learning/Slide11.JPG","null","","","","","",""
"html-keyboard-response","37","55779","0.0-5.0-1.10","FL","9x75jv8vpf","1600","900","0","1","0","5f34cb60fa6cf63ecf31902d","","null","","","learningBlock1","","","","That was a tob.","null","","","","","",""
"html-keyboard-response","38","56780","0.0-5.0-2.10","FL","9x75jv8vpf","1600","900","0","1","0","5f34cb60fa6cf63ecf31902d","","null","","","learningBlock1","","","","<div style=""font-size:60px;""> </div>","null","FL","learning/Slide11.JPG","That was a tob.","","",""
"image-keyboard-response","39","56957","0.0-5.0-0.11","FL","9x75jv8vpf","1600","900","0","1","0","5f34cb60fa6cf63ecf31902d","","null","","","","","","","learning/Slide12.JPG","null","","","","","",""
"html-keyboard-response","40","58119","0.0-5.0-1.11","FL","9x75jv8vpf","1600","900","0","1","0","5f34cb60fa6cf63ecf31902d","","null","","","learningBlock1","","","","That was a dep.","null","","","","","",""
"html-keyboard-response","41","59123","0.0-5.0-2.11","FL","9x75jv8vpf","1600","900","0","1","0","5f34cb60fa6cf63ecf31902d","","null","","","learningBlock1","","","","<div style=""font-size:60px;""> </div>","null","FL","learning/Slide12.JPG","That was a dep.","","",""
"image-keyboard-response","42","59299","0.0-5.0-0.12","FL","9x75jv8vpf","1600","900","0","1","0","5f34cb60fa6cf63ecf31902d","","null","","","","","","","learning/Slide13.JPG","null","","","","","",""
"html-keyboard-response","43","60451","0.0-5.0-1.12","FL","9x75jv8vpf","1600","900","0","1","0","5f34cb60fa6cf63ecf31902d","","null","","","learningBlock1","","","","That was a bim.","null","","","","","",""
"html-keyboard-response","44","61452","0.0-5.0-2.12","FL","9x75jv8vpf","1600","900","0","1","0","5f34cb60fa6cf63ecf31902d","","null","","","learningBlock1","","","","<div style=""font-size:60px;""> </div>","null","FL","learning/Slide13.JPG","That was a bim.","","",""
"image-keyboard-response","45","61629","0.0-5.0-0.13","FL","9x75jv8vpf","1600","900","0","1","0","5f34cb60fa6cf63ecf31902d","","null","","","","","","","learning/Slide14.JPG","null","","","","","",""
"html-keyboard-response","46","62781","0.0-5.0-1.13","FL","9x75jv8vpf","1600","900","0","1","0","5f34cb60fa6cf63ecf31902d","","null","","","learningBlock1","","","","That was a wug.","null","","","","","",""
"html-keyboard-response","47","63782","0.0-5.0-2.13","FL","9x75jv8vpf","1600","900","0","1","0","5f34cb60fa6cf63ecf31902d","","null","","","learningBlock1","","","","<div style=""font-size:60px;""> </div>","null","FL","learning/Slide14.JPG","That was a wug.","","",""
"image-keyboard-response","48","63958","0.0-5.0-0.14","FL","9x75jv8vpf","1600","900","0","1","0","5f34cb60fa6cf63ecf31902d","","null","","","","","","","learning/Slide15.JPG","null","","","","","",""
"html-keyboard-response","49","65111","0.0-5.0-1.14","FL","9x75jv8vpf","1600","900","0","1","0","5f34cb60fa6cf63ecf31902d","","null","","","learningBlock1","","","","That was a tob.","null","","","","","",""
"html-keyboard-response","50","66112","0.0-5.0-2.14","FL","9x75jv8vpf","1600","900","0","1","0","5f34cb60fa6cf63ecf31902d","","null","","","learningBlock1","","","","<div style=""font-size:60px;""> </div>","null","FL","learning/Slide15.JPG","That was a tob.","","",""
"image-keyboard-response","51","66289","0.0-5.0-0.15","FL","9x75jv8vpf","1600","900","0","1","0","5f34cb60fa6cf63ecf31902d","","null","","","","","","","learning/Slide16.JPG","null","","","","","",""
"html-keyboard-response","52","67441","0.0-5.0-1.15","FL","9x75jv8vpf","1600","900","0","1","0","5f34cb60fa6cf63ecf31902d","","null","","","learningBlock1","","","","That was a dep.","null","","","","","",""
"html-keyboard-response","53","68442","0.0-5.0-2.15","FL","9x75jv8vpf","1600","900","0","1","0","5f34cb60fa6cf63ecf31902d","","null","","","learningBlock1","","","","<div style=""font-size:60px;""> </div>","null","FL","learning/Slide16.JPG","That was a dep.","","",""
"image-keyboard-response","54","68618","0.0-5.0-0.16","FL","9x75jv8vpf","1600","900","0","1","0","5f34cb60fa6cf63ecf31902d","","null","","","","","","","learning/Slide17.JPG","null","","","","","",""
"html-keyboard-response","55","69770","0.0-5.0-1.16","FL","9x75jv8vpf","1600","900","0","1","0","5f34cb60fa6cf63ecf31902d","","null","","","learningBlock1","","","","That was a bim.","null","","","","","",""
"html-keyboard-response","56","70771","0.0-5.0-2.16","FL","9x75jv8vpf","1600","900","0","1","0","5f34cb60fa6cf63ecf31902d","","null","","","learningBlock1","","","","<div style=""font-size:60px;""> </div>","null","FL","learning/Slide17.JPG","That was a bim.","","",""
"image-keyboard-response","57","70947","0.0-5.0-0.17","FL","9x75jv8vpf","1600","900","0","1","0","5f34cb60fa6cf63ecf31902d","","null","","","","","","","learning/Slide18.JPG","null","","","","","",""
"html-keyboard-response","58","72099","0.0-5.0-1.17","FL","9x75jv8vpf","1600","900","0","1","0","5f34cb60fa6cf63ecf31902d","","null","","","learningBlock1","","","","That was a tob.","null","","","","","",""
"html-keyboard-response","59","73100","0.0-5.0-2.17","FL","9x75jv8vpf","1600","900","0","1","0","5f34cb60fa6cf63ecf31902d","","null","","","learningBlock1","","","","<div style=""font-size:60px;""> </div>","null","FL","learning/Slide18.JPG","That was a tob.","","",""
"image-keyboard-response","60","73277","0.0-5.0-0.18","FL","9x75jv8vpf","1600","900","0","1","0","5f34cb60fa6cf63ecf31902d","","null","","","","","","","learning/Slide19.JPG","null","","","","","",""
"html-keyboard-response","61","74429","0.0-5.0-1.18","FL","9x75jv8vpf","1600","900","0","1","0","5f34cb60fa6cf63ecf31902d","","null","","","learningBlock1","","","","That was a wug.","null","","","","","",""
"html-keyboard-response","62","75430","0.0-5.0-2.18","FL","9x75jv8vpf","1600","900","0","1","0","5f34cb60fa6cf63ecf31902d","","null","","","learningBlock1","","","","<div style=""font-size:60px;""> </div>","null","FL","learning/Slide19.JPG","That was a wug.","","",""
"image-keyboard-response","63","75607","0.0-5.0-0.19","FL","9x75jv8vpf","1600","900","0","1","0","5f34cb60fa6cf63ecf31902d","","null","","","","","","","learning/Slide20.JPG","null","","","","","",""
"html-keyboard-response","64","76759","0.0-5.0-1.19","FL","9x75jv8vpf","1600","900","0","1","0","5f34cb60fa6cf63ecf31902d","","null","","","learningBlock1","","","","That was a bim.","null","","","","","",""
"html-keyboard-response","65","77760","0.0-5.0-2.19","FL","9x75jv8vpf","1600","900","0","1","0","5f34cb60fa6cf63ecf31902d","","null","","","learningBlock1","","","","<div style=""font-size:60px;""> </div>","null","FL","learning/Slide20.JPG","That was a bim.","","",""
"image-keyboard-response","66","77937","0.0-5.0-0.20","FL","9x75jv8vpf","1600","900","0","1","0","5f34cb60fa6cf63ecf31902d","","null","","","","","","","learning/Slide21.JPG","null","","","","","",""
"html-keyboard-response","67","79089","0.0-5.0-1.20","FL","9x75jv8vpf","1600","900","0","1","0","5f34cb60fa6cf63ecf31902d","","null","","","learningBlock1","","","","That was a dep.","null","","","","","",""
"html-keyboard-response","68","80090","0.0-5.0-2.20","FL","9x75jv8vpf","1600","900","0","1","0","5f34cb60fa6cf63ecf31902d","","null","","","learningBlock1","","","","<div style=""font-size:60px;""> </div>","null","FL","learning/Slide21.JPG","That was a dep.","","",""
"image-keyboard-response","69","80267","0.0-5.0-0.21","FL","9x75jv8vpf","1600","900","0","1","0","5f34cb60fa6cf63ecf31902d","","null","","","","","","","learning/Slide22.JPG","null","","","","","",""
"html-keyboard-response","70","81419","0.0-5.0-1.21","FL","9x75jv8vpf","1600","900","0","1","0","5f34cb60fa6cf63ecf31902d","","null","","","learningBlock1","","","","That was a bim.","null","","","","","",""
"html-keyboard-response","71","82420","0.0-5.0-2.21","FL","9x75jv8vpf","1600","900","0","1","0","5f34cb60fa6cf63ecf31902d","","null","","","learningBlock1","","","","<div style=""font-size:60px;""> </div>","null","FL","learning/Slide22.JPG","That was a bim.","","",""
"image-keyboard-response","72","82596","0.0-5.0-0.22","FL","9x75jv8vpf","1600","900","0","1","0","5f34cb60fa6cf63ecf31902d","","null","","","","","","","learning/Slide23.JPG","null","","","","","",""
"html-keyboard-response","73","83749","0.0-5.0-1.22","FL","9x75jv8vpf","1600","900","0","1","0","5f34cb60fa6cf63ecf31902d","","null","","","learningBlock1","","","","That was a tob.","null","","","","","",""
"html-keyboard-response","74","84750","0.0-5.0-2.22","FL","9x75jv8vpf","1600","900","0","1","0","5f34cb60fa6cf63ecf31902d","","null","","","learningBlock1","","","","<div style=""font-size:60px;""> </div>","null","FL","learning/Slide23.JPG","That was a tob.","","",""
"image-keyboard-response","75","84927","0.0-5.0-0.23","FL","9x75jv8vpf","1600","900","0","1","0","5f34cb60fa6cf63ecf31902d","","null","","","","","","","learning/Slide24.JPG","null","","","","","",""
"html-keyboard-response","76","86079","0.0-5.0-1.23","FL","9x75jv8vpf","1600","900","0","1","0","5f34cb60fa6cf63ecf31902d","","null","","","learningBlock1","","","","That was a wug.","null","","","","","",""
"html-keyboard-response","77","87080","0.0-5.0-2.23","FL","9x75jv8vpf","1600","900","0","1","0","5f34cb60fa6cf63ecf31902d","","null","","","learningBlock1","","","","<div style=""font-size:60px;""> </div>","null","FL","learning/Slide24.JPG","That was a wug.","","",""
"image-keyboard-response","78","87257","0.0-5.0-0.24","FL","9x75jv8vpf","1600","900","0","1","0","5f34cb60fa6cf63ecf31902d","","null","","","","","","","learning/Slide25.JPG","null","","","","","",""
"html-keyboard-response","79","88409","0.0-5.0-1.24","FL","9x75jv8vpf","1600","900","0","1","0","5f34cb60fa6cf63ecf31902d","","null","","","learningBlock1","","","","That was a dep.","null","","","","","",""
"html-keyboard-response","80","89412","0.0-5.0-2.24","FL","9x75jv8vpf","1600","900","0","1","0","5f34cb60fa6cf63ecf31902d","","null","","","learningBlock1","","","","<div style=""font-size:60px;""> </div>","null","FL","learning/Slide25.JPG","That was a dep.","","",""
"image-keyboard-response","81","89589","0.0-5.0-0.25","FL","9x75jv8vpf","1600","900","0","1","0","5f34cb60fa6cf63ecf31902d","","null","","","","","","","learning/Slide26.JPG","null","","","","","",""
"html-keyboard-response","82","90741","0.0-5.0-1.25","FL","9x75jv8vpf","1600","900","0","1","0","5f34cb60fa6cf63ecf31902d","","null","","","learningBlock1","","","","That was a wug.","null","","","","","",""
"html-keyboard-response","83","91742","0.0-5.0-2.25","FL","9x75jv8vpf","1600","900","0","1","0","5f34cb60fa6cf63ecf31902d","","null","","","learningBlock1","","","","<div style=""font-size:60px;""> </div>","null","FL","learning/Slide26.JPG","That was a wug.","","",""
"image-keyboard-response","84","91919","0.0-5.0-0.26","FL","9x75jv8vpf","1600","900","0","1","0","5f34cb60fa6cf63ecf31902d","","null","","","","","","","learning/Slide27.JPG","null","","","","","",""
"html-keyboard-response","85","93071","0.0-5.0-1.26","FL","9x75jv8vpf","1600","900","0","1","0","5f34cb60fa6cf63ecf31902d","","null","","","learningBlock1","","","","That was a bim.","null","","","","","",""
"html-keyboard-response","86","94072","0.0-5.0-2.26","FL","9x75jv8vpf","1600","900","0","1","0","5f34cb60fa6cf63ecf31902d","","null","","","learningBlock1","","","","<div style=""font-size:60px;""> </div>","null","FL","learning/Slide27.JPG","That was a bim.","","",""
"image-keyboard-response","87","94249","0.0-5.0-0.27","FL","9x75jv8vpf","1600","900","0","1","0","5f34cb60fa6cf63ecf31902d","","null","","","","","","","learning/Slide28.JPG","null","","","","","",""
"html-keyboard-response","88","95401","0.0-5.0-1.27","FL","9x75jv8vpf","1600","900","0","1","0","5f34cb60fa6cf63ecf31902d","","null","","","learningBlock1","","","","That was a dep.","null","","","","","",""
"html-keyboard-response","89","96402","0.0-5.0-2.27","FL","9x75jv8vpf","1600","900","0","1","0","5f34cb60fa6cf63ecf31902d","","null","","","learningBlock1","","","","<div style=""font-size:60px;""> </div>","null","FL","learning/Slide28.JPG","That was a dep.","","",""
"image-keyboard-response","90","96578","0.0-5.0-0.28","FL","9x75jv8vpf","1600","900","0","1","0","5f34cb60fa6cf63ecf31902d","","null","","","","","","","learning/Slide29.JPG","null","","","","","",""
"html-keyboard-response","91","97730","0.0-5.0-1.28","FL","9x75jv8vpf","1600","900","0","1","0","5f34cb60fa6cf63ecf31902d","","null","","","learningBlock1","","","","That was a tob.","null","","","","","",""
"html-keyboard-response","92","98731","0.0-5.0-2.28","FL","9x75jv8vpf","1600","900","0","1","0","5f34cb60fa6cf63ecf31902d","","null","","","learningBlock1","","","","<div style=""font-size:60px;""> </div>","null","FL","learning/Slide29.JPG","That was a tob.","","",""
"image-keyboard-response","93","98908","0.0-5.0-0.29","FL","9x75jv8vpf","1600","900","0","1","0","5f34cb60fa6cf63ecf31902d","","null","","","","","","","learning/Slide30.JPG","null","","","","","",""
"html-keyboard-response","94","100060","0.0-5.0-1.29","FL","9x75jv8vpf","1600","900","0","1","0","5f34cb60fa6cf63ecf31902d","","null","","","learningBlock1","","","","That was a dep.","null","","","","","",""
"html-keyboard-response","95","101061","0.0-5.0-2.29","FL","9x75jv8vpf","1600","900","0","1","0","5f34cb60fa6cf63ecf31902d","","null","","","learningBlock1","","","","<div style=""font-size:60px;""> </div>","null","FL","learning/Slide30.JPG","That was a dep.","","",""
"image-keyboard-response","96","101238","0.0-5.0-0.30","FL","9x75jv8vpf","1600","900","0","1","0","5f34cb60fa6cf63ecf31902d","","null","","","","","","","learning/Slide31.JPG","null","","","","","",""
"html-keyboard-response","97","102390","0.0-5.0-1.30","FL","9x75jv8vpf","1600","900","0","1","0","5f34cb60fa6cf63ecf31902d","","null","","","learningBlock1","","","","That was a wug.","null","","","","","",""
"html-keyboard-response","98","103392","0.0-5.0-2.30","FL","9x75jv8vpf","1600","900","0","1","0","5f34cb60fa6cf63ecf31902d","","null","","","learningBlock1","","","","<div style=""font-size:60px;""> </div>","null","FL","learning/Slide31.JPG","That was a wug.","","",""
"image-keyboard-response","99","103568","0.0-5.0-0.31","FL","9x75jv8vpf","1600","900","0","1","0","5f34cb60fa6cf63ecf31902d","","null","","","","","","","learning/Slide32.JPG","null","","","","","",""
"html-keyboard-response","100","104721","0.0-5.0-1.31","FL","9x75jv8vpf","1600","900","0","1","0","5f34cb60fa6cf63ecf31902d","","null","","","learningBlock1","","","","That was a tob.","null","","","","","",""
"html-keyboard-response","101","105722","0.0-5.0-2.31","FL","9x75jv8vpf","1600","900","0","1","0","5f34cb60fa6cf63ecf31902d","","null","","","learningBlock1","","","","<div style=""font-size:60px;""> </div>","null","FL","learning/Slide32.JPG","That was a tob.","","",""
"image-keyboard-response","102","105899","0.0-5.0-0.32","FL","9x75jv8vpf","1600","900","0","1","0","5f34cb60fa6cf63ecf31902d","","null","","","","","","","learning/Slide33.JPG","null","","","","","",""
"html-keyboard-response","103","107051","0.0-5.0-1.32","FL","9x75jv8vpf","1600","900","0","1","0","5f34cb60fa6cf63ecf31902d","","null","","","learningBlock1","","","","That was a bim.","null","","","","","",""
"html-keyboard-response","104","108052","0.0-5.0-2.32","FL","9x75jv8vpf","1600","900","0","1","0","5f34cb60fa6cf63ecf31902d","","null","","","learningBlock1","","","","<div style=""font-size:60px;""> </div>","null","FL","learning/Slide33.JPG","That was a bim.","","",""
"image-keyboard-response","105","108229","0.0-5.0-0.33","FL","9x75jv8vpf","1600","900","0","1","0","5f34cb60fa6cf63ecf31902d","","null","","","","","","","learning/Slide34.JPG","null","","","","","",""
"html-keyboard-response","106","109381","0.0-5.0-1.33","FL","9x75jv8vpf","1600","900","0","1","0","5f34cb60fa6cf63ecf31902d","","null","","","learningBlock1","","","","That was a tob.","null","","","","","",""
"html-keyboard-response","107","110382","0.0-5.0-2.33","FL","9x75jv8vpf","1600","900","0","1","0","5f34cb60fa6cf63ecf31902d","","null","","","learningBlock1","","","","<div style=""font-size:60px;""> </div>","null","FL","learning/Slide34.JPG","That was a tob.","","",""
"image-keyboard-response","108","110559","0.0-5.0-0.34","FL","9x75jv8vpf","1600","900","0","1","0","5f34cb60fa6cf63ecf31902d","","null","","","","","","","learning/Slide35.JPG","null","","","","","",""
"html-keyboard-response","109","111711","0.0-5.0-1.34","FL","9x75jv8vpf","1600","900","0","1","0","5f34cb60fa6cf63ecf31902d","","null","","","learningBlock1","","","","That was a bim.","null","","","","","",""
"html-keyboard-response","110","112712","0.0-5.0-2.34","FL","9x75jv8vpf","1600","900","0","1","0","5f34cb60fa6cf63ecf31902d","","null","","","learningBlock1","","","","<div style=""font-size:60px;""> </div>","null","FL","learning/Slide35.JPG","That was a bim.","","",""
"image-keyboard-response","111","112888","0.0-5.0-0.35","FL","9x75jv8vpf","1600","900","0","1","0","5f34cb60fa6cf63ecf31902d","","null","","","","","","","learning/Slide36.JPG","null","","","","","",""
"html-keyboard-response","112","114040","0.0-5.0-1.35","FL","9x75jv8vpf","1600","900","0","1","0","5f34cb60fa6cf63ecf31902d","","null","","","learningBlock1","","","","That was a dep.","null","","","","","",""
"html-keyboard-response","113","115041","0.0-5.0-2.35","FL","9x75jv8vpf","1600","900","0","1","0","5f34cb60fa6cf63ecf31902d","","null","","","learningBlock1","","","","<div style=""font-size:60px;""> </div>","null","FL","learning/Slide36.JPG","That was a dep.","","",""
"image-keyboard-response","114","115217","0.0-5.0-0.36","FL","9x75jv8vpf","1600","900","0","1","0","5f34cb60fa6cf63ecf31902d","","null","","","","","","","learning/Slide37.JPG","null","","","","","",""
"html-keyboard-response","115","116369","0.0-5.0-1.36","FL","9x75jv8vpf","1600","900","0","1","0","5f34cb60fa6cf63ecf31902d","","null","","","learningBlock1","","","","That was a tob.","null","","","","","",""
"html-keyboard-response","116","117370","0.0-5.0-2.36","FL","9x75jv8vpf","1600","900","0","1","0","5f34cb60fa6cf63ecf31902d","","null","","","learningBlock1","","","","<div style=""font-size:60px;""> </div>","null","FL","learning/Slide37.JPG","That was a tob.","","",""
"image-keyboard-response","117","117547","0.0-5.0-0.37","FL","9x75jv8vpf","1600","900","0","1","0","5f34cb60fa6cf63ecf31902d","","null","","","","","","","learning/Slide38.JPG","null","","","","","",""
"html-keyboard-response","118","118699","0.0-5.0-1.37","FL","9x75jv8vpf","1600","900","0","1","0","5f34cb60fa6cf63ecf31902d","","null","","","learningBlock1","","","","That was a wug.","null","","","","","",""
"html-keyboard-response","119","119701","0.0-5.0-2.37","FL","9x75jv8vpf","1600","900","0","1","0","5f34cb60fa6cf63ecf31902d","","null","","","learningBlock1","","","","<div style=""font-size:60px;""> </div>","null","FL","learning/Slide38.JPG","That was a wug.","","",""
"image-keyboard-response","120","119878","0.0-5.0-0.38","FL","9x75jv8vpf","1600","900","0","1","0","5f34cb60fa6cf63ecf31902d","","null","","","","","","","learning/Slide39.JPG","null","","","","","",""
"html-keyboard-response","121","121030","0.0-5.0-1.38","FL","9x75jv8vpf","1600","900","0","1","0","5f34cb60fa6cf63ecf31902d","","null","","","learningBlock1","","","","That was a bim.","null","","","","","",""
"html-keyboard-response","122","122031","0.0-5.0-2.38","FL","9x75jv8vpf","1600","900","0","1","0","5f34cb60fa6cf63ecf31902d","","null","","","learningBlock1","","","","<div style=""font-size:60px;""> </div>","null","FL","learning/Slide39.JPG","That was a bim.","","",""
"image-keyboard-response","123","122208","0.0-5.0-0.39","FL","9x75jv8vpf","1600","900","0","1","0","5f34cb60fa6cf63ecf31902d","","null","","","","","","","learning/Slide40.JPG","null","","","","","",""
"html-keyboard-response","124","123360","0.0-5.0-1.39","FL","9x75jv8vpf","1600","900","0","1","0","5f34cb60fa6cf63ecf31902d","","null","","","learningBlock1","","","","That was a tob.","null","","","","","",""
"html-keyboard-response","125","124361","0.0-5.0-2.39","FL","9x75jv8vpf","1600","900","0","1","0","5f34cb60fa6cf63ecf31902d","","null","","","learningBlock1","","","","<div style=""font-size:60px;""> </div>","null","FL","learning/Slide40.JPG","That was a tob.","","",""
"image-keyboard-response","126","124538","0.0-5.0-0.40","FL","9x75jv8vpf","1600","900","0","1","0","5f34cb60fa6cf63ecf31902d","","null","","","","","","","learning/Slide41.JPG","null","","","","","",""
"html-keyboard-response","127","125690","0.0-5.0-1.40","FL","9x75jv8vpf","1600","900","0","1","0","5f34cb60fa6cf63ecf31902d","","null","","","learningBlock1","","","","That was a bim.","null","","","","","",""
"html-keyboard-response","128","126692","0.0-5.0-2.40","FL","9x75jv8vpf","1600","900","0","1","0","5f34cb60fa6cf63ecf31902d","","null","","","learningBlock1","","","","<div style=""font-size:60px;""> </div>","null","FL","learning/Slide41.JPG","That was a bim.","","",""
"image-keyboard-response","129","126868","0.0-5.0-0.41","FL","9x75jv8vpf","1600","900","0","1","0","5f34cb60fa6cf63ecf31902d","","null","","","","","","","learning/Slide42.JPG","null","","","","","",""
"html-keyboard-response","130","128021","0.0-5.0-1.41","FL","9x75jv8vpf","1600","900","0","1","0","5f34cb60fa6cf63ecf31902d","","null","","","learningBlock1","","","","That was a dep.","null","","","","","",""
"html-keyboard-response","131","129022","0.0-5.0-2.41","FL","9x75jv8vpf","1600","900","0","1","0","5f34cb60fa6cf63ecf31902d","","null","","","learningBlock1","","","","<div style=""font-size:60px;""> </div>","null","FL","learning/Slide42.JPG","That was a dep.","","",""
"image-keyboard-response","132","129199","0.0-5.0-0.42","FL","9x75jv8vpf","1600","900","0","1","0","5f34cb60fa6cf63ecf31902d","","null","","","","","","","learning/Slide43.JPG","null","","","","","",""
"html-keyboard-response","133","130351","0.0-5.0-1.42","FL","9x75jv8vpf","1600","900","0","1","0","5f34cb60fa6cf63ecf31902d","","null","","","learningBlock1","","","","That was a wug.","null","","","","","",""
"html-keyboard-response","134","131352","0.0-5.0-2.42","FL","9x75jv8vpf","1600","900","0","1","0","5f34cb60fa6cf63ecf31902d","","null","","","learningBlock1","","","","<div style=""font-size:60px;""> </div>","null","FL","learning/Slide43.JPG","That was a wug.","","",""
"image-keyboard-response","135","131529","0.0-5.0-0.43","FL","9x75jv8vpf","1600","900","0","1","0","5f34cb60fa6cf63ecf31902d","","null","","","","","","","learning/Slide44.JPG","null","","","","","",""
"html-keyboard-response","136","132681","0.0-5.0-1.43","FL","9x75jv8vpf","1600","900","0","1","0","5f34cb60fa6cf63ecf31902d","","null","","","learningBlock1","","","","That was a bim.","null","","","","","",""
"html-keyboard-response","137","133682","0.0-5.0-2.43","FL","9x75jv8vpf","1600","900","0","1","0","5f34cb60fa6cf63ecf31902d","","null","","","learningBlock1","","","","<div style=""font-size:60px;""> </div>","null","FL","learning/Slide44.JPG","That was a bim.","","",""
"image-keyboard-response","138","133859","0.0-5.0-0.44","FL","9x75jv8vpf","1600","900","0","1","0","5f34cb60fa6cf63ecf31902d","","null","","","","","","","learning/Slide45.JPG","null","","","","","",""
"html-keyboard-response","139","135011","0.0-5.0-1.44","FL","9x75jv8vpf","1600","900","0","1","0","5f34cb60fa6cf63ecf31902d","","null","","","learningBlock1","","","","That was a wug.","null","","","","","",""
"html-keyboard-response","140","136012","0.0-5.0-2.44","FL","9x75jv8vpf","1600","900","0","1","0","5f34cb60fa6cf63ecf31902d","","null","","","learningBlock1","","","","<div style=""font-size:60px;""> </div>","null","FL","learning/Slide45.JPG","That was a wug.","","",""
"image-keyboard-response","141","136189","0.0-5.0-0.45","FL","9x75jv8vpf","1600","900","0","1","0","5f34cb60fa6cf63ecf31902d","","null","","","","","","","learning/Slide46.JPG","null","","","","","",""
"html-keyboard-response","142","137341","0.0-5.0-1.45","FL","9x75jv8vpf","1600","900","0","1","0","5f34cb60fa6cf63ecf31902d","","null","","","learningBlock1","","","","That was a dep.","null","","","","","",""
"html-keyboard-response","143","138342","0.0-5.0-2.45","FL","9x75jv8vpf","1600","900","0","1","0","5f34cb60fa6cf63ecf31902d","","null","","","learningBlock1","","","","<div style=""font-size:60px;""> </div>","null","FL","learning/Slide46.JPG","That was a dep.","","",""
"image-keyboard-response","144","138519","0.0-5.0-0.46","FL","9x75jv8vpf","1600","900","0","1","0","5f34cb60fa6cf63ecf31902d","","null","","","","","","","learning/Slide47.JPG","null","","","","","",""
"html-keyboard-response","145","139671","0.0-5.0-1.46","FL","9x75jv8vpf","1600","900","0","1","0","5f34cb60fa6cf63ecf31902d","","null","","","learningBlock1","","","","That was a tob.","null","","","","","",""
"html-keyboard-response","146","140672","0.0-5.0-2.46","FL","9x75jv8vpf","1600","900","0","1","0","5f34cb60fa6cf63ecf31902d","","null","","","learningBlock1","","","","<div style=""font-size:60px;""> </div>","null","FL","learning/Slide47.JPG","That was a tob.","","",""
"image-keyboard-response","147","140849","0.0-5.0-0.47","FL","9x75jv8vpf","1600","900","0","1","0","5f34cb60fa6cf63ecf31902d","","null","","","","","","","learning/Slide48.JPG","null","","","","","",""
"html-keyboard-response","148","142001","0.0-5.0-1.47","FL","9x75jv8vpf","1600","900","0","1","0","5f34cb60fa6cf63ecf31902d","","null","","","learningBlock1","","","","That was a bim.","null","","","","","",""
"html-keyboard-response","149","143002","0.0-5.0-2.47","FL","9x75jv8vpf","1600","900","0","1","0","5f34cb60fa6cf63ecf31902d","","null","","","learningBlock1","","","","<div style=""font-size:60px;""> </div>","null","FL","learning/Slide48.JPG","That was a bim.","","",""
"image-keyboard-response","150","143179","0.0-5.0-0.48","FL","9x75jv8vpf","1600","900","0","1","0","5f34cb60fa6cf63ecf31902d","","null","","","","","","","learning/Slide49.JPG","null","","","","","",""
"html-keyboard-response","151","144331","0.0-5.0-1.48","FL","9x75jv8vpf","1600","900","0","1","0","5f34cb60fa6cf63ecf31902d","","null","","","learningBlock1","","","","That was a dep.","null","","","","","",""
"html-keyboard-response","152","145332","0.0-5.0-2.48","FL","9x75jv8vpf","1600","900","0","1","0","5f34cb60fa6cf63ecf31902d","","null","","","learningBlock1","","","","<div style=""font-size:60px;""> </div>","null","FL","learning/Slide49.JPG","That was a dep.","","",""
"image-keyboard-response","153","145509","0.0-5.0-0.49","FL","9x75jv8vpf","1600","900","0","1","0","5f34cb60fa6cf63ecf31902d","","null","","","","","","","learning/Slide50.JPG","null","","","","","",""
"html-keyboard-response","154","146661","0.0-5.0-1.49","FL","9x75jv8vpf","1600","900","0","1","0","5f34cb60fa6cf63ecf31902d","","null","","","learningBlock1","","","","That was a tob.","null","","","","","",""
"html-keyboard-response","155","147663","0.0-5.0-2.49","FL","9x75jv8vpf","1600","900","0","1","0","5f34cb60fa6cf63ecf31902d","","null","","","learningBlock1","","","","<div style=""font-size:60px;""> </div>","null","FL","learning/Slide50.JPG","That was a tob.","","",""
"image-keyboard-response","156","147839","0.0-5.0-0.50","FL","9x75jv8vpf","1600","900","0","1","0","5f34cb60fa6cf63ecf31902d","","null","","","","","","","learning/Slide51.JPG","null","","","","","",""
"html-keyboard-response","157","148992","0.0-5.0-1.50","FL","9x75jv8vpf","1600","900","0","1","0","5f34cb60fa6cf63ecf31902d","","null","","","learningBlock1","","","","That was a bim.","null","","","","","",""
"html-keyboard-response","158","149993","0.0-5.0-2.50","FL","9x75jv8vpf","1600","900","0","1","0","5f34cb60fa6cf63ecf31902d","","null","","","learningBlock1","","","","<div style=""font-size:60px;""> </div>","null","FL","learning/Slide51.JPG","That was a bim.","","",""
"image-keyboard-response","159","150169","0.0-5.0-0.51","FL","9x75jv8vpf","1600","900","0","1","0","5f34cb60fa6cf63ecf31902d","","null","","","","","","","learning/Slide52.JPG","null","","","","","",""
"html-keyboard-response","160","151321","0.0-5.0-1.51","FL","9x75jv8vpf","1600","900","0","1","0","5f34cb60fa6cf63ecf31902d","","null","","","learningBlock1","","","","That was a wug.","null","","","","","",""
"html-keyboard-response","161","152322","0.0-5.0-2.51","FL","9x75jv8vpf","1600","900","0","1","0","5f34cb60fa6cf63ecf31902d","","null","","","learningBlock1","","","","<div style=""font-size:60px;""> </div>","null","FL","learning/Slide52.JPG","That was a wug.","","",""
"image-keyboard-response","162","152499","0.0-5.0-0.52","FL","9x75jv8vpf","1600","900","0","1","0","5f34cb60fa6cf63ecf31902d","","null","","","","","","","learning/Slide53.JPG","null","","","","","",""
"html-keyboard-response","163","153651","0.0-5.0-1.52","FL","9x75jv8vpf","1600","900","0","1","0","5f34cb60fa6cf63ecf31902d","","null","","","learningBlock1","","","","That was a tob.","null","","","","","",""
"html-keyboard-response","164","154653","0.0-5.0-2.52","FL","9x75jv8vpf","1600","900","0","1","0","5f34cb60fa6cf63ecf31902d","","null","","","learningBlock1","","","","<div style=""font-size:60px;""> </div>","null","FL","learning/Slide53.JPG","That was a tob.","","",""
"image-keyboard-response","165","154830","0.0-5.0-0.53","FL","9x75jv8vpf","1600","900","0","1","0","5f34cb60fa6cf63ecf31902d","","null","","","","","","","learning/Slide54.JPG","null","","","","","",""
"html-keyboard-response","166","155982","0.0-5.0-1.53","FL","9x75jv8vpf","1600","900","0","1","0","5f34cb60fa6cf63ecf31902d","","null","","","learningBlock1","","","","That was a dep.","null","","","","","",""
"html-keyboard-response","167","156983","0.0-5.0-2.53","FL","9x75jv8vpf","1600","900","0","1","0","5f34cb60fa6cf63ecf31902d","","null","","","learningBlock1","","","","<div style=""font-size:60px;""> </div>","null","FL","learning/Slide54.JPG","That was a dep.","","",""
"image-keyboard-response","168","157160","0.0-5.0-0.54","FL","9x75jv8vpf","1600","900","0","1","0","5f34cb60fa6cf63ecf31902d","","null","","","","","","","learning/Slide55.JPG","null","","","","","",""
"html-keyboard-response","169","158312","0.0-5.0-1.54","FL","9x75jv8vpf","1600","900","0","1","0","5f34cb60fa6cf63ecf31902d","","null","","","learningBlock1","","","","That was a bim.","null","","","","","",""
"html-keyboard-response","170","159313","0.0-5.0-2.54","FL","9x75jv8vpf","1600","900","0","1","0","5f34cb60fa6cf63ecf31902d","","null","","","learningBlock1","","","","<div style=""font-size:60px;""> </div>","null","FL","learning/Slide55.JPG","That was a bim.","","",""
"image-keyboard-response","171","159490","0.0-5.0-0.55","FL","9x75jv8vpf","1600","900","0","1","0","5f34cb60fa6cf63ecf31902d","","null","","","","","","","learning/Slide56.JPG","null","","","","","",""
"html-keyboard-response","172","160642","0.0-5.0-1.55","FL","9x75jv8vpf","1600","900","0","1","0","5f34cb60fa6cf63ecf31902d","","null","","","learningBlock1","","","","That was a tob.","null","","","","","",""
"html-keyboard-response","173","161643","0.0-5.0-2.55","FL","9x75jv8vpf","1600","900","0","1","0","5f34cb60fa6cf63ecf31902d","","null","","","learningBlock1","","","","<div style=""font-size:60px;""> </div>","null","FL","learning/Slide56.JPG","That was a tob.","","",""
"image-keyboard-response","174","161819","0.0-5.0-0.56","FL","9x75jv8vpf","1600","900","0","1","0","5f34cb60fa6cf63ecf31902d","","null","","","","","","","learning/Slide57.JPG","null","","","","","",""
"html-keyboard-response","175","162971","0.0-5.0-1.56","FL","9x75jv8vpf","1600","900","0","1","0","5f34cb60fa6cf63ecf31902d","","null","","","learningBlock1","","","","That was a dep.","null","","","","","",""
"html-keyboard-response","176","163972","0.0-5.0-2.56","FL","9x75jv8vpf","1600","900","0","1","0","5f34cb60fa6cf63ecf31902d","","null","","","learningBlock1","","","","<div style=""font-size:60px;""> </div>","null","FL","learning/Slide57.JPG","That was a dep.","","",""
"image-keyboard-response","177","164149","0.0-5.0-0.57","FL","9x75jv8vpf","1600","900","0","1","0","5f34cb60fa6cf63ecf31902d","","null","","","","","","","learning/Slide58.JPG","null","","","","","",""
"html-keyboard-response","178","165301","0.0-5.0-1.57","FL","9x75jv8vpf","1600","900","0","1","0","5f34cb60fa6cf63ecf31902d","","null","","","learningBlock1","","","","That was a wug.","null","","","","","",""
"html-keyboard-response","179","166303","0.0-5.0-2.57","FL","9x75jv8vpf","1600","900","0","1","0","5f34cb60fa6cf63ecf31902d","","null","","","learningBlock1","","","","<div style=""font-size:60px;""> </div>","null","FL","learning/Slide58.JPG","That was a wug.","","",""
"image-keyboard-response","180","166479","0.0-5.0-0.58","FL","9x75jv8vpf","1600","900","0","1","0","5f34cb60fa6cf63ecf31902d","","null","","","","","","","learning/Slide59.JPG","null","","","","","",""
"html-keyboard-response","181","167632","0.0-5.0-1.58","FL","9x75jv8vpf","1600","900","0","1","0","5f34cb60fa6cf63ecf31902d","","null","","","learningBlock1","","","","That was a dep.","null","","","","","",""
"html-keyboard-response","182","168633","0.0-5.0-2.58","FL","9x75jv8vpf","1600","900","0","1","0","5f34cb60fa6cf63ecf31902d","","null","","","learningBlock1","","","","<div style=""font-size:60px;""> </div>","null","FL","learning/Slide59.JPG","That was a dep.","","",""
"image-keyboard-response","183","168810","0.0-5.0-0.59","FL","9x75jv8vpf","1600","900","0","1","0","5f34cb60fa6cf63ecf31902d","","null","","","","","","","learning/Slide60.JPG","null","","","","","",""
"html-keyboard-response","184","169962","0.0-5.0-1.59","FL","9x75jv8vpf","1600","900","0","1","0","5f34cb60fa6cf63ecf31902d","","null","","","learningBlock1","","","","That was a wug.","null","","","","","",""
"html-keyboard-response","185","170963","0.0-5.0-2.59","FL","9x75jv8vpf","1600","900","0","1","0","5f34cb60fa6cf63ecf31902d","","null","","","learningBlock1","","","","<div style=""font-size:60px;""> </div>","null","FL","learning/Slide60.JPG","That was a wug.","","",""
"image-keyboard-response","186","171140","0.0-5.0-0.60","FL","9x75jv8vpf","1600","900","0","1","0","5f34cb60fa6cf63ecf31902d","","null","","","","","","","learning/Slide61.JPG","null","","","","","",""
"html-keyboard-response","187","172292","0.0-5.0-1.60","FL","9x75jv8vpf","1600","900","0","1","0","5f34cb60fa6cf63ecf31902d","","null","","","learningBlock1","","","","That was a bim.","null","","","","","",""
"html-keyboard-response","188","173293","0.0-5.0-2.60","FL","9x75jv8vpf","1600","900","0","1","0","5f34cb60fa6cf63ecf31902d","","null","","","learningBlock1","","","","<div style=""font-size:60px;""> </div>","null","FL","learning/Slide61.JPG","That was a bim.","","",""
"image-keyboard-response","189","173469","0.0-5.0-0.61","FL","9x75jv8vpf","1600","900","0","1","0","5f34cb60fa6cf63ecf31902d","","null","","","","","","","learning/Slide62.JPG","null","","","","","",""
"html-keyboard-response","190","174621","0.0-5.0-1.61","FL","9x75jv8vpf","1600","900","0","1","0","5f34cb60fa6cf63ecf31902d","","null","","","learningBlock1","","","","That was a dep.","null","","","","","",""
"html-keyboard-response","191","175622","0.0-5.0-2.61","FL","9x75jv8vpf","1600","900","0","1","0","5f34cb60fa6cf63ecf31902d","","null","","","learningBlock1","","","","<div style=""font-size:60px;""> </div>","null","FL","learning/Slide62.JPG","That was a dep.","","",""
"image-keyboard-response","192","175798","0.0-5.0-0.62","FL","9x75jv8vpf","1600","900","0","1","0","5f34cb60fa6cf63ecf31902d","","null","","","","","","","learning/Slide63.JPG","null","","","","","",""
"html-keyboard-response","193","176950","0.0-5.0-1.62","FL","9x75jv8vpf","1600","900","0","1","0","5f34cb60fa6cf63ecf31902d","","null","","","learningBlock1","","","","That was a bim.","null","","","","","",""
"html-keyboard-response","194","177951","0.0-5.0-2.62","FL","9x75jv8vpf","1600","900","0","1","0","5f34cb60fa6cf63ecf31902d","","null","","","learningBlock1","","","","<div style=""font-size:60px;""> </div>","null","FL","learning/Slide63.JPG","That was a bim.","","",""
"image-keyboard-response","195","178128","0.0-5.0-0.63","FL","9x75jv8vpf","1600","900","0","1","0","5f34cb60fa6cf63ecf31902d","","null","","","","","","","learning/Slide64.JPG","null","","","","","",""
"html-keyboard-response","196","179280","0.0-5.0-1.63","FL","9x75jv8vpf","1600","900","0","1","0","5f34cb60fa6cf63ecf31902d","","null","","","learningBlock1","","","","That was a tob.","null","","","","","",""
"html-keyboard-response","197","180282","0.0-5.0-2.63","FL","9x75jv8vpf","1600","900","0","1","0","5f34cb60fa6cf63ecf31902d","","null","","","learningBlock1","","","","<div style=""font-size:60px;""> </div>","null","FL","learning/Slide64.JPG","That was a tob.","","",""
"image-keyboard-response","198","180459","0.0-5.0-0.64","FL","9x75jv8vpf","1600","900","0","1","0","5f34cb60fa6cf63ecf31902d","","null","","","","","","","learning/Slide65.JPG","null","","","","","",""
"html-keyboard-response","199","181610","0.0-5.0-1.64","FL","9x75jv8vpf","1600","900","0","1","0","5f34cb60fa6cf63ecf31902d","","null","","","learningBlock1","","","","That was a wug.","null","","","","","",""
"html-keyboard-response","200","182612","0.0-5.0-2.64","FL","9x75jv8vpf","1600","900","0","1","0","5f34cb60fa6cf63ecf31902d","","null","","","learningBlock1","","","","<div style=""font-size:60px;""> </div>","null","FL","learning/Slide65.JPG","That was a wug.","","",""
"image-keyboard-response","201","182788","0.0-5.0-0.65","FL","9x75jv8vpf","1600","900","0","1","0","5f34cb60fa6cf63ecf31902d","","null","","","","","","","learning/Slide66.JPG","null","","","","","",""
"html-keyboard-response","202","183940","0.0-5.0-1.65","FL","9x75jv8vpf","1600","900","0","1","0","5f34cb60fa6cf63ecf31902d","","null","","","learningBlock1","","","","That was a dep.","null","","","","","",""
"html-keyboard-response","203","184941","0.0-5.0-2.65","FL","9x75jv8vpf","1600","900","0","1","0","5f34cb60fa6cf63ecf31902d","","null","","","learningBlock1","","","","<div style=""font-size:60px;""> </div>","null","FL","learning/Slide66.JPG","That was a dep.","","",""
"image-keyboard-response","204","185118","0.0-5.0-0.66","FL","9x75jv8vpf","1600","900","0","1","0","5f34cb60fa6cf63ecf31902d","","null","","","","","","","learning/Slide67.JPG","null","","","","","",""
"html-keyboard-response","205","186270","0.0-5.0-1.66","FL","9x75jv8vpf","1600","900","0","1","0","5f34cb60fa6cf63ecf31902d","","null","","","learningBlock1","","","","That was a tob.","null","","","","","",""
"html-keyboard-response","206","187271","0.0-5.0-2.66","FL","9x75jv8vpf","1600","900","0","1","0","5f34cb60fa6cf63ecf31902d","","null","","","learningBlock1","","","","<div style=""font-size:60px;""> </div>","null","FL","learning/Slide67.JPG","That was a tob.","","",""
"image-keyboard-response","207","187448","0.0-5.0-0.67","FL","9x75jv8vpf","1600","900","0","1","0","5f34cb60fa6cf63ecf31902d","","null","","","","","","","learning/Slide68.JPG","null","","","","","",""
"html-keyboard-response","208","188600","0.0-5.0-1.67","FL","9x75jv8vpf","1600","900","0","1","0","5f34cb60fa6cf63ecf31902d","","null","","","learningBlock1","","","","That was a wug.","null","","","","","",""
"html-keyboard-response","209","189601","0.0-5.0-2.67","FL","9x75jv8vpf","1600","900","0","1","0","5f34cb60fa6cf63ecf31902d","","null","","","learningBlock1","","","","<div style=""font-size:60px;""> </div>","null","FL","learning/Slide68.JPG","That was a wug.","","",""
"image-keyboard-response","210","189778","0.0-5.0-0.68","FL","9x75jv8vpf","1600","900","0","1","0","5f34cb60fa6cf63ecf31902d","","null","","","","","","","learning/Slide69.JPG","null","","","","","",""
"html-keyboard-response","211","190930","0.0-5.0-1.68","FL","9x75jv8vpf","1600","900","0","1","0","5f34cb60fa6cf63ecf31902d","","null","","","learningBlock1","","","","That was a tob.","null","","","","","",""
"html-keyboard-response","212","191931","0.0-5.0-2.68","FL","9x75jv8vpf","1600","900","0","1","0","5f34cb60fa6cf63ecf31902d","","null","","","learningBlock1","","","","<div style=""font-size:60px;""> </div>","null","FL","learning/Slide69.JPG","That was a tob.","","",""
"image-keyboard-response","213","192108","0.0-5.0-0.69","FL","9x75jv8vpf","1600","900","0","1","0","5f34cb60fa6cf63ecf31902d","","null","","","","","","","learning/Slide70.JPG","null","","","","","",""
"html-keyboard-response","214","193260","0.0-5.0-1.69","FL","9x75jv8vpf","1600","900","0","1","0","5f34cb60fa6cf63ecf31902d","","null","","","learningBlock1","","","","That was a dep.","null","","","","","",""
"html-keyboard-response","215","194261","0.0-5.0-2.69","FL","9x75jv8vpf","1600","900","0","1","0","5f34cb60fa6cf63ecf31902d","","null","","","learningBlock1","","","","<div style=""font-size:60px;""> </div>","null","FL","learning/Slide70.JPG","That was a dep.","","",""
"image-keyboard-response","216","194438","0.0-5.0-0.70","FL","9x75jv8vpf","1600","900","0","1","0","5f34cb60fa6cf63ecf31902d","","null","","","","","","","learning/Slide71.JPG","null","","","","","",""
"html-keyboard-response","217","195590","0.0-5.0-1.70","FL","9x75jv8vpf","1600","900","0","1","0","5f34cb60fa6cf63ecf31902d","","null","","","learningBlock1","","","","That was a wug.","null","","","","","",""
"html-keyboard-response","218","196591","0.0-5.0-2.70","FL","9x75jv8vpf","1600","900","0","1","0","5f34cb60fa6cf63ecf31902d","","null","","","learningBlock1","","","","<div style=""font-size:60px;""> </div>","null","FL","learning/Slide71.JPG","That was a wug.","","",""
"image-keyboard-response","219","196767","0.0-5.0-0.71","FL","9x75jv8vpf","1600","900","0","1","0","5f34cb60fa6cf63ecf31902d","","null","","","","","","","learning/Slide72.JPG","null","","","","","",""
"html-keyboard-response","220","197919","0.0-5.0-1.71","FL","9x75jv8vpf","1600","900","0","1","0","5f34cb60fa6cf63ecf31902d","","null","","","learningBlock1","","","","That was a bim.","null","","","","","",""
"html-keyboard-response","221","198921","0.0-5.0-2.71","FL","9x75jv8vpf","1600","900","0","1","0","5f34cb60fa6cf63ecf31902d","","null","","","learningBlock1","","","","<div style=""font-size:60px;""> </div>","null","FL","learning/Slide72.JPG","That was a bim.","","",""
"image-keyboard-response","222","199098","0.0-5.0-0.72","FL","9x75jv8vpf","1600","900","0","1","0","5f34cb60fa6cf63ecf31902d","","null","","","","","","","learning/Slide73.JPG","null","","","","","",""
"html-keyboard-response","223","200250","0.0-5.0-1.72","FL","9x75jv8vpf","1600","900","0","1","0","5f34cb60fa6cf63ecf31902d","","null","","","learningBlock1","","","","That was a wug.","null","","","","","",""
"html-keyboard-response","224","201251","0.0-5.0-2.72","FL","9x75jv8vpf","1600","900","0","1","0","5f34cb60fa6cf63ecf31902d","","null","","","learningBlock1","","","","<div style=""font-size:60px;""> </div>","null","FL","learning/Slide73.JPG","That was a wug.","","",""
"image-keyboard-response","225","201428","0.0-5.0-0.73","FL","9x75jv8vpf","1600","900","0","1","0","5f34cb60fa6cf63ecf31902d","","null","","","","","","","learning/Slide74.JPG","null","","","","","",""
"html-keyboard-response","226","202580","0.0-5.0-1.73","FL","9x75jv8vpf","1600","900","0","1","0","5f34cb60fa6cf63ecf31902d","","null","","","learningBlock1","","","","That was a dep.","null","","","","","",""
"html-keyboard-response","227","203581","0.0-5.0-2.73","FL","9x75jv8vpf","1600","900","0","1","0","5f34cb60fa6cf63ecf31902d","","null","","","learningBlock1","","","","<div style=""font-size:60px;""> </div>","null","FL","learning/Slide74.JPG","That was a dep.","","",""
"image-keyboard-response","228","203758","0.0-5.0-0.74","FL","9x75jv8vpf","1600","900","0","1","0","5f34cb60fa6cf63ecf31902d","","null","","","","","","","learning/Slide75.JPG","null","","","","","",""
"html-keyboard-response","229","204910","0.0-5.0-1.74","FL","9x75jv8vpf","1600","900","0","1","0","5f34cb60fa6cf63ecf31902d","","null","","","learningBlock1","","","","That was a tob.","null","","","","","",""
"html-keyboard-response","230","205911","0.0-5.0-2.74","FL","9x75jv8vpf","1600","900","0","1","0","5f34cb60fa6cf63ecf31902d","","null","","","learningBlock1","","","","<div style=""font-size:60px;""> </div>","null","FL","learning/Slide75.JPG","That was a tob.","","",""
"image-keyboard-response","231","206088","0.0-5.0-0.75","FL","9x75jv8vpf","1600","900","0","1","0","5f34cb60fa6cf63ecf31902d","","null","","","","","","","learning/Slide76.JPG","null","","","","","",""
"html-keyboard-response","232","207240","0.0-5.0-1.75","FL","9x75jv8vpf","1600","900","0","1","0","5f34cb60fa6cf63ecf31902d","","null","","","learningBlock1","","","","That was a bim.","null","","","","","",""
"html-keyboard-response","233","208241","0.0-5.0-2.75","FL","9x75jv8vpf","1600","900","0","1","0","5f34cb60fa6cf63ecf31902d","","null","","","learningBlock1","","","","<div style=""font-size:60px;""> </div>","null","FL","learning/Slide76.JPG","That was a bim.","","",""
"image-keyboard-response","234","208418","0.0-5.0-0.76","FL","9x75jv8vpf","1600","900","0","1","0","5f34cb60fa6cf63ecf31902d","","null","","","","","","","learning/Slide77.JPG","null","","","","","",""
"html-keyboard-response","235","209570","0.0-5.0-1.76","FL","9x75jv8vpf","1600","900","0","1","0","5f34cb60fa6cf63ecf31902d","","null","","","learningBlock1","","","","That was a tob.","null","","","","","",""
"html-keyboard-response","236","210571","0.0-5.0-2.76","FL","9x75jv8vpf","1600","900","0","1","0","5f34cb60fa6cf63ecf31902d","","null","","","learningBlock1","","","","<div style=""font-size:60px;""> </div>","null","FL","learning/Slide77.JPG","That was a tob.","","",""
"image-keyboard-response","237","210748","0.0-5.0-0.77","FL","9x75jv8vpf","1600","900","0","1","0","5f34cb60fa6cf63ecf31902d","","null","","","","","","","learning/Slide78.JPG","null","","","","","",""
"html-keyboard-response","238","211900","0.0-5.0-1.77","FL","9x75jv8vpf","1600","900","0","1","0","5f34cb60fa6cf63ecf31902d","","null","","","learningBlock1","","","","That was a wug.","null","","","","","",""
"html-keyboard-response","239","212901","0.0-5.0-2.77","FL","9x75jv8vpf","1600","900","0","1","0","5f34cb60fa6cf63ecf31902d","","null","","","learningBlock1","","","","<div style=""font-size:60px;""> </div>","null","FL","learning/Slide78.JPG","That was a wug.","","",""
"image-keyboard-response","240","213078","0.0-5.0-0.78","FL","9x75jv8vpf","1600","900","0","1","0","5f34cb60fa6cf63ecf31902d","","null","","","","","","","learning/Slide79.JPG","null","","","","","",""
"html-keyboard-response","241","214230","0.0-5.0-1.78","FL","9x75jv8vpf","1600","900","0","1","0","5f34cb60fa6cf63ecf31902d","","null","","","learningBlock1","","","","That was a bim.","null","","","","","",""
"html-keyboard-response","242","215231","0.0-5.0-2.78","FL","9x75jv8vpf","1600","900","0","1","0","5f34cb60fa6cf63ecf31902d","","null","","","learningBlock1","","","","<div style=""font-size:60px;""> </div>","null","FL","learning/Slide79.JPG","That was a bim.","","",""
"image-keyboard-response","243","215408","0.0-5.0-0.79","FL","9x75jv8vpf","1600","900","0","1","0","5f34cb60fa6cf63ecf31902d","","null","","","","","","","learning/Slide80.JPG","null","","","","","",""
"html-keyboard-response","244","216560","0.0-5.0-1.79","FL","9x75jv8vpf","1600","900","0","1","0","5f34cb60fa6cf63ecf31902d","","null","","","learningBlock1","","","","That was a tob.","null","","","","","",""
"html-keyboard-response","245","217562","0.0-5.0-2.79","FL","9x75jv8vpf","1600","900","0","1","0","5f34cb60fa6cf63ecf31902d","","null","","","learningBlock1","","","","<div style=""font-size:60px;""> </div>","null","FL","learning/Slide80.JPG","That was a tob.","","",""
"instructions","246","220819","0.0-6.0","FL","9x75jv8vpf","1600","900","0","1","0","5f34cb60fa6cf63ecf31902d","","NA","","[{""page_index"":0,""viewing_time"":3256.0449999982666}]","instructions","","","","","","","","","","",""
"image-keyboard-response","247","220996","0.0-7.0-0.0","FL","9x75jv8vpf","1600","900","0","1","0","5f34cb60fa6cf63ecf31902d","","null","","","","","","","learning/Slide81.JPG","null","","","","","",""
"html-keyboard-response","248","222148","0.0-7.0-1.0","FL","9x75jv8vpf","1600","900","0","1","0","5f34cb60fa6cf63ecf31902d","","null","","","learningBlock2","","","","That was a wug.","null","","","","","",""
"html-keyboard-response","249","223149","0.0-7.0-2.0","FL","9x75jv8vpf","1600","900","0","1","0","5f34cb60fa6cf63ecf31902d","","null","","","learningBlock2","","","","<div style=""font-size:60px;""> </div>","null","FL","learning/Slide81.JPG","That was a wug.","","",""
"image-keyboard-response","250","223326","0.0-7.0-0.1","FL","9x75jv8vpf","1600","900","0","1","0","5f34cb60fa6cf63ecf31902d","","null","","","","","","","learning/Slide82.JPG","null","","","","","",""
"html-keyboard-response","251","224478","0.0-7.0-1.1","FL","9x75jv8vpf","1600","900","0","1","0","5f34cb60fa6cf63ecf31902d","","null","","","learningBlock2","","","","That was a bim.","null","","","","","",""
"html-keyboard-response","252","225479","0.0-7.0-2.1","FL","9x75jv8vpf","1600","900","0","1","0","5f34cb60fa6cf63ecf31902d","","null","","","learningBlock2","","","","<div style=""font-size:60px;""> </div>","null","FL","learning/Slide82.JPG","That was a bim.","","",""
"image-keyboard-response","253","225656","0.0-7.0-0.2","FL","9x75jv8vpf","1600","900","0","1","0","5f34cb60fa6cf63ecf31902d","","null","","","","","","","learning/Slide83.JPG","null","","","","","",""
"html-keyboard-response","254","226808","0.0-7.0-1.2","FL","9x75jv8vpf","1600","900","0","1","0","5f34cb60fa6cf63ecf31902d","","null","","","learningBlock2","","","","That was a wug.","null","","","","","",""
"html-keyboard-response","255","227809","0.0-7.0-2.2","FL","9x75jv8vpf","1600","900","0","1","0","5f34cb60fa6cf63ecf31902d","","null","","","learningBlock2","","","","<div style=""font-size:60px;""> </div>","null","FL","learning/Slide83.JPG","That was a wug.","","",""
"image-keyboard-response","256","227985","0.0-7.0-0.3","FL","9x75jv8vpf","1600","900","0","1","0","5f34cb60fa6cf63ecf31902d","","null","","","","","","","learning/Slide84.JPG","null","","","","","",""
"html-keyboard-response","257","229137","0.0-7.0-1.3","FL","9x75jv8vpf","1600","900","0","1","0","5f34cb60fa6cf63ecf31902d","","null","","","learningBlock2","","","","That was a dep.","null","","","","","",""
"html-keyboard-response","258","230138","0.0-7.0-2.3","FL","9x75jv8vpf","1600","900","0","1","0","5f34cb60fa6cf63ecf31902d","","null","","","learningBlock2","","","","<div style=""font-size:60px;""> </div>","null","FL","learning/Slide84.JPG","That was a dep.","","",""
"image-keyboard-response","259","230315","0.0-7.0-0.4","FL","9x75jv8vpf","1600","900","0","1","0","5f34cb60fa6cf63ecf31902d","","null","","","","","","","learning/Slide85.JPG","null","","","","","",""
"html-keyboard-response","260","231467","0.0-7.0-1.4","FL","9x75jv8vpf","1600","900","0","1","0","5f34cb60fa6cf63ecf31902d","","null","","","learningBlock2","","","","That was a bim.","null","","","","","",""
"html-keyboard-response","261","232468","0.0-7.0-2.4","FL","9x75jv8vpf","1600","900","0","1","0","5f34cb60fa6cf63ecf31902d","","null","","","learningBlock2","","","","<div style=""font-size:60px;""> </div>","null","FL","learning/Slide85.JPG","That was a bim.","","",""
"image-keyboard-response","262","232645","0.0-7.0-0.5","FL","9x75jv8vpf","1600","900","0","1","0","5f34cb60fa6cf63ecf31902d","","null","","","","","","","learning/Slide86.JPG","null","","","","","",""
"html-keyboard-response","263","233797","0.0-7.0-1.5","FL","9x75jv8vpf","1600","900","0","1","0","5f34cb60fa6cf63ecf31902d","","null","","","learningBlock2","","","","That was a tob.","null","","","","","",""
"html-keyboard-response","264","234798","0.0-7.0-2.5","FL","9x75jv8vpf","1600","900","0","1","0","5f34cb60fa6cf63ecf31902d","","null","","","learningBlock2","","","","<div style=""font-size:60px;""> </div>","null","FL","learning/Slide86.JPG","That was a tob.","","",""
"image-keyboard-response","265","234974","0.0-7.0-0.6","FL","9x75jv8vpf","1600","900","0","1","0","5f34cb60fa6cf63ecf31902d","","null","","","","","","","learning/Slide87.JPG","null","","","","","",""
"html-keyboard-response","266","236126","0.0-7.0-1.6","FL","9x75jv8vpf","1600","900","0","1","0","5f34cb60fa6cf63ecf31902d","","null","","","learningBlock2","","","","That was a wug.","null","","","","","",""
"html-keyboard-response","267","237127","0.0-7.0-2.6","FL","9x75jv8vpf","1600","900","0","1","0","5f34cb60fa6cf63ecf31902d","","null","","","learningBlock2","","","","<div style=""font-size:60px;""> </div>","null","FL","learning/Slide87.JPG","That was a wug.","","",""
"image-keyboard-response","268","237304","0.0-7.0-0.7","FL","9x75jv8vpf","1600","900","0","1","0","5f34cb60fa6cf63ecf31902d","","null","","","","","","","learning/Slide88.JPG","null","","","","","",""
"html-keyboard-response","269","238455","0.0-7.0-1.7","FL","9x75jv8vpf","1600","900","0","1","0","5f34cb60fa6cf63ecf31902d","","null","","","learningBlock2","","","","That was a tob.","null","","","","","",""
"html-keyboard-response","270","239457","0.0-7.0-2.7","FL","9x75jv8vpf","1600","900","0","1","0","5f34cb60fa6cf63ecf31902d","","null","","","learningBlock2","","","","<div style=""font-size:60px;""> </div>","null","FL","learning/Slide88.JPG","That was a tob.","","",""
"image-keyboard-response","271","239634","0.0-7.0-0.8","FL","9x75jv8vpf","1600","900","0","1","0","5f34cb60fa6cf63ecf31902d","","null","","","","","","","learning/Slide89.JPG","null","","","","","",""
"html-keyboard-response","272","240786","0.0-7.0-1.8","FL","9x75jv8vpf","1600","900","0","1","0","5f34cb60fa6cf63ecf31902d","","null","","","learningBlock2","","","","That was a bim.","null","","","","","",""
"html-keyboard-response","273","241787","0.0-7.0-2.8","FL","9x75jv8vpf","1600","900","0","1","0","5f34cb60fa6cf63ecf31902d","","null","","","learningBlock2","","","","<div style=""font-size:60px;""> </div>","null","FL","learning/Slide89.JPG","That was a bim.","","",""
"image-keyboard-response","274","241964","0.0-7.0-0.9","FL","9x75jv8vpf","1600","900","0","1","0","5f34cb60fa6cf63ecf31902d","","null","","","","","","","learning/Slide90.JPG","null","","","","","",""
"html-keyboard-response","275","243116","0.0-7.0-1.9","FL","9x75jv8vpf","1600","900","0","1","0","5f34cb60fa6cf63ecf31902d","","null","","","learningBlock2","","","","That was a dep.","null","","","","","",""
"html-keyboard-response","276","244117","0.0-7.0-2.9","FL","9x75jv8vpf","1600","900","0","1","0","5f34cb60fa6cf63ecf31902d","","null","","","learningBlock2","","","","<div style=""font-size:60px;""> </div>","null","FL","learning/Slide90.JPG","That was a dep.","","",""
"image-keyboard-response","277","244294","0.0-7.0-0.10","FL","9x75jv8vpf","1600","900","0","1","0","5f34cb60fa6cf63ecf31902d","","null","","","","","","","learning/Slide91.JPG","null","","","","","",""
"html-keyboard-response","278","245446","0.0-7.0-1.10","FL","9x75jv8vpf","1600","900","0","1","0","5f34cb60fa6cf63ecf31902d","","null","","","learningBlock2","","","","That was a wug.","null","","","","","",""
"html-keyboard-response","279","246447","0.0-7.0-2.10","FL","9x75jv8vpf","1600","900","0","1","0","5f34cb60fa6cf63ecf31902d","","null","","","learningBlock2","","","","<div style=""font-size:60px;""> </div>","null","FL","learning/Slide91.JPG","That was a wug.","","",""
"image-keyboard-response","280","246624","0.0-7.0-0.11","FL","9x75jv8vpf","1600","900","0","1","0","5f34cb60fa6cf63ecf31902d","","null","","","","","","","learning/Slide92.JPG","null","","","","","",""
"html-keyboard-response","281","247776","0.0-7.0-1.11","FL","9x75jv8vpf","1600","900","0","1","0","5f34cb60fa6cf63ecf31902d","","null","","","learningBlock2","","","","That was a tob.","null","","","","","",""
"html-keyboard-response","282","248778","0.0-7.0-2.11","FL","9x75jv8vpf","1600","900","0","1","0","5f34cb60fa6cf63ecf31902d","","null","","","learningBlock2","","","","<div style=""font-size:60px;""> </div>","null","FL","learning/Slide92.JPG","That was a tob.","","",""
"image-keyboard-response","283","248955","0.0-7.0-0.12","FL","9x75jv8vpf","1600","900","0","1","0","5f34cb60fa6cf63ecf31902d","","null","","","","","","","learning/Slide93.JPG","null","","","","","",""
"html-keyboard-response","284","250107","0.0-7.0-1.12","FL","9x75jv8vpf","1600","900","0","1","0","5f34cb60fa6cf63ecf31902d","","null","","","learningBlock2","","","","That was a bim.","null","","","","","",""
"html-keyboard-response","285","251108","0.0-7.0-2.12","FL","9x75jv8vpf","1600","900","0","1","0","5f34cb60fa6cf63ecf31902d","","null","","","learningBlock2","","","","<div style=""font-size:60px;""> </div>","null","FL","learning/Slide93.JPG","That was a bim.","","",""
"image-keyboard-response","286","251285","0.0-7.0-0.13","FL","9x75jv8vpf","1600","900","0","1","0","5f34cb60fa6cf63ecf31902d","","null","","","","","","","learning/Slide94.JPG","null","","","","","",""
"html-keyboard-response","287","252437","0.0-7.0-1.13","FL","9x75jv8vpf","1600","900","0","1","0","5f34cb60fa6cf63ecf31902d","","null","","","learningBlock2","","","","That was a tob.","null","","","","","",""
"html-keyboard-response","288","253438","0.0-7.0-2.13","FL","9x75jv8vpf","1600","900","0","1","0","5f34cb60fa6cf63ecf31902d","","null","","","learningBlock2","","","","<div style=""font-size:60px;""> </div>","null","FL","learning/Slide94.JPG","That was a tob.","","",""
"image-keyboard-response","289","253615","0.0-7.0-0.14","FL","9x75jv8vpf","1600","900","0","1","0","5f34cb60fa6cf63ecf31902d","","null","","","","","","","learning/Slide95.JPG","null","","","","","",""
"html-keyboard-response","290","254767","0.0-7.0-1.14","FL","9x75jv8vpf","1600","900","0","1","0","5f34cb60fa6cf63ecf31902d","","null","","","learningBlock2","","","","That was a wug.","null","","","","","",""
"html-keyboard-response","291","255768","0.0-7.0-2.14","FL","9x75jv8vpf","1600","900","0","1","0","5f34cb60fa6cf63ecf31902d","","null","","","learningBlock2","","","","<div style=""font-size:60px;""> </div>","null","FL","learning/Slide95.JPG","That was a wug.","","",""
"image-keyboard-response","292","255945","0.0-7.0-0.15","FL","9x75jv8vpf","1600","900","0","1","0","5f34cb60fa6cf63ecf31902d","","null","","","","","","","learning/Slide96.JPG","null","","","","","",""
"html-keyboard-response","293","257097","0.0-7.0-1.15","FL","9x75jv8vpf","1600","900","0","1","0","5f34cb60fa6cf63ecf31902d","","null","","","learningBlock2","","","","That was a tob.","null","","","","","",""
"html-keyboard-response","294","258098","0.0-7.0-2.15","FL","9x75jv8vpf","1600","900","0","1","0","5f34cb60fa6cf63ecf31902d","","null","","","learningBlock2","","","","<div style=""font-size:60px;""> </div>","null","FL","learning/Slide96.JPG","That was a tob.","","",""
"image-keyboard-response","295","258275","0.0-7.0-0.16","FL","9x75jv8vpf","1600","900","0","1","0","5f34cb60fa6cf63ecf31902d","","null","","","","","","","learning/Slide97.JPG","null","","","","","",""
"html-keyboard-response","296","259427","0.0-7.0-1.16","FL","9x75jv8vpf","1600","900","0","1","0","5f34cb60fa6cf63ecf31902d","","null","","","learningBlock2","","","","That was a dep.","null","","","","","",""
"html-keyboard-response","297","260428","0.0-7.0-2.16","FL","9x75jv8vpf","1600","900","0","1","0","5f34cb60fa6cf63ecf31902d","","null","","","learningBlock2","","","","<div style=""font-size:60px;""> </div>","null","FL","learning/Slide97.JPG","That was a dep.","","",""
"image-keyboard-response","298","260604","0.0-7.0-0.17","FL","9x75jv8vpf","1600","900","0","1","0","5f34cb60fa6cf63ecf31902d","","null","","","","","","","learning/Slide98.JPG","null","","","","","",""
"html-keyboard-response","299","261756","0.0-7.0-1.17","FL","9x75jv8vpf","1600","900","0","1","0","5f34cb60fa6cf63ecf31902d","","null","","","learningBlock2","","","","That was a bim.","null","","","","","",""
"html-keyboard-response","300","262757","0.0-7.0-2.17","FL","9x75jv8vpf","1600","900","0","1","0","5f34cb60fa6cf63ecf31902d","","null","","","learningBlock2","","","","<div style=""font-size:60px;""> </div>","null","FL","learning/Slide98.JPG","That was a bim.","","",""
"image-keyboard-response","301","262934","0.0-7.0-0.18","FL","9x75jv8vpf","1600","900","0","1","0","5f34cb60fa6cf63ecf31902d","","null","","","","","","","learning/Slide99.JPG","null","","","","","",""
"html-keyboard-response","302","264086","0.0-7.0-1.18","FL","9x75jv8vpf","1600","900","0","1","0","5f34cb60fa6cf63ecf31902d","","null","","","learningBlock2","","","","That was a dep.","null","","","","","",""
"html-keyboard-response","303","265087","0.0-7.0-2.18","FL","9x75jv8vpf","1600","900","0","1","0","5f34cb60fa6cf63ecf31902d","","null","","","learningBlock2","","","","<div style=""font-size:60px;""> </div>","null","FL","learning/Slide99.JPG","That was a dep.","","",""
"image-keyboard-response","304","265264","0.0-7.0-0.19","FL","9x75jv8vpf","1600","900","0","1","0","5f34cb60fa6cf63ecf31902d","","null","","","","","","","learning/Slide100.JPG","null","","","","","",""
"html-keyboard-response","305","266416","0.0-7.0-1.19","FL","9x75jv8vpf","1600","900","0","1","0","5f34cb60fa6cf63ecf31902d","","null","","","learningBlock2","","","","That was a bim.","null","","","","","",""
"html-keyboard-response","306","267417","0.0-7.0-2.19","FL","9x75jv8vpf","1600","900","0","1","0","5f34cb60fa6cf63ecf31902d","","null","","","learningBlock2","","","","<div style=""font-size:60px;""> </div>","null","FL","learning/Slide100.JPG","That was a bim.","","",""
"image-keyboard-response","307","267593","0.0-7.0-0.20","FL","9x75jv8vpf","1600","900","0","1","0","5f34cb60fa6cf63ecf31902d","","null","","","","","","","learning/Slide101.JPG","null","","","","","",""
"html-keyboard-response","308","268745","0.0-7.0-1.20","FL","9x75jv8vpf","1600","900","0","1","0","5f34cb60fa6cf63ecf31902d","","null","","","learningBlock2","","","","That was a tob.","null","","","","","",""
"html-keyboard-response","309","269747","0.0-7.0-2.20","FL","9x75jv8vpf","1600","900","0","1","0","5f34cb60fa6cf63ecf31902d","","null","","","learningBlock2","","","","<div style=""font-size:60px;""> </div>","null","FL","learning/Slide101.JPG","That was a tob.","","",""
"image-keyboard-response","310","269924","0.0-7.0-0.21","FL","9x75jv8vpf","1600","900","0","1","0","5f34cb60fa6cf63ecf31902d","","null","","","","","","","learning/Slide102.JPG","null","","","","","",""
"html-keyboard-response","311","271076","0.0-7.0-1.21","FL","9x75jv8vpf","1600","900","0","1","0","5f34cb60fa6cf63ecf31902d","","null","","","learningBlock2","","","","That was a bim.","null","","","","","",""
"html-keyboard-response","312","272077","0.0-7.0-2.21","FL","9x75jv8vpf","1600","900","0","1","0","5f34cb60fa6cf63ecf31902d","","null","","","learningBlock2","","","","<div style=""font-size:60px;""> </div>","null","FL","learning/Slide102.JPG","That was a bim.","","",""
"image-keyboard-response","313","272253","0.0-7.0-0.22","FL","9x75jv8vpf","1600","900","0","1","0","5f34cb60fa6cf63ecf31902d","","null","","","","","","","learning/Slide103.JPG","null","","","","","",""
"html-keyboard-response","314","273405","0.0-7.0-1.22","FL","9x75jv8vpf","1600","900","0","1","0","5f34cb60fa6cf63ecf31902d","","null","","","learningBlock2","","","","That was a dep.","null","","","","","",""
"html-keyboard-response","315","274406","0.0-7.0-2.22","FL","9x75jv8vpf","1600","900","0","1","0","5f34cb60fa6cf63ecf31902d","","null","","","learningBlock2","","","","<div style=""font-size:60px;""> </div>","null","FL","learning/Slide103.JPG","That was a dep.","","",""
"image-keyboard-response","316","274583","0.0-7.0-0.23","FL","9x75jv8vpf","1600","900","0","1","0","5f34cb60fa6cf63ecf31902d","","null","","","","","","","learning/Slide104.JPG","null","","","","","",""
"html-keyboard-response","317","275735","0.0-7.0-1.23","FL","9x75jv8vpf","1600","900","0","1","0","5f34cb60fa6cf63ecf31902d","","null","","","learningBlock2","","","","That was a tob.","null","","","","","",""
"html-keyboard-response","318","276736","0.0-7.0-2.23","FL","9x75jv8vpf","1600","900","0","1","0","5f34cb60fa6cf63ecf31902d","","null","","","learningBlock2","","","","<div style=""font-size:60px;""> </div>","null","FL","learning/Slide104.JPG","That was a tob.","","",""
"image-keyboard-response","319","276913","0.0-7.0-0.24","FL","9x75jv8vpf","1600","900","0","1","0","5f34cb60fa6cf63ecf31902d","","null","","","","","","","learning/Slide105.JPG","null","","","","","",""
"html-keyboard-response","320","278065","0.0-7.0-1.24","FL","9x75jv8vpf","1600","900","0","1","0","5f34cb60fa6cf63ecf31902d","","null","","","learningBlock2","","","","That was a dep.","null","","","","","",""
"html-keyboard-response","321","279066","0.0-7.0-2.24","FL","9x75jv8vpf","1600","900","0","1","0","5f34cb60fa6cf63ecf31902d","","null","","","learningBlock2","","","","<div style=""font-size:60px;""> </div>","null","FL","learning/Slide105.JPG","That was a dep.","","",""
"image-keyboard-response","322","279243","0.0-7.0-0.25","FL","9x75jv8vpf","1600","900","0","1","0","5f34cb60fa6cf63ecf31902d","","null","","","","","","","learning/Slide106.JPG","null","","","","","",""
"html-keyboard-response","323","280395","0.0-7.0-1.25","FL","9x75jv8vpf","1600","900","0","1","0","5f34cb60fa6cf63ecf31902d","","null","","","learningBlock2","","","","That was a wug.","null","","","","","",""
"html-keyboard-response","324","281396","0.0-7.0-2.25","FL","9x75jv8vpf","1600","900","0","1","0","5f34cb60fa6cf63ecf31902d","","null","","","learningBlock2","","","","<div style=""font-size:60px;""> </div>","null","FL","learning/Slide106.JPG","That was a wug.","","",""
"image-keyboard-response","325","281573","0.0-7.0-0.26","FL","9x75jv8vpf","1600","900","0","1","0","5f34cb60fa6cf63ecf31902d","","null","","","","","","","learning/Slide107.JPG","null","","","","","",""
"html-keyboard-response","326","282725","0.0-7.0-1.26","FL","9x75jv8vpf","1600","900","0","1","0","5f34cb60fa6cf63ecf31902d","","null","","","learningBlock2","","","","That was a bim.","null","","","","","",""
"html-keyboard-response","327","283726","0.0-7.0-2.26","FL","9x75jv8vpf","1600","900","0","1","0","5f34cb60fa6cf63ecf31902d","","null","","","learningBlock2","","","","<div style=""font-size:60px;""> </div>","null","FL","learning/Slide107.JPG","That was a bim.","","",""
"image-keyboard-response","328","283902","0.0-7.0-0.27","FL","9x75jv8vpf","1600","900","0","1","0","5f34cb60fa6cf63ecf31902d","","null","","","","","","","learning/Slide108.JPG","null","","","","","",""
"html-keyboard-response","329","285054","0.0-7.0-1.27","FL","9x75jv8vpf","1600","900","0","1","0","5f34cb60fa6cf63ecf31902d","","null","","","learningBlock2","","","","That was a dep.","null","","","","","",""
"html-keyboard-response","330","286055","0.0-7.0-2.27","FL","9x75jv8vpf","1600","900","0","1","0","5f34cb60fa6cf63ecf31902d","","null","","","learningBlock2","","","","<div style=""font-size:60px;""> </div>","null","FL","learning/Slide108.JPG","That was a dep.","","",""
"image-keyboard-response","331","286232","0.0-7.0-0.28","FL","9x75jv8vpf","1600","900","0","1","0","5f34cb60fa6cf63ecf31902d","","null","","","","","","","learning/Slide109.JPG","null","","","","","",""
"html-keyboard-response","332","287384","0.0-7.0-1.28","FL","9x75jv8vpf","1600","900","0","1","0","5f34cb60fa6cf63ecf31902d","","null","","","learningBlock2","","","","That was a wug.","null","","","","","",""
"html-keyboard-response","333","288386","0.0-7.0-2.28","FL","9x75jv8vpf","1600","900","0","1","0","5f34cb60fa6cf63ecf31902d","","null","","","learningBlock2","","","","<div style=""font-size:60px;""> </div>","null","FL","learning/Slide109.JPG","That was a wug.","","",""
"image-keyboard-response","334","288562","0.0-7.0-0.29","FL","9x75jv8vpf","1600","900","0","1","0","5f34cb60fa6cf63ecf31902d","","null","","","","","","","learning/Slide110.JPG","null","","","","","",""
"html-keyboard-response","335","289715","0.0-7.0-1.29","FL","9x75jv8vpf","1600","900","0","1","0","5f34cb60fa6cf63ecf31902d","","null","","","learningBlock2","","","","That was a bim.","null","","","","","",""
"html-keyboard-response","336","290716","0.0-7.0-2.29","FL","9x75jv8vpf","1600","900","0","1","0","5f34cb60fa6cf63ecf31902d","","null","","","learningBlock2","","","","<div style=""font-size:60px;""> </div>","null","FL","learning/Slide110.JPG","That was a bim.","","",""
"image-keyboard-response","337","290892","0.0-7.0-0.30","FL","9x75jv8vpf","1600","900","0","1","0","5f34cb60fa6cf63ecf31902d","","null","","","","","","","learning/Slide111.JPG","null","","","","","",""
"html-keyboard-response","338","292044","0.0-7.0-1.30","FL","9x75jv8vpf","1600","900","0","1","0","5f34cb60fa6cf63ecf31902d","","null","","","learningBlock2","","","","That was a tob.","null","","","","","",""
"html-keyboard-response","339","293045","0.0-7.0-2.30","FL","9x75jv8vpf","1600","900","0","1","0","5f34cb60fa6cf63ecf31902d","","null","","","learningBlock2","","","","<div style=""font-size:60px;""> </div>","null","FL","learning/Slide111.JPG","That was a tob.","","",""
"image-keyboard-response","340","293221","0.0-7.0-0.31","FL","9x75jv8vpf","1600","900","0","1","0","5f34cb60fa6cf63ecf31902d","","null","","","","","","","learning/Slide112.JPG","null","","","","","",""
"html-keyboard-response","341","294373","0.0-7.0-1.31","FL","9x75jv8vpf","1600","900","0","1","0","5f34cb60fa6cf63ecf31902d","","null","","","learningBlock2","","","","That was a wug.","null","","","","","",""
"html-keyboard-response","342","295374","0.0-7.0-2.31","FL","9x75jv8vpf","1600","900","0","1","0","5f34cb60fa6cf63ecf31902d","","null","","","learningBlock2","","","","<div style=""font-size:60px;""> </div>","null","FL","learning/Slide112.JPG","That was a wug.","","",""
"image-keyboard-response","343","295551","0.0-7.0-0.32","FL","9x75jv8vpf","1600","900","0","1","0","5f34cb60fa6cf63ecf31902d","","null","","","","","","","learning/Slide113.JPG","null","","","","","",""
"html-keyboard-response","344","296703","0.0-7.0-1.32","FL","9x75jv8vpf","1600","900","0","1","0","5f34cb60fa6cf63ecf31902d","","null","","","learningBlock2","","","","That was a tob.","null","","","","","",""
"html-keyboard-response","345","297704","0.0-7.0-2.32","FL","9x75jv8vpf","1600","900","0","1","0","5f34cb60fa6cf63ecf31902d","","null","","","learningBlock2","","","","<div style=""font-size:60px;""> </div>","null","FL","learning/Slide113.JPG","That was a tob.","","",""
"image-keyboard-response","346","297881","0.0-7.0-0.33","FL","9x75jv8vpf","1600","900","0","1","0","5f34cb60fa6cf63ecf31902d","","null","","","","","","","learning/Slide114.JPG","null","","","","","",""
"html-keyboard-response","347","299033","0.0-7.0-1.33","FL","9x75jv8vpf","1600","900","0","1","0","5f34cb60fa6cf63ecf31902d","","null","","","learningBlock2","","","","That was a wug.","null","","","","","",""
"html-keyboard-response","348","300034","0.0-7.0-2.33","FL","9x75jv8vpf","1600","900","0","1","0","5f34cb60fa6cf63ecf31902d","","null","","","learningBlock2","","","","<div style=""font-size:60px;""> </div>","null","FL","learning/Slide114.JPG","That was a wug.","","",""
"image-keyboard-response","349","300211","0.0-7.0-0.34","FL","9x75jv8vpf","1600","900","0","1","0","5f34cb60fa6cf63ecf31902d","","null","","","","","","","learning/Slide115.JPG","null","","","","","",""
"html-keyboard-response","350","301364","0.0-7.0-1.34","FL","9x75jv8vpf","1600","900","0","1","0","5f34cb60fa6cf63ecf31902d","","null","","","learningBlock2","","","","That was a bim.","null","","","","","",""
"html-keyboard-response","351","302365","0.0-7.0-2.34","FL","9x75jv8vpf","1600","900","0","1","0","5f34cb60fa6cf63ecf31902d","","null","","","learningBlock2","","","","<div style=""font-size:60px;""> </div>","null","FL","learning/Slide115.JPG","That was a bim.","","",""
"image-keyboard-response","352","302542","0.0-7.0-0.35","FL","9x75jv8vpf","1600","900","0","1","0","5f34cb60fa6cf63ecf31902d","","null","","","","","","","learning/Slide116.JPG","null","","","","","",""
"html-keyboard-response","353","303694","0.0-7.0-1.35","FL","9x75jv8vpf","1600","900","0","1","0","5f34cb60fa6cf63ecf31902d","","null","","","learningBlock2","","","","That was a dep.","null","","","","","",""
"html-keyboard-response","354","304695","0.0-7.0-2.35","FL","9x75jv8vpf","1600","900","0","1","0","5f34cb60fa6cf63ecf31902d","","null","","","learningBlock2","","","","<div style=""font-size:60px;""> </div>","null","FL","learning/Slide116.JPG","That was a dep.","","",""
"image-keyboard-response","355","304871","0.0-7.0-0.36","FL","9x75jv8vpf","1600","900","0","1","0","5f34cb60fa6cf63ecf31902d","","null","","","","","","","learning/Slide117.JPG","null","","","","","",""
"html-keyboard-response","356","306023","0.0-7.0-1.36","FL","9x75jv8vpf","1600","900","0","1","0","5f34cb60fa6cf63ecf31902d","","null","","","learningBlock2","","","","That was a tob.","null","","","","","",""
"html-keyboard-response","357","307024","0.0-7.0-2.36","FL","9x75jv8vpf","1600","900","0","1","0","5f34cb60fa6cf63ecf31902d","","null","","","learningBlock2","","","","<div style=""font-size:60px;""> </div>","null","FL","learning/Slide117.JPG","That was a tob.","","",""
"image-keyboard-response","358","307201","0.0-7.0-0.37","FL","9x75jv8vpf","1600","900","0","1","0","5f34cb60fa6cf63ecf31902d","","null","","","","","","","learning/Slide118.JPG","null","","","","","",""
"html-keyboard-response","359","308353","0.0-7.0-1.37","FL","9x75jv8vpf","1600","900","0","1","0","5f34cb60fa6cf63ecf31902d","","null","","","learningBlock2","","","","That was a dep.","null","","","","","",""
"html-keyboard-response","360","309354","0.0-7.0-2.37","FL","9x75jv8vpf","1600","900","0","1","0","5f34cb60fa6cf63ecf31902d","","null","","","learningBlock2","","","","<div style=""font-size:60px;""> </div>","null","FL","learning/Slide118.JPG","That was a dep.","","",""
"image-keyboard-response","361","309531","0.0-7.0-0.38","FL","9x75jv8vpf","1600","900","0","1","0","5f34cb60fa6cf63ecf31902d","","null","","","","","","","learning/Slide119.JPG","null","","","","","",""
"html-keyboard-response","362","310683","0.0-7.0-1.38","FL","9x75jv8vpf","1600","900","0","1","0","5f34cb60fa6cf63ecf31902d","","null","","","learningBlock2","","","","That was a wug.","null","","","","","",""
"html-keyboard-response","363","311684","0.0-7.0-2.38","FL","9x75jv8vpf","1600","900","0","1","0","5f34cb60fa6cf63ecf31902d","","null","","","learningBlock2","","","","<div style=""font-size:60px;""> </div>","null","FL","learning/Slide119.JPG","That was a wug.","","",""
"image-keyboard-response","364","311861","0.0-7.0-0.39","FL","9x75jv8vpf","1600","900","0","1","0","5f34cb60fa6cf63ecf31902d","","null","","","","","","","learning/Slide120.JPG","null","","","","","",""
"html-keyboard-response","365","313013","0.0-7.0-1.39","FL","9x75jv8vpf","1600","900","0","1","0","5f34cb60fa6cf63ecf31902d","","null","","","learningBlock2","","","","That was a dep.","null","","","","","",""
"html-keyboard-response","366","314014","0.0-7.0-2.39","FL","9x75jv8vpf","1600","900","0","1","0","5f34cb60fa6cf63ecf31902d","","null","","","learningBlock2","","","","<div style=""font-size:60px;""> </div>","null","FL","learning/Slide120.JPG","That was a dep.","","",""
"image-keyboard-response","367","314191","0.0-7.0-0.40","FL","9x75jv8vpf","1600","900","0","1","0","5f34cb60fa6cf63ecf31902d","","null","","","","","","","learning/Slide121.JPG","null","","","","","",""
"html-keyboard-response","368","315343","0.0-7.0-1.40","FL","9x75jv8vpf","1600","900","0","1","0","5f34cb60fa6cf63ecf31902d","","null","","","learningBlock2","","","","That was a bim.","null","","","","","",""
"html-keyboard-response","369","316344","0.0-7.0-2.40","FL","9x75jv8vpf","1600","900","0","1","0","5f34cb60fa6cf63ecf31902d","","null","","","learningBlock2","","","","<div style=""font-size:60px;""> </div>","null","FL","learning/Slide121.JPG","That was a bim.","","",""
"image-keyboard-response","370","316521","0.0-7.0-0.41","FL","9x75jv8vpf","1600","900","0","1","0","5f34cb60fa6cf63ecf31902d","","null","","","","","","","learning/Slide122.JPG","null","","","","","",""
"html-keyboard-response","371","317673","0.0-7.0-1.41","FL","9x75jv8vpf","1600","900","0","1","0","5f34cb60fa6cf63ecf31902d","","null","","","learningBlock2","","","","That was a wug.","null","","","","","",""
"html-keyboard-response","372","318675","0.0-7.0-2.41","FL","9x75jv8vpf","1600","900","0","1","0","5f34cb60fa6cf63ecf31902d","","null","","","learningBlock2","","","","<div style=""font-size:60px;""> </div>","null","FL","learning/Slide122.JPG","That was a wug.","","",""
"image-keyboard-response","373","318851","0.0-7.0-0.42","FL","9x75jv8vpf","1600","900","0","1","0","5f34cb60fa6cf63ecf31902d","","null","","","","","","","learning/Slide123.JPG","null","","","","","",""
"html-keyboard-response","374","320003","0.0-7.0-1.42","FL","9x75jv8vpf","1600","900","0","1","0","5f34cb60fa6cf63ecf31902d","","null","","","learningBlock2","","","","That was a bim.","null","","","","","",""
"html-keyboard-response","375","321005","0.0-7.0-2.42","FL","9x75jv8vpf","1600","900","0","1","0","5f34cb60fa6cf63ecf31902d","","null","","","learningBlock2","","","","<div style=""font-size:60px;""> </div>","null","FL","learning/Slide123.JPG","That was a bim.","","",""
"image-keyboard-response","376","321182","0.0-7.0-0.43","FL","9x75jv8vpf","1600","900","0","1","0","5f34cb60fa6cf63ecf31902d","","null","","","","","","","learning/Slide124.JPG","null","","","","","",""
"html-keyboard-response","377","322334","0.0-7.0-1.43","FL","9x75jv8vpf","1600","900","0","1","0","5f34cb60fa6cf63ecf31902d","","null","","","learningBlock2","","","","That was a tob.","null","","","","","",""
"html-keyboard-response","378","323335","0.0-7.0-2.43","FL","9x75jv8vpf","1600","900","0","1","0","5f34cb60fa6cf63ecf31902d","","null","","","learningBlock2","","","","<div style=""font-size:60px;""> </div>","null","FL","learning/Slide124.JPG","That was a tob.","","",""
"image-keyboard-response","379","323512","0.0-7.0-0.44","FL","9x75jv8vpf","1600","900","0","1","0","5f34cb60fa6cf63ecf31902d","","null","","","","","","","learning/Slide125.JPG","null","","","","","",""
"html-keyboard-response","380","324664","0.0-7.0-1.44","FL","9x75jv8vpf","1600","900","0","1","0","5f34cb60fa6cf63ecf31902d","","null","","","learningBlock2","","","","That was a bim.","null","","","","","",""
"html-keyboard-response","381","325665","0.0-7.0-2.44","FL","9x75jv8vpf","1600","900","0","1","0","5f34cb60fa6cf63ecf31902d","","null","","","learningBlock2","","","","<div style=""font-size:60px;""> </div>","null","FL","learning/Slide125.JPG","That was a bim.","","",""
"image-keyboard-response","382","325842","0.0-7.0-0.45","FL","9x75jv8vpf","1600","900","0","1","0","5f34cb60fa6cf63ecf31902d","","null","","","","","","","learning/Slide126.JPG","null","","","","","",""
"html-keyboard-response","383","326994","0.0-7.0-1.45","FL","9x75jv8vpf","1600","900","0","1","0","5f34cb60fa6cf63ecf31902d","","null","","","learningBlock2","","","","That was a tob.","null","","","","","",""
"html-keyboard-response","384","327995","0.0-7.0-2.45","FL","9x75jv8vpf","1600","900","0","1","0","5f34cb60fa6cf63ecf31902d","","null","","","learningBlock2","","","","<div style=""font-size:60px;""> </div>","null","FL","learning/Slide126.JPG","That was a tob.","","",""
"image-keyboard-response","385","328171","0.0-7.0-0.46","FL","9x75jv8vpf","1600","900","0","1","0","5f34cb60fa6cf63ecf31902d","","null","","","","","","","learning/Slide127.JPG","null","","","","","",""
"html-keyboard-response","386","329323","0.0-7.0-1.46","FL","9x75jv8vpf","1600","900","0","1","0","5f34cb60fa6cf63ecf31902d","","null","","","learningBlock2","","","","That was a dep.","null","","","","","",""
"html-keyboard-response","387","330324","0.0-7.0-2.46","FL","9x75jv8vpf","1600","900","0","1","0","5f34cb60fa6cf63ecf31902d","","null","","","learningBlock2","","","","<div style=""font-size:60px;""> </div>","null","FL","learning/Slide127.JPG","That was a dep.","","",""
"image-keyboard-response","388","330501","0.0-7.0-0.47","FL","9x75jv8vpf","1600","900","0","1","0","5f34cb60fa6cf63ecf31902d","","null","","","","","","","learning/Slide128.JPG","null","","","","","",""
"html-keyboard-response","389","331653","0.0-7.0-1.47","FL","9x75jv8vpf","1600","900","0","1","0","5f34cb60fa6cf63ecf31902d","","null","","","learningBlock2","","","","That was a wug.","null","","","","","",""
"html-keyboard-response","390","332654","0.0-7.0-2.47","FL","9x75jv8vpf","1600","900","0","1","0","5f34cb60fa6cf63ecf31902d","","null","","","learningBlock2","","","","<div style=""font-size:60px;""> </div>","null","FL","learning/Slide128.JPG","That was a wug.","","",""
"image-keyboard-response","391","332831","0.0-7.0-0.48","FL","9x75jv8vpf","1600","900","0","1","0","5f34cb60fa6cf63ecf31902d","","null","","","","","","","learning/Slide129.JPG","null","","","","","",""
"html-keyboard-response","392","333983","0.0-7.0-1.48","FL","9x75jv8vpf","1600","900","0","1","0","5f34cb60fa6cf63ecf31902d","","null","","","learningBlock2","","","","That was a tob.","null","","","","","",""
"html-keyboard-response","393","334984","0.0-7.0-2.48","FL","9x75jv8vpf","1600","900","0","1","0","5f34cb60fa6cf63ecf31902d","","null","","","learningBlock2","","","","<div style=""font-size:60px;""> </div>","null","FL","learning/Slide129.JPG","That was a tob.","","",""
"image-keyboard-response","394","335161","0.0-7.0-0.49","FL","9x75jv8vpf","1600","900","0","1","0","5f34cb60fa6cf63ecf31902d","","null","","","","","","","learning/Slide130.JPG","null","","","","","",""
"html-keyboard-response","395","336313","0.0-7.0-1.49","FL","9x75jv8vpf","1600","900","0","1","0","5f34cb60fa6cf63ecf31902d","","null","","","learningBlock2","","","","That was a wug.","null","","","","","",""
"html-keyboard-response","396","337314","0.0-7.0-2.49","FL","9x75jv8vpf","1600","900","0","1","0","5f34cb60fa6cf63ecf31902d","","null","","","learningBlock2","","","","<div style=""font-size:60px;""> </div>","null","FL","learning/Slide130.JPG","That was a wug.","","",""
"image-keyboard-response","397","337491","0.0-7.0-0.50","FL","9x75jv8vpf","1600","900","0","1","0","5f34cb60fa6cf63ecf31902d","","null","","","","","","","learning/Slide131.JPG","null","","","","","",""
"html-keyboard-response","398","338643","0.0-7.0-1.50","FL","9x75jv8vpf","1600","900","0","1","0","5f34cb60fa6cf63ecf31902d","","null","","","learningBlock2","","","","That was a bim.","null","","","","","",""
"html-keyboard-response","399","339644","0.0-7.0-2.50","FL","9x75jv8vpf","1600","900","0","1","0","5f34cb60fa6cf63ecf31902d","","null","","","learningBlock2","","","","<div style=""font-size:60px;""> </div>","null","FL","learning/Slide131.JPG","That was a bim.","","",""
"image-keyboard-response","400","339821","0.0-7.0-0.51","FL","9x75jv8vpf","1600","900","0","1","0","5f34cb60fa6cf63ecf31902d","","null","","","","","","","learning/Slide132.JPG","null","","","","","",""
"html-keyboard-response","401","340972","0.0-7.0-1.51","FL","9x75jv8vpf","1600","900","0","1","0","5f34cb60fa6cf63ecf31902d","","null","","","learningBlock2","","","","That was a dep.","null","","","","","",""
"html-keyboard-response","402","341974","0.0-7.0-2.51","FL","9x75jv8vpf","1600","900","0","1","0","5f34cb60fa6cf63ecf31902d","","null","","","learningBlock2","","","","<div style=""font-size:60px;""> </div>","null","FL","learning/Slide132.JPG","That was a dep.","","",""
"image-keyboard-response","403","342151","0.0-7.0-0.52","FL","9x75jv8vpf","1600","900","0","1","0","5f34cb60fa6cf63ecf31902d","","null","","","","","","","learning/Slide133.JPG","null","","","","","",""
"html-keyboard-response","404","343305","0.0-7.0-1.52","FL","9x75jv8vpf","1600","900","0","1","0","5f34cb60fa6cf63ecf31902d","","null","","","learningBlock2","","","","That was a tob.","null","","","","","",""
"html-keyboard-response","405","344307","0.0-7.0-2.52","FL","9x75jv8vpf","1600","900","0","1","0","5f34cb60fa6cf63ecf31902d","","null","","","learningBlock2","","","","<div style=""font-size:60px;""> </div>","null","FL","learning/Slide133.JPG","That was a tob.","","",""
"image-keyboard-response","406","344483","0.0-7.0-0.53","FL","9x75jv8vpf","1600","900","0","1","0","5f34cb60fa6cf63ecf31902d","","null","","","","","","","learning/Slide134.JPG","null","","","","","",""
"html-keyboard-response","407","345635","0.0-7.0-1.53","FL","9x75jv8vpf","1600","900","0","1","0","5f34cb60fa6cf63ecf31902d","","null","","","learningBlock2","","","","That was a dep.","null","","","","","",""
"html-keyboard-response","408","346637","0.0-7.0-2.53","FL","9x75jv8vpf","1600","900","0","1","0","5f34cb60fa6cf63ecf31902d","","null","","","learningBlock2","","","","<div style=""font-size:60px;""> </div>","null","FL","learning/Slide134.JPG","That was a dep.","","",""
"image-keyboard-response","409","346813","0.0-7.0-0.54","FL","9x75jv8vpf","1600","900","0","1","0","5f34cb60fa6cf63ecf31902d","","null","","","","","","","learning/Slide135.JPG","null","","","","","",""
"html-keyboard-response","410","347965","0.0-7.0-1.54","FL","9x75jv8vpf","1600","900","0","1","0","5f34cb60fa6cf63ecf31902d","","null","","","learningBlock2","","","","That was a tob.","null","","","","","",""
"html-keyboard-response","411","348966","0.0-7.0-2.54","FL","9x75jv8vpf","1600","900","0","1","0","5f34cb60fa6cf63ecf31902d","","null","","","learningBlock2","","","","<div style=""font-size:60px;""> </div>","null","FL","learning/Slide135.JPG","That was a tob.","","",""
"image-keyboard-response","412","349143","0.0-7.0-0.55","FL","9x75jv8vpf","1600","900","0","1","0","5f34cb60fa6cf63ecf31902d","","null","","","","","","","learning/Slide136.JPG","null","","","","","",""
"html-keyboard-response","413","350295","0.0-7.0-1.55","FL","9x75jv8vpf","1600","900","0","1","0","5f34cb60fa6cf63ecf31902d","","null","","","learningBlock2","","","","That was a wug.","null","","","","","",""
"html-keyboard-response","414","351296","0.0-7.0-2.55","FL","9x75jv8vpf","1600","900","0","1","0","5f34cb60fa6cf63ecf31902d","","null","","","learningBlock2","","","","<div style=""font-size:60px;""> </div>","null","FL","learning/Slide136.JPG","That was a wug.","","",""
"image-keyboard-response","415","351473","0.0-7.0-0.56","FL","9x75jv8vpf","1600","900","0","1","0","5f34cb60fa6cf63ecf31902d","","null","","","","","","","learning/Slide137.JPG","null","","","","","",""
"html-keyboard-response","416","352625","0.0-7.0-1.56","FL","9x75jv8vpf","1600","900","0","1","0","5f34cb60fa6cf63ecf31902d","","null","","","learningBlock2","","","","That was a tob.","null","","","","","",""
"html-keyboard-response","417","353626","0.0-7.0-2.56","FL","9x75jv8vpf","1600","900","0","1","0","5f34cb60fa6cf63ecf31902d","","null","","","learningBlock2","","","","<div style=""font-size:60px;""> </div>","null","FL","learning/Slide137.JPG","That was a tob.","","",""
"image-keyboard-response","418","353803","0.0-7.0-0.57","FL","9x75jv8vpf","1600","900","0","1","0","5f34cb60fa6cf63ecf31902d","","null","","","","","","","learning/Slide138.JPG","null","","","","","",""
"html-keyboard-response","419","354955","0.0-7.0-1.57","FL","9x75jv8vpf","1600","900","0","1","0","5f34cb60fa6cf63ecf31902d","","null","","","learningBlock2","","","","That was a bim.","null","","","","","",""
"html-keyboard-response","420","355956","0.0-7.0-2.57","FL","9x75jv8vpf","1600","900","0","1","0","5f34cb60fa6cf63ecf31902d","","null","","","learningBlock2","","","","<div style=""font-size:60px;""> </div>","null","FL","learning/Slide138.JPG","That was a bim.","","",""
"image-keyboard-response","421","356133","0.0-7.0-0.58","FL","9x75jv8vpf","1600","900","0","1","0","5f34cb60fa6cf63ecf31902d","","null","","","","","","","learning/Slide139.JPG","null","","","","","",""
"html-keyboard-response","422","357285","0.0-7.0-1.58","FL","9x75jv8vpf","1600","900","0","1","0","5f34cb60fa6cf63ecf31902d","","null","","","learningBlock2","","","","That was a wug.","null","","","","","",""
"html-keyboard-response","423","358287","0.0-7.0-2.58","FL","9x75jv8vpf","1600","900","0","1","0","5f34cb60fa6cf63ecf31902d","","null","","","learningBlock2","","","","<div style=""font-size:60px;""> </div>","null","FL","learning/Slide139.JPG","That was a wug.","","",""
"image-keyboard-response","424","358463","0.0-7.0-0.59","FL","9x75jv8vpf","1600","900","0","1","0","5f34cb60fa6cf63ecf31902d","","null","","","","","","","learning/Slide140.JPG","null","","","","","",""
"html-keyboard-response","425","359615","0.0-7.0-1.59","FL","9x75jv8vpf","1600","900","0","1","0","5f34cb60fa6cf63ecf31902d","","null","","","learningBlock2","","","","That was a dep.","null","","","","","",""
"html-keyboard-response","426","360617","0.0-7.0-2.59","FL","9x75jv8vpf","1600","900","0","1","0","5f34cb60fa6cf63ecf31902d","","null","","","learningBlock2","","","","<div style=""font-size:60px;""> </div>","null","FL","learning/Slide140.JPG","That was a dep.","","",""
"image-keyboard-response","427","360794","0.0-7.0-0.60","FL","9x75jv8vpf","1600","900","0","1","0","5f34cb60fa6cf63ecf31902d","","null","","","","","","","learning/Slide141.JPG","null","","","","","",""
"html-keyboard-response","428","361946","0.0-7.0-1.60","FL","9x75jv8vpf","1600","900","0","1","0","5f34cb60fa6cf63ecf31902d","","null","","","learningBlock2","","","","That was a tob.","null","","","","","",""
"html-keyboard-response","429","362947","0.0-7.0-2.60","FL","9x75jv8vpf","1600","900","0","1","0","5f34cb60fa6cf63ecf31902d","","null","","","learningBlock2","","","","<div style=""font-size:60px;""> </div>","null","FL","learning/Slide141.JPG","That was a tob.","","",""
"image-keyboard-response","430","363123","0.0-7.0-0.61","FL","9x75jv8vpf","1600","900","0","1","0","5f34cb60fa6cf63ecf31902d","","null","","","","","","","learning/Slide142.JPG","null","","","","","",""
"html-keyboard-response","431","364275","0.0-7.0-1.61","FL","9x75jv8vpf","1600","900","0","1","0","5f34cb60fa6cf63ecf31902d","","null","","","learningBlock2","","","","That was a wug.","null","","","","","",""
"html-keyboard-response","432","365277","0.0-7.0-2.61","FL","9x75jv8vpf","1600","900","0","1","0","5f34cb60fa6cf63ecf31902d","","null","","","learningBlock2","","","","<div style=""font-size:60px;""> </div>","null","FL","learning/Slide142.JPG","That was a wug.","","",""
"image-keyboard-response","433","365453","0.0-7.0-0.62","FL","9x75jv8vpf","1600","900","0","1","0","5f34cb60fa6cf63ecf31902d","","null","","","","","","","learning/Slide143.JPG","null","","","","","",""
"html-keyboard-response","434","366605","0.0-7.0-1.62","FL","9x75jv8vpf","1600","900","0","1","0","5f34cb60fa6cf63ecf31902d","","null","","","learningBlock2","","","","That was a bim.","null","","","","","",""
"html-keyboard-response","435","367607","0.0-7.0-2.62","FL","9x75jv8vpf","1600","900","0","1","0","5f34cb60fa6cf63ecf31902d","","null","","","learningBlock2","","","","<div style=""font-size:60px;""> </div>","null","FL","learning/Slide143.JPG","That was a bim.","","",""
"image-keyboard-response","436","367784","0.0-7.0-0.63","FL","9x75jv8vpf","1600","900","0","1","0","5f34cb60fa6cf63ecf31902d","","null","","","","","","","learning/Slide144.JPG","null","","","","","",""
"html-keyboard-response","437","368936","0.0-7.0-1.63","FL","9x75jv8vpf","1600","900","0","1","0","5f34cb60fa6cf63ecf31902d","","null","","","learningBlock2","","","","That was a dep.","null","","","","","",""
