"trial_type","trial_index","time_elapsed","internal_node_id","condition","subject","screen_width","screen_height","attention","distraction","conscientious","prolificID","success","rt","url","view_history","test_part","final_height_px","final_width_px","scale_factor","stimulus","key_press","learningType","presentedImage","presentedLabel","button_pressed","response","responses"
"pavlovia","0","26","0.0-0.0","FL","nsqbzarmrc","1920","1080","0","1","0","601e9d81606b8d337ab338e4","","","","","","","","","","","","","","","",""
"fullscreen","1","2620","0.0-1.0","FL","nsqbzarmrc","1920","1080","0","1","0","601e9d81606b8d337ab338e4","true","","","","","","","","","","","","","","",""
"external-html","2","38136","0.0-2.0-0.0","FL","nsqbzarmrc","1920","1080","0","1","0","601e9d81606b8d337ab338e4","","35459.71500000087","text/information_english.html","","","","","","","","","","","","",""
"external-html","3","53608","0.0-2.0-1.0","FL","nsqbzarmrc","1920","1080","0","1","0","601e9d81606b8d337ab338e4","","15414.175000001705","text/consent_english.html","","","","","","","","","","","","",""
"instructions","4","95384","0.0-3.0","FL","nsqbzarmrc","1920","1080","0","1","0","601e9d81606b8d337ab338e4","","NA","","[{""page_index"":0,""viewing_time"":3878.0550000010408},{""page_index"":1,""viewing_time"":37895.989999997255}]","instructions","","","","","","","","","","",""
"resize","5","181849","0.0-4.0","FL","nsqbzarmrc","1920","1080","0","1","0","601e9d81606b8d337ab338e4","","","","","","","319","2.0253968253968253","","","","","","","",""
"image-keyboard-response","6","182026","0.0-5.0-0.0","FL","nsqbzarmrc","1920","1080","0","1","0","601e9d81606b8d337ab338e4","","null","","","","","","","learning/Slide1.JPG","null","","","","","",""
"html-keyboard-response","7","183179","0.0-5.0-1.0","FL","nsqbzarmrc","1920","1080","0","1","0","601e9d81606b8d337ab338e4","","null","","","learningBlock1","","","","That was a tob.","null","","","","","",""
"html-keyboard-response","8","184181","0.0-5.0-2.0","FL","nsqbzarmrc","1920","1080","0","1","0","601e9d81606b8d337ab338e4","","null","","","learningBlock1","","","","<div style=""font-size:60px;""> </div>","null","FL","learning/Slide1.JPG","That was a tob.","","",""
"image-keyboard-response","9","184358","0.0-5.0-0.1","FL","nsqbzarmrc","1920","1080","0","1","0","601e9d81606b8d337ab338e4","","null","","","","","","","learning/Slide2.JPG","null","","","","","",""
"html-keyboard-response","10","185509","0.0-5.0-1.1","FL","nsqbzarmrc","1920","1080","0","1","0","601e9d81606b8d337ab338e4","","null","","","learningBlock1","","","","That was a wug.","null","","","","","",""
"html-keyboard-response","11","186511","0.0-5.0-2.1","FL","nsqbzarmrc","1920","1080","0","1","0","601e9d81606b8d337ab338e4","","null","","","learningBlock1","","","","<div style=""font-size:60px;""> </div>","null","FL","learning/Slide2.JPG","That was a wug.","","",""
"image-keyboard-response","12","186687","0.0-5.0-0.2","FL","nsqbzarmrc","1920","1080","0","1","0","601e9d81606b8d337ab338e4","","null","","","","","","","learning/Slide3.JPG","null","","","","","",""
"html-keyboard-response","13","187839","0.0-5.0-1.2","FL","nsqbzarmrc","1920","1080","0","1","0","601e9d81606b8d337ab338e4","","null","","","learningBlock1","","","","That was a bim.","null","","","","","",""
"html-keyboard-response","14","188841","0.0-5.0-2.2","FL","nsqbzarmrc","1920","1080","0","1","0","601e9d81606b8d337ab338e4","","null","","","learningBlock1","","","","<div style=""font-size:60px;""> </div>","null","FL","learning/Slide3.JPG","That was a bim.","","",""
"image-keyboard-response","15","189017","0.0-5.0-0.3","FL","nsqbzarmrc","1920","1080","0","1","0","601e9d81606b8d337ab338e4","","null","","","","","","","learning/Slide4.JPG","null","","","","","",""
"html-keyboard-response","16","190170","0.0-5.0-1.3","FL","nsqbzarmrc","1920","1080","0","1","0","601e9d81606b8d337ab338e4","","null","","","learningBlock1","","","","That was a dep.","null","","","","","",""
"html-keyboard-response","17","191172","0.0-5.0-2.3","FL","nsqbzarmrc","1920","1080","0","1","0","601e9d81606b8d337ab338e4","","null","","","learningBlock1","","","","<div style=""font-size:60px;""> </div>","null","FL","learning/Slide4.JPG","That was a dep.","","",""
"image-keyboard-response","18","191349","0.0-5.0-0.4","FL","nsqbzarmrc","1920","1080","0","1","0","601e9d81606b8d337ab338e4","","null","","","","","","","learning/Slide5.JPG","null","","","","","",""
"html-keyboard-response","19","192501","0.0-5.0-1.4","FL","nsqbzarmrc","1920","1080","0","1","0","601e9d81606b8d337ab338e4","","null","","","learningBlock1","","","","That was a wug.","null","","","","","",""
"html-keyboard-response","20","193502","0.0-5.0-2.4","FL","nsqbzarmrc","1920","1080","0","1","0","601e9d81606b8d337ab338e4","","null","","","learningBlock1","","","","<div style=""font-size:60px;""> </div>","null","FL","learning/Slide5.JPG","That was a wug.","","",""
"image-keyboard-response","21","193678","0.0-5.0-0.5","FL","nsqbzarmrc","1920","1080","0","1","0","601e9d81606b8d337ab338e4","","null","","","","","","","learning/Slide6.JPG","null","","","","","",""
"html-keyboard-response","22","194830","0.0-5.0-1.5","FL","nsqbzarmrc","1920","1080","0","1","0","601e9d81606b8d337ab338e4","","null","","","learningBlock1","","","","That was a dep.","null","","","","","",""
"html-keyboard-response","23","195831","0.0-5.0-2.5","FL","nsqbzarmrc","1920","1080","0","1","0","601e9d81606b8d337ab338e4","","null","","","learningBlock1","","","","<div style=""font-size:60px;""> </div>","null","FL","learning/Slide6.JPG","That was a dep.","","",""
"image-keyboard-response","24","196007","0.0-5.0-0.6","FL","nsqbzarmrc","1920","1080","0","1","0","601e9d81606b8d337ab338e4","","null","","","","","","","learning/Slide7.JPG","null","","","","","",""
"html-keyboard-response","25","197161","0.0-5.0-1.6","FL","nsqbzarmrc","1920","1080","0","1","0","601e9d81606b8d337ab338e4","","null","","","learningBlock1","","","","That was a wug.","null","","","","","",""
"html-keyboard-response","26","198162","0.0-5.0-2.6","FL","nsqbzarmrc","1920","1080","0","1","0","601e9d81606b8d337ab338e4","","null","","","learningBlock1","","","","<div style=""font-size:60px;""> </div>","null","FL","learning/Slide7.JPG","That was a wug.","","",""
"image-keyboard-response","27","198339","0.0-5.0-0.7","FL","nsqbzarmrc","1920","1080","0","1","0","601e9d81606b8d337ab338e4","","null","","","","","","","learning/Slide8.JPG","null","","","","","",""
"html-keyboard-response","28","199497","0.0-5.0-1.7","FL","nsqbzarmrc","1920","1080","0","1","0","601e9d81606b8d337ab338e4","","null","","","learningBlock1","","","","That was a bim.","null","","","","","",""
"html-keyboard-response","29","200498","0.0-5.0-2.7","FL","nsqbzarmrc","1920","1080","0","1","0","601e9d81606b8d337ab338e4","","null","","","learningBlock1","","","","<div style=""font-size:60px;""> </div>","null","FL","learning/Slide8.JPG","That was a bim.","","",""
"image-keyboard-response","30","200675","0.0-5.0-0.8","FL","nsqbzarmrc","1920","1080","0","1","0","601e9d81606b8d337ab338e4","","null","","","","","","","learning/Slide9.JPG","null","","","","","",""
"html-keyboard-response","31","201828","0.0-5.0-1.8","FL","nsqbzarmrc","1920","1080","0","1","0","601e9d81606b8d337ab338e4","","null","","","learningBlock1","","","","That was a wug.","null","","","","","",""
"html-keyboard-response","32","202830","0.0-5.0-2.8","FL","nsqbzarmrc","1920","1080","0","1","0","601e9d81606b8d337ab338e4","","null","","","learningBlock1","","","","<div style=""font-size:60px;""> </div>","null","FL","learning/Slide9.JPG","That was a wug.","","",""
"image-keyboard-response","33","203006","0.0-5.0-0.9","FL","nsqbzarmrc","1920","1080","0","1","0","601e9d81606b8d337ab338e4","","null","","","","","","","learning/Slide10.JPG","null","","","","","",""
"html-keyboard-response","34","204159","0.0-5.0-1.9","FL","nsqbzarmrc","1920","1080","0","1","0","601e9d81606b8d337ab338e4","","null","","","learningBlock1","","","","That was a dep.","null","","","","","",""
"html-keyboard-response","35","205160","0.0-5.0-2.9","FL","nsqbzarmrc","1920","1080","0","1","0","601e9d81606b8d337ab338e4","","null","","","learningBlock1","","","","<div style=""font-size:60px;""> </div>","null","FL","learning/Slide10.JPG","That was a dep.","","",""
"image-keyboard-response","36","205337","0.0-5.0-0.10","FL","nsqbzarmrc","1920","1080","0","1","0","601e9d81606b8d337ab338e4","","null","","","","","","","learning/Slide11.JPG","null","","","","","",""
"html-keyboard-response","37","206488","0.0-5.0-1.10","FL","nsqbzarmrc","1920","1080","0","1","0","601e9d81606b8d337ab338e4","","null","","","learningBlock1","","","","That was a tob.","null","","","","","",""
"html-keyboard-response","38","207489","0.0-5.0-2.10","FL","nsqbzarmrc","1920","1080","0","1","0","601e9d81606b8d337ab338e4","","null","","","learningBlock1","","","","<div style=""font-size:60px;""> </div>","null","FL","learning/Slide11.JPG","That was a tob.","","",""
"image-keyboard-response","39","207665","0.0-5.0-0.11","FL","nsqbzarmrc","1920","1080","0","1","0","601e9d81606b8d337ab338e4","","null","","","","","","","learning/Slide12.JPG","null","","","","","",""
"html-keyboard-response","40","208817","0.0-5.0-1.11","FL","nsqbzarmrc","1920","1080","0","1","0","601e9d81606b8d337ab338e4","","null","","","learningBlock1","","","","That was a dep.","null","","","","","",""
"html-keyboard-response","41","209819","0.0-5.0-2.11","FL","nsqbzarmrc","1920","1080","0","1","0","601e9d81606b8d337ab338e4","","null","","","learningBlock1","","","","<div style=""font-size:60px;""> </div>","null","FL","learning/Slide12.JPG","That was a dep.","","",""
"image-keyboard-response","42","209996","0.0-5.0-0.12","FL","nsqbzarmrc","1920","1080","0","1","0","601e9d81606b8d337ab338e4","","null","","","","","","","learning/Slide13.JPG","null","","","","","",""
"html-keyboard-response","43","211148","0.0-5.0-1.12","FL","nsqbzarmrc","1920","1080","0","1","0","601e9d81606b8d337ab338e4","","null","","","learningBlock1","","","","That was a bim.","null","","","","","",""
"html-keyboard-response","44","212149","0.0-5.0-2.12","FL","nsqbzarmrc","1920","1080","0","1","0","601e9d81606b8d337ab338e4","","null","","","learningBlock1","","","","<div style=""font-size:60px;""> </div>","null","FL","learning/Slide13.JPG","That was a bim.","","",""
"image-keyboard-response","45","212325","0.0-5.0-0.13","FL","nsqbzarmrc","1920","1080","0","1","0","601e9d81606b8d337ab338e4","","null","","","","","","","learning/Slide14.JPG","null","","","","","",""
"html-keyboard-response","46","213477","0.0-5.0-1.13","FL","nsqbzarmrc","1920","1080","0","1","0","601e9d81606b8d337ab338e4","","null","","","learningBlock1","","","","That was a wug.","null","","","","","",""
"html-keyboard-response","47","214478","0.0-5.0-2.13","FL","nsqbzarmrc","1920","1080","0","1","0","601e9d81606b8d337ab338e4","","null","","","learningBlock1","","","","<div style=""font-size:60px;""> </div>","null","FL","learning/Slide14.JPG","That was a wug.","","",""
"image-keyboard-response","48","214655","0.0-5.0-0.14","FL","nsqbzarmrc","1920","1080","0","1","0","601e9d81606b8d337ab338e4","","null","","","","","","","learning/Slide15.JPG","null","","","","","",""
"html-keyboard-response","49","215808","0.0-5.0-1.14","FL","nsqbzarmrc","1920","1080","0","1","0","601e9d81606b8d337ab338e4","","null","","","learningBlock1","","","","That was a tob.","null","","","","","",""
"html-keyboard-response","50","216810","0.0-5.0-2.14","FL","nsqbzarmrc","1920","1080","0","1","0","601e9d81606b8d337ab338e4","","null","","","learningBlock1","","","","<div style=""font-size:60px;""> </div>","null","FL","learning/Slide15.JPG","That was a tob.","","",""
"image-keyboard-response","51","216986","0.0-5.0-0.15","FL","nsqbzarmrc","1920","1080","0","1","0","601e9d81606b8d337ab338e4","","null","","","","","","","learning/Slide16.JPG","null","","","","","",""
"html-keyboard-response","52","218139","0.0-5.0-1.15","FL","nsqbzarmrc","1920","1080","0","1","0","601e9d81606b8d337ab338e4","","null","","","learningBlock1","","","","That was a dep.","null","","","","","",""
"html-keyboard-response","53","219141","0.0-5.0-2.15","FL","nsqbzarmrc","1920","1080","0","1","0","601e9d81606b8d337ab338e4","","null","","","learningBlock1","","","","<div style=""font-size:60px;""> </div>","null","FL","learning/Slide16.JPG","That was a dep.","","",""
"image-keyboard-response","54","219317","0.0-5.0-0.16","FL","nsqbzarmrc","1920","1080","0","1","0","601e9d81606b8d337ab338e4","","null","","","","","","","learning/Slide17.JPG","null","","","","","",""
"html-keyboard-response","55","220469","0.0-5.0-1.16","FL","nsqbzarmrc","1920","1080","0","1","0","601e9d81606b8d337ab338e4","","null","","","learningBlock1","","","","That was a bim.","null","","","","","",""
"html-keyboard-response","56","221470","0.0-5.0-2.16","FL","nsqbzarmrc","1920","1080","0","1","0","601e9d81606b8d337ab338e4","","null","","","learningBlock1","","","","<div style=""font-size:60px;""> </div>","null","FL","learning/Slide17.JPG","That was a bim.","","",""
"image-keyboard-response","57","221648","0.0-5.0-0.17","FL","nsqbzarmrc","1920","1080","0","1","0","601e9d81606b8d337ab338e4","","null","","","","","","","learning/Slide18.JPG","null","","","","","",""
"html-keyboard-response","58","222800","0.0-5.0-1.17","FL","nsqbzarmrc","1920","1080","0","1","0","601e9d81606b8d337ab338e4","","null","","","learningBlock1","","","","That was a tob.","null","","","","","",""
"html-keyboard-response","59","223802","0.0-5.0-2.17","FL","nsqbzarmrc","1920","1080","0","1","0","601e9d81606b8d337ab338e4","","null","","","learningBlock1","","","","<div style=""font-size:60px;""> </div>","null","FL","learning/Slide18.JPG","That was a tob.","","",""
"image-keyboard-response","60","223978","0.0-5.0-0.18","FL","nsqbzarmrc","1920","1080","0","1","0","601e9d81606b8d337ab338e4","","null","","","","","","","learning/Slide19.JPG","null","","","","","",""
"html-keyboard-response","61","225132","0.0-5.0-1.18","FL","nsqbzarmrc","1920","1080","0","1","0","601e9d81606b8d337ab338e4","","null","","","learningBlock1","","","","That was a wug.","null","","","","","",""
"html-keyboard-response","62","226133","0.0-5.0-2.18","FL","nsqbzarmrc","1920","1080","0","1","0","601e9d81606b8d337ab338e4","","null","","","learningBlock1","","","","<div style=""font-size:60px;""> </div>","null","FL","learning/Slide19.JPG","That was a wug.","","",""
"image-keyboard-response","63","226309","0.0-5.0-0.19","FL","nsqbzarmrc","1920","1080","0","1","0","601e9d81606b8d337ab338e4","","null","","","","","","","learning/Slide20.JPG","null","","","","","",""
"html-keyboard-response","64","227474","0.0-5.0-1.19","FL","nsqbzarmrc","1920","1080","0","1","0","601e9d81606b8d337ab338e4","","null","","","learningBlock1","","","","That was a bim.","null","","","","","",""
"html-keyboard-response","65","228476","0.0-5.0-2.19","FL","nsqbzarmrc","1920","1080","0","1","0","601e9d81606b8d337ab338e4","","null","","","learningBlock1","","","","<div style=""font-size:60px;""> </div>","null","FL","learning/Slide20.JPG","That was a bim.","","",""
"image-keyboard-response","66","228652","0.0-5.0-0.20","FL","nsqbzarmrc","1920","1080","0","1","0","601e9d81606b8d337ab338e4","","null","","","","","","","learning/Slide21.JPG","null","","","","","",""
"html-keyboard-response","67","229805","0.0-5.0-1.20","FL","nsqbzarmrc","1920","1080","0","1","0","601e9d81606b8d337ab338e4","","null","","","learningBlock1","","","","That was a dep.","null","","","","","",""
"html-keyboard-response","68","230806","0.0-5.0-2.20","FL","nsqbzarmrc","1920","1080","0","1","0","601e9d81606b8d337ab338e4","","null","","","learningBlock1","","","","<div style=""font-size:60px;""> </div>","null","FL","learning/Slide21.JPG","That was a dep.","","",""
"image-keyboard-response","69","230984","0.0-5.0-0.21","FL","nsqbzarmrc","1920","1080","0","1","0","601e9d81606b8d337ab338e4","","null","","","","","","","learning/Slide22.JPG","null","","","","","",""
"html-keyboard-response","70","232136","0.0-5.0-1.21","FL","nsqbzarmrc","1920","1080","0","1","0","601e9d81606b8d337ab338e4","","null","","","learningBlock1","","","","That was a bim.","null","","","","","",""
"html-keyboard-response","71","233138","0.0-5.0-2.21","FL","nsqbzarmrc","1920","1080","0","1","0","601e9d81606b8d337ab338e4","","null","","","learningBlock1","","","","<div style=""font-size:60px;""> </div>","null","FL","learning/Slide22.JPG","That was a bim.","","",""
"image-keyboard-response","72","233315","0.0-5.0-0.22","FL","nsqbzarmrc","1920","1080","0","1","0","601e9d81606b8d337ab338e4","","null","","","","","","","learning/Slide23.JPG","null","","","","","",""
"html-keyboard-response","73","234466","0.0-5.0-1.22","FL","nsqbzarmrc","1920","1080","0","1","0","601e9d81606b8d337ab338e4","","null","","","learningBlock1","","","","That was a tob.","null","","","","","",""
"html-keyboard-response","74","235467","0.0-5.0-2.22","FL","nsqbzarmrc","1920","1080","0","1","0","601e9d81606b8d337ab338e4","","null","","","learningBlock1","","","","<div style=""font-size:60px;""> </div>","null","FL","learning/Slide23.JPG","That was a tob.","","",""
"image-keyboard-response","75","235643","0.0-5.0-0.23","FL","nsqbzarmrc","1920","1080","0","1","0","601e9d81606b8d337ab338e4","","null","","","","","","","learning/Slide24.JPG","null","","","","","",""
"html-keyboard-response","76","236795","0.0-5.0-1.23","FL","nsqbzarmrc","1920","1080","0","1","0","601e9d81606b8d337ab338e4","","null","","","learningBlock1","","","","That was a wug.","null","","","","","",""
"html-keyboard-response","77","237796","0.0-5.0-2.23","FL","nsqbzarmrc","1920","1080","0","1","0","601e9d81606b8d337ab338e4","","null","","","learningBlock1","","","","<div style=""font-size:60px;""> </div>","null","FL","learning/Slide24.JPG","That was a wug.","","",""
"image-keyboard-response","78","237973","0.0-5.0-0.24","FL","nsqbzarmrc","1920","1080","0","1","0","601e9d81606b8d337ab338e4","","null","","","","","","","learning/Slide25.JPG","null","","","","","",""
"html-keyboard-response","79","239126","0.0-5.0-1.24","FL","nsqbzarmrc","1920","1080","0","1","0","601e9d81606b8d337ab338e4","","null","","","learningBlock1","","","","That was a dep.","null","","","","","",""
"html-keyboard-response","80","240128","0.0-5.0-2.24","FL","nsqbzarmrc","1920","1080","0","1","0","601e9d81606b8d337ab338e4","","null","","","learningBlock1","","","","<div style=""font-size:60px;""> </div>","null","FL","learning/Slide25.JPG","That was a dep.","","",""
"image-keyboard-response","81","240304","0.0-5.0-0.25","FL","nsqbzarmrc","1920","1080","0","1","0","601e9d81606b8d337ab338e4","","null","","","","","","","learning/Slide26.JPG","null","","","","","",""
"html-keyboard-response","82","241457","0.0-5.0-1.25","FL","nsqbzarmrc","1920","1080","0","1","0","601e9d81606b8d337ab338e4","","null","","","learningBlock1","","","","That was a wug.","null","","","","","",""
"html-keyboard-response","83","242458","0.0-5.0-2.25","FL","nsqbzarmrc","1920","1080","0","1","0","601e9d81606b8d337ab338e4","","null","","","learningBlock1","","","","<div style=""font-size:60px;""> </div>","null","FL","learning/Slide26.JPG","That was a wug.","","",""
"image-keyboard-response","84","242635","0.0-5.0-0.26","FL","nsqbzarmrc","1920","1080","0","1","0","601e9d81606b8d337ab338e4","","null","","","","","","","learning/Slide27.JPG","null","","","","","",""
"html-keyboard-response","85","243788","0.0-5.0-1.26","FL","nsqbzarmrc","1920","1080","0","1","0","601e9d81606b8d337ab338e4","","null","","","learningBlock1","","","","That was a bim.","null","","","","","",""
"html-keyboard-response","86","244790","0.0-5.0-2.26","FL","nsqbzarmrc","1920","1080","0","1","0","601e9d81606b8d337ab338e4","","null","","","learningBlock1","","","","<div style=""font-size:60px;""> </div>","null","FL","learning/Slide27.JPG","That was a bim.","","",""
"image-keyboard-response","87","244966","0.0-5.0-0.27","FL","nsqbzarmrc","1920","1080","0","1","0","601e9d81606b8d337ab338e4","","null","","","","","","","learning/Slide28.JPG","null","","","","","",""
"html-keyboard-response","88","246118","0.0-5.0-1.27","FL","nsqbzarmrc","1920","1080","0","1","0","601e9d81606b8d337ab338e4","","null","","","learningBlock1","","","","That was a dep.","null","","","","","",""
"html-keyboard-response","89","247118","0.0-5.0-2.27","FL","nsqbzarmrc","1920","1080","0","1","0","601e9d81606b8d337ab338e4","","null","","","learningBlock1","","","","<div style=""font-size:60px;""> </div>","null","FL","learning/Slide28.JPG","That was a dep.","","",""
"image-keyboard-response","90","247295","0.0-5.0-0.28","FL","nsqbzarmrc","1920","1080","0","1","0","601e9d81606b8d337ab338e4","","null","","","","","","","learning/Slide29.JPG","null","","","","","",""
"html-keyboard-response","91","248447","0.0-5.0-1.28","FL","nsqbzarmrc","1920","1080","0","1","0","601e9d81606b8d337ab338e4","","null","","","learningBlock1","","","","That was a tob.","null","","","","","",""
"html-keyboard-response","92","249448","0.0-5.0-2.28","FL","nsqbzarmrc","1920","1080","0","1","0","601e9d81606b8d337ab338e4","","null","","","learningBlock1","","","","<div style=""font-size:60px;""> </div>","null","FL","learning/Slide29.JPG","That was a tob.","","",""
"image-keyboard-response","93","249624","0.0-5.0-0.29","FL","nsqbzarmrc","1920","1080","0","1","0","601e9d81606b8d337ab338e4","","null","","","","","","","learning/Slide30.JPG","null","","","","","",""
"html-keyboard-response","94","250778","0.0-5.0-1.29","FL","nsqbzarmrc","1920","1080","0","1","0","601e9d81606b8d337ab338e4","","null","","","learningBlock1","","","","That was a dep.","null","","","","","",""
"html-keyboard-response","95","251779","0.0-5.0-2.29","FL","nsqbzarmrc","1920","1080","0","1","0","601e9d81606b8d337ab338e4","","null","","","learningBlock1","","","","<div style=""font-size:60px;""> </div>","null","FL","learning/Slide30.JPG","That was a dep.","","",""
"image-keyboard-response","96","251956","0.0-5.0-0.30","FL","nsqbzarmrc","1920","1080","0","1","0","601e9d81606b8d337ab338e4","","null","","","","","","","learning/Slide31.JPG","null","","","","","",""
"html-keyboard-response","97","253109","0.0-5.0-1.30","FL","nsqbzarmrc","1920","1080","0","1","0","601e9d81606b8d337ab338e4","","null","","","learningBlock1","","","","That was a wug.","null","","","","","",""
"html-keyboard-response","98","254110","0.0-5.0-2.30","FL","nsqbzarmrc","1920","1080","0","1","0","601e9d81606b8d337ab338e4","","null","","","learningBlock1","","","","<div style=""font-size:60px;""> </div>","null","FL","learning/Slide31.JPG","That was a wug.","","",""
"image-keyboard-response","99","254286","0.0-5.0-0.31","FL","nsqbzarmrc","1920","1080","0","1","0","601e9d81606b8d337ab338e4","","null","","","","","","","learning/Slide32.JPG","null","","","","","",""
"html-keyboard-response","100","255439","0.0-5.0-1.31","FL","nsqbzarmrc","1920","1080","0","1","0","601e9d81606b8d337ab338e4","","null","","","learningBlock1","","","","That was a tob.","null","","","","","",""
"html-keyboard-response","101","256440","0.0-5.0-2.31","FL","nsqbzarmrc","1920","1080","0","1","0","601e9d81606b8d337ab338e4","","null","","","learningBlock1","","","","<div style=""font-size:60px;""> </div>","null","FL","learning/Slide32.JPG","That was a tob.","","",""
"image-keyboard-response","102","256616","0.0-5.0-0.32","FL","nsqbzarmrc","1920","1080","0","1","0","601e9d81606b8d337ab338e4","","null","","","","","","","learning/Slide33.JPG","null","","","","","",""
"html-keyboard-response","103","257769","0.0-5.0-1.32","FL","nsqbzarmrc","1920","1080","0","1","0","601e9d81606b8d337ab338e4","","null","","","learningBlock1","","","","That was a bim.","null","","","","","",""
"html-keyboard-response","104","258771","0.0-5.0-2.32","FL","nsqbzarmrc","1920","1080","0","1","0","601e9d81606b8d337ab338e4","","null","","","learningBlock1","","","","<div style=""font-size:60px;""> </div>","null","FL","learning/Slide33.JPG","That was a bim.","","",""
"image-keyboard-response","105","258948","0.0-5.0-0.33","FL","nsqbzarmrc","1920","1080","0","1","0","601e9d81606b8d337ab338e4","","null","","","","","","","learning/Slide34.JPG","null","","","","","",""
"html-keyboard-response","106","260102","0.0-5.0-1.33","FL","nsqbzarmrc","1920","1080","0","1","0","601e9d81606b8d337ab338e4","","null","","","learningBlock1","","","","That was a tob.","null","","","","","",""
"html-keyboard-response","107","261104","0.0-5.0-2.33","FL","nsqbzarmrc","1920","1080","0","1","0","601e9d81606b8d337ab338e4","","null","","","learningBlock1","","","","<div style=""font-size:60px;""> </div>","null","FL","learning/Slide34.JPG","That was a tob.","","",""
"image-keyboard-response","108","261280","0.0-5.0-0.34","FL","nsqbzarmrc","1920","1080","0","1","0","601e9d81606b8d337ab338e4","","null","","","","","","","learning/Slide35.JPG","null","","","","","",""
"html-keyboard-response","109","262433","0.0-5.0-1.34","FL","nsqbzarmrc","1920","1080","0","1","0","601e9d81606b8d337ab338e4","","null","","","learningBlock1","","","","That was a bim.","null","","","","","",""
"html-keyboard-response","110","263435","0.0-5.0-2.34","FL","nsqbzarmrc","1920","1080","0","1","0","601e9d81606b8d337ab338e4","","null","","","learningBlock1","","","","<div style=""font-size:60px;""> </div>","null","FL","learning/Slide35.JPG","That was a bim.","","",""
"image-keyboard-response","111","263612","0.0-5.0-0.35","FL","nsqbzarmrc","1920","1080","0","1","0","601e9d81606b8d337ab338e4","","null","","","","","","","learning/Slide36.JPG","null","","","","","",""
"html-keyboard-response","112","264764","0.0-5.0-1.35","FL","nsqbzarmrc","1920","1080","0","1","0","601e9d81606b8d337ab338e4","","null","","","learningBlock1","","","","That was a dep.","null","","","","","",""
"html-keyboard-response","113","265765","0.0-5.0-2.35","FL","nsqbzarmrc","1920","1080","0","1","0","601e9d81606b8d337ab338e4","","null","","","learningBlock1","","","","<div style=""font-size:60px;""> </div>","null","FL","learning/Slide36.JPG","That was a dep.","","",""
"image-keyboard-response","114","265942","0.0-5.0-0.36","FL","nsqbzarmrc","1920","1080","0","1","0","601e9d81606b8d337ab338e4","","null","","","","","","","learning/Slide37.JPG","null","","","","","",""
"html-keyboard-response","115","267094","0.0-5.0-1.36","FL","nsqbzarmrc","1920","1080","0","1","0","601e9d81606b8d337ab338e4","","null","","","learningBlock1","","","","That was a tob.","null","","","","","",""
"html-keyboard-response","116","268095","0.0-5.0-2.36","FL","nsqbzarmrc","1920","1080","0","1","0","601e9d81606b8d337ab338e4","","null","","","learningBlock1","","","","<div style=""font-size:60px;""> </div>","null","FL","learning/Slide37.JPG","That was a tob.","","",""
"image-keyboard-response","117","268273","0.0-5.0-0.37","FL","nsqbzarmrc","1920","1080","0","1","0","601e9d81606b8d337ab338e4","","null","","","","","","","learning/Slide38.JPG","null","","","","","",""
"html-keyboard-response","118","269424","0.0-5.0-1.37","FL","nsqbzarmrc","1920","1080","0","1","0","601e9d81606b8d337ab338e4","","null","","","learningBlock1","","","","That was a wug.","null","","","","","",""
"html-keyboard-response","119","270425","0.0-5.0-2.37","FL","nsqbzarmrc","1920","1080","0","1","0","601e9d81606b8d337ab338e4","","null","","","learningBlock1","","","","<div style=""font-size:60px;""> </div>","null","FL","learning/Slide38.JPG","That was a wug.","","",""
"image-keyboard-response","120","270602","0.0-5.0-0.38","FL","nsqbzarmrc","1920","1080","0","1","0","601e9d81606b8d337ab338e4","","null","","","","","","","learning/Slide39.JPG","null","","","","","",""
"html-keyboard-response","121","271755","0.0-5.0-1.38","FL","nsqbzarmrc","1920","1080","0","1","0","601e9d81606b8d337ab338e4","","null","","","learningBlock1","","","","That was a bim.","null","","","","","",""
"html-keyboard-response","122","272756","0.0-5.0-2.38","FL","nsqbzarmrc","1920","1080","0","1","0","601e9d81606b8d337ab338e4","","null","","","learningBlock1","","","","<div style=""font-size:60px;""> </div>","null","FL","learning/Slide39.JPG","That was a bim.","","",""
"image-keyboard-response","123","272932","0.0-5.0-0.39","FL","nsqbzarmrc","1920","1080","0","1","0","601e9d81606b8d337ab338e4","","null","","","","","","","learning/Slide40.JPG","null","","","","","",""
"html-keyboard-response","124","274084","0.0-5.0-1.39","FL","nsqbzarmrc","1920","1080","0","1","0","601e9d81606b8d337ab338e4","","null","","","learningBlock1","","","","That was a tob.","null","","","","","",""
"html-keyboard-response","125","275085","0.0-5.0-2.39","FL","nsqbzarmrc","1920","1080","0","1","0","601e9d81606b8d337ab338e4","","null","","","learningBlock1","","","","<div style=""font-size:60px;""> </div>","null","FL","learning/Slide40.JPG","That was a tob.","","",""
"image-keyboard-response","126","275262","0.0-5.0-0.40","FL","nsqbzarmrc","1920","1080","0","1","0","601e9d81606b8d337ab338e4","","null","","","","","","","learning/Slide41.JPG","null","","","","","",""
"html-keyboard-response","127","276413","0.0-5.0-1.40","FL","nsqbzarmrc","1920","1080","0","1","0","601e9d81606b8d337ab338e4","","null","","","learningBlock1","","","","That was a bim.","null","","","","","",""
"html-keyboard-response","128","277415","0.0-5.0-2.40","FL","nsqbzarmrc","1920","1080","0","1","0","601e9d81606b8d337ab338e4","","null","","","learningBlock1","","","","<div style=""font-size:60px;""> </div>","null","FL","learning/Slide41.JPG","That was a bim.","","",""
"image-keyboard-response","129","277591","0.0-5.0-0.41","FL","nsqbzarmrc","1920","1080","0","1","0","601e9d81606b8d337ab338e4","","null","","","","","","","learning/Slide42.JPG","null","","","","","",""
"html-keyboard-response","130","278742","0.0-5.0-1.41","FL","nsqbzarmrc","1920","1080","0","1","0","601e9d81606b8d337ab338e4","","null","","","learningBlock1","","","","That was a dep.","null","","","","","",""
"html-keyboard-response","131","279745","0.0-5.0-2.41","FL","nsqbzarmrc","1920","1080","0","1","0","601e9d81606b8d337ab338e4","","null","","","learningBlock1","","","","<div style=""font-size:60px;""> </div>","null","FL","learning/Slide42.JPG","That was a dep.","","",""
"image-keyboard-response","132","279922","0.0-5.0-0.42","FL","nsqbzarmrc","1920","1080","0","1","0","601e9d81606b8d337ab338e4","","null","","","","","","","learning/Slide43.JPG","null","","","","","",""
"html-keyboard-response","133","281074","0.0-5.0-1.42","FL","nsqbzarmrc","1920","1080","0","1","0","601e9d81606b8d337ab338e4","","null","","","learningBlock1","","","","That was a wug.","null","","","","","",""
"html-keyboard-response","134","282075","0.0-5.0-2.42","FL","nsqbzarmrc","1920","1080","0","1","0","601e9d81606b8d337ab338e4","","null","","","learningBlock1","","","","<div style=""font-size:60px;""> </div>","null","FL","learning/Slide43.JPG","That was a wug.","","",""
"image-keyboard-response","135","282252","0.0-5.0-0.43","FL","nsqbzarmrc","1920","1080","0","1","0","601e9d81606b8d337ab338e4","","null","","","","","","","learning/Slide44.JPG","null","","","","","",""
"html-keyboard-response","136","283404","0.0-5.0-1.43","FL","nsqbzarmrc","1920","1080","0","1","0","601e9d81606b8d337ab338e4","","null","","","learningBlock1","","","","That was a bim.","null","","","","","",""
"html-keyboard-response","137","284406","0.0-5.0-2.43","FL","nsqbzarmrc","1920","1080","0","1","0","601e9d81606b8d337ab338e4","","null","","","learningBlock1","","","","<div style=""font-size:60px;""> </div>","null","FL","learning/Slide44.JPG","That was a bim.","","",""
"image-keyboard-response","138","284583","0.0-5.0-0.44","FL","nsqbzarmrc","1920","1080","0","1","0","601e9d81606b8d337ab338e4","","null","","","","","","","learning/Slide45.JPG","null","","","","","",""
"html-keyboard-response","139","285735","0.0-5.0-1.44","FL","nsqbzarmrc","1920","1080","0","1","0","601e9d81606b8d337ab338e4","","null","","","learningBlock1","","","","That was a wug.","null","","","","","",""
"html-keyboard-response","140","286737","0.0-5.0-2.44","FL","nsqbzarmrc","1920","1080","0","1","0","601e9d81606b8d337ab338e4","","null","","","learningBlock1","","","","<div style=""font-size:60px;""> </div>","null","FL","learning/Slide45.JPG","That was a wug.","","",""
"image-keyboard-response","141","286913","0.0-5.0-0.45","FL","nsqbzarmrc","1920","1080","0","1","0","601e9d81606b8d337ab338e4","","null","","","","","","","learning/Slide46.JPG","null","","","","","",""
"html-keyboard-response","142","288065","0.0-5.0-1.45","FL","nsqbzarmrc","1920","1080","0","1","0","601e9d81606b8d337ab338e4","","null","","","learningBlock1","","","","That was a dep.","null","","","","","",""
"html-keyboard-response","143","289066","0.0-5.0-2.45","FL","nsqbzarmrc","1920","1080","0","1","0","601e9d81606b8d337ab338e4","","null","","","learningBlock1","","","","<div style=""font-size:60px;""> </div>","null","FL","learning/Slide46.JPG","That was a dep.","","",""
"image-keyboard-response","144","289243","0.0-5.0-0.46","FL","nsqbzarmrc","1920","1080","0","1","0","601e9d81606b8d337ab338e4","","null","","","","","","","learning/Slide47.JPG","null","","","","","",""
"html-keyboard-response","145","290394","0.0-5.0-1.46","FL","nsqbzarmrc","1920","1080","0","1","0","601e9d81606b8d337ab338e4","","null","","","learningBlock1","","","","That was a tob.","null","","","","","",""
"html-keyboard-response","146","291394","0.0-5.0-2.46","FL","nsqbzarmrc","1920","1080","0","1","0","601e9d81606b8d337ab338e4","","null","","","learningBlock1","","","","<div style=""font-size:60px;""> </div>","null","FL","learning/Slide47.JPG","That was a tob.","","",""
"image-keyboard-response","147","291571","0.0-5.0-0.47","FL","nsqbzarmrc","1920","1080","0","1","0","601e9d81606b8d337ab338e4","","null","","","","","","","learning/Slide48.JPG","null","","","","","",""
"html-keyboard-response","148","292722","0.0-5.0-1.47","FL","nsqbzarmrc","1920","1080","0","1","0","601e9d81606b8d337ab338e4","","null","","","learningBlock1","","","","That was a bim.","null","","","","","",""
"html-keyboard-response","149","293723","0.0-5.0-2.47","FL","nsqbzarmrc","1920","1080","0","1","0","601e9d81606b8d337ab338e4","","null","","","learningBlock1","","","","<div style=""font-size:60px;""> </div>","null","FL","learning/Slide48.JPG","That was a bim.","","",""
"image-keyboard-response","150","293899","0.0-5.0-0.48","FL","nsqbzarmrc","1920","1080","0","1","0","601e9d81606b8d337ab338e4","","null","","","","","","","learning/Slide49.JPG","null","","","","","",""
"html-keyboard-response","151","295053","0.0-5.0-1.48","FL","nsqbzarmrc","1920","1080","0","1","0","601e9d81606b8d337ab338e4","","null","","","learningBlock1","","","","That was a dep.","null","","","","","",""
"html-keyboard-response","152","296055","0.0-5.0-2.48","FL","nsqbzarmrc","1920","1080","0","1","0","601e9d81606b8d337ab338e4","","null","","","learningBlock1","","","","<div style=""font-size:60px;""> </div>","null","FL","learning/Slide49.JPG","That was a dep.","","",""
"image-keyboard-response","153","296231","0.0-5.0-0.49","FL","nsqbzarmrc","1920","1080","0","1","0","601e9d81606b8d337ab338e4","","null","","","","","","","learning/Slide50.JPG","null","","","","","",""
"html-keyboard-response","154","297383","0.0-5.0-1.49","FL","nsqbzarmrc","1920","1080","0","1","0","601e9d81606b8d337ab338e4","","null","","","learningBlock1","","","","That was a tob.","null","","","","","",""
"html-keyboard-response","155","298384","0.0-5.0-2.49","FL","nsqbzarmrc","1920","1080","0","1","0","601e9d81606b8d337ab338e4","","null","","","learningBlock1","","","","<div style=""font-size:60px;""> </div>","null","FL","learning/Slide50.JPG","That was a tob.","","",""
"image-keyboard-response","156","298561","0.0-5.0-0.50","FL","nsqbzarmrc","1920","1080","0","1","0","601e9d81606b8d337ab338e4","","null","","","","","","","learning/Slide51.JPG","null","","","","","",""
"html-keyboard-response","157","299712","0.0-5.0-1.50","FL","nsqbzarmrc","1920","1080","0","1","0","601e9d81606b8d337ab338e4","","null","","","learningBlock1","","","","That was a bim.","null","","","","","",""
"html-keyboard-response","158","300714","0.0-5.0-2.50","FL","nsqbzarmrc","1920","1080","0","1","0","601e9d81606b8d337ab338e4","","null","","","learningBlock1","","","","<div style=""font-size:60px;""> </div>","null","FL","learning/Slide51.JPG","That was a bim.","","",""
"image-keyboard-response","159","300890","0.0-5.0-0.51","FL","nsqbzarmrc","1920","1080","0","1","0","601e9d81606b8d337ab338e4","","null","","","","","","","learning/Slide52.JPG","null","","","","","",""
"html-keyboard-response","160","302044","0.0-5.0-1.51","FL","nsqbzarmrc","1920","1080","0","1","0","601e9d81606b8d337ab338e4","","null","","","learningBlock1","","","","That was a wug.","null","","","","","",""
"html-keyboard-response","161","303045","0.0-5.0-2.51","FL","nsqbzarmrc","1920","1080","0","1","0","601e9d81606b8d337ab338e4","","null","","","learningBlock1","","","","<div style=""font-size:60px;""> </div>","null","FL","learning/Slide52.JPG","That was a wug.","","",""
"image-keyboard-response","162","303222","0.0-5.0-0.52","FL","nsqbzarmrc","1920","1080","0","1","0","601e9d81606b8d337ab338e4","","null","","","","","","","learning/Slide53.JPG","null","","","","","",""
"html-keyboard-response","163","304374","0.0-5.0-1.52","FL","nsqbzarmrc","1920","1080","0","1","0","601e9d81606b8d337ab338e4","","null","","","learningBlock1","","","","That was a tob.","null","","","","","",""
"html-keyboard-response","164","305376","0.0-5.0-2.52","FL","nsqbzarmrc","1920","1080","0","1","0","601e9d81606b8d337ab338e4","","null","","","learningBlock1","","","","<div style=""font-size:60px;""> </div>","null","FL","learning/Slide53.JPG","That was a tob.","","",""
"image-keyboard-response","165","305553","0.0-5.0-0.53","FL","nsqbzarmrc","1920","1080","0","1","0","601e9d81606b8d337ab338e4","","null","","","","","","","learning/Slide54.JPG","null","","","","","",""
"html-keyboard-response","166","306704","0.0-5.0-1.53","FL","nsqbzarmrc","1920","1080","0","1","0","601e9d81606b8d337ab338e4","","null","","","learningBlock1","","","","That was a dep.","null","","","","","",""
"html-keyboard-response","167","307705","0.0-5.0-2.53","FL","nsqbzarmrc","1920","1080","0","1","0","601e9d81606b8d337ab338e4","","null","","","learningBlock1","","","","<div style=""font-size:60px;""> </div>","null","FL","learning/Slide54.JPG","That was a dep.","","",""
"image-keyboard-response","168","307882","0.0-5.0-0.54","FL","nsqbzarmrc","1920","1080","0","1","0","601e9d81606b8d337ab338e4","","null","","","","","","","learning/Slide55.JPG","null","","","","","",""
"html-keyboard-response","169","309034","0.0-5.0-1.54","FL","nsqbzarmrc","1920","1080","0","1","0","601e9d81606b8d337ab338e4","","null","","","learningBlock1","","","","That was a bim.","null","","","","","",""
"html-keyboard-response","170","310034","0.0-5.0-2.54","FL","nsqbzarmrc","1920","1080","0","1","0","601e9d81606b8d337ab338e4","","null","","","learningBlock1","","","","<div style=""font-size:60px;""> </div>","null","FL","learning/Slide55.JPG","That was a bim.","","",""
"image-keyboard-response","171","310211","0.0-5.0-0.55","FL","nsqbzarmrc","1920","1080","0","1","0","601e9d81606b8d337ab338e4","","null","","","","","","","learning/Slide56.JPG","null","","","","","",""
"html-keyboard-response","172","311364","0.0-5.0-1.55","FL","nsqbzarmrc","1920","1080","0","1","0","601e9d81606b8d337ab338e4","","null","","","learningBlock1","","","","That was a tob.","null","","","","","",""
"html-keyboard-response","173","312365","0.0-5.0-2.55","FL","nsqbzarmrc","1920","1080","0","1","0","601e9d81606b8d337ab338e4","","null","","","learningBlock1","","","","<div style=""font-size:60px;""> </div>","null","FL","learning/Slide56.JPG","That was a tob.","","",""
"image-keyboard-response","174","312542","0.0-5.0-0.56","FL","nsqbzarmrc","1920","1080","0","1","0","601e9d81606b8d337ab338e4","","null","","","","","","","learning/Slide57.JPG","null","","","","","",""
"html-keyboard-response","175","313693","0.0-5.0-1.56","FL","nsqbzarmrc","1920","1080","0","1","0","601e9d81606b8d337ab338e4","","null","","","learningBlock1","","","","That was a dep.","null","","","","","",""
"html-keyboard-response","176","314693","0.0-5.0-2.56","FL","nsqbzarmrc","1920","1080","0","1","0","601e9d81606b8d337ab338e4","","null","","","learningBlock1","","","","<div style=""font-size:60px;""> </div>","null","FL","learning/Slide57.JPG","That was a dep.","","",""
"image-keyboard-response","177","314870","0.0-5.0-0.57","FL","nsqbzarmrc","1920","1080","0","1","0","601e9d81606b8d337ab338e4","","null","","","","","","","learning/Slide58.JPG","null","","","","","",""
"html-keyboard-response","178","316022","0.0-5.0-1.57","FL","nsqbzarmrc","1920","1080","0","1","0","601e9d81606b8d337ab338e4","","null","","","learningBlock1","","","","That was a wug.","null","","","","","",""
"html-keyboard-response","179","317024","0.0-5.0-2.57","FL","nsqbzarmrc","1920","1080","0","1","0","601e9d81606b8d337ab338e4","","null","","","learningBlock1","","","","<div style=""font-size:60px;""> </div>","null","FL","learning/Slide58.JPG","That was a wug.","","",""
"image-keyboard-response","180","317201","0.0-5.0-0.58","FL","nsqbzarmrc","1920","1080","0","1","0","601e9d81606b8d337ab338e4","","null","","","","","","","learning/Slide59.JPG","null","","","","","",""
"html-keyboard-response","181","318353","0.0-5.0-1.58","FL","nsqbzarmrc","1920","1080","0","1","0","601e9d81606b8d337ab338e4","","null","","","learningBlock1","","","","That was a dep.","null","","","","","",""
"html-keyboard-response","182","319355","0.0-5.0-2.58","FL","nsqbzarmrc","1920","1080","0","1","0","601e9d81606b8d337ab338e4","","null","","","learningBlock1","","","","<div style=""font-size:60px;""> </div>","null","FL","learning/Slide59.JPG","That was a dep.","","",""
"image-keyboard-response","183","319531","0.0-5.0-0.59","FL","nsqbzarmrc","1920","1080","0","1","0","601e9d81606b8d337ab338e4","","null","","","","","","","learning/Slide60.JPG","null","","","","","",""
"html-keyboard-response","184","320683","0.0-5.0-1.59","FL","nsqbzarmrc","1920","1080","0","1","0","601e9d81606b8d337ab338e4","","null","","","learningBlock1","","","","That was a wug.","null","","","","","",""
"html-keyboard-response","185","321684","0.0-5.0-2.59","FL","nsqbzarmrc","1920","1080","0","1","0","601e9d81606b8d337ab338e4","","null","","","learningBlock1","","","","<div style=""font-size:60px;""> </div>","null","FL","learning/Slide60.JPG","That was a wug.","","",""
"image-keyboard-response","186","321860","0.0-5.0-0.60","FL","nsqbzarmrc","1920","1080","0","1","0","601e9d81606b8d337ab338e4","","null","","","","","","","learning/Slide61.JPG","null","","","","","",""
"html-keyboard-response","187","323013","0.0-5.0-1.60","FL","nsqbzarmrc","1920","1080","0","1","0","601e9d81606b8d337ab338e4","","null","","","learningBlock1","","","","That was a bim.","null","","","","","",""
"html-keyboard-response","188","324014","0.0-5.0-2.60","FL","nsqbzarmrc","1920","1080","0","1","0","601e9d81606b8d337ab338e4","","null","","","learningBlock1","","","","<div style=""font-size:60px;""> </div>","null","FL","learning/Slide61.JPG","That was a bim.","","",""
"image-keyboard-response","189","324190","0.0-5.0-0.61","FL","nsqbzarmrc","1920","1080","0","1","0","601e9d81606b8d337ab338e4","","null","","","","","","","learning/Slide62.JPG","null","","","","","",""
"html-keyboard-response","190","325343","0.0-5.0-1.61","FL","nsqbzarmrc","1920","1080","0","1","0","601e9d81606b8d337ab338e4","","null","","","learningBlock1","","","","That was a dep.","null","","","","","",""
"html-keyboard-response","191","326344","0.0-5.0-2.61","FL","nsqbzarmrc","1920","1080","0","1","0","601e9d81606b8d337ab338e4","","null","","","learningBlock1","","","","<div style=""font-size:60px;""> </div>","null","FL","learning/Slide62.JPG","That was a dep.","","",""
"image-keyboard-response","192","326520","0.0-5.0-0.62","FL","nsqbzarmrc","1920","1080","0","1","0","601e9d81606b8d337ab338e4","","null","","","","","","","learning/Slide63.JPG","null","","","","","",""
"html-keyboard-response","193","327673","0.0-5.0-1.62","FL","nsqbzarmrc","1920","1080","0","1","0","601e9d81606b8d337ab338e4","","null","","","learningBlock1","","","","That was a bim.","null","","","","","",""
"html-keyboard-response","194","328674","0.0-5.0-2.62","FL","nsqbzarmrc","1920","1080","0","1","0","601e9d81606b8d337ab338e4","","null","","","learningBlock1","","","","<div style=""font-size:60px;""> </div>","null","FL","learning/Slide63.JPG","That was a bim.","","",""
"image-keyboard-response","195","328850","0.0-5.0-0.63","FL","nsqbzarmrc","1920","1080","0","1","0","601e9d81606b8d337ab338e4","","null","","","","","","","learning/Slide64.JPG","null","","","","","",""
"html-keyboard-response","196","330002","0.0-5.0-1.63","FL","nsqbzarmrc","1920","1080","0","1","0","601e9d81606b8d337ab338e4","","null","","","learningBlock1","","","","That was a tob.","null","","","","","",""
"html-keyboard-response","197","331004","0.0-5.0-2.63","FL","nsqbzarmrc","1920","1080","0","1","0","601e9d81606b8d337ab338e4","","null","","","learningBlock1","","","","<div style=""font-size:60px;""> </div>","null","FL","learning/Slide64.JPG","That was a tob.","","",""
"image-keyboard-response","198","331181","0.0-5.0-0.64","FL","nsqbzarmrc","1920","1080","0","1","0","601e9d81606b8d337ab338e4","","null","","","","","","","learning/Slide65.JPG","null","","","","","",""
"html-keyboard-response","199","332333","0.0-5.0-1.64","FL","nsqbzarmrc","1920","1080","0","1","0","601e9d81606b8d337ab338e4","","null","","","learningBlock1","","","","That was a wug.","null","","","","","",""
"html-keyboard-response","200","333334","0.0-5.0-2.64","FL","nsqbzarmrc","1920","1080","0","1","0","601e9d81606b8d337ab338e4","","null","","","learningBlock1","","","","<div style=""font-size:60px;""> </div>","null","FL","learning/Slide65.JPG","That was a wug.","","",""
"image-keyboard-response","201","333510","0.0-5.0-0.65","FL","nsqbzarmrc","1920","1080","0","1","0","601e9d81606b8d337ab338e4","","null","","","","","","","learning/Slide66.JPG","null","","","","","",""
"html-keyboard-response","202","334661","0.0-5.0-1.65","FL","nsqbzarmrc","1920","1080","0","1","0","601e9d81606b8d337ab338e4","","null","","","learningBlock1","","","","That was a dep.","null","","","","","",""
"html-keyboard-response","203","335663","0.0-5.0-2.65","FL","nsqbzarmrc","1920","1080","0","1","0","601e9d81606b8d337ab338e4","","null","","","learningBlock1","","","","<div style=""font-size:60px;""> </div>","null","FL","learning/Slide66.JPG","That was a dep.","","",""
"image-keyboard-response","204","335839","0.0-5.0-0.66","FL","nsqbzarmrc","1920","1080","0","1","0","601e9d81606b8d337ab338e4","","null","","","","","","","learning/Slide67.JPG","null","","","","","",""
"html-keyboard-response","205","336991","0.0-5.0-1.66","FL","nsqbzarmrc","1920","1080","0","1","0","601e9d81606b8d337ab338e4","","null","","","learningBlock1","","","","That was a tob.","null","","","","","",""
"html-keyboard-response","206","337998","0.0-5.0-2.66","FL","nsqbzarmrc","1920","1080","0","1","0","601e9d81606b8d337ab338e4","","null","","","learningBlock1","","","","<div style=""font-size:60px;""> </div>","null","FL","learning/Slide67.JPG","That was a tob.","","",""
"image-keyboard-response","207","338175","0.0-5.0-0.67","FL","nsqbzarmrc","1920","1080","0","1","0","601e9d81606b8d337ab338e4","","null","","","","","","","learning/Slide68.JPG","null","","","","","",""
"html-keyboard-response","208","339328","0.0-5.0-1.67","FL","nsqbzarmrc","1920","1080","0","1","0","601e9d81606b8d337ab338e4","","null","","","learningBlock1","","","","That was a wug.","null","","","","","",""
"html-keyboard-response","209","340329","0.0-5.0-2.67","FL","nsqbzarmrc","1920","1080","0","1","0","601e9d81606b8d337ab338e4","","null","","","learningBlock1","","","","<div style=""font-size:60px;""> </div>","null","FL","learning/Slide68.JPG","That was a wug.","","",""
"image-keyboard-response","210","340505","0.0-5.0-0.68","FL","nsqbzarmrc","1920","1080","0","1","0","601e9d81606b8d337ab338e4","","null","","","","","","","learning/Slide69.JPG","null","","","","","",""
"html-keyboard-response","211","341657","0.0-5.0-1.68","FL","nsqbzarmrc","1920","1080","0","1","0","601e9d81606b8d337ab338e4","","null","","","learningBlock1","","","","That was a tob.","null","","","","","",""
"html-keyboard-response","212","342658","0.0-5.0-2.68","FL","nsqbzarmrc","1920","1080","0","1","0","601e9d81606b8d337ab338e4","","null","","","learningBlock1","","","","<div style=""font-size:60px;""> </div>","null","FL","learning/Slide69.JPG","That was a tob.","","",""
"image-keyboard-response","213","342835","0.0-5.0-0.69","FL","nsqbzarmrc","1920","1080","0","1","0","601e9d81606b8d337ab338e4","","null","","","","","","","learning/Slide70.JPG","null","","","","","",""
"html-keyboard-response","214","343987","0.0-5.0-1.69","FL","nsqbzarmrc","1920","1080","0","1","0","601e9d81606b8d337ab338e4","","null","","","learningBlock1","","","","That was a dep.","null","","","","","",""
"html-keyboard-response","215","344988","0.0-5.0-2.69","FL","nsqbzarmrc","1920","1080","0","1","0","601e9d81606b8d337ab338e4","","null","","","learningBlock1","","","","<div style=""font-size:60px;""> </div>","null","FL","learning/Slide70.JPG","That was a dep.","","",""
"image-keyboard-response","216","345164","0.0-5.0-0.70","FL","nsqbzarmrc","1920","1080","0","1","0","601e9d81606b8d337ab338e4","","null","","","","","","","learning/Slide71.JPG","null","","","","","",""
"html-keyboard-response","217","346315","0.0-5.0-1.70","FL","nsqbzarmrc","1920","1080","0","1","0","601e9d81606b8d337ab338e4","","null","","","learningBlock1","","","","That was a wug.","null","","","","","",""
"html-keyboard-response","218","347317","0.0-5.0-2.70","FL","nsqbzarmrc","1920","1080","0","1","0","601e9d81606b8d337ab338e4","","null","","","learningBlock1","","","","<div style=""font-size:60px;""> </div>","null","FL","learning/Slide71.JPG","That was a wug.","","",""
"image-keyboard-response","219","347493","0.0-5.0-0.71","FL","nsqbzarmrc","1920","1080","0","1","0","601e9d81606b8d337ab338e4","","null","","","","","","","learning/Slide72.JPG","null","","","","","",""
"html-keyboard-response","220","348645","0.0-5.0-1.71","FL","nsqbzarmrc","1920","1080","0","1","0","601e9d81606b8d337ab338e4","","null","","","learningBlock1","","","","That was a bim.","null","","","","","",""
"html-keyboard-response","221","349646","0.0-5.0-2.71","FL","nsqbzarmrc","1920","1080","0","1","0","601e9d81606b8d337ab338e4","","null","","","learningBlock1","","","","<div style=""font-size:60px;""> </div>","null","FL","learning/Slide72.JPG","That was a bim.","","",""
"image-keyboard-response","222","349823","0.0-5.0-0.72","FL","nsqbzarmrc","1920","1080","0","1","0","601e9d81606b8d337ab338e4","","null","","","","","","","learning/Slide73.JPG","null","","","","","",""
"html-keyboard-response","223","350975","0.0-5.0-1.72","FL","nsqbzarmrc","1920","1080","0","1","0","601e9d81606b8d337ab338e4","","null","","","learningBlock1","","","","That was a wug.","null","","","","","",""
"html-keyboard-response","224","351977","0.0-5.0-2.72","FL","nsqbzarmrc","1920","1080","0","1","0","601e9d81606b8d337ab338e4","","null","","","learningBlock1","","","","<div style=""font-size:60px;""> </div>","null","FL","learning/Slide73.JPG","That was a wug.","","",""
"image-keyboard-response","225","352153","0.0-5.0-0.73","FL","nsqbzarmrc","1920","1080","0","1","0","601e9d81606b8d337ab338e4","","null","","","","","","","learning/Slide74.JPG","null","","","","","",""
"html-keyboard-response","226","353304","0.0-5.0-1.73","FL","nsqbzarmrc","1920","1080","0","1","0","601e9d81606b8d337ab338e4","","null","","","learningBlock1","","","","That was a dep.","null","","","","","",""
"html-keyboard-response","227","354305","0.0-5.0-2.73","FL","nsqbzarmrc","1920","1080","0","1","0","601e9d81606b8d337ab338e4","","null","","","learningBlock1","","","","<div style=""font-size:60px;""> </div>","null","FL","learning/Slide74.JPG","That was a dep.","","",""
"image-keyboard-response","228","354482","0.0-5.0-0.74","FL","nsqbzarmrc","1920","1080","0","1","0","601e9d81606b8d337ab338e4","","null","","","","","","","learning/Slide75.JPG","null","","","","","",""
"html-keyboard-response","229","355634","0.0-5.0-1.74","FL","nsqbzarmrc","1920","1080","0","1","0","601e9d81606b8d337ab338e4","","null","","","learningBlock1","","","","That was a tob.","null","","","","","",""
"html-keyboard-response","230","356637","0.0-5.0-2.74","FL","nsqbzarmrc","1920","1080","0","1","0","601e9d81606b8d337ab338e4","","null","","","learningBlock1","","","","<div style=""font-size:60px;""> </div>","null","FL","learning/Slide75.JPG","That was a tob.","","",""
"image-keyboard-response","231","356813","0.0-5.0-0.75","FL","nsqbzarmrc","1920","1080","0","1","0","601e9d81606b8d337ab338e4","","null","","","","","","","learning/Slide76.JPG","null","","","","","",""
"html-keyboard-response","232","357966","0.0-5.0-1.75","FL","nsqbzarmrc","1920","1080","0","1","0","601e9d81606b8d337ab338e4","","null","","","learningBlock1","","","","That was a bim.","null","","","","","",""
"html-keyboard-response","233","358967","0.0-5.0-2.75","FL","nsqbzarmrc","1920","1080","0","1","0","601e9d81606b8d337ab338e4","","null","","","learningBlock1","","","","<div style=""font-size:60px;""> </div>","null","FL","learning/Slide76.JPG","That was a bim.","","",""
"image-keyboard-response","234","359144","0.0-5.0-0.76","FL","nsqbzarmrc","1920","1080","0","1","0","601e9d81606b8d337ab338e4","","null","","","","","","","learning/Slide77.JPG","null","","","","","",""
"html-keyboard-response","235","360295","0.0-5.0-1.76","FL","nsqbzarmrc","1920","1080","0","1","0","601e9d81606b8d337ab338e4","","null","","","learningBlock1","","","","That was a tob.","null","","","","","",""
"html-keyboard-response","236","361297","0.0-5.0-2.76","FL","nsqbzarmrc","1920","1080","0","1","0","601e9d81606b8d337ab338e4","","null","","","learningBlock1","","","","<div style=""font-size:60px;""> </div>","null","FL","learning/Slide77.JPG","That was a tob.","","",""
"image-keyboard-response","237","361474","0.0-5.0-0.77","FL","nsqbzarmrc","1920","1080","0","1","0","601e9d81606b8d337ab338e4","","null","","","","","","","learning/Slide78.JPG","null","","","","","",""
"html-keyboard-response","238","362626","0.0-5.0-1.77","FL","nsqbzarmrc","1920","1080","0","1","0","601e9d81606b8d337ab338e4","","null","","","learningBlock1","","","","That was a wug.","null","","","","","",""
"html-keyboard-response","239","363628","0.0-5.0-2.77","FL","nsqbzarmrc","1920","1080","0","1","0","601e9d81606b8d337ab338e4","","null","","","learningBlock1","","","","<div style=""font-size:60px;""> </div>","null","FL","learning/Slide78.JPG","That was a wug.","","",""
"image-keyboard-response","240","363805","0.0-5.0-0.78","FL","nsqbzarmrc","1920","1080","0","1","0","601e9d81606b8d337ab338e4","","null","","","","","","","learning/Slide79.JPG","null","","","","","",""
"html-keyboard-response","241","364957","0.0-5.0-1.78","FL","nsqbzarmrc","1920","1080","0","1","0","601e9d81606b8d337ab338e4","","null","","","learningBlock1","","","","That was a bim.","null","","","","","",""
"html-keyboard-response","242","365960","0.0-5.0-2.78","FL","nsqbzarmrc","1920","1080","0","1","0","601e9d81606b8d337ab338e4","","null","","","learningBlock1","","","","<div style=""font-size:60px;""> </div>","null","FL","learning/Slide79.JPG","That was a bim.","","",""
"image-keyboard-response","243","366137","0.0-5.0-0.79","FL","nsqbzarmrc","1920","1080","0","1","0","601e9d81606b8d337ab338e4","","null","","","","","","","learning/Slide80.JPG","null","","","","","",""
"html-keyboard-response","244","367289","0.0-5.0-1.79","FL","nsqbzarmrc","1920","1080","0","1","0","601e9d81606b8d337ab338e4","","null","","","learningBlock1","","","","That was a tob.","null","","","","","",""
"html-keyboard-response","245","368290","0.0-5.0-2.79","FL","nsqbzarmrc","1920","1080","0","1","0","601e9d81606b8d337ab338e4","","null","","","learningBlock1","","","","<div style=""font-size:60px;""> </div>","null","FL","learning/Slide80.JPG","That was a tob.","","",""
"instructions","246","397090","0.0-6.0","FL","nsqbzarmrc","1920","1080","0","1","0","601e9d81606b8d337ab338e4","","NA","","[{""page_index"":0,""viewing_time"":28798.879999998433}]","instructions","","","","","","","","","","",""
"image-keyboard-response","247","397267","0.0-7.0-0.0","FL","nsqbzarmrc","1920","1080","0","1","0","601e9d81606b8d337ab338e4","","null","","","","","","","learning/Slide81.JPG","null","","","","","",""
"html-keyboard-response","248","398419","0.0-7.0-1.0","FL","nsqbzarmrc","1920","1080","0","1","0","601e9d81606b8d337ab338e4","","null","","","learningBlock2","","","","That was a wug.","null","","","","","",""
"html-keyboard-response","249","399420","0.0-7.0-2.0","FL","nsqbzarmrc","1920","1080","0","1","0","601e9d81606b8d337ab338e4","","null","","","learningBlock2","","","","<div style=""font-size:60px;""> </div>","null","FL","learning/Slide81.JPG","That was a wug.","","",""
"image-keyboard-response","250","399597","0.0-7.0-0.1","FL","nsqbzarmrc","1920","1080","0","1","0","601e9d81606b8d337ab338e4","","null","","","","","","","learning/Slide82.JPG","null","","","","","",""
"html-keyboard-response","251","400749","0.0-7.0-1.1","FL","nsqbzarmrc","1920","1080","0","1","0","601e9d81606b8d337ab338e4","","null","","","learningBlock2","","","","That was a bim.","null","","","","","",""
"html-keyboard-response","252","401750","0.0-7.0-2.1","FL","nsqbzarmrc","1920","1080","0","1","0","601e9d81606b8d337ab338e4","","null","","","learningBlock2","","","","<div style=""font-size:60px;""> </div>","null","FL","learning/Slide82.JPG","That was a bim.","","",""
"image-keyboard-response","253","401926","0.0-7.0-0.2","FL","nsqbzarmrc","1920","1080","0","1","0","601e9d81606b8d337ab338e4","","null","","","","","","","learning/Slide83.JPG","null","","","","","",""
"html-keyboard-response","254","403079","0.0-7.0-1.2","FL","nsqbzarmrc","1920","1080","0","1","0","601e9d81606b8d337ab338e4","","null","","","learningBlock2","","","","That was a wug.","null","","","","","",""
"html-keyboard-response","255","404080","0.0-7.0-2.2","FL","nsqbzarmrc","1920","1080","0","1","0","601e9d81606b8d337ab338e4","","null","","","learningBlock2","","","","<div style=""font-size:60px;""> </div>","null","FL","learning/Slide83.JPG","That was a wug.","","",""
"image-keyboard-response","256","404257","0.0-7.0-0.3","FL","nsqbzarmrc","1920","1080","0","1","0","601e9d81606b8d337ab338e4","","null","","","","","","","learning/Slide84.JPG","null","","","","","",""
"html-keyboard-response","257","405409","0.0-7.0-1.3","FL","nsqbzarmrc","1920","1080","0","1","0","601e9d81606b8d337ab338e4","","null","","","learningBlock2","","","","That was a dep.","null","","","","","",""
"html-keyboard-response","258","406409","0.0-7.0-2.3","FL","nsqbzarmrc","1920","1080","0","1","0","601e9d81606b8d337ab338e4","","null","","","learningBlock2","","","","<div style=""font-size:60px;""> </div>","null","FL","learning/Slide84.JPG","That was a dep.","","",""
"image-keyboard-response","259","406586","0.0-7.0-0.4","FL","nsqbzarmrc","1920","1080","0","1","0","601e9d81606b8d337ab338e4","","null","","","","","","","learning/Slide85.JPG","null","","","","","",""
"html-keyboard-response","260","407738","0.0-7.0-1.4","FL","nsqbzarmrc","1920","1080","0","1","0","601e9d81606b8d337ab338e4","","null","","","learningBlock2","","","","That was a bim.","null","","","","","",""
"html-keyboard-response","261","408739","0.0-7.0-2.4","FL","nsqbzarmrc","1920","1080","0","1","0","601e9d81606b8d337ab338e4","","null","","","learningBlock2","","","","<div style=""font-size:60px;""> </div>","null","FL","learning/Slide85.JPG","That was a bim.","","",""
"image-keyboard-response","262","408916","0.0-7.0-0.5","FL","nsqbzarmrc","1920","1080","0","1","0","601e9d81606b8d337ab338e4","","null","","","","","","","learning/Slide86.JPG","null","","","","","",""
"html-keyboard-response","263","410069","0.0-7.0-1.5","FL","nsqbzarmrc","1920","1080","0","1","0","601e9d81606b8d337ab338e4","","null","","","learningBlock2","","","","That was a tob.","null","","","","","",""
"html-keyboard-response","264","411070","0.0-7.0-2.5","FL","nsqbzarmrc","1920","1080","0","1","0","601e9d81606b8d337ab338e4","","null","","","learningBlock2","","","","<div style=""font-size:60px;""> </div>","null","FL","learning/Slide86.JPG","That was a tob.","","",""
"image-keyboard-response","265","411247","0.0-7.0-0.6","FL","nsqbzarmrc","1920","1080","0","1","0","601e9d81606b8d337ab338e4","","null","","","","","","","learning/Slide87.JPG","null","","","","","",""
"html-keyboard-response","266","412399","0.0-7.0-1.6","FL","nsqbzarmrc","1920","1080","0","1","0","601e9d81606b8d337ab338e4","","null","","","learningBlock2","","","","That was a wug.","null","","","","","",""
"html-keyboard-response","267","413401","0.0-7.0-2.6","FL","nsqbzarmrc","1920","1080","0","1","0","601e9d81606b8d337ab338e4","","null","","","learningBlock2","","","","<div style=""font-size:60px;""> </div>","null","FL","learning/Slide87.JPG","That was a wug.","","",""
"image-keyboard-response","268","413578","0.0-7.0-0.7","FL","nsqbzarmrc","1920","1080","0","1","0","601e9d81606b8d337ab338e4","","null","","","","","","","learning/Slide88.JPG","null","","","","","",""
"html-keyboard-response","269","414731","0.0-7.0-1.7","FL","nsqbzarmrc","1920","1080","0","1","0","601e9d81606b8d337ab338e4","","null","","","learningBlock2","","","","That was a tob.","null","","","","","",""
"html-keyboard-response","270","415733","0.0-7.0-2.7","FL","nsqbzarmrc","1920","1080","0","1","0","601e9d81606b8d337ab338e4","","null","","","learningBlock2","","","","<div style=""font-size:60px;""> </div>","null","FL","learning/Slide88.JPG","That was a tob.","","",""
"image-keyboard-response","271","415909","0.0-7.0-0.8","FL","nsqbzarmrc","1920","1080","0","1","0","601e9d81606b8d337ab338e4","","null","","","","","","","learning/Slide89.JPG","null","","","","","",""
"html-keyboard-response","272","417063","0.0-7.0-1.8","FL","nsqbzarmrc","1920","1080","0","1","0","601e9d81606b8d337ab338e4","","null","","","learningBlock2","","","","That was a bim.","null","","","","","",""
"html-keyboard-response","273","418063","0.0-7.0-2.8","FL","nsqbzarmrc","1920","1080","0","1","0","601e9d81606b8d337ab338e4","","null","","","learningBlock2","","","","<div style=""font-size:60px;""> </div>","null","FL","learning/Slide89.JPG","That was a bim.","","",""
"image-keyboard-response","274","418241","0.0-7.0-0.9","FL","nsqbzarmrc","1920","1080","0","1","0","601e9d81606b8d337ab338e4","","null","","","","","","","learning/Slide90.JPG","null","","","","","",""
"html-keyboard-response","275","419392","0.0-7.0-1.9","FL","nsqbzarmrc","1920","1080","0","1","0","601e9d81606b8d337ab338e4","","null","","","learningBlock2","","","","That was a dep.","null","","","","","",""
"html-keyboard-response","276","420394","0.0-7.0-2.9","FL","nsqbzarmrc","1920","1080","0","1","0","601e9d81606b8d337ab338e4","","null","","","learningBlock2","","","","<div style=""font-size:60px;""> </div>","null","FL","learning/Slide90.JPG","That was a dep.","","",""
"image-keyboard-response","277","420570","0.0-7.0-0.10","FL","nsqbzarmrc","1920","1080","0","1","0","601e9d81606b8d337ab338e4","","null","","","","","","","learning/Slide91.JPG","null","","","","","",""
"html-keyboard-response","278","421722","0.0-7.0-1.10","FL","nsqbzarmrc","1920","1080","0","1","0","601e9d81606b8d337ab338e4","","null","","","learningBlock2","","","","That was a wug.","null","","","","","",""
"html-keyboard-response","279","422723","0.0-7.0-2.10","FL","nsqbzarmrc","1920","1080","0","1","0","601e9d81606b8d337ab338e4","","null","","","learningBlock2","","","","<div style=""font-size:60px;""> </div>","null","FL","learning/Slide91.JPG","That was a wug.","","",""
"image-keyboard-response","280","422900","0.0-7.0-0.11","FL","nsqbzarmrc","1920","1080","0","1","0","601e9d81606b8d337ab338e4","","null","","","","","","","learning/Slide92.JPG","null","","","","","",""
"html-keyboard-response","281","424053","0.0-7.0-1.11","FL","nsqbzarmrc","1920","1080","0","1","0","601e9d81606b8d337ab338e4","","null","","","learningBlock2","","","","That was a tob.","null","","","","","",""
"html-keyboard-response","282","425054","0.0-7.0-2.11","FL","nsqbzarmrc","1920","1080","0","1","0","601e9d81606b8d337ab338e4","","null","","","learningBlock2","","","","<div style=""font-size:60px;""> </div>","null","FL","learning/Slide92.JPG","That was a tob.","","",""
"image-keyboard-response","283","425231","0.0-7.0-0.12","FL","nsqbzarmrc","1920","1080","0","1","0","601e9d81606b8d337ab338e4","","null","","","","","","","learning/Slide93.JPG","null","","","","","",""
"html-keyboard-response","284","426384","0.0-7.0-1.12","FL","nsqbzarmrc","1920","1080","0","1","0","601e9d81606b8d337ab338e4","","null","","","learningBlock2","","","","That was a bim.","null","","","","","",""
"html-keyboard-response","285","427385","0.0-7.0-2.12","FL","nsqbzarmrc","1920","1080","0","1","0","601e9d81606b8d337ab338e4","","null","","","learningBlock2","","","","<div style=""font-size:60px;""> </div>","null","FL","learning/Slide93.JPG","That was a bim.","","",""
"image-keyboard-response","286","427562","0.0-7.0-0.13","FL","nsqbzarmrc","1920","1080","0","1","0","601e9d81606b8d337ab338e4","","null","","","","","","","learning/Slide94.JPG","null","","","","","",""
"html-keyboard-response","287","428714","0.0-7.0-1.13","FL","nsqbzarmrc","1920","1080","0","1","0","601e9d81606b8d337ab338e4","","null","","","learningBlock2","","","","That was a tob.","null","","","","","",""
"html-keyboard-response","288","429716","0.0-7.0-2.13","FL","nsqbzarmrc","1920","1080","0","1","0","601e9d81606b8d337ab338e4","","null","","","learningBlock2","","","","<div style=""font-size:60px;""> </div>","null","FL","learning/Slide94.JPG","That was a tob.","","",""
"image-keyboard-response","289","429892","0.0-7.0-0.14","FL","nsqbzarmrc","1920","1080","0","1","0","601e9d81606b8d337ab338e4","","null","","","","","","","learning/Slide95.JPG","null","","","","","",""
"html-keyboard-response","290","431044","0.0-7.0-1.14","FL","nsqbzarmrc","1920","1080","0","1","0","601e9d81606b8d337ab338e4","","null","","","learningBlock2","","","","That was a wug.","null","","","","","",""
"html-keyboard-response","291","432046","0.0-7.0-2.14","FL","nsqbzarmrc","1920","1080","0","1","0","601e9d81606b8d337ab338e4","","null","","","learningBlock2","","","","<div style=""font-size:60px;""> </div>","null","FL","learning/Slide95.JPG","That was a wug.","","",""
"image-keyboard-response","292","432223","0.0-7.0-0.15","FL","nsqbzarmrc","1920","1080","0","1","0","601e9d81606b8d337ab338e4","","null","","","","","","","learning/Slide96.JPG","null","","","","","",""
"html-keyboard-response","293","433376","0.0-7.0-1.15","FL","nsqbzarmrc","1920","1080","0","1","0","601e9d81606b8d337ab338e4","","null","","","learningBlock2","","","","That was a tob.","null","","","","","",""
"html-keyboard-response","294","434377","0.0-7.0-2.15","FL","nsqbzarmrc","1920","1080","0","1","0","601e9d81606b8d337ab338e4","","null","","","learningBlock2","","","","<div style=""font-size:60px;""> </div>","null","FL","learning/Slide96.JPG","That was a tob.","","",""
"image-keyboard-response","295","434554","0.0-7.0-0.16","FL","nsqbzarmrc","1920","1080","0","1","0","601e9d81606b8d337ab338e4","","null","","","","","","","learning/Slide97.JPG","null","","","","","",""
"html-keyboard-response","296","435706","0.0-7.0-1.16","FL","nsqbzarmrc","1920","1080","0","1","0","601e9d81606b8d337ab338e4","","null","","","learningBlock2","","","","That was a dep.","null","","","","","",""
"html-keyboard-response","297","436706","0.0-7.0-2.16","FL","nsqbzarmrc","1920","1080","0","1","0","601e9d81606b8d337ab338e4","","null","","","learningBlock2","","","","<div style=""font-size:60px;""> </div>","null","FL","learning/Slide97.JPG","That was a dep.","","",""
"image-keyboard-response","298","436883","0.0-7.0-0.17","FL","nsqbzarmrc","1920","1080","0","1","0","601e9d81606b8d337ab338e4","","null","","","","","","","learning/Slide98.JPG","null","","","","","",""
"html-keyboard-response","299","438035","0.0-7.0-1.17","FL","nsqbzarmrc","1920","1080","0","1","0","601e9d81606b8d337ab338e4","","null","","","learningBlock2","","","","That was a bim.","null","","","","","",""
"html-keyboard-response","300","439036","0.0-7.0-2.17","FL","nsqbzarmrc","1920","1080","0","1","0","601e9d81606b8d337ab338e4","","null","","","learningBlock2","","","","<div style=""font-size:60px;""> </div>","null","FL","learning/Slide98.JPG","That was a bim.","","",""
"image-keyboard-response","301","439214","0.0-7.0-0.18","FL","nsqbzarmrc","1920","1080","0","1","0","601e9d81606b8d337ab338e4","","null","","","","","","","learning/Slide99.JPG","null","","","","","",""
"html-keyboard-response","302","440366","0.0-7.0-1.18","FL","nsqbzarmrc","1920","1080","0","1","0","601e9d81606b8d337ab338e4","","null","","","learningBlock2","","","","That was a dep.","null","","","","","",""
"html-keyboard-response","303","441367","0.0-7.0-2.18","FL","nsqbzarmrc","1920","1080","0","1","0","601e9d81606b8d337ab338e4","","null","","","learningBlock2","","","","<div style=""font-size:60px;""> </div>","null","FL","learning/Slide99.JPG","That was a dep.","","",""
"image-keyboard-response","304","441544","0.0-7.0-0.19","FL","nsqbzarmrc","1920","1080","0","1","0","601e9d81606b8d337ab338e4","","null","","","","","","","learning/Slide100.JPG","null","","","","","",""
"html-keyboard-response","305","442697","0.0-7.0-1.19","FL","nsqbzarmrc","1920","1080","0","1","0","601e9d81606b8d337ab338e4","","null","","","learningBlock2","","","","That was a bim.","null","","","","","",""
"html-keyboard-response","306","443698","0.0-7.0-2.19","FL","nsqbzarmrc","1920","1080","0","1","0","601e9d81606b8d337ab338e4","","null","","","learningBlock2","","","","<div style=""font-size:60px;""> </div>","null","FL","learning/Slide100.JPG","That was a bim.","","",""
"image-keyboard-response","307","443875","0.0-7.0-0.20","FL","nsqbzarmrc","1920","1080","0","1","0","601e9d81606b8d337ab338e4","","null","","","","","","","learning/Slide101.JPG","null","","","","","",""
"html-keyboard-response","308","445027","0.0-7.0-1.20","FL","nsqbzarmrc","1920","1080","0","1","0","601e9d81606b8d337ab338e4","","null","","","learningBlock2","","","","That was a tob.","null","","","","","",""
"html-keyboard-response","309","446028","0.0-7.0-2.20","FL","nsqbzarmrc","1920","1080","0","1","0","601e9d81606b8d337ab338e4","","null","","","learningBlock2","","","","<div style=""font-size:60px;""> </div>","null","FL","learning/Slide101.JPG","That was a tob.","","",""
"image-keyboard-response","310","446205","0.0-7.0-0.21","FL","nsqbzarmrc","1920","1080","0","1","0","601e9d81606b8d337ab338e4","","null","","","","","","","learning/Slide102.JPG","null","","","","","",""
"html-keyboard-response","311","447358","0.0-7.0-1.21","FL","nsqbzarmrc","1920","1080","0","1","0","601e9d81606b8d337ab338e4","","null","","","learningBlock2","","","","That was a bim.","null","","","","","",""
"html-keyboard-response","312","448360","0.0-7.0-2.21","FL","nsqbzarmrc","1920","1080","0","1","0","601e9d81606b8d337ab338e4","","null","","","learningBlock2","","","","<div style=""font-size:60px;""> </div>","null","FL","learning/Slide102.JPG","That was a bim.","","",""
"image-keyboard-response","313","448536","0.0-7.0-0.22","FL","nsqbzarmrc","1920","1080","0","1","0","601e9d81606b8d337ab338e4","","null","","","","","","","learning/Slide103.JPG","null","","","","","",""
"html-keyboard-response","314","449688","0.0-7.0-1.22","FL","nsqbzarmrc","1920","1080","0","1","0","601e9d81606b8d337ab338e4","","null","","","learningBlock2","","","","That was a dep.","null","","","","","",""
"html-keyboard-response","315","450690","0.0-7.0-2.22","FL","nsqbzarmrc","1920","1080","0","1","0","601e9d81606b8d337ab338e4","","null","","","learningBlock2","","","","<div style=""font-size:60px;""> </div>","null","FL","learning/Slide103.JPG","That was a dep.","","",""
"image-keyboard-response","316","450866","0.0-7.0-0.23","FL","nsqbzarmrc","1920","1080","0","1","0","601e9d81606b8d337ab338e4","","null","","","","","","","learning/Slide104.JPG","null","","","","","",""
"html-keyboard-response","317","452018","0.0-7.0-1.23","FL","nsqbzarmrc","1920","1080","0","1","0","601e9d81606b8d337ab338e4","","null","","","learningBlock2","","","","That was a tob.","null","","","","","",""
"html-keyboard-response","318","453020","0.0-7.0-2.23","FL","nsqbzarmrc","1920","1080","0","1","0","601e9d81606b8d337ab338e4","","null","","","learningBlock2","","","","<div style=""font-size:60px;""> </div>","null","FL","learning/Slide104.JPG","That was a tob.","","",""
"image-keyboard-response","319","453197","0.0-7.0-0.24","FL","nsqbzarmrc","1920","1080","0","1","0","601e9d81606b8d337ab338e4","","null","","","","","","","learning/Slide105.JPG","null","","","","","",""
"html-keyboard-response","320","454350","0.0-7.0-1.24","FL","nsqbzarmrc","1920","1080","0","1","0","601e9d81606b8d337ab338e4","","null","","","learningBlock2","","","","That was a dep.","null","","","","","",""
"html-keyboard-response","321","455360","0.0-7.0-2.24","FL","nsqbzarmrc","1920","1080","0","1","0","601e9d81606b8d337ab338e4","","null","","","learningBlock2","","","","<div style=""font-size:60px;""> </div>","null","FL","learning/Slide105.JPG","That was a dep.","","",""
"image-keyboard-response","322","455537","0.0-7.0-0.25","FL","nsqbzarmrc","1920","1080","0","1","0","601e9d81606b8d337ab338e4","","null","","","","","","","learning/Slide106.JPG","null","","","","","",""
"html-keyboard-response","323","456689","0.0-7.0-1.25","FL","nsqbzarmrc","1920","1080","0","1","0","601e9d81606b8d337ab338e4","","null","","","learningBlock2","","","","That was a wug.","null","","","","","",""
"html-keyboard-response","324","457691","0.0-7.0-2.25","FL","nsqbzarmrc","1920","1080","0","1","0","601e9d81606b8d337ab338e4","","null","","","learningBlock2","","","","<div style=""font-size:60px;""> </div>","null","FL","learning/Slide106.JPG","That was a wug.","","",""
"image-keyboard-response","325","457867","0.0-7.0-0.26","FL","nsqbzarmrc","1920","1080","0","1","0","601e9d81606b8d337ab338e4","","null","","","","","","","learning/Slide107.JPG","null","","","","","",""
"html-keyboard-response","326","459020","0.0-7.0-1.26","FL","nsqbzarmrc","1920","1080","0","1","0","601e9d81606b8d337ab338e4","","null","","","learningBlock2","","","","That was a bim.","null","","","","","",""
"html-keyboard-response","327","460021","0.0-7.0-2.26","FL","nsqbzarmrc","1920","1080","0","1","0","601e9d81606b8d337ab338e4","","null","","","learningBlock2","","","","<div style=""font-size:60px;""> </div>","null","FL","learning/Slide107.JPG","That was a bim.","","",""
"image-keyboard-response","328","460198","0.0-7.0-0.27","FL","nsqbzarmrc","1920","1080","0","1","0","601e9d81606b8d337ab338e4","","null","","","","","","","learning/Slide108.JPG","null","","","","","",""
"html-keyboard-response","329","461349","0.0-7.0-1.27","FL","nsqbzarmrc","1920","1080","0","1","0","601e9d81606b8d337ab338e4","","null","","","learningBlock2","","","","That was a dep.","null","","","","","",""
"html-keyboard-response","330","462351","0.0-7.0-2.27","FL","nsqbzarmrc","1920","1080","0","1","0","601e9d81606b8d337ab338e4","","null","","","learningBlock2","","","","<div style=""font-size:60px;""> </div>","null","FL","learning/Slide108.JPG","That was a dep.","","",""
"image-keyboard-response","331","462528","0.0-7.0-0.28","FL","nsqbzarmrc","1920","1080","0","1","0","601e9d81606b8d337ab338e4","","null","","","","","","","learning/Slide109.JPG","null","","","","","",""
"html-keyboard-response","332","463679","0.0-7.0-1.28","FL","nsqbzarmrc","1920","1080","0","1","0","601e9d81606b8d337ab338e4","","null","","","learningBlock2","","","","That was a wug.","null","","","","","",""
"html-keyboard-response","333","464679","0.0-7.0-2.28","FL","nsqbzarmrc","1920","1080","0","1","0","601e9d81606b8d337ab338e4","","null","","","learningBlock2","","","","<div style=""font-size:60px;""> </div>","null","FL","learning/Slide109.JPG","That was a wug.","","",""
"image-keyboard-response","334","464856","0.0-7.0-0.29","FL","nsqbzarmrc","1920","1080","0","1","0","601e9d81606b8d337ab338e4","","null","","","","","","","learning/Slide110.JPG","null","","","","","",""
"html-keyboard-response","335","466008","0.0-7.0-1.29","FL","nsqbzarmrc","1920","1080","0","1","0","601e9d81606b8d337ab338e4","","null","","","learningBlock2","","","","That was a bim.","null","","","","","",""
"html-keyboard-response","336","467009","0.0-7.0-2.29","FL","nsqbzarmrc","1920","1080","0","1","0","601e9d81606b8d337ab338e4","","null","","","learningBlock2","","","","<div style=""font-size:60px;""> </div>","null","FL","learning/Slide110.JPG","That was a bim.","","",""
"image-keyboard-response","337","467186","0.0-7.0-0.30","FL","nsqbzarmrc","1920","1080","0","1","0","601e9d81606b8d337ab338e4","","null","","","","","","","learning/Slide111.JPG","null","","","","","",""
"html-keyboard-response","338","468338","0.0-7.0-1.30","FL","nsqbzarmrc","1920","1080","0","1","0","601e9d81606b8d337ab338e4","","null","","","learningBlock2","","","","That was a tob.","null","","","","","",""
"html-keyboard-response","339","469339","0.0-7.0-2.30","FL","nsqbzarmrc","1920","1080","0","1","0","601e9d81606b8d337ab338e4","","null","","","learningBlock2","","","","<div style=""font-size:60px;""> </div>","null","FL","learning/Slide111.JPG","That was a tob.","","",""
"image-keyboard-response","340","469516","0.0-7.0-0.31","FL","nsqbzarmrc","1920","1080","0","1","0","601e9d81606b8d337ab338e4","","null","","","","","","","learning/Slide112.JPG","null","","","","","",""
"html-keyboard-response","341","470669","0.0-7.0-1.31","FL","nsqbzarmrc","1920","1080","0","1","0","601e9d81606b8d337ab338e4","","null","","","learningBlock2","","","","That was a wug.","null","","","","","",""
"html-keyboard-response","342","471670","0.0-7.0-2.31","FL","nsqbzarmrc","1920","1080","0","1","0","601e9d81606b8d337ab338e4","","null","","","learningBlock2","","","","<div style=""font-size:60px;""> </div>","null","FL","learning/Slide112.JPG","That was a wug.","","",""
"image-keyboard-response","343","471846","0.0-7.0-0.32","FL","nsqbzarmrc","1920","1080","0","1","0","601e9d81606b8d337ab338e4","","null","","","","","","","learning/Slide113.JPG","null","","","","","",""
"html-keyboard-response","344","472998","0.0-7.0-1.32","FL","nsqbzarmrc","1920","1080","0","1","0","601e9d81606b8d337ab338e4","","null","","","learningBlock2","","","","That was a tob.","null","","","","","",""
"html-keyboard-response","345","474000","0.0-7.0-2.32","FL","nsqbzarmrc","1920","1080","0","1","0","601e9d81606b8d337ab338e4","","null","","","learningBlock2","","","","<div style=""font-size:60px;""> </div>","null","FL","learning/Slide113.JPG","That was a tob.","","",""
"image-keyboard-response","346","474176","0.0-7.0-0.33","FL","nsqbzarmrc","1920","1080","0","1","0","601e9d81606b8d337ab338e4","","null","","","","","","","learning/Slide114.JPG","null","","","","","",""
"html-keyboard-response","347","475328","0.0-7.0-1.33","FL","nsqbzarmrc","1920","1080","0","1","0","601e9d81606b8d337ab338e4","","null","","","learningBlock2","","","","That was a wug.","null","","","","","",""
"html-keyboard-response","348","476330","0.0-7.0-2.33","FL","nsqbzarmrc","1920","1080","0","1","0","601e9d81606b8d337ab338e4","","null","","","learningBlock2","","","","<div style=""font-size:60px;""> </div>","null","FL","learning/Slide114.JPG","That was a wug.","","",""
"image-keyboard-response","349","476507","0.0-7.0-0.34","FL","nsqbzarmrc","1920","1080","0","1","0","601e9d81606b8d337ab338e4","","null","","","","","","","learning/Slide115.JPG","null","","","","","",""
"html-keyboard-response","350","477660","0.0-7.0-1.34","FL","nsqbzarmrc","1920","1080","0","1","0","601e9d81606b8d337ab338e4","","null","","","learningBlock2","","","","That was a bim.","null","","","","","",""
"html-keyboard-response","351","478662","0.0-7.0-2.34","FL","nsqbzarmrc","1920","1080","0","1","0","601e9d81606b8d337ab338e4","","null","","","learningBlock2","","","","<div style=""font-size:60px;""> </div>","null","FL","learning/Slide115.JPG","That was a bim.","","",""
"image-keyboard-response","352","478838","0.0-7.0-0.35","FL","nsqbzarmrc","1920","1080","0","1","0","601e9d81606b8d337ab338e4","","null","","","","","","","learning/Slide116.JPG","null","","","","","",""
"html-keyboard-response","353","479990","0.0-7.0-1.35","FL","nsqbzarmrc","1920","1080","0","1","0","601e9d81606b8d337ab338e4","","null","","","learningBlock2","","","","That was a dep.","null","","","","","",""
"html-keyboard-response","354","480990","0.0-7.0-2.35","FL","nsqbzarmrc","1920","1080","0","1","0","601e9d81606b8d337ab338e4","","null","","","learningBlock2","","","","<div style=""font-size:60px;""> </div>","null","FL","learning/Slide116.JPG","That was a dep.","","",""
"image-keyboard-response","355","481168","0.0-7.0-0.36","FL","nsqbzarmrc","1920","1080","0","1","0","601e9d81606b8d337ab338e4","","null","","","","","","","learning/Slide117.JPG","null","","","","","",""
"html-keyboard-response","356","482320","0.0-7.0-1.36","FL","nsqbzarmrc","1920","1080","0","1","0","601e9d81606b8d337ab338e4","","null","","","learningBlock2","","","","That was a tob.","null","","","","","",""
"html-keyboard-response","357","483322","0.0-7.0-2.36","FL","nsqbzarmrc","1920","1080","0","1","0","601e9d81606b8d337ab338e4","","null","","","learningBlock2","","","","<div style=""font-size:60px;""> </div>","null","FL","learning/Slide117.JPG","That was a tob.","","",""
"image-keyboard-response","358","483499","0.0-7.0-0.37","FL","nsqbzarmrc","1920","1080","0","1","0","601e9d81606b8d337ab338e4","","null","","","","","","","learning/Slide118.JPG","null","","","","","",""
"html-keyboard-response","359","484651","0.0-7.0-1.37","FL","nsqbzarmrc","1920","1080","0","1","0","601e9d81606b8d337ab338e4","","null","","","learningBlock2","","","","That was a dep.","null","","","","","",""
"html-keyboard-response","360","485652","0.0-7.0-2.37","FL","nsqbzarmrc","1920","1080","0","1","0","601e9d81606b8d337ab338e4","","null","","","learningBlock2","","","","<div style=""font-size:60px;""> </div>","null","FL","learning/Slide118.JPG","That was a dep.","","",""
"image-keyboard-response","361","485828","0.0-7.0-0.38","FL","nsqbzarmrc","1920","1080","0","1","0","601e9d81606b8d337ab338e4","","null","","","","","","","learning/Slide119.JPG","null","","","","","",""
"html-keyboard-response","362","486980","0.0-7.0-1.38","FL","nsqbzarmrc","1920","1080","0","1","0","601e9d81606b8d337ab338e4","","null","","","learningBlock2","","","","That was a wug.","null","","","","","",""
"html-keyboard-response","363","487981","0.0-7.0-2.38","FL","nsqbzarmrc","1920","1080","0","1","0","601e9d81606b8d337ab338e4","","null","","","learningBlock2","","","","<div style=""font-size:60px;""> </div>","null","FL","learning/Slide119.JPG","That was a wug.","","",""
"image-keyboard-response","364","488157","0.0-7.0-0.39","FL","nsqbzarmrc","1920","1080","0","1","0","601e9d81606b8d337ab338e4","","null","","","","","","","learning/Slide120.JPG","null","","","","","",""
"html-keyboard-response","365","489309","0.0-7.0-1.39","FL","nsqbzarmrc","1920","1080","0","1","0","601e9d81606b8d337ab338e4","","null","","","learningBlock2","","","","That was a dep.","null","","","","","",""
"html-keyboard-response","366","490311","0.0-7.0-2.39","FL","nsqbzarmrc","1920","1080","0","1","0","601e9d81606b8d337ab338e4","","null","","","learningBlock2","","","","<div style=""font-size:60px;""> </div>","null","FL","learning/Slide120.JPG","That was a dep.","","",""
"image-keyboard-response","367","490487","0.0-7.0-0.40","FL","nsqbzarmrc","1920","1080","0","1","0","601e9d81606b8d337ab338e4","","null","","","","","","","learning/Slide121.JPG","null","","","","","",""
"html-keyboard-response","368","491639","0.0-7.0-1.40","FL","nsqbzarmrc","1920","1080","0","1","0","601e9d81606b8d337ab338e4","","null","","","learningBlock2","","","","That was a bim.","null","","","","","",""
"html-keyboard-response","369","492640","0.0-7.0-2.40","FL","nsqbzarmrc","1920","1080","0","1","0","601e9d81606b8d337ab338e4","","null","","","learningBlock2","","","","<div style=""font-size:60px;""> </div>","null","FL","learning/Slide121.JPG","That was a bim.","","",""
"image-keyboard-response","370","492816","0.0-7.0-0.41","FL","nsqbzarmrc","1920","1080","0","1","0","601e9d81606b8d337ab338e4","","null","","","","","","","learning/Slide122.JPG","null","","","","","",""
"html-keyboard-response","371","493968","0.0-7.0-1.41","FL","nsqbzarmrc","1920","1080","0","1","0","601e9d81606b8d337ab338e4","","null","","","learningBlock2","","","","That was a wug.","null","","","","","",""
"html-keyboard-response","372","494970","0.0-7.0-2.41","FL","nsqbzarmrc","1920","1080","0","1","0","601e9d81606b8d337ab338e4","","null","","","learningBlock2","","","","<div style=""font-size:60px;""> </div>","null","FL","learning/Slide122.JPG","That was a wug.","","",""
"image-keyboard-response","373","495147","0.0-7.0-0.42","FL","nsqbzarmrc","1920","1080","0","1","0","601e9d81606b8d337ab338e4","","null","","","","","","","learning/Slide123.JPG","null","","","","","",""
"html-keyboard-response","374","496300","0.0-7.0-1.42","FL","nsqbzarmrc","1920","1080","0","1","0","601e9d81606b8d337ab338e4","","null","","","learningBlock2","","","","That was a bim.","null","","","","","",""
"html-keyboard-response","375","497301","0.0-7.0-2.42","FL","nsqbzarmrc","1920","1080","0","1","0","601e9d81606b8d337ab338e4","","null","","","learningBlock2","","","","<div style=""font-size:60px;""> </div>","null","FL","learning/Slide123.JPG","That was a bim.","","",""
"image-keyboard-response","376","497478","0.0-7.0-0.43","FL","nsqbzarmrc","1920","1080","0","1","0","601e9d81606b8d337ab338e4","","null","","","","","","","learning/Slide124.JPG","null","","","","","",""
"html-keyboard-response","377","498629","0.0-7.0-1.43","FL","nsqbzarmrc","1920","1080","0","1","0","601e9d81606b8d337ab338e4","","null","","","learningBlock2","","","","That was a tob.","null","","","","","",""
"html-keyboard-response","378","499630","0.0-7.0-2.43","FL","nsqbzarmrc","1920","1080","0","1","0","601e9d81606b8d337ab338e4","","null","","","learningBlock2","","","","<div style=""font-size:60px;""> </div>","null","FL","learning/Slide124.JPG","That was a tob.","","",""
"image-keyboard-response","379","499806","0.0-7.0-0.44","FL","nsqbzarmrc","1920","1080","0","1","0","601e9d81606b8d337ab338e4","","null","","","","","","","learning/Slide125.JPG","null","","","","","",""
"html-keyboard-response","380","500959","0.0-7.0-1.44","FL","nsqbzarmrc","1920","1080","0","1","0","601e9d81606b8d337ab338e4","","null","","","learningBlock2","","","","That was a bim.","null","","","","","",""
"html-keyboard-response","381","501960","0.0-7.0-2.44","FL","nsqbzarmrc","1920","1080","0","1","0","601e9d81606b8d337ab338e4","","null","","","learningBlock2","","","","<div style=""font-size:60px;""> </div>","null","FL","learning/Slide125.JPG","That was a bim.","","",""
"image-keyboard-response","382","502137","0.0-7.0-0.45","FL","nsqbzarmrc","1920","1080","0","1","0","601e9d81606b8d337ab338e4","","null","","","","","","","learning/Slide126.JPG","null","","","","","",""
"html-keyboard-response","383","503292","0.0-7.0-1.45","FL","nsqbzarmrc","1920","1080","0","1","0","601e9d81606b8d337ab338e4","","null","","","learningBlock2","","","","That was a tob.","null","","","","","",""
"html-keyboard-response","384","504293","0.0-7.0-2.45","FL","nsqbzarmrc","1920","1080","0","1","0","601e9d81606b8d337ab338e4","","null","","","learningBlock2","","","","<div style=""font-size:60px;""> </div>","null","FL","learning/Slide126.JPG","That was a tob.","","",""
"image-keyboard-response","385","504470","0.0-7.0-0.46","FL","nsqbzarmrc","1920","1080","0","1","0","601e9d81606b8d337ab338e4","","null","","","","","","","learning/Slide127.JPG","null","","","","","",""
"html-keyboard-response","386","505621","0.0-7.0-1.46","FL","nsqbzarmrc","1920","1080","0","1","0","601e9d81606b8d337ab338e4","","null","","","learningBlock2","","","","That was a dep.","null","","","","","",""
"html-keyboard-response","387","506622","0.0-7.0-2.46","FL","nsqbzarmrc","1920","1080","0","1","0","601e9d81606b8d337ab338e4","","null","","","learningBlock2","","","","<div style=""font-size:60px;""> </div>","null","FL","learning/Slide127.JPG","That was a dep.","","",""
"image-keyboard-response","388","506799","0.0-7.0-0.47","FL","nsqbzarmrc","1920","1080","0","1","0","601e9d81606b8d337ab338e4","","null","","","","","","","learning/Slide128.JPG","null","","","","","",""
"html-keyboard-response","389","507965","0.0-7.0-1.47","FL","nsqbzarmrc","1920","1080","0","1","0","601e9d81606b8d337ab338e4","","null","","","learningBlock2","","","","That was a wug.","null","","","","","",""
"html-keyboard-response","390","508966","0.0-7.0-2.47","FL","nsqbzarmrc","1920","1080","0","1","0","601e9d81606b8d337ab338e4","","null","","","learningBlock2","","","","<div style=""font-size:60px;""> </div>","null","FL","learning/Slide128.JPG","That was a wug.","","",""
"image-keyboard-response","391","509143","0.0-7.0-0.48","FL","nsqbzarmrc","1920","1080","0","1","0","601e9d81606b8d337ab338e4","","null","","","","","","","learning/Slide129.JPG","null","","","","","",""
"html-keyboard-response","392","510294","0.0-7.0-1.48","FL","nsqbzarmrc","1920","1080","0","1","0","601e9d81606b8d337ab338e4","","null","","","learningBlock2","","","","That was a tob.","null","","","","","",""
"html-keyboard-response","393","511296","0.0-7.0-2.48","FL","nsqbzarmrc","1920","1080","0","1","0","601e9d81606b8d337ab338e4","","null","","","learningBlock2","","","","<div style=""font-size:60px;""> </div>","null","FL","learning/Slide129.JPG","That was a tob.","","",""
"image-keyboard-response","394","511473","0.0-7.0-0.49","FL","nsqbzarmrc","1920","1080","0","1","0","601e9d81606b8d337ab338e4","","null","","","","","","","learning/Slide130.JPG","null","","","","","",""
"html-keyboard-response","395","512624","0.0-7.0-1.49","FL","nsqbzarmrc","1920","1080","0","1","0","601e9d81606b8d337ab338e4","","null","","","learningBlock2","","","","That was a wug.","null","","","","","",""
"html-keyboard-response","396","513626","0.0-7.0-2.49","FL","nsqbzarmrc","1920","1080","0","1","0","601e9d81606b8d337ab338e4","","null","","","learningBlock2","","","","<div style=""font-size:60px;""> </div>","null","FL","learning/Slide130.JPG","That was a wug.","","",""
"image-keyboard-response","397","513803","0.0-7.0-0.50","FL","nsqbzarmrc","1920","1080","0","1","0","601e9d81606b8d337ab338e4","","null","","","","","","","learning/Slide131.JPG","null","","","","","",""
"html-keyboard-response","398","514955","0.0-7.0-1.50","FL","nsqbzarmrc","1920","1080","0","1","0","601e9d81606b8d337ab338e4","","null","","","learningBlock2","","","","That was a bim.","null","","","","","",""
"html-keyboard-response","399","515955","0.0-7.0-2.50","FL","nsqbzarmrc","1920","1080","0","1","0","601e9d81606b8d337ab338e4","","null","","","learningBlock2","","","","<div style=""font-size:60px;""> </div>","null","FL","learning/Slide131.JPG","That was a bim.","","",""
"image-keyboard-response","400","516131","0.0-7.0-0.51","FL","nsqbzarmrc","1920","1080","0","1","0","601e9d81606b8d337ab338e4","","null","","","","","","","learning/Slide132.JPG","null","","","","","",""
"html-keyboard-response","401","517282","0.0-7.0-1.51","FL","nsqbzarmrc","1920","1080","0","1","0","601e9d81606b8d337ab338e4","","null","","","learningBlock2","","","","That was a dep.","null","","","","","",""
"html-keyboard-response","402","518283","0.0-7.0-2.51","FL","nsqbzarmrc","1920","1080","0","1","0","601e9d81606b8d337ab338e4","","null","","","learningBlock2","","","","<div style=""font-size:60px;""> </div>","null","FL","learning/Slide132.JPG","That was a dep.","","",""
"image-keyboard-response","403","518460","0.0-7.0-0.52","FL","nsqbzarmrc","1920","1080","0","1","0","601e9d81606b8d337ab338e4","","null","","","","","","","learning/Slide133.JPG","null","","","","","",""
"html-keyboard-response","404","519621","0.0-7.0-1.52","FL","nsqbzarmrc","1920","1080","0","1","0","601e9d81606b8d337ab338e4","","null","","","learningBlock2","","","","That was a tob.","null","","","","","",""
"html-keyboard-response","405","520622","0.0-7.0-2.52","FL","nsqbzarmrc","1920","1080","0","1","0","601e9d81606b8d337ab338e4","","null","","","learningBlock2","","","","<div style=""font-size:60px;""> </div>","null","FL","learning/Slide133.JPG","That was a tob.","","",""
"image-keyboard-response","406","520798","0.0-7.0-0.53","FL","nsqbzarmrc","1920","1080","0","1","0","601e9d81606b8d337ab338e4","","null","","","","","","","learning/Slide134.JPG","null","","","","","",""
"html-keyboard-response","407","521952","0.0-7.0-1.53","FL","nsqbzarmrc","1920","1080","0","1","0","601e9d81606b8d337ab338e4","","null","","","learningBlock2","","","","That was a dep.","null","","","","","",""
"html-keyboard-response","408","522953","0.0-7.0-2.53","FL","nsqbzarmrc","1920","1080","0","1","0","601e9d81606b8d337ab338e4","","null","","","learningBlock2","","","","<div style=""font-size:60px;""> </div>","null","FL","learning/Slide134.JPG","That was a dep.","","",""
"image-keyboard-response","409","523129","0.0-7.0-0.54","FL","nsqbzarmrc","1920","1080","0","1","0","601e9d81606b8d337ab338e4","","null","","","","","","","learning/Slide135.JPG","null","","","","","",""
"html-keyboard-response","410","524282","0.0-7.0-1.54","FL","nsqbzarmrc","1920","1080","0","1","0","601e9d81606b8d337ab338e4","","null","","","learningBlock2","","","","That was a tob.","null","","","","","",""
"html-keyboard-response","411","525283","0.0-7.0-2.54","FL","nsqbzarmrc","1920","1080","0","1","0","601e9d81606b8d337ab338e4","","null","","","learningBlock2","","","","<div style=""font-size:60px;""> </div>","null","FL","learning/Slide135.JPG","That was a tob.","","",""
"image-keyboard-response","412","525460","0.0-7.0-0.55","FL","nsqbzarmrc","1920","1080","0","1","0","601e9d81606b8d337ab338e4","","null","","","","","","","learning/Slide136.JPG","null","","","","","",""
"html-keyboard-response","413","526613","0.0-7.0-1.55","FL","nsqbzarmrc","1920","1080","0","1","0","601e9d81606b8d337ab338e4","","null","","","learningBlock2","","","","That was a wug.","null","","","","","",""
"html-keyboard-response","414","527614","0.0-7.0-2.55","FL","nsqbzarmrc","1920","1080","0","1","0","601e9d81606b8d337ab338e4","","null","","","learningBlock2","","","","<div style=""font-size:60px;""> </div>","null","FL","learning/Slide136.JPG","That was a wug.","","",""
"image-keyboard-response","415","527790","0.0-7.0-0.56","FL","nsqbzarmrc","1920","1080","0","1","0","601e9d81606b8d337ab338e4","","null","","","","","","","learning/Slide137.JPG","null","","","","","",""
"html-keyboard-response","416","528942","0.0-7.0-1.56","FL","nsqbzarmrc","1920","1080","0","1","0","601e9d81606b8d337ab338e4","","null","","","learningBlock2","","","","That was a tob.","null","","","","","",""
"html-keyboard-response","417","529943","0.0-7.0-2.56","FL","nsqbzarmrc","1920","1080","0","1","0","601e9d81606b8d337ab338e4","","null","","","learningBlock2","","","","<div style=""font-size:60px;""> </div>","null","FL","learning/Slide137.JPG","That was a tob.","","",""
"image-keyboard-response","418","530119","0.0-7.0-0.57","FL","nsqbzarmrc","1920","1080","0","1","0","601e9d81606b8d337ab338e4","","null","","","","","","","learning/Slide138.JPG","null","","","","","",""
"html-keyboard-response","419","531271","0.0-7.0-1.57","FL","nsqbzarmrc","1920","1080","0","1","0","601e9d81606b8d337ab338e4","","null","","","learningBlock2","","","","That was a bim.","null","","","","","",""
"html-keyboard-response","420","532272","0.0-7.0-2.57","FL","nsqbzarmrc","1920","1080","0","1","0","601e9d81606b8d337ab338e4","","null","","","learningBlock2","","","","<div style=""font-size:60px;""> </div>","null","FL","learning/Slide138.JPG","That was a bim.","","",""
"image-keyboard-response","421","532448","0.0-7.0-0.58","FL","nsqbzarmrc","1920","1080","0","1","0","601e9d81606b8d337ab338e4","","null","","","","","","","learning/Slide139.JPG","null","","","","","",""
"html-keyboard-response","422","533601","0.0-7.0-1.58","FL","nsqbzarmrc","1920","1080","0","1","0","601e9d81606b8d337ab338e4","","null","","","learningBlock2","","","","That was a wug.","null","","","","","",""
"html-keyboard-response","423","534602","0.0-7.0-2.58","FL","nsqbzarmrc","1920","1080","0","1","0","601e9d81606b8d337ab338e4","","null","","","learningBlock2","","","","<div style=""font-size:60px;""> </div>","null","FL","learning/Slide139.JPG","That was a wug.","","",""
"image-keyboard-response","424","534778","0.0-7.0-0.59","FL","nsqbzarmrc","1920","1080","0","1","0","601e9d81606b8d337ab338e4","","null","","","","","","","learning/Slide140.JPG","null","","","","","",""
"html-keyboard-response","425","535945","0.0-7.0-1.59","FL","nsqbzarmrc","1920","1080","0","1","0","601e9d81606b8d337ab338e4","","null","","","learningBlock2","","","","That was a dep.","null","","","","","",""
"html-keyboard-response","426","536946","0.0-7.0-2.59","FL","nsqbzarmrc","1920","1080","0","1","0","601e9d81606b8d337ab338e4","","null","","","learningBlock2","","","","<div style=""font-size:60px;""> </div>","null","FL","learning/Slide140.JPG","That was a dep.","","",""
"image-keyboard-response","427","537122","0.0-7.0-0.60","FL","nsqbzarmrc","1920","1080","0","1","0","601e9d81606b8d337ab338e4","","null","","","","","","","learning/Slide141.JPG","null","","","","","",""
"html-keyboard-response","428","538275","0.0-7.0-1.60","FL","nsqbzarmrc","1920","1080","0","1","0","601e9d81606b8d337ab338e4","","null","","","learningBlock2","","","","That was a tob.","null","","","","","",""
"html-keyboard-response","429","539277","0.0-7.0-2.60","FL","nsqbzarmrc","1920","1080","0","1","0","601e9d81606b8d337ab338e4","","null","","","learningBlock2","","","","<div style=""font-size:60px;""> </div>","null","FL","learning/Slide141.JPG","That was a tob.","","",""
"image-keyboard-response","430","539453","0.0-7.0-0.61","FL","nsqbzarmrc","1920","1080","0","1","0","601e9d81606b8d337ab338e4","","null","","","","","","","learning/Slide142.JPG","null","","","","","",""
"html-keyboard-response","431","540604","0.0-7.0-1.61","FL","nsqbzarmrc","1920","1080","0","1","0","601e9d81606b8d337ab338e4","","null","","","learningBlock2","","","","That was a wug.","null","","","","","",""
"html-keyboard-response","432","541606","0.0-7.0-2.61","FL","nsqbzarmrc","1920","1080","0","1","0","601e9d81606b8d337ab338e4","","null","","","learningBlock2","","","","<div style=""font-size:60px;""> </div>","null","FL","learning/Slide142.JPG","That was a wug.","","",""
"image-keyboard-response","433","541782","0.0-7.0-0.62","FL","nsqbzarmrc","1920","1080","0","1","0","601e9d81606b8d337ab338e4","","null","","","","","","","learning/Slide143.JPG","null","","","","","",""
"html-keyboard-response","434","542934","0.0-7.0-1.62","FL","nsqbzarmrc","1920","1080","0","1","0","601e9d81606b8d337ab338e4","","null","","","learningBlock2","","","","That was a bim.","null","","","","","",""
