"trial_type","trial_index","time_elapsed","internal_node_id","condition","subject","screen_width","screen_height","attention","distraction","conscientious","prolificID","success","rt","url","view_history","test_part","final_height_px","final_width_px","scale_factor","stimulus","key_press","learningType","presentedImage","presentedLabel","button_pressed","response","responses"
"pavlovia","0","43","0.0-0.0","FL","ol68ft1h8h","2732","1536","0","1","0","5e5e17c97593e912e086c640","","","","","","","","","","","","","","","",""
"fullscreen","1","63610","0.0-1.0","FL","ol68ft1h8h","2732","1536","0","1","0","5e5e17c97593e912e086c640","true","","","","","","","","","","","","","","",""
"external-html","2","91866","0.0-2.0-0.0","FL","ol68ft1h8h","2732","1536","0","1","0","5e5e17c97593e912e086c640","","28166","text/information_english.html","","","","","","","","","","","","",""
"external-html","3","98649","0.0-2.0-1.0","FL","ol68ft1h8h","2732","1536","0","1","0","5e5e17c97593e912e086c640","","6711","text/consent_english.html","","","","","","","","","","","","",""
"instructions","4","115139","0.0-3.0","FL","ol68ft1h8h","2732","1536","0","1","0","5e5e17c97593e912e086c640","","NA","","[{""page_index"":0,""viewing_time"":3375},{""page_index"":1,""viewing_time"":13111}]","instructions","","","","","","","","","","",""
"resize","5","142602","0.0-4.0","FL","ol68ft1h8h","2732","1536","0","1","0","5e5e17c97593e912e086c640","","","","","","","576","3.6571428571428575","","","","","","","",""
"image-keyboard-response","6","142792","0.0-5.0-0.0","FL","ol68ft1h8h","2732","1536","0","1","0","5e5e17c97593e912e086c640","","null","","","","","","","learning/Slide1.JPG","null","","","","","",""
"html-keyboard-response","7","143964","0.0-5.0-1.0","FL","ol68ft1h8h","2732","1536","0","1","0","5e5e17c97593e912e086c640","","null","","","learningBlock1","","","","That was a tob.","null","","","","","",""
"html-keyboard-response","8","144973","0.0-5.0-2.0","FL","ol68ft1h8h","2732","1536","0","1","0","5e5e17c97593e912e086c640","","null","","","learningBlock1","","","","<div style=""font-size:60px;""> </div>","null","FL","learning/Slide1.JPG","That was a tob.","","",""
"image-keyboard-response","9","145157","0.0-5.0-0.1","FL","ol68ft1h8h","2732","1536","0","1","0","5e5e17c97593e912e086c640","","null","","","","","","","learning/Slide2.JPG","null","","","","","",""
"html-keyboard-response","10","146320","0.0-5.0-1.1","FL","ol68ft1h8h","2732","1536","0","1","0","5e5e17c97593e912e086c640","","null","","","learningBlock1","","","","That was a wug.","null","","","","","",""
"html-keyboard-response","11","147325","0.0-5.0-2.1","FL","ol68ft1h8h","2732","1536","0","1","0","5e5e17c97593e912e086c640","","null","","","learningBlock1","","","","<div style=""font-size:60px;""> </div>","null","FL","learning/Slide2.JPG","That was a wug.","","",""
"image-keyboard-response","12","147514","0.0-5.0-0.2","FL","ol68ft1h8h","2732","1536","0","1","0","5e5e17c97593e912e086c640","","null","","","","","","","learning/Slide3.JPG","null","","","","","",""
"html-keyboard-response","13","148680","0.0-5.0-1.2","FL","ol68ft1h8h","2732","1536","0","1","0","5e5e17c97593e912e086c640","","null","","","learningBlock1","","","","That was a bim.","null","","","","","",""
"html-keyboard-response","14","149688","0.0-5.0-2.2","FL","ol68ft1h8h","2732","1536","0","1","0","5e5e17c97593e912e086c640","","null","","","learningBlock1","","","","<div style=""font-size:60px;""> </div>","null","FL","learning/Slide3.JPG","That was a bim.","","",""
"image-keyboard-response","15","149877","0.0-5.0-0.3","FL","ol68ft1h8h","2732","1536","0","1","0","5e5e17c97593e912e086c640","","null","","","","","","","learning/Slide4.JPG","null","","","","","",""
"html-keyboard-response","16","151046","0.0-5.0-1.3","FL","ol68ft1h8h","2732","1536","0","1","0","5e5e17c97593e912e086c640","","null","","","learningBlock1","","","","That was a dep.","null","","","","","",""
"html-keyboard-response","17","152057","0.0-5.0-2.3","FL","ol68ft1h8h","2732","1536","0","1","0","5e5e17c97593e912e086c640","","null","","","learningBlock1","","","","<div style=""font-size:60px;""> </div>","null","FL","learning/Slide4.JPG","That was a dep.","","",""
"image-keyboard-response","18","152245","0.0-5.0-0.4","FL","ol68ft1h8h","2732","1536","0","1","0","5e5e17c97593e912e086c640","","null","","","","","","","learning/Slide5.JPG","null","","","","","",""
"html-keyboard-response","19","153413","0.0-5.0-1.4","FL","ol68ft1h8h","2732","1536","0","1","0","5e5e17c97593e912e086c640","","null","","","learningBlock1","","","","That was a wug.","null","","","","","",""
"html-keyboard-response","20","154422","0.0-5.0-2.4","FL","ol68ft1h8h","2732","1536","0","1","0","5e5e17c97593e912e086c640","","null","","","learningBlock1","","","","<div style=""font-size:60px;""> </div>","null","FL","learning/Slide5.JPG","That was a wug.","","",""
"image-keyboard-response","21","154606","0.0-5.0-0.5","FL","ol68ft1h8h","2732","1536","0","1","0","5e5e17c97593e912e086c640","","null","","","","","","","learning/Slide6.JPG","null","","","","","",""
"html-keyboard-response","22","155776","0.0-5.0-1.5","FL","ol68ft1h8h","2732","1536","0","1","0","5e5e17c97593e912e086c640","","null","","","learningBlock1","","","","That was a dep.","null","","","","","",""
"html-keyboard-response","23","156784","0.0-5.0-2.5","FL","ol68ft1h8h","2732","1536","0","1","0","5e5e17c97593e912e086c640","","null","","","learningBlock1","","","","<div style=""font-size:60px;""> </div>","null","FL","learning/Slide6.JPG","That was a dep.","","",""
"image-keyboard-response","24","156970","0.0-5.0-0.6","FL","ol68ft1h8h","2732","1536","0","1","0","5e5e17c97593e912e086c640","","null","","","","","","","learning/Slide7.JPG","null","","","","","",""
"html-keyboard-response","25","158128","0.0-5.0-1.6","FL","ol68ft1h8h","2732","1536","0","1","0","5e5e17c97593e912e086c640","","null","","","learningBlock1","","","","That was a wug.","null","","","","","",""
"html-keyboard-response","26","159138","0.0-5.0-2.6","FL","ol68ft1h8h","2732","1536","0","1","0","5e5e17c97593e912e086c640","","null","","","learningBlock1","","","","<div style=""font-size:60px;""> </div>","null","FL","learning/Slide7.JPG","That was a wug.","","",""
"image-keyboard-response","27","159326","0.0-5.0-0.7","FL","ol68ft1h8h","2732","1536","0","1","0","5e5e17c97593e912e086c640","","null","","","","","","","learning/Slide8.JPG","null","","","","","",""
"html-keyboard-response","28","160495","0.0-5.0-1.7","FL","ol68ft1h8h","2732","1536","0","1","0","5e5e17c97593e912e086c640","","null","","","learningBlock1","","","","That was a bim.","null","","","","","",""
"html-keyboard-response","29","161505","0.0-5.0-2.7","FL","ol68ft1h8h","2732","1536","0","1","0","5e5e17c97593e912e086c640","","null","","","learningBlock1","","","","<div style=""font-size:60px;""> </div>","null","FL","learning/Slide8.JPG","That was a bim.","","",""
"image-keyboard-response","30","161695","0.0-5.0-0.8","FL","ol68ft1h8h","2732","1536","0","1","0","5e5e17c97593e912e086c640","","null","","","","","","","learning/Slide9.JPG","null","","","","","",""
"html-keyboard-response","31","162860","0.0-5.0-1.8","FL","ol68ft1h8h","2732","1536","0","1","0","5e5e17c97593e912e086c640","","null","","","learningBlock1","","","","That was a wug.","null","","","","","",""
"html-keyboard-response","32","163870","0.0-5.0-2.8","FL","ol68ft1h8h","2732","1536","0","1","0","5e5e17c97593e912e086c640","","null","","","learningBlock1","","","","<div style=""font-size:60px;""> </div>","null","FL","learning/Slide9.JPG","That was a wug.","","",""
"image-keyboard-response","33","164057","0.0-5.0-0.9","FL","ol68ft1h8h","2732","1536","0","1","0","5e5e17c97593e912e086c640","","null","","","","","","","learning/Slide10.JPG","null","","","","","",""
"html-keyboard-response","34","165219","0.0-5.0-1.9","FL","ol68ft1h8h","2732","1536","0","1","0","5e5e17c97593e912e086c640","","null","","","learningBlock1","","","","That was a dep.","null","","","","","",""
"html-keyboard-response","35","166226","0.0-5.0-2.9","FL","ol68ft1h8h","2732","1536","0","1","0","5e5e17c97593e912e086c640","","null","","","learningBlock1","","","","<div style=""font-size:60px;""> </div>","null","FL","learning/Slide10.JPG","That was a dep.","","",""
"image-keyboard-response","36","166402","0.0-5.0-0.10","FL","ol68ft1h8h","2732","1536","0","1","0","5e5e17c97593e912e086c640","","null","","","","","","","learning/Slide11.JPG","null","","","","","",""
"html-keyboard-response","37","167573","0.0-5.0-1.10","FL","ol68ft1h8h","2732","1536","0","1","0","5e5e17c97593e912e086c640","","null","","","learningBlock1","","","","That was a tob.","null","","","","","",""
"html-keyboard-response","38","168584","0.0-5.0-2.10","FL","ol68ft1h8h","2732","1536","0","1","0","5e5e17c97593e912e086c640","","null","","","learningBlock1","","","","<div style=""font-size:60px;""> </div>","null","FL","learning/Slide11.JPG","That was a tob.","","",""
"image-keyboard-response","39","168770","0.0-5.0-0.11","FL","ol68ft1h8h","2732","1536","0","1","0","5e5e17c97593e912e086c640","","null","","","","","","","learning/Slide12.JPG","null","","","","","",""
"html-keyboard-response","40","169934","0.0-5.0-1.11","FL","ol68ft1h8h","2732","1536","0","1","0","5e5e17c97593e912e086c640","","null","","","learningBlock1","","","","That was a dep.","null","","","","","",""
"html-keyboard-response","41","170949","0.0-5.0-2.11","FL","ol68ft1h8h","2732","1536","0","1","0","5e5e17c97593e912e086c640","","null","","","learningBlock1","","","","<div style=""font-size:60px;""> </div>","null","FL","learning/Slide12.JPG","That was a dep.","","",""
"image-keyboard-response","42","171136","0.0-5.0-0.12","FL","ol68ft1h8h","2732","1536","0","1","0","5e5e17c97593e912e086c640","","null","","","","","","","learning/Slide13.JPG","null","","","","","",""
"html-keyboard-response","43","172293","0.0-5.0-1.12","FL","ol68ft1h8h","2732","1536","0","1","0","5e5e17c97593e912e086c640","","null","","","learningBlock1","","","","That was a bim.","null","","","","","",""
"html-keyboard-response","44","173299","0.0-5.0-2.12","FL","ol68ft1h8h","2732","1536","0","1","0","5e5e17c97593e912e086c640","","null","","","learningBlock1","","","","<div style=""font-size:60px;""> </div>","null","FL","learning/Slide13.JPG","That was a bim.","","",""
"image-keyboard-response","45","173489","0.0-5.0-0.13","FL","ol68ft1h8h","2732","1536","0","1","0","5e5e17c97593e912e086c640","","null","","","","","","","learning/Slide14.JPG","null","","","","","",""
"html-keyboard-response","46","174656","0.0-5.0-1.13","FL","ol68ft1h8h","2732","1536","0","1","0","5e5e17c97593e912e086c640","","null","","","learningBlock1","","","","That was a wug.","null","","","","","",""
"html-keyboard-response","47","175662","0.0-5.0-2.13","FL","ol68ft1h8h","2732","1536","0","1","0","5e5e17c97593e912e086c640","","null","","","learningBlock1","","","","<div style=""font-size:60px;""> </div>","null","FL","learning/Slide14.JPG","That was a wug.","","",""
"image-keyboard-response","48","175849","0.0-5.0-0.14","FL","ol68ft1h8h","2732","1536","0","1","0","5e5e17c97593e912e086c640","","null","","","","","","","learning/Slide15.JPG","null","","","","","",""
"html-keyboard-response","49","177014","0.0-5.0-1.14","FL","ol68ft1h8h","2732","1536","0","1","0","5e5e17c97593e912e086c640","","null","","","learningBlock1","","","","That was a tob.","null","","","","","",""
"html-keyboard-response","50","178020","0.0-5.0-2.14","FL","ol68ft1h8h","2732","1536","0","1","0","5e5e17c97593e912e086c640","","null","","","learningBlock1","","","","<div style=""font-size:60px;""> </div>","null","FL","learning/Slide15.JPG","That was a tob.","","",""
"image-keyboard-response","51","178208","0.0-5.0-0.15","FL","ol68ft1h8h","2732","1536","0","1","0","5e5e17c97593e912e086c640","","null","","","","","","","learning/Slide16.JPG","null","","","","","",""
"html-keyboard-response","52","179381","0.0-5.0-1.15","FL","ol68ft1h8h","2732","1536","0","1","0","5e5e17c97593e912e086c640","","null","","","learningBlock1","","","","That was a dep.","null","","","","","",""
"html-keyboard-response","53","180386","0.0-5.0-2.15","FL","ol68ft1h8h","2732","1536","0","1","0","5e5e17c97593e912e086c640","","null","","","learningBlock1","","","","<div style=""font-size:60px;""> </div>","null","FL","learning/Slide16.JPG","That was a dep.","","",""
"image-keyboard-response","54","180573","0.0-5.0-0.16","FL","ol68ft1h8h","2732","1536","0","1","0","5e5e17c97593e912e086c640","","null","","","","","","","learning/Slide17.JPG","null","","","","","",""
"html-keyboard-response","55","181741","0.0-5.0-1.16","FL","ol68ft1h8h","2732","1536","0","1","0","5e5e17c97593e912e086c640","","null","","","learningBlock1","","","","That was a bim.","null","","","","","",""
"html-keyboard-response","56","182754","0.0-5.0-2.16","FL","ol68ft1h8h","2732","1536","0","1","0","5e5e17c97593e912e086c640","","null","","","learningBlock1","","","","<div style=""font-size:60px;""> </div>","null","FL","learning/Slide17.JPG","That was a bim.","","",""
"image-keyboard-response","57","182940","0.0-5.0-0.17","FL","ol68ft1h8h","2732","1536","0","1","0","5e5e17c97593e912e086c640","","null","","","","","","","learning/Slide18.JPG","null","","","","","",""
"html-keyboard-response","58","184112","0.0-5.0-1.17","FL","ol68ft1h8h","2732","1536","0","1","0","5e5e17c97593e912e086c640","","null","","","learningBlock1","","","","That was a tob.","null","","","","","",""
"html-keyboard-response","59","185125","0.0-5.0-2.17","FL","ol68ft1h8h","2732","1536","0","1","0","5e5e17c97593e912e086c640","","null","","","learningBlock1","","","","<div style=""font-size:60px;""> </div>","null","FL","learning/Slide18.JPG","That was a tob.","","",""
"image-keyboard-response","60","185311","0.0-5.0-0.18","FL","ol68ft1h8h","2732","1536","0","1","0","5e5e17c97593e912e086c640","","null","","","","","","","learning/Slide19.JPG","null","","","","","",""
"html-keyboard-response","61","186475","0.0-5.0-1.18","FL","ol68ft1h8h","2732","1536","0","1","0","5e5e17c97593e912e086c640","","null","","","learningBlock1","","","","That was a wug.","null","","","","","",""
"html-keyboard-response","62","187489","0.0-5.0-2.18","FL","ol68ft1h8h","2732","1536","0","1","0","5e5e17c97593e912e086c640","","null","","","learningBlock1","","","","<div style=""font-size:60px;""> </div>","null","FL","learning/Slide19.JPG","That was a wug.","","",""
"image-keyboard-response","63","187678","0.0-5.0-0.19","FL","ol68ft1h8h","2732","1536","0","1","0","5e5e17c97593e912e086c640","","null","","","","","","","learning/Slide20.JPG","null","","","","","",""
"html-keyboard-response","64","188842","0.0-5.0-1.19","FL","ol68ft1h8h","2732","1536","0","1","0","5e5e17c97593e912e086c640","","null","","","learningBlock1","","","","That was a bim.","null","","","","","",""
"html-keyboard-response","65","189856","0.0-5.0-2.19","FL","ol68ft1h8h","2732","1536","0","1","0","5e5e17c97593e912e086c640","","null","","","learningBlock1","","","","<div style=""font-size:60px;""> </div>","null","FL","learning/Slide20.JPG","That was a bim.","","",""
"image-keyboard-response","66","190043","0.0-5.0-0.20","FL","ol68ft1h8h","2732","1536","0","1","0","5e5e17c97593e912e086c640","","null","","","","","","","learning/Slide21.JPG","null","","","","","",""
"html-keyboard-response","67","191206","0.0-5.0-1.20","FL","ol68ft1h8h","2732","1536","0","1","0","5e5e17c97593e912e086c640","","null","","","learningBlock1","","","","That was a dep.","null","","","","","",""
"html-keyboard-response","68","192214","0.0-5.0-2.20","FL","ol68ft1h8h","2732","1536","0","1","0","5e5e17c97593e912e086c640","","null","","","learningBlock1","","","","<div style=""font-size:60px;""> </div>","null","FL","learning/Slide21.JPG","That was a dep.","","",""
"image-keyboard-response","69","192398","0.0-5.0-0.21","FL","ol68ft1h8h","2732","1536","0","1","0","5e5e17c97593e912e086c640","","null","","","","","","","learning/Slide22.JPG","null","","","","","",""
"html-keyboard-response","70","193563","0.0-5.0-1.21","FL","ol68ft1h8h","2732","1536","0","1","0","5e5e17c97593e912e086c640","","null","","","learningBlock1","","","","That was a bim.","null","","","","","",""
"html-keyboard-response","71","194574","0.0-5.0-2.21","FL","ol68ft1h8h","2732","1536","0","1","0","5e5e17c97593e912e086c640","","null","","","learningBlock1","","","","<div style=""font-size:60px;""> </div>","null","FL","learning/Slide22.JPG","That was a bim.","","",""
"image-keyboard-response","72","194763","0.0-5.0-0.22","FL","ol68ft1h8h","2732","1536","0","1","0","5e5e17c97593e912e086c640","","null","","","","","","","learning/Slide23.JPG","null","","","","","",""
"html-keyboard-response","73","195933","0.0-5.0-1.22","FL","ol68ft1h8h","2732","1536","0","1","0","5e5e17c97593e912e086c640","","null","","","learningBlock1","","","","That was a tob.","null","","","","","",""
"html-keyboard-response","74","196941","0.0-5.0-2.22","FL","ol68ft1h8h","2732","1536","0","1","0","5e5e17c97593e912e086c640","","null","","","learningBlock1","","","","<div style=""font-size:60px;""> </div>","null","FL","learning/Slide23.JPG","That was a tob.","","",""
"image-keyboard-response","75","197128","0.0-5.0-0.23","FL","ol68ft1h8h","2732","1536","0","1","0","5e5e17c97593e912e086c640","","null","","","","","","","learning/Slide24.JPG","null","","","","","",""
"html-keyboard-response","76","198296","0.0-5.0-1.23","FL","ol68ft1h8h","2732","1536","0","1","0","5e5e17c97593e912e086c640","","null","","","learningBlock1","","","","That was a wug.","null","","","","","",""
"html-keyboard-response","77","199310","0.0-5.0-2.23","FL","ol68ft1h8h","2732","1536","0","1","0","5e5e17c97593e912e086c640","","null","","","learningBlock1","","","","<div style=""font-size:60px;""> </div>","null","FL","learning/Slide24.JPG","That was a wug.","","",""
"image-keyboard-response","78","199497","0.0-5.0-0.24","FL","ol68ft1h8h","2732","1536","0","1","0","5e5e17c97593e912e086c640","","null","","","","","","","learning/Slide25.JPG","null","","","","","",""
"html-keyboard-response","79","200666","0.0-5.0-1.24","FL","ol68ft1h8h","2732","1536","0","1","0","5e5e17c97593e912e086c640","","null","","","learningBlock1","","","","That was a dep.","null","","","","","",""
"html-keyboard-response","80","201679","0.0-5.0-2.24","FL","ol68ft1h8h","2732","1536","0","1","0","5e5e17c97593e912e086c640","","null","","","learningBlock1","","","","<div style=""font-size:60px;""> </div>","null","FL","learning/Slide25.JPG","That was a dep.","","",""
"image-keyboard-response","81","201866","0.0-5.0-0.25","FL","ol68ft1h8h","2732","1536","0","1","0","5e5e17c97593e912e086c640","","null","","","","","","","learning/Slide26.JPG","null","","","","","",""
"html-keyboard-response","82","203037","0.0-5.0-1.25","FL","ol68ft1h8h","2732","1536","0","1","0","5e5e17c97593e912e086c640","","null","","","learningBlock1","","","","That was a wug.","null","","","","","",""
"html-keyboard-response","83","204047","0.0-5.0-2.25","FL","ol68ft1h8h","2732","1536","0","1","0","5e5e17c97593e912e086c640","","null","","","learningBlock1","","","","<div style=""font-size:60px;""> </div>","null","FL","learning/Slide26.JPG","That was a wug.","","",""
"image-keyboard-response","84","204239","0.0-5.0-0.26","FL","ol68ft1h8h","2732","1536","0","1","0","5e5e17c97593e912e086c640","","null","","","","","","","learning/Slide27.JPG","null","","","","","",""
"html-keyboard-response","85","205401","0.0-5.0-1.26","FL","ol68ft1h8h","2732","1536","0","1","0","5e5e17c97593e912e086c640","","null","","","learningBlock1","","","","That was a bim.","null","","","","","",""
"html-keyboard-response","86","206412","0.0-5.0-2.26","FL","ol68ft1h8h","2732","1536","0","1","0","5e5e17c97593e912e086c640","","null","","","learningBlock1","","","","<div style=""font-size:60px;""> </div>","null","FL","learning/Slide27.JPG","That was a bim.","","",""
"image-keyboard-response","87","206601","0.0-5.0-0.27","FL","ol68ft1h8h","2732","1536","0","1","0","5e5e17c97593e912e086c640","","null","","","","","","","learning/Slide28.JPG","null","","","","","",""
"html-keyboard-response","88","207769","0.0-5.0-1.27","FL","ol68ft1h8h","2732","1536","0","1","0","5e5e17c97593e912e086c640","","null","","","learningBlock1","","","","That was a dep.","null","","","","","",""
"html-keyboard-response","89","208781","0.0-5.0-2.27","FL","ol68ft1h8h","2732","1536","0","1","0","5e5e17c97593e912e086c640","","null","","","learningBlock1","","","","<div style=""font-size:60px;""> </div>","null","FL","learning/Slide28.JPG","That was a dep.","","",""
"image-keyboard-response","90","208968","0.0-5.0-0.28","FL","ol68ft1h8h","2732","1536","0","1","0","5e5e17c97593e912e086c640","","null","","","","","","","learning/Slide29.JPG","null","","","","","",""
"html-keyboard-response","91","210134","0.0-5.0-1.28","FL","ol68ft1h8h","2732","1536","0","1","0","5e5e17c97593e912e086c640","","null","","","learningBlock1","","","","That was a tob.","null","","","","","",""
"html-keyboard-response","92","211143","0.0-5.0-2.28","FL","ol68ft1h8h","2732","1536","0","1","0","5e5e17c97593e912e086c640","","null","","","learningBlock1","","","","<div style=""font-size:60px;""> </div>","null","FL","learning/Slide29.JPG","That was a tob.","","",""
"image-keyboard-response","93","211330","0.0-5.0-0.29","FL","ol68ft1h8h","2732","1536","0","1","0","5e5e17c97593e912e086c640","","null","","","","","","","learning/Slide30.JPG","null","","","","","",""
"html-keyboard-response","94","212494","0.0-5.0-1.29","FL","ol68ft1h8h","2732","1536","0","1","0","5e5e17c97593e912e086c640","","null","","","learningBlock1","","","","That was a dep.","null","","","","","",""
"html-keyboard-response","95","213501","0.0-5.0-2.29","FL","ol68ft1h8h","2732","1536","0","1","0","5e5e17c97593e912e086c640","","null","","","learningBlock1","","","","<div style=""font-size:60px;""> </div>","null","FL","learning/Slide30.JPG","That was a dep.","","",""
"image-keyboard-response","96","213688","0.0-5.0-0.30","FL","ol68ft1h8h","2732","1536","0","1","0","5e5e17c97593e912e086c640","","null","","","","","","","learning/Slide31.JPG","null","","","","","",""
"html-keyboard-response","97","214840","0.0-5.0-1.30","FL","ol68ft1h8h","2732","1536","0","1","0","5e5e17c97593e912e086c640","","null","","","learningBlock1","","","","That was a wug.","null","","","","","",""
"html-keyboard-response","98","215848","0.0-5.0-2.30","FL","ol68ft1h8h","2732","1536","0","1","0","5e5e17c97593e912e086c640","","null","","","learningBlock1","","","","<div style=""font-size:60px;""> </div>","null","FL","learning/Slide31.JPG","That was a wug.","","",""
"image-keyboard-response","99","216035","0.0-5.0-0.31","FL","ol68ft1h8h","2732","1536","0","1","0","5e5e17c97593e912e086c640","","null","","","","","","","learning/Slide32.JPG","null","","","","","",""
"html-keyboard-response","100","217201","0.0-5.0-1.31","FL","ol68ft1h8h","2732","1536","0","1","0","5e5e17c97593e912e086c640","","null","","","learningBlock1","","","","That was a tob.","null","","","","","",""
"html-keyboard-response","101","218216","0.0-5.0-2.31","FL","ol68ft1h8h","2732","1536","0","1","0","5e5e17c97593e912e086c640","","null","","","learningBlock1","","","","<div style=""font-size:60px;""> </div>","null","FL","learning/Slide32.JPG","That was a tob.","","",""
"image-keyboard-response","102","218401","0.0-5.0-0.32","FL","ol68ft1h8h","2732","1536","0","1","0","5e5e17c97593e912e086c640","","null","","","","","","","learning/Slide33.JPG","null","","","","","",""
"html-keyboard-response","103","219570","0.0-5.0-1.32","FL","ol68ft1h8h","2732","1536","0","1","0","5e5e17c97593e912e086c640","","null","","","learningBlock1","","","","That was a bim.","null","","","","","",""
"html-keyboard-response","104","220581","0.0-5.0-2.32","FL","ol68ft1h8h","2732","1536","0","1","0","5e5e17c97593e912e086c640","","null","","","learningBlock1","","","","<div style=""font-size:60px;""> </div>","null","FL","learning/Slide33.JPG","That was a bim.","","",""
"image-keyboard-response","105","220768","0.0-5.0-0.33","FL","ol68ft1h8h","2732","1536","0","1","0","5e5e17c97593e912e086c640","","null","","","","","","","learning/Slide34.JPG","null","","","","","",""
"html-keyboard-response","106","221932","0.0-5.0-1.33","FL","ol68ft1h8h","2732","1536","0","1","0","5e5e17c97593e912e086c640","","null","","","learningBlock1","","","","That was a tob.","null","","","","","",""
"html-keyboard-response","107","222944","0.0-5.0-2.33","FL","ol68ft1h8h","2732","1536","0","1","0","5e5e17c97593e912e086c640","","null","","","learningBlock1","","","","<div style=""font-size:60px;""> </div>","null","FL","learning/Slide34.JPG","That was a tob.","","",""
"image-keyboard-response","108","223136","0.0-5.0-0.34","FL","ol68ft1h8h","2732","1536","0","1","0","5e5e17c97593e912e086c640","","null","","","","","","","learning/Slide35.JPG","null","","","","","",""
"html-keyboard-response","109","224310","0.0-5.0-1.34","FL","ol68ft1h8h","2732","1536","0","1","0","5e5e17c97593e912e086c640","","null","","","learningBlock1","","","","That was a bim.","null","","","","","",""
"html-keyboard-response","110","225321","0.0-5.0-2.34","FL","ol68ft1h8h","2732","1536","0","1","0","5e5e17c97593e912e086c640","","null","","","learningBlock1","","","","<div style=""font-size:60px;""> </div>","null","FL","learning/Slide35.JPG","That was a bim.","","",""
"image-keyboard-response","111","225511","0.0-5.0-0.35","FL","ol68ft1h8h","2732","1536","0","1","0","5e5e17c97593e912e086c640","","null","","","","","","","learning/Slide36.JPG","null","","","","","",""
"html-keyboard-response","112","226677","0.0-5.0-1.35","FL","ol68ft1h8h","2732","1536","0","1","0","5e5e17c97593e912e086c640","","null","","","learningBlock1","","","","That was a dep.","null","","","","","",""
"html-keyboard-response","113","227690","0.0-5.0-2.35","FL","ol68ft1h8h","2732","1536","0","1","0","5e5e17c97593e912e086c640","","null","","","learningBlock1","","","","<div style=""font-size:60px;""> </div>","null","FL","learning/Slide36.JPG","That was a dep.","","",""
"image-keyboard-response","114","227878","0.0-5.0-0.36","FL","ol68ft1h8h","2732","1536","0","1","0","5e5e17c97593e912e086c640","","null","","","","","","","learning/Slide37.JPG","null","","","","","",""
"html-keyboard-response","115","229050","0.0-5.0-1.36","FL","ol68ft1h8h","2732","1536","0","1","0","5e5e17c97593e912e086c640","","null","","","learningBlock1","","","","That was a tob.","null","","","","","",""
"html-keyboard-response","116","230058","0.0-5.0-2.36","FL","ol68ft1h8h","2732","1536","0","1","0","5e5e17c97593e912e086c640","","null","","","learningBlock1","","","","<div style=""font-size:60px;""> </div>","null","FL","learning/Slide37.JPG","That was a tob.","","",""
"image-keyboard-response","117","230246","0.0-5.0-0.37","FL","ol68ft1h8h","2732","1536","0","1","0","5e5e17c97593e912e086c640","","null","","","","","","","learning/Slide38.JPG","null","","","","","",""
"html-keyboard-response","118","231414","0.0-5.0-1.37","FL","ol68ft1h8h","2732","1536","0","1","0","5e5e17c97593e912e086c640","","null","","","learningBlock1","","","","That was a wug.","null","","","","","",""
"html-keyboard-response","119","232429","0.0-5.0-2.37","FL","ol68ft1h8h","2732","1536","0","1","0","5e5e17c97593e912e086c640","","null","","","learningBlock1","","","","<div style=""font-size:60px;""> </div>","null","FL","learning/Slide38.JPG","That was a wug.","","",""
"image-keyboard-response","120","232616","0.0-5.0-0.38","FL","ol68ft1h8h","2732","1536","0","1","0","5e5e17c97593e912e086c640","","null","","","","","","","learning/Slide39.JPG","null","","","","","",""
"html-keyboard-response","121","233778","0.0-5.0-1.38","FL","ol68ft1h8h","2732","1536","0","1","0","5e5e17c97593e912e086c640","","null","","","learningBlock1","","","","That was a bim.","null","","","","","",""
"html-keyboard-response","122","234781","0.0-5.0-2.38","FL","ol68ft1h8h","2732","1536","0","1","0","5e5e17c97593e912e086c640","","null","","","learningBlock1","","","","<div style=""font-size:60px;""> </div>","null","FL","learning/Slide39.JPG","That was a bim.","","",""
"image-keyboard-response","123","234971","0.0-5.0-0.39","FL","ol68ft1h8h","2732","1536","0","1","0","5e5e17c97593e912e086c640","","null","","","","","","","learning/Slide40.JPG","null","","","","","",""
"html-keyboard-response","124","236136","0.0-5.0-1.39","FL","ol68ft1h8h","2732","1536","0","1","0","5e5e17c97593e912e086c640","","null","","","learningBlock1","","","","That was a tob.","null","","","","","",""
"html-keyboard-response","125","237146","0.0-5.0-2.39","FL","ol68ft1h8h","2732","1536","0","1","0","5e5e17c97593e912e086c640","","null","","","learningBlock1","","","","<div style=""font-size:60px;""> </div>","null","FL","learning/Slide40.JPG","That was a tob.","","",""
"image-keyboard-response","126","237331","0.0-5.0-0.40","FL","ol68ft1h8h","2732","1536","0","1","0","5e5e17c97593e912e086c640","","null","","","","","","","learning/Slide41.JPG","null","","","","","",""
"html-keyboard-response","127","238542","0.0-5.0-1.40","FL","ol68ft1h8h","2732","1536","0","1","0","5e5e17c97593e912e086c640","","null","","","learningBlock1","","","","That was a bim.","null","","","","","",""
"html-keyboard-response","128","239549","0.0-5.0-2.40","FL","ol68ft1h8h","2732","1536","0","1","0","5e5e17c97593e912e086c640","","null","","","learningBlock1","","","","<div style=""font-size:60px;""> </div>","null","FL","learning/Slide41.JPG","That was a bim.","","",""
"image-keyboard-response","129","239739","0.0-5.0-0.41","FL","ol68ft1h8h","2732","1536","0","1","0","5e5e17c97593e912e086c640","","null","","","","","","","learning/Slide42.JPG","null","","","","","",""
"html-keyboard-response","130","240900","0.0-5.0-1.41","FL","ol68ft1h8h","2732","1536","0","1","0","5e5e17c97593e912e086c640","","null","","","learningBlock1","","","","That was a dep.","null","","","","","",""
"html-keyboard-response","131","241933","0.0-5.0-2.41","FL","ol68ft1h8h","2732","1536","0","1","0","5e5e17c97593e912e086c640","","null","","","learningBlock1","","","","<div style=""font-size:60px;""> </div>","null","FL","learning/Slide42.JPG","That was a dep.","","",""
"image-keyboard-response","132","242124","0.0-5.0-0.42","FL","ol68ft1h8h","2732","1536","0","1","0","5e5e17c97593e912e086c640","","null","","","","","","","learning/Slide43.JPG","null","","","","","",""
"html-keyboard-response","133","243293","0.0-5.0-1.42","FL","ol68ft1h8h","2732","1536","0","1","0","5e5e17c97593e912e086c640","","null","","","learningBlock1","","","","That was a wug.","null","","","","","",""
"html-keyboard-response","134","244301","0.0-5.0-2.42","FL","ol68ft1h8h","2732","1536","0","1","0","5e5e17c97593e912e086c640","","null","","","learningBlock1","","","","<div style=""font-size:60px;""> </div>","null","FL","learning/Slide43.JPG","That was a wug.","","",""
"image-keyboard-response","135","244485","0.0-5.0-0.43","FL","ol68ft1h8h","2732","1536","0","1","0","5e5e17c97593e912e086c640","","null","","","","","","","learning/Slide44.JPG","null","","","","","",""
"html-keyboard-response","136","245648","0.0-5.0-1.43","FL","ol68ft1h8h","2732","1536","0","1","0","5e5e17c97593e912e086c640","","null","","","learningBlock1","","","","That was a bim.","null","","","","","",""
"html-keyboard-response","137","246655","0.0-5.0-2.43","FL","ol68ft1h8h","2732","1536","0","1","0","5e5e17c97593e912e086c640","","null","","","learningBlock1","","","","<div style=""font-size:60px;""> </div>","null","FL","learning/Slide44.JPG","That was a bim.","","",""
"image-keyboard-response","138","246840","0.0-5.0-0.44","FL","ol68ft1h8h","2732","1536","0","1","0","5e5e17c97593e912e086c640","","null","","","","","","","learning/Slide45.JPG","null","","","","","",""
"html-keyboard-response","139","248002","0.0-5.0-1.44","FL","ol68ft1h8h","2732","1536","0","1","0","5e5e17c97593e912e086c640","","null","","","learningBlock1","","","","That was a wug.","null","","","","","",""
"html-keyboard-response","140","249014","0.0-5.0-2.44","FL","ol68ft1h8h","2732","1536","0","1","0","5e5e17c97593e912e086c640","","null","","","learningBlock1","","","","<div style=""font-size:60px;""> </div>","null","FL","learning/Slide45.JPG","That was a wug.","","",""
"image-keyboard-response","141","249201","0.0-5.0-0.45","FL","ol68ft1h8h","2732","1536","0","1","0","5e5e17c97593e912e086c640","","null","","","","","","","learning/Slide46.JPG","null","","","","","",""
"html-keyboard-response","142","250363","0.0-5.0-1.45","FL","ol68ft1h8h","2732","1536","0","1","0","5e5e17c97593e912e086c640","","null","","","learningBlock1","","","","That was a dep.","null","","","","","",""
"html-keyboard-response","143","251377","0.0-5.0-2.45","FL","ol68ft1h8h","2732","1536","0","1","0","5e5e17c97593e912e086c640","","null","","","learningBlock1","","","","<div style=""font-size:60px;""> </div>","null","FL","learning/Slide46.JPG","That was a dep.","","",""
"image-keyboard-response","144","251564","0.0-5.0-0.46","FL","ol68ft1h8h","2732","1536","0","1","0","5e5e17c97593e912e086c640","","null","","","","","","","learning/Slide47.JPG","null","","","","","",""
"html-keyboard-response","145","252730","0.0-5.0-1.46","FL","ol68ft1h8h","2732","1536","0","1","0","5e5e17c97593e912e086c640","","null","","","learningBlock1","","","","That was a tob.","null","","","","","",""
"html-keyboard-response","146","253739","0.0-5.0-2.46","FL","ol68ft1h8h","2732","1536","0","1","0","5e5e17c97593e912e086c640","","null","","","learningBlock1","","","","<div style=""font-size:60px;""> </div>","null","FL","learning/Slide47.JPG","That was a tob.","","",""
"image-keyboard-response","147","253924","0.0-5.0-0.47","FL","ol68ft1h8h","2732","1536","0","1","0","5e5e17c97593e912e086c640","","null","","","","","","","learning/Slide48.JPG","null","","","","","",""
"html-keyboard-response","148","255089","0.0-5.0-1.47","FL","ol68ft1h8h","2732","1536","0","1","0","5e5e17c97593e912e086c640","","null","","","learningBlock1","","","","That was a bim.","null","","","","","",""
"html-keyboard-response","149","256093","0.0-5.0-2.47","FL","ol68ft1h8h","2732","1536","0","1","0","5e5e17c97593e912e086c640","","null","","","learningBlock1","","","","<div style=""font-size:60px;""> </div>","null","FL","learning/Slide48.JPG","That was a bim.","","",""
"image-keyboard-response","150","256280","0.0-5.0-0.48","FL","ol68ft1h8h","2732","1536","0","1","0","5e5e17c97593e912e086c640","","null","","","","","","","learning/Slide49.JPG","null","","","","","",""
"html-keyboard-response","151","257443","0.0-5.0-1.48","FL","ol68ft1h8h","2732","1536","0","1","0","5e5e17c97593e912e086c640","","null","","","learningBlock1","","","","That was a dep.","null","","","","","",""
"html-keyboard-response","152","258457","0.0-5.0-2.48","FL","ol68ft1h8h","2732","1536","0","1","0","5e5e17c97593e912e086c640","","null","","","learningBlock1","","","","<div style=""font-size:60px;""> </div>","null","FL","learning/Slide49.JPG","That was a dep.","","",""
"image-keyboard-response","153","258645","0.0-5.0-0.49","FL","ol68ft1h8h","2732","1536","0","1","0","5e5e17c97593e912e086c640","","null","","","","","","","learning/Slide50.JPG","null","","","","","",""
"html-keyboard-response","154","259807","0.0-5.0-1.49","FL","ol68ft1h8h","2732","1536","0","1","0","5e5e17c97593e912e086c640","","null","","","learningBlock1","","","","That was a tob.","null","","","","","",""
"html-keyboard-response","155","260822","0.0-5.0-2.49","FL","ol68ft1h8h","2732","1536","0","1","0","5e5e17c97593e912e086c640","","null","","","learningBlock1","","","","<div style=""font-size:60px;""> </div>","null","FL","learning/Slide50.JPG","That was a tob.","","",""
"image-keyboard-response","156","261009","0.0-5.0-0.50","FL","ol68ft1h8h","2732","1536","0","1","0","5e5e17c97593e912e086c640","","null","","","","","","","learning/Slide51.JPG","null","","","","","",""
"html-keyboard-response","157","262171","0.0-5.0-1.50","FL","ol68ft1h8h","2732","1536","0","1","0","5e5e17c97593e912e086c640","","null","","","learningBlock1","","","","That was a bim.","null","","","","","",""
"html-keyboard-response","158","263183","0.0-5.0-2.50","FL","ol68ft1h8h","2732","1536","0","1","0","5e5e17c97593e912e086c640","","null","","","learningBlock1","","","","<div style=""font-size:60px;""> </div>","null","FL","learning/Slide51.JPG","That was a bim.","","",""
"image-keyboard-response","159","263369","0.0-5.0-0.51","FL","ol68ft1h8h","2732","1536","0","1","0","5e5e17c97593e912e086c640","","null","","","","","","","learning/Slide52.JPG","null","","","","","",""
"html-keyboard-response","160","264532","0.0-5.0-1.51","FL","ol68ft1h8h","2732","1536","0","1","0","5e5e17c97593e912e086c640","","null","","","learningBlock1","","","","That was a wug.","null","","","","","",""
"html-keyboard-response","161","265539","0.0-5.0-2.51","FL","ol68ft1h8h","2732","1536","0","1","0","5e5e17c97593e912e086c640","","null","","","learningBlock1","","","","<div style=""font-size:60px;""> </div>","null","FL","learning/Slide52.JPG","That was a wug.","","",""
"image-keyboard-response","162","265728","0.0-5.0-0.52","FL","ol68ft1h8h","2732","1536","0","1","0","5e5e17c97593e912e086c640","","null","","","","","","","learning/Slide53.JPG","null","","","","","",""
"html-keyboard-response","163","266886","0.0-5.0-1.52","FL","ol68ft1h8h","2732","1536","0","1","0","5e5e17c97593e912e086c640","","null","","","learningBlock1","","","","That was a tob.","null","","","","","",""
"html-keyboard-response","164","267888","0.0-5.0-2.52","FL","ol68ft1h8h","2732","1536","0","1","0","5e5e17c97593e912e086c640","","null","","","learningBlock1","","","","<div style=""font-size:60px;""> </div>","null","FL","learning/Slide53.JPG","That was a tob.","","",""
"image-keyboard-response","165","268076","0.0-5.0-0.53","FL","ol68ft1h8h","2732","1536","0","1","0","5e5e17c97593e912e086c640","","null","","","","","","","learning/Slide54.JPG","null","","","","","",""
"html-keyboard-response","166","269247","0.0-5.0-1.53","FL","ol68ft1h8h","2732","1536","0","1","0","5e5e17c97593e912e086c640","","null","","","learningBlock1","","","","That was a dep.","null","","","","","",""
"html-keyboard-response","167","270253","0.0-5.0-2.53","FL","ol68ft1h8h","2732","1536","0","1","0","5e5e17c97593e912e086c640","","null","","","learningBlock1","","","","<div style=""font-size:60px;""> </div>","null","FL","learning/Slide54.JPG","That was a dep.","","",""
"image-keyboard-response","168","270438","0.0-5.0-0.54","FL","ol68ft1h8h","2732","1536","0","1","0","5e5e17c97593e912e086c640","","null","","","","","","","learning/Slide55.JPG","null","","","","","",""
"html-keyboard-response","169","271608","0.0-5.0-1.54","FL","ol68ft1h8h","2732","1536","0","1","0","5e5e17c97593e912e086c640","","null","","","learningBlock1","","","","That was a bim.","null","","","","","",""
"html-keyboard-response","170","272622","0.0-5.0-2.54","FL","ol68ft1h8h","2732","1536","0","1","0","5e5e17c97593e912e086c640","","null","","","learningBlock1","","","","<div style=""font-size:60px;""> </div>","null","FL","learning/Slide55.JPG","That was a bim.","","",""
"image-keyboard-response","171","272807","0.0-5.0-0.55","FL","ol68ft1h8h","2732","1536","0","1","0","5e5e17c97593e912e086c640","","null","","","","","","","learning/Slide56.JPG","null","","","","","",""
"html-keyboard-response","172","273971","0.0-5.0-1.55","FL","ol68ft1h8h","2732","1536","0","1","0","5e5e17c97593e912e086c640","","null","","","learningBlock1","","","","That was a tob.","null","","","","","",""
"html-keyboard-response","173","274982","0.0-5.0-2.55","FL","ol68ft1h8h","2732","1536","0","1","0","5e5e17c97593e912e086c640","","null","","","learningBlock1","","","","<div style=""font-size:60px;""> </div>","null","FL","learning/Slide56.JPG","That was a tob.","","",""
"image-keyboard-response","174","275165","0.0-5.0-0.56","FL","ol68ft1h8h","2732","1536","0","1","0","5e5e17c97593e912e086c640","","null","","","","","","","learning/Slide57.JPG","null","","","","","",""
"html-keyboard-response","175","276331","0.0-5.0-1.56","FL","ol68ft1h8h","2732","1536","0","1","0","5e5e17c97593e912e086c640","","null","","","learningBlock1","","","","That was a dep.","null","","","","","",""
"html-keyboard-response","176","277347","0.0-5.0-2.56","FL","ol68ft1h8h","2732","1536","0","1","0","5e5e17c97593e912e086c640","","null","","","learningBlock1","","","","<div style=""font-size:60px;""> </div>","null","FL","learning/Slide57.JPG","That was a dep.","","",""
"image-keyboard-response","177","277532","0.0-5.0-0.57","FL","ol68ft1h8h","2732","1536","0","1","0","5e5e17c97593e912e086c640","","null","","","","","","","learning/Slide58.JPG","null","","","","","",""
"html-keyboard-response","178","278696","0.0-5.0-1.57","FL","ol68ft1h8h","2732","1536","0","1","0","5e5e17c97593e912e086c640","","null","","","learningBlock1","","","","That was a wug.","null","","","","","",""
"html-keyboard-response","179","279712","0.0-5.0-2.57","FL","ol68ft1h8h","2732","1536","0","1","0","5e5e17c97593e912e086c640","","null","","","learningBlock1","","","","<div style=""font-size:60px;""> </div>","null","FL","learning/Slide58.JPG","That was a wug.","","",""
"image-keyboard-response","180","279900","0.0-5.0-0.58","FL","ol68ft1h8h","2732","1536","0","1","0","5e5e17c97593e912e086c640","","null","","","","","","","learning/Slide59.JPG","null","","","","","",""
"html-keyboard-response","181","281071","0.0-5.0-1.58","FL","ol68ft1h8h","2732","1536","0","1","0","5e5e17c97593e912e086c640","","null","","","learningBlock1","","","","That was a dep.","null","","","","","",""
"html-keyboard-response","182","282087","0.0-5.0-2.58","FL","ol68ft1h8h","2732","1536","0","1","0","5e5e17c97593e912e086c640","","null","","","learningBlock1","","","","<div style=""font-size:60px;""> </div>","null","FL","learning/Slide59.JPG","That was a dep.","","",""
"image-keyboard-response","183","282274","0.0-5.0-0.59","FL","ol68ft1h8h","2732","1536","0","1","0","5e5e17c97593e912e086c640","","null","","","","","","","learning/Slide60.JPG","null","","","","","",""
"html-keyboard-response","184","283442","0.0-5.0-1.59","FL","ol68ft1h8h","2732","1536","0","1","0","5e5e17c97593e912e086c640","","null","","","learningBlock1","","","","That was a wug.","null","","","","","",""
"html-keyboard-response","185","284450","0.0-5.0-2.59","FL","ol68ft1h8h","2732","1536","0","1","0","5e5e17c97593e912e086c640","","null","","","learningBlock1","","","","<div style=""font-size:60px;""> </div>","null","FL","learning/Slide60.JPG","That was a wug.","","",""
"image-keyboard-response","186","284637","0.0-5.0-0.60","FL","ol68ft1h8h","2732","1536","0","1","0","5e5e17c97593e912e086c640","","null","","","","","","","learning/Slide61.JPG","null","","","","","",""
"html-keyboard-response","187","285807","0.0-5.0-1.60","FL","ol68ft1h8h","2732","1536","0","1","0","5e5e17c97593e912e086c640","","null","","","learningBlock1","","","","That was a bim.","null","","","","","",""
"html-keyboard-response","188","286821","0.0-5.0-2.60","FL","ol68ft1h8h","2732","1536","0","1","0","5e5e17c97593e912e086c640","","null","","","learningBlock1","","","","<div style=""font-size:60px;""> </div>","null","FL","learning/Slide61.JPG","That was a bim.","","",""
"image-keyboard-response","189","287011","0.0-5.0-0.61","FL","ol68ft1h8h","2732","1536","0","1","0","5e5e17c97593e912e086c640","","null","","","","","","","learning/Slide62.JPG","null","","","","","",""
"html-keyboard-response","190","288179","0.0-5.0-1.61","FL","ol68ft1h8h","2732","1536","0","1","0","5e5e17c97593e912e086c640","","null","","","learningBlock1","","","","That was a dep.","null","","","","","",""
"html-keyboard-response","191","289181","0.0-5.0-2.61","FL","ol68ft1h8h","2732","1536","0","1","0","5e5e17c97593e912e086c640","","null","","","learningBlock1","","","","<div style=""font-size:60px;""> </div>","null","FL","learning/Slide62.JPG","That was a dep.","","",""
"image-keyboard-response","192","289368","0.0-5.0-0.62","FL","ol68ft1h8h","2732","1536","0","1","0","5e5e17c97593e912e086c640","","null","","","","","","","learning/Slide63.JPG","null","","","","","",""
"html-keyboard-response","193","290537","0.0-5.0-1.62","FL","ol68ft1h8h","2732","1536","0","1","0","5e5e17c97593e912e086c640","","null","","","learningBlock1","","","","That was a bim.","null","","","","","",""
"html-keyboard-response","194","291549","0.0-5.0-2.62","FL","ol68ft1h8h","2732","1536","0","1","0","5e5e17c97593e912e086c640","","null","","","learningBlock1","","","","<div style=""font-size:60px;""> </div>","null","FL","learning/Slide63.JPG","That was a bim.","","",""
"image-keyboard-response","195","291737","0.0-5.0-0.63","FL","ol68ft1h8h","2732","1536","0","1","0","5e5e17c97593e912e086c640","","null","","","","","","","learning/Slide64.JPG","null","","","","","",""
"html-keyboard-response","196","292903","0.0-5.0-1.63","FL","ol68ft1h8h","2732","1536","0","1","0","5e5e17c97593e912e086c640","","null","","","learningBlock1","","","","That was a tob.","null","","","","","",""
"html-keyboard-response","197","293914","0.0-5.0-2.63","FL","ol68ft1h8h","2732","1536","0","1","0","5e5e17c97593e912e086c640","","null","","","learningBlock1","","","","<div style=""font-size:60px;""> </div>","null","FL","learning/Slide64.JPG","That was a tob.","","",""
"image-keyboard-response","198","294099","0.0-5.0-0.64","FL","ol68ft1h8h","2732","1536","0","1","0","5e5e17c97593e912e086c640","","null","","","","","","","learning/Slide65.JPG","null","","","","","",""
"html-keyboard-response","199","295265","0.0-5.0-1.64","FL","ol68ft1h8h","2732","1536","0","1","0","5e5e17c97593e912e086c640","","null","","","learningBlock1","","","","That was a wug.","null","","","","","",""
"html-keyboard-response","200","296268","0.0-5.0-2.64","FL","ol68ft1h8h","2732","1536","0","1","0","5e5e17c97593e912e086c640","","null","","","learningBlock1","","","","<div style=""font-size:60px;""> </div>","null","FL","learning/Slide65.JPG","That was a wug.","","",""
"image-keyboard-response","201","296453","0.0-5.0-0.65","FL","ol68ft1h8h","2732","1536","0","1","0","5e5e17c97593e912e086c640","","null","","","","","","","learning/Slide66.JPG","null","","","","","",""
"html-keyboard-response","202","297619","0.0-5.0-1.65","FL","ol68ft1h8h","2732","1536","0","1","0","5e5e17c97593e912e086c640","","null","","","learningBlock1","","","","That was a dep.","null","","","","","",""
"html-keyboard-response","203","298627","0.0-5.0-2.65","FL","ol68ft1h8h","2732","1536","0","1","0","5e5e17c97593e912e086c640","","null","","","learningBlock1","","","","<div style=""font-size:60px;""> </div>","null","FL","learning/Slide66.JPG","That was a dep.","","",""
"image-keyboard-response","204","298815","0.0-5.0-0.66","FL","ol68ft1h8h","2732","1536","0","1","0","5e5e17c97593e912e086c640","","null","","","","","","","learning/Slide67.JPG","null","","","","","",""
"html-keyboard-response","205","299975","0.0-5.0-1.66","FL","ol68ft1h8h","2732","1536","0","1","0","5e5e17c97593e912e086c640","","null","","","learningBlock1","","","","That was a tob.","null","","","","","",""
"html-keyboard-response","206","300984","0.0-5.0-2.66","FL","ol68ft1h8h","2732","1536","0","1","0","5e5e17c97593e912e086c640","","null","","","learningBlock1","","","","<div style=""font-size:60px;""> </div>","null","FL","learning/Slide67.JPG","That was a tob.","","",""
"image-keyboard-response","207","301175","0.0-5.0-0.67","FL","ol68ft1h8h","2732","1536","0","1","0","5e5e17c97593e912e086c640","","null","","","","","","","learning/Slide68.JPG","null","","","","","",""
"html-keyboard-response","208","302342","0.0-5.0-1.67","FL","ol68ft1h8h","2732","1536","0","1","0","5e5e17c97593e912e086c640","","null","","","learningBlock1","","","","That was a wug.","null","","","","","",""
"html-keyboard-response","209","303356","0.0-5.0-2.67","FL","ol68ft1h8h","2732","1536","0","1","0","5e5e17c97593e912e086c640","","null","","","learningBlock1","","","","<div style=""font-size:60px;""> </div>","null","FL","learning/Slide68.JPG","That was a wug.","","",""
"image-keyboard-response","210","303543","0.0-5.0-0.68","FL","ol68ft1h8h","2732","1536","0","1","0","5e5e17c97593e912e086c640","","null","","","","","","","learning/Slide69.JPG","null","","","","","",""
"html-keyboard-response","211","304707","0.0-5.0-1.68","FL","ol68ft1h8h","2732","1536","0","1","0","5e5e17c97593e912e086c640","","null","","","learningBlock1","","","","That was a tob.","null","","","","","",""
"html-keyboard-response","212","305719","0.0-5.0-2.68","FL","ol68ft1h8h","2732","1536","0","1","0","5e5e17c97593e912e086c640","","null","","","learningBlock1","","","","<div style=""font-size:60px;""> </div>","null","FL","learning/Slide69.JPG","That was a tob.","","",""
"image-keyboard-response","213","305906","0.0-5.0-0.69","FL","ol68ft1h8h","2732","1536","0","1","0","5e5e17c97593e912e086c640","","null","","","","","","","learning/Slide70.JPG","null","","","","","",""
"html-keyboard-response","214","307073","0.0-5.0-1.69","FL","ol68ft1h8h","2732","1536","0","1","0","5e5e17c97593e912e086c640","","null","","","learningBlock1","","","","That was a dep.","null","","","","","",""
"html-keyboard-response","215","308086","0.0-5.0-2.69","FL","ol68ft1h8h","2732","1536","0","1","0","5e5e17c97593e912e086c640","","null","","","learningBlock1","","","","<div style=""font-size:60px;""> </div>","null","FL","learning/Slide70.JPG","That was a dep.","","",""
"image-keyboard-response","216","308274","0.0-5.0-0.70","FL","ol68ft1h8h","2732","1536","0","1","0","5e5e17c97593e912e086c640","","null","","","","","","","learning/Slide71.JPG","null","","","","","",""
"html-keyboard-response","217","309435","0.0-5.0-1.70","FL","ol68ft1h8h","2732","1536","0","1","0","5e5e17c97593e912e086c640","","null","","","learningBlock1","","","","That was a wug.","null","","","","","",""
"html-keyboard-response","218","310436","0.0-5.0-2.70","FL","ol68ft1h8h","2732","1536","0","1","0","5e5e17c97593e912e086c640","","null","","","learningBlock1","","","","<div style=""font-size:60px;""> </div>","null","FL","learning/Slide71.JPG","That was a wug.","","",""
"image-keyboard-response","219","310622","0.0-5.0-0.71","FL","ol68ft1h8h","2732","1536","0","1","0","5e5e17c97593e912e086c640","","null","","","","","","","learning/Slide72.JPG","null","","","","","",""
"html-keyboard-response","220","311789","0.0-5.0-1.71","FL","ol68ft1h8h","2732","1536","0","1","0","5e5e17c97593e912e086c640","","null","","","learningBlock1","","","","That was a bim.","null","","","","","",""
"html-keyboard-response","221","312792","0.0-5.0-2.71","FL","ol68ft1h8h","2732","1536","0","1","0","5e5e17c97593e912e086c640","","null","","","learningBlock1","","","","<div style=""font-size:60px;""> </div>","null","FL","learning/Slide72.JPG","That was a bim.","","",""
"image-keyboard-response","222","312979","0.0-5.0-0.72","FL","ol68ft1h8h","2732","1536","0","1","0","5e5e17c97593e912e086c640","","null","","","","","","","learning/Slide73.JPG","null","","","","","",""
"html-keyboard-response","223","314139","0.0-5.0-1.72","FL","ol68ft1h8h","2732","1536","0","1","0","5e5e17c97593e912e086c640","","null","","","learningBlock1","","","","That was a wug.","null","","","","","",""
"html-keyboard-response","224","315143","0.0-5.0-2.72","FL","ol68ft1h8h","2732","1536","0","1","0","5e5e17c97593e912e086c640","","null","","","learningBlock1","","","","<div style=""font-size:60px;""> </div>","null","FL","learning/Slide73.JPG","That was a wug.","","",""
"image-keyboard-response","225","315331","0.0-5.0-0.73","FL","ol68ft1h8h","2732","1536","0","1","0","5e5e17c97593e912e086c640","","null","","","","","","","learning/Slide74.JPG","null","","","","","",""
"html-keyboard-response","226","316496","0.0-5.0-1.73","FL","ol68ft1h8h","2732","1536","0","1","0","5e5e17c97593e912e086c640","","null","","","learningBlock1","","","","That was a dep.","null","","","","","",""
"html-keyboard-response","227","317508","0.0-5.0-2.73","FL","ol68ft1h8h","2732","1536","0","1","0","5e5e17c97593e912e086c640","","null","","","learningBlock1","","","","<div style=""font-size:60px;""> </div>","null","FL","learning/Slide74.JPG","That was a dep.","","",""
"image-keyboard-response","228","317696","0.0-5.0-0.74","FL","ol68ft1h8h","2732","1536","0","1","0","5e5e17c97593e912e086c640","","null","","","","","","","learning/Slide75.JPG","null","","","","","",""
"html-keyboard-response","229","318862","0.0-5.0-1.74","FL","ol68ft1h8h","2732","1536","0","1","0","5e5e17c97593e912e086c640","","null","","","learningBlock1","","","","That was a tob.","null","","","","","",""
"html-keyboard-response","230","319878","0.0-5.0-2.74","FL","ol68ft1h8h","2732","1536","0","1","0","5e5e17c97593e912e086c640","","null","","","learningBlock1","","","","<div style=""font-size:60px;""> </div>","null","FL","learning/Slide75.JPG","That was a tob.","","",""
"image-keyboard-response","231","320065","0.0-5.0-0.75","FL","ol68ft1h8h","2732","1536","0","1","0","5e5e17c97593e912e086c640","","null","","","","","","","learning/Slide76.JPG","null","","","","","",""
"html-keyboard-response","232","321229","0.0-5.0-1.75","FL","ol68ft1h8h","2732","1536","0","1","0","5e5e17c97593e912e086c640","","null","","","learningBlock1","","","","That was a bim.","null","","","","","",""
"html-keyboard-response","233","322244","0.0-5.0-2.75","FL","ol68ft1h8h","2732","1536","0","1","0","5e5e17c97593e912e086c640","","null","","","learningBlock1","","","","<div style=""font-size:60px;""> </div>","null","FL","learning/Slide76.JPG","That was a bim.","","",""
"image-keyboard-response","234","322429","0.0-5.0-0.76","FL","ol68ft1h8h","2732","1536","0","1","0","5e5e17c97593e912e086c640","","null","","","","","","","learning/Slide77.JPG","null","","","","","",""
"html-keyboard-response","235","323596","0.0-5.0-1.76","FL","ol68ft1h8h","2732","1536","0","1","0","5e5e17c97593e912e086c640","","null","","","learningBlock1","","","","That was a tob.","null","","","","","",""
"html-keyboard-response","236","324608","0.0-5.0-2.76","FL","ol68ft1h8h","2732","1536","0","1","0","5e5e17c97593e912e086c640","","null","","","learningBlock1","","","","<div style=""font-size:60px;""> </div>","null","FL","learning/Slide77.JPG","That was a tob.","","",""
"image-keyboard-response","237","324792","0.0-5.0-0.77","FL","ol68ft1h8h","2732","1536","0","1","0","5e5e17c97593e912e086c640","","null","","","","","","","learning/Slide78.JPG","null","","","","","",""
"html-keyboard-response","238","325950","0.0-5.0-1.77","FL","ol68ft1h8h","2732","1536","0","1","0","5e5e17c97593e912e086c640","","null","","","learningBlock1","","","","That was a wug.","null","","","","","",""
"html-keyboard-response","239","326961","0.0-5.0-2.77","FL","ol68ft1h8h","2732","1536","0","1","0","5e5e17c97593e912e086c640","","null","","","learningBlock1","","","","<div style=""font-size:60px;""> </div>","null","FL","learning/Slide78.JPG","That was a wug.","","",""
"image-keyboard-response","240","327147","0.0-5.0-0.78","FL","ol68ft1h8h","2732","1536","0","1","0","5e5e17c97593e912e086c640","","null","","","","","","","learning/Slide79.JPG","null","","","","","",""
"html-keyboard-response","241","328306","0.0-5.0-1.78","FL","ol68ft1h8h","2732","1536","0","1","0","5e5e17c97593e912e086c640","","null","","","learningBlock1","","","","That was a bim.","null","","","","","",""
"html-keyboard-response","242","329318","0.0-5.0-2.78","FL","ol68ft1h8h","2732","1536","0","1","0","5e5e17c97593e912e086c640","","null","","","learningBlock1","","","","<div style=""font-size:60px;""> </div>","null","FL","learning/Slide79.JPG","That was a bim.","","",""
"image-keyboard-response","243","329494","0.0-5.0-0.79","FL","ol68ft1h8h","2732","1536","0","1","0","5e5e17c97593e912e086c640","","null","","","","","","","learning/Slide80.JPG","null","","","","","",""
"html-keyboard-response","244","330664","0.0-5.0-1.79","FL","ol68ft1h8h","2732","1536","0","1","0","5e5e17c97593e912e086c640","","null","","","learningBlock1","","","","That was a tob.","null","","","","","",""
"html-keyboard-response","245","331671","0.0-5.0-2.79","FL","ol68ft1h8h","2732","1536","0","1","0","5e5e17c97593e912e086c640","","null","","","learningBlock1","","","","<div style=""font-size:60px;""> </div>","null","FL","learning/Slide80.JPG","That was a tob.","","",""
"instructions","246","337369","0.0-6.0","FL","ol68ft1h8h","2732","1536","0","1","0","5e5e17c97593e912e086c640","","NA","","[{""page_index"":0,""viewing_time"":5696}]","instructions","","","","","","","","","","",""
"image-keyboard-response","247","337550","0.0-7.0-0.0","FL","ol68ft1h8h","2732","1536","0","1","0","5e5e17c97593e912e086c640","","null","","","","","","","learning/Slide81.JPG","null","","","","","",""
"html-keyboard-response","248","338716","0.0-7.0-1.0","FL","ol68ft1h8h","2732","1536","0","1","0","5e5e17c97593e912e086c640","","null","","","learningBlock2","","","","That was a wug.","null","","","","","",""
"html-keyboard-response","249","339727","0.0-7.0-2.0","FL","ol68ft1h8h","2732","1536","0","1","0","5e5e17c97593e912e086c640","","null","","","learningBlock2","","","","<div style=""font-size:60px;""> </div>","null","FL","learning/Slide81.JPG","That was a wug.","","",""
"image-keyboard-response","250","339912","0.0-7.0-0.1","FL","ol68ft1h8h","2732","1536","0","1","0","5e5e17c97593e912e086c640","","null","","","","","","","learning/Slide82.JPG","null","","","","","",""
"html-keyboard-response","251","341077","0.0-7.0-1.1","FL","ol68ft1h8h","2732","1536","0","1","0","5e5e17c97593e912e086c640","","null","","","learningBlock2","","","","That was a bim.","null","","","","","",""
"html-keyboard-response","252","342084","0.0-7.0-2.1","FL","ol68ft1h8h","2732","1536","0","1","0","5e5e17c97593e912e086c640","","null","","","learningBlock2","","","","<div style=""font-size:60px;""> </div>","null","FL","learning/Slide82.JPG","That was a bim.","","",""
"image-keyboard-response","253","342270","0.0-7.0-0.2","FL","ol68ft1h8h","2732","1536","0","1","0","5e5e17c97593e912e086c640","","null","","","","","","","learning/Slide83.JPG","null","","","","","",""
"html-keyboard-response","254","343425","0.0-7.0-1.2","FL","ol68ft1h8h","2732","1536","0","1","0","5e5e17c97593e912e086c640","","null","","","learningBlock2","","","","That was a wug.","null","","","","","",""
"html-keyboard-response","255","344434","0.0-7.0-2.2","FL","ol68ft1h8h","2732","1536","0","1","0","5e5e17c97593e912e086c640","","null","","","learningBlock2","","","","<div style=""font-size:60px;""> </div>","null","FL","learning/Slide83.JPG","That was a wug.","","",""
"image-keyboard-response","256","344621","0.0-7.0-0.3","FL","ol68ft1h8h","2732","1536","0","1","0","5e5e17c97593e912e086c640","","null","","","","","","","learning/Slide84.JPG","null","","","","","",""
"html-keyboard-response","257","345790","0.0-7.0-1.3","FL","ol68ft1h8h","2732","1536","0","1","0","5e5e17c97593e912e086c640","","null","","","learningBlock2","","","","That was a dep.","null","","","","","",""
"html-keyboard-response","258","346804","0.0-7.0-2.3","FL","ol68ft1h8h","2732","1536","0","1","0","5e5e17c97593e912e086c640","","null","","","learningBlock2","","","","<div style=""font-size:60px;""> </div>","null","FL","learning/Slide84.JPG","That was a dep.","","",""
"image-keyboard-response","259","346993","0.0-7.0-0.4","FL","ol68ft1h8h","2732","1536","0","1","0","5e5e17c97593e912e086c640","","null","","","","","","","learning/Slide85.JPG","null","","","","","",""
"html-keyboard-response","260","348149","0.0-7.0-1.4","FL","ol68ft1h8h","2732","1536","0","1","0","5e5e17c97593e912e086c640","","null","","","learningBlock2","","","","That was a bim.","null","","","","","",""
"html-keyboard-response","261","349163","0.0-7.0-2.4","FL","ol68ft1h8h","2732","1536","0","1","0","5e5e17c97593e912e086c640","","null","","","learningBlock2","","","","<div style=""font-size:60px;""> </div>","null","FL","learning/Slide85.JPG","That was a bim.","","",""
"image-keyboard-response","262","349354","0.0-7.0-0.5","FL","ol68ft1h8h","2732","1536","0","1","0","5e5e17c97593e912e086c640","","null","","","","","","","learning/Slide86.JPG","null","","","","","",""
"html-keyboard-response","263","350523","0.0-7.0-1.5","FL","ol68ft1h8h","2732","1536","0","1","0","5e5e17c97593e912e086c640","","null","","","learningBlock2","","","","That was a tob.","null","","","","","",""
"html-keyboard-response","264","351536","0.0-7.0-2.5","FL","ol68ft1h8h","2732","1536","0","1","0","5e5e17c97593e912e086c640","","null","","","learningBlock2","","","","<div style=""font-size:60px;""> </div>","null","FL","learning/Slide86.JPG","That was a tob.","","",""
"image-keyboard-response","265","351723","0.0-7.0-0.6","FL","ol68ft1h8h","2732","1536","0","1","0","5e5e17c97593e912e086c640","","null","","","","","","","learning/Slide87.JPG","null","","","","","",""
"html-keyboard-response","266","352887","0.0-7.0-1.6","FL","ol68ft1h8h","2732","1536","0","1","0","5e5e17c97593e912e086c640","","null","","","learningBlock2","","","","That was a wug.","null","","","","","",""
"html-keyboard-response","267","353898","0.0-7.0-2.6","FL","ol68ft1h8h","2732","1536","0","1","0","5e5e17c97593e912e086c640","","null","","","learningBlock2","","","","<div style=""font-size:60px;""> </div>","null","FL","learning/Slide87.JPG","That was a wug.","","",""
"image-keyboard-response","268","354085","0.0-7.0-0.7","FL","ol68ft1h8h","2732","1536","0","1","0","5e5e17c97593e912e086c640","","null","","","","","","","learning/Slide88.JPG","null","","","","","",""
"html-keyboard-response","269","355244","0.0-7.0-1.7","FL","ol68ft1h8h","2732","1536","0","1","0","5e5e17c97593e912e086c640","","null","","","learningBlock2","","","","That was a tob.","null","","","","","",""
"html-keyboard-response","270","356258","0.0-7.0-2.7","FL","ol68ft1h8h","2732","1536","0","1","0","5e5e17c97593e912e086c640","","null","","","learningBlock2","","","","<div style=""font-size:60px;""> </div>","null","FL","learning/Slide88.JPG","That was a tob.","","",""
"image-keyboard-response","271","356446","0.0-7.0-0.8","FL","ol68ft1h8h","2732","1536","0","1","0","5e5e17c97593e912e086c640","","null","","","","","","","learning/Slide89.JPG","null","","","","","",""
"html-keyboard-response","272","357605","0.0-7.0-1.8","FL","ol68ft1h8h","2732","1536","0","1","0","5e5e17c97593e912e086c640","","null","","","learningBlock2","","","","That was a bim.","null","","","","","",""
"html-keyboard-response","273","358619","0.0-7.0-2.8","FL","ol68ft1h8h","2732","1536","0","1","0","5e5e17c97593e912e086c640","","null","","","learningBlock2","","","","<div style=""font-size:60px;""> </div>","null","FL","learning/Slide89.JPG","That was a bim.","","",""
"image-keyboard-response","274","358806","0.0-7.0-0.9","FL","ol68ft1h8h","2732","1536","0","1","0","5e5e17c97593e912e086c640","","null","","","","","","","learning/Slide90.JPG","null","","","","","",""
"html-keyboard-response","275","359972","0.0-7.0-1.9","FL","ol68ft1h8h","2732","1536","0","1","0","5e5e17c97593e912e086c640","","null","","","learningBlock2","","","","That was a dep.","null","","","","","",""
"html-keyboard-response","276","360985","0.0-7.0-2.9","FL","ol68ft1h8h","2732","1536","0","1","0","5e5e17c97593e912e086c640","","null","","","learningBlock2","","","","<div style=""font-size:60px;""> </div>","null","FL","learning/Slide90.JPG","That was a dep.","","",""
"image-keyboard-response","277","361173","0.0-7.0-0.10","FL","ol68ft1h8h","2732","1536","0","1","0","5e5e17c97593e912e086c640","","null","","","","","","","learning/Slide91.JPG","null","","","","","",""
"html-keyboard-response","278","362340","0.0-7.0-1.10","FL","ol68ft1h8h","2732","1536","0","1","0","5e5e17c97593e912e086c640","","null","","","learningBlock2","","","","That was a wug.","null","","","","","",""
"html-keyboard-response","279","363349","0.0-7.0-2.10","FL","ol68ft1h8h","2732","1536","0","1","0","5e5e17c97593e912e086c640","","null","","","learningBlock2","","","","<div style=""font-size:60px;""> </div>","null","FL","learning/Slide91.JPG","That was a wug.","","",""
"image-keyboard-response","280","363536","0.0-7.0-0.11","FL","ol68ft1h8h","2732","1536","0","1","0","5e5e17c97593e912e086c640","","null","","","","","","","learning/Slide92.JPG","null","","","","","",""
"html-keyboard-response","281","364697","0.0-7.0-1.11","FL","ol68ft1h8h","2732","1536","0","1","0","5e5e17c97593e912e086c640","","null","","","learningBlock2","","","","That was a tob.","null","","","","","",""
"html-keyboard-response","282","365710","0.0-7.0-2.11","FL","ol68ft1h8h","2732","1536","0","1","0","5e5e17c97593e912e086c640","","null","","","learningBlock2","","","","<div style=""font-size:60px;""> </div>","null","FL","learning/Slide92.JPG","That was a tob.","","",""
"image-keyboard-response","283","365899","0.0-7.0-0.12","FL","ol68ft1h8h","2732","1536","0","1","0","5e5e17c97593e912e086c640","","null","","","","","","","learning/Slide93.JPG","null","","","","","",""
"html-keyboard-response","284","367066","0.0-7.0-1.12","FL","ol68ft1h8h","2732","1536","0","1","0","5e5e17c97593e912e086c640","","null","","","learningBlock2","","","","That was a bim.","null","","","","","",""
"html-keyboard-response","285","368073","0.0-7.0-2.12","FL","ol68ft1h8h","2732","1536","0","1","0","5e5e17c97593e912e086c640","","null","","","learningBlock2","","","","<div style=""font-size:60px;""> </div>","null","FL","learning/Slide93.JPG","That was a bim.","","",""
"image-keyboard-response","286","368259","0.0-7.0-0.13","FL","ol68ft1h8h","2732","1536","0","1","0","5e5e17c97593e912e086c640","","null","","","","","","","learning/Slide94.JPG","null","","","","","",""
"html-keyboard-response","287","369422","0.0-7.0-1.13","FL","ol68ft1h8h","2732","1536","0","1","0","5e5e17c97593e912e086c640","","null","","","learningBlock2","","","","That was a tob.","null","","","","","",""
"html-keyboard-response","288","370425","0.0-7.0-2.13","FL","ol68ft1h8h","2732","1536","0","1","0","5e5e17c97593e912e086c640","","null","","","learningBlock2","","","","<div style=""font-size:60px;""> </div>","null","FL","learning/Slide94.JPG","That was a tob.","","",""
"image-keyboard-response","289","370609","0.0-7.0-0.14","FL","ol68ft1h8h","2732","1536","0","1","0","5e5e17c97593e912e086c640","","null","","","","","","","learning/Slide95.JPG","null","","","","","",""
"html-keyboard-response","290","371767","0.0-7.0-1.14","FL","ol68ft1h8h","2732","1536","0","1","0","5e5e17c97593e912e086c640","","null","","","learningBlock2","","","","That was a wug.","null","","","","","",""
"html-keyboard-response","291","372777","0.0-7.0-2.14","FL","ol68ft1h8h","2732","1536","0","1","0","5e5e17c97593e912e086c640","","null","","","learningBlock2","","","","<div style=""font-size:60px;""> </div>","null","FL","learning/Slide95.JPG","That was a wug.","","",""
"image-keyboard-response","292","372963","0.0-7.0-0.15","FL","ol68ft1h8h","2732","1536","0","1","0","5e5e17c97593e912e086c640","","null","","","","","","","learning/Slide96.JPG","null","","","","","",""
"html-keyboard-response","293","374129","0.0-7.0-1.15","FL","ol68ft1h8h","2732","1536","0","1","0","5e5e17c97593e912e086c640","","null","","","learningBlock2","","","","That was a tob.","null","","","","","",""
"html-keyboard-response","294","375136","0.0-7.0-2.15","FL","ol68ft1h8h","2732","1536","0","1","0","5e5e17c97593e912e086c640","","null","","","learningBlock2","","","","<div style=""font-size:60px;""> </div>","null","FL","learning/Slide96.JPG","That was a tob.","","",""
"image-keyboard-response","295","375322","0.0-7.0-0.16","FL","ol68ft1h8h","2732","1536","0","1","0","5e5e17c97593e912e086c640","","null","","","","","","","learning/Slide97.JPG","null","","","","","",""
"html-keyboard-response","296","376485","0.0-7.0-1.16","FL","ol68ft1h8h","2732","1536","0","1","0","5e5e17c97593e912e086c640","","null","","","learningBlock2","","","","That was a dep.","null","","","","","",""
"html-keyboard-response","297","377488","0.0-7.0-2.16","FL","ol68ft1h8h","2732","1536","0","1","0","5e5e17c97593e912e086c640","","null","","","learningBlock2","","","","<div style=""font-size:60px;""> </div>","null","FL","learning/Slide97.JPG","That was a dep.","","",""
"image-keyboard-response","298","377674","0.0-7.0-0.17","FL","ol68ft1h8h","2732","1536","0","1","0","5e5e17c97593e912e086c640","","null","","","","","","","learning/Slide98.JPG","null","","","","","",""
"html-keyboard-response","299","378840","0.0-7.0-1.17","FL","ol68ft1h8h","2732","1536","0","1","0","5e5e17c97593e912e086c640","","null","","","learningBlock2","","","","That was a bim.","null","","","","","",""
"html-keyboard-response","300","379854","0.0-7.0-2.17","FL","ol68ft1h8h","2732","1536","0","1","0","5e5e17c97593e912e086c640","","null","","","learningBlock2","","","","<div style=""font-size:60px;""> </div>","null","FL","learning/Slide98.JPG","That was a bim.","","",""
"image-keyboard-response","301","380039","0.0-7.0-0.18","FL","ol68ft1h8h","2732","1536","0","1","0","5e5e17c97593e912e086c640","","null","","","","","","","learning/Slide99.JPG","null","","","","","",""
"html-keyboard-response","302","381205","0.0-7.0-1.18","FL","ol68ft1h8h","2732","1536","0","1","0","5e5e17c97593e912e086c640","","null","","","learningBlock2","","","","That was a dep.","null","","","","","",""
"html-keyboard-response","303","382214","0.0-7.0-2.18","FL","ol68ft1h8h","2732","1536","0","1","0","5e5e17c97593e912e086c640","","null","","","learningBlock2","","","","<div style=""font-size:60px;""> </div>","null","FL","learning/Slide99.JPG","That was a dep.","","",""
"image-keyboard-response","304","382403","0.0-7.0-0.19","FL","ol68ft1h8h","2732","1536","0","1","0","5e5e17c97593e912e086c640","","null","","","","","","","learning/Slide100.JPG","null","","","","","",""
"html-keyboard-response","305","383569","0.0-7.0-1.19","FL","ol68ft1h8h","2732","1536","0","1","0","5e5e17c97593e912e086c640","","null","","","learningBlock2","","","","That was a bim.","null","","","","","",""
"html-keyboard-response","306","384580","0.0-7.0-2.19","FL","ol68ft1h8h","2732","1536","0","1","0","5e5e17c97593e912e086c640","","null","","","learningBlock2","","","","<div style=""font-size:60px;""> </div>","null","FL","learning/Slide100.JPG","That was a bim.","","",""
"image-keyboard-response","307","384768","0.0-7.0-0.20","FL","ol68ft1h8h","2732","1536","0","1","0","5e5e17c97593e912e086c640","","null","","","","","","","learning/Slide101.JPG","null","","","","","",""
"html-keyboard-response","308","385934","0.0-7.0-1.20","FL","ol68ft1h8h","2732","1536","0","1","0","5e5e17c97593e912e086c640","","null","","","learningBlock2","","","","That was a tob.","null","","","","","",""
"html-keyboard-response","309","386943","0.0-7.0-2.20","FL","ol68ft1h8h","2732","1536","0","1","0","5e5e17c97593e912e086c640","","null","","","learningBlock2","","","","<div style=""font-size:60px;""> </div>","null","FL","learning/Slide101.JPG","That was a tob.","","",""
"image-keyboard-response","310","387132","0.0-7.0-0.21","FL","ol68ft1h8h","2732","1536","0","1","0","5e5e17c97593e912e086c640","","null","","","","","","","learning/Slide102.JPG","null","","","","","",""
"html-keyboard-response","311","388300","0.0-7.0-1.21","FL","ol68ft1h8h","2732","1536","0","1","0","5e5e17c97593e912e086c640","","null","","","learningBlock2","","","","That was a bim.","null","","","","","",""
"html-keyboard-response","312","389313","0.0-7.0-2.21","FL","ol68ft1h8h","2732","1536","0","1","0","5e5e17c97593e912e086c640","","null","","","learningBlock2","","","","<div style=""font-size:60px;""> </div>","null","FL","learning/Slide102.JPG","That was a bim.","","",""
"image-keyboard-response","313","389501","0.0-7.0-0.22","FL","ol68ft1h8h","2732","1536","0","1","0","5e5e17c97593e912e086c640","","null","","","","","","","learning/Slide103.JPG","null","","","","","",""
"html-keyboard-response","314","390662","0.0-7.0-1.22","FL","ol68ft1h8h","2732","1536","0","1","0","5e5e17c97593e912e086c640","","null","","","learningBlock2","","","","That was a dep.","null","","","","","",""
"html-keyboard-response","315","391677","0.0-7.0-2.22","FL","ol68ft1h8h","2732","1536","0","1","0","5e5e17c97593e912e086c640","","null","","","learningBlock2","","","","<div style=""font-size:60px;""> </div>","null","FL","learning/Slide103.JPG","That was a dep.","","",""
"image-keyboard-response","316","391862","0.0-7.0-0.23","FL","ol68ft1h8h","2732","1536","0","1","0","5e5e17c97593e912e086c640","","null","","","","","","","learning/Slide104.JPG","null","","","","","",""
"html-keyboard-response","317","393022","0.0-7.0-1.23","FL","ol68ft1h8h","2732","1536","0","1","0","5e5e17c97593e912e086c640","","null","","","learningBlock2","","","","That was a tob.","null","","","","","",""
"html-keyboard-response","318","394034","0.0-7.0-2.23","FL","ol68ft1h8h","2732","1536","0","1","0","5e5e17c97593e912e086c640","","null","","","learningBlock2","","","","<div style=""font-size:60px;""> </div>","null","FL","learning/Slide104.JPG","That was a tob.","","",""
"image-keyboard-response","319","394219","0.0-7.0-0.24","FL","ol68ft1h8h","2732","1536","0","1","0","5e5e17c97593e912e086c640","","null","","","","","","","learning/Slide105.JPG","null","","","","","",""
"html-keyboard-response","320","395388","0.0-7.0-1.24","FL","ol68ft1h8h","2732","1536","0","1","0","5e5e17c97593e912e086c640","","null","","","learningBlock2","","","","That was a dep.","null","","","","","",""
"html-keyboard-response","321","396410","0.0-7.0-2.24","FL","ol68ft1h8h","2732","1536","0","1","0","5e5e17c97593e912e086c640","","null","","","learningBlock2","","","","<div style=""font-size:60px;""> </div>","null","FL","learning/Slide105.JPG","That was a dep.","","",""
"image-keyboard-response","322","396599","0.0-7.0-0.25","FL","ol68ft1h8h","2732","1536","0","1","0","5e5e17c97593e912e086c640","","null","","","","","","","learning/Slide106.JPG","null","","","","","",""
"html-keyboard-response","323","397764","0.0-7.0-1.25","FL","ol68ft1h8h","2732","1536","0","1","0","5e5e17c97593e912e086c640","","null","","","learningBlock2","","","","That was a wug.","null","","","","","",""
"html-keyboard-response","324","398774","0.0-7.0-2.25","FL","ol68ft1h8h","2732","1536","0","1","0","5e5e17c97593e912e086c640","","null","","","learningBlock2","","","","<div style=""font-size:60px;""> </div>","null","FL","learning/Slide106.JPG","That was a wug.","","",""
"image-keyboard-response","325","398963","0.0-7.0-0.26","FL","ol68ft1h8h","2732","1536","0","1","0","5e5e17c97593e912e086c640","","null","","","","","","","learning/Slide107.JPG","null","","","","","",""
"html-keyboard-response","326","400130","0.0-7.0-1.26","FL","ol68ft1h8h","2732","1536","0","1","0","5e5e17c97593e912e086c640","","null","","","learningBlock2","","","","That was a bim.","null","","","","","",""
"html-keyboard-response","327","401143","0.0-7.0-2.26","FL","ol68ft1h8h","2732","1536","0","1","0","5e5e17c97593e912e086c640","","null","","","learningBlock2","","","","<div style=""font-size:60px;""> </div>","null","FL","learning/Slide107.JPG","That was a bim.","","",""
"image-keyboard-response","328","401331","0.0-7.0-0.27","FL","ol68ft1h8h","2732","1536","0","1","0","5e5e17c97593e912e086c640","","null","","","","","","","learning/Slide108.JPG","null","","","","","",""
"html-keyboard-response","329","402490","0.0-7.0-1.27","FL","ol68ft1h8h","2732","1536","0","1","0","5e5e17c97593e912e086c640","","null","","","learningBlock2","","","","That was a dep.","null","","","","","",""
"html-keyboard-response","330","403492","0.0-7.0-2.27","FL","ol68ft1h8h","2732","1536","0","1","0","5e5e17c97593e912e086c640","","null","","","learningBlock2","","","","<div style=""font-size:60px;""> </div>","null","FL","learning/Slide108.JPG","That was a dep.","","",""
"image-keyboard-response","331","403679","0.0-7.0-0.28","FL","ol68ft1h8h","2732","1536","0","1","0","5e5e17c97593e912e086c640","","null","","","","","","","learning/Slide109.JPG","null","","","","","",""
"html-keyboard-response","332","404846","0.0-7.0-1.28","FL","ol68ft1h8h","2732","1536","0","1","0","5e5e17c97593e912e086c640","","null","","","learningBlock2","","","","That was a wug.","null","","","","","",""
"html-keyboard-response","333","405856","0.0-7.0-2.28","FL","ol68ft1h8h","2732","1536","0","1","0","5e5e17c97593e912e086c640","","null","","","learningBlock2","","","","<div style=""font-size:60px;""> </div>","null","FL","learning/Slide109.JPG","That was a wug.","","",""
"image-keyboard-response","334","406041","0.0-7.0-0.29","FL","ol68ft1h8h","2732","1536","0","1","0","5e5e17c97593e912e086c640","","null","","","","","","","learning/Slide110.JPG","null","","","","","",""
"html-keyboard-response","335","407199","0.0-7.0-1.29","FL","ol68ft1h8h","2732","1536","0","1","0","5e5e17c97593e912e086c640","","null","","","learningBlock2","","","","That was a bim.","null","","","","","",""
"html-keyboard-response","336","408214","0.0-7.0-2.29","FL","ol68ft1h8h","2732","1536","0","1","0","5e5e17c97593e912e086c640","","null","","","learningBlock2","","","","<div style=""font-size:60px;""> </div>","null","FL","learning/Slide110.JPG","That was a bim.","","",""
"image-keyboard-response","337","408402","0.0-7.0-0.30","FL","ol68ft1h8h","2732","1536","0","1","0","5e5e17c97593e912e086c640","","null","","","","","","","learning/Slide111.JPG","null","","","","","",""
"html-keyboard-response","338","409572","0.0-7.0-1.30","FL","ol68ft1h8h","2732","1536","0","1","0","5e5e17c97593e912e086c640","","null","","","learningBlock2","","","","That was a tob.","null","","","","","",""
"html-keyboard-response","339","410584","0.0-7.0-2.30","FL","ol68ft1h8h","2732","1536","0","1","0","5e5e17c97593e912e086c640","","null","","","learningBlock2","","","","<div style=""font-size:60px;""> </div>","null","FL","learning/Slide111.JPG","That was a tob.","","",""
"image-keyboard-response","340","410769","0.0-7.0-0.31","FL","ol68ft1h8h","2732","1536","0","1","0","5e5e17c97593e912e086c640","","null","","","","","","","learning/Slide112.JPG","null","","","","","",""
"html-keyboard-response","341","411939","0.0-7.0-1.31","FL","ol68ft1h8h","2732","1536","0","1","0","5e5e17c97593e912e086c640","","null","","","learningBlock2","","","","That was a wug.","null","","","","","",""
"html-keyboard-response","342","412944","0.0-7.0-2.31","FL","ol68ft1h8h","2732","1536","0","1","0","5e5e17c97593e912e086c640","","null","","","learningBlock2","","","","<div style=""font-size:60px;""> </div>","null","FL","learning/Slide112.JPG","That was a wug.","","",""
"image-keyboard-response","343","413132","0.0-7.0-0.32","FL","ol68ft1h8h","2732","1536","0","1","0","5e5e17c97593e912e086c640","","null","","","","","","","learning/Slide113.JPG","null","","","","","",""
"html-keyboard-response","344","414305","0.0-7.0-1.32","FL","ol68ft1h8h","2732","1536","0","1","0","5e5e17c97593e912e086c640","","null","","","learningBlock2","","","","That was a tob.","null","","","","","",""
"html-keyboard-response","345","415319","0.0-7.0-2.32","FL","ol68ft1h8h","2732","1536","0","1","0","5e5e17c97593e912e086c640","","null","","","learningBlock2","","","","<div style=""font-size:60px;""> </div>","null","FL","learning/Slide113.JPG","That was a tob.","","",""
"image-keyboard-response","346","415506","0.0-7.0-0.33","FL","ol68ft1h8h","2732","1536","0","1","0","5e5e17c97593e912e086c640","","null","","","","","","","learning/Slide114.JPG","null","","","","","",""
"html-keyboard-response","347","416673","0.0-7.0-1.33","FL","ol68ft1h8h","2732","1536","0","1","0","5e5e17c97593e912e086c640","","null","","","learningBlock2","","","","That was a wug.","null","","","","","",""
"html-keyboard-response","348","417684","0.0-7.0-2.33","FL","ol68ft1h8h","2732","1536","0","1","0","5e5e17c97593e912e086c640","","null","","","learningBlock2","","","","<div style=""font-size:60px;""> </div>","null","FL","learning/Slide114.JPG","That was a wug.","","",""
"image-keyboard-response","349","417869","0.0-7.0-0.34","FL","ol68ft1h8h","2732","1536","0","1","0","5e5e17c97593e912e086c640","","null","","","","","","","learning/Slide115.JPG","null","","","","","",""
"html-keyboard-response","350","419038","0.0-7.0-1.34","FL","ol68ft1h8h","2732","1536","0","1","0","5e5e17c97593e912e086c640","","null","","","learningBlock2","","","","That was a bim.","null","","","","","",""
"html-keyboard-response","351","420052","0.0-7.0-2.34","FL","ol68ft1h8h","2732","1536","0","1","0","5e5e17c97593e912e086c640","","null","","","learningBlock2","","","","<div style=""font-size:60px;""> </div>","null","FL","learning/Slide115.JPG","That was a bim.","","",""
"image-keyboard-response","352","420238","0.0-7.0-0.35","FL","ol68ft1h8h","2732","1536","0","1","0","5e5e17c97593e912e086c640","","null","","","","","","","learning/Slide116.JPG","null","","","","","",""
"html-keyboard-response","353","421404","0.0-7.0-1.35","FL","ol68ft1h8h","2732","1536","0","1","0","5e5e17c97593e912e086c640","","null","","","learningBlock2","","","","That was a dep.","null","","","","","",""
"html-keyboard-response","354","422419","0.0-7.0-2.35","FL","ol68ft1h8h","2732","1536","0","1","0","5e5e17c97593e912e086c640","","null","","","learningBlock2","","","","<div style=""font-size:60px;""> </div>","null","FL","learning/Slide116.JPG","That was a dep.","","",""
"image-keyboard-response","355","422602","0.0-7.0-0.36","FL","ol68ft1h8h","2732","1536","0","1","0","5e5e17c97593e912e086c640","","null","","","","","","","learning/Slide117.JPG","null","","","","","",""
"html-keyboard-response","356","423765","0.0-7.0-1.36","FL","ol68ft1h8h","2732","1536","0","1","0","5e5e17c97593e912e086c640","","null","","","learningBlock2","","","","That was a tob.","null","","","","","",""
"html-keyboard-response","357","424777","0.0-7.0-2.36","FL","ol68ft1h8h","2732","1536","0","1","0","5e5e17c97593e912e086c640","","null","","","learningBlock2","","","","<div style=""font-size:60px;""> </div>","null","FL","learning/Slide117.JPG","That was a tob.","","",""
"image-keyboard-response","358","424963","0.0-7.0-0.37","FL","ol68ft1h8h","2732","1536","0","1","0","5e5e17c97593e912e086c640","","null","","","","","","","learning/Slide118.JPG","null","","","","","",""
"html-keyboard-response","359","426127","0.0-7.0-1.37","FL","ol68ft1h8h","2732","1536","0","1","0","5e5e17c97593e912e086c640","","null","","","learningBlock2","","","","That was a dep.","null","","","","","",""
"html-keyboard-response","360","427141","0.0-7.0-2.37","FL","ol68ft1h8h","2732","1536","0","1","0","5e5e17c97593e912e086c640","","null","","","learningBlock2","","","","<div style=""font-size:60px;""> </div>","null","FL","learning/Slide118.JPG","That was a dep.","","",""
"image-keyboard-response","361","427326","0.0-7.0-0.38","FL","ol68ft1h8h","2732","1536","0","1","0","5e5e17c97593e912e086c640","","null","","","","","","","learning/Slide119.JPG","null","","","","","",""
"html-keyboard-response","362","428489","0.0-7.0-1.38","FL","ol68ft1h8h","2732","1536","0","1","0","5e5e17c97593e912e086c640","","null","","","learningBlock2","","","","That was a wug.","null","","","","","",""
"html-keyboard-response","363","429501","0.0-7.0-2.38","FL","ol68ft1h8h","2732","1536","0","1","0","5e5e17c97593e912e086c640","","null","","","learningBlock2","","","","<div style=""font-size:60px;""> </div>","null","FL","learning/Slide119.JPG","That was a wug.","","",""
"image-keyboard-response","364","429689","0.0-7.0-0.39","FL","ol68ft1h8h","2732","1536","0","1","0","5e5e17c97593e912e086c640","","null","","","","","","","learning/Slide120.JPG","null","","","","","",""
"html-keyboard-response","365","430855","0.0-7.0-1.39","FL","ol68ft1h8h","2732","1536","0","1","0","5e5e17c97593e912e086c640","","null","","","learningBlock2","","","","That was a dep.","null","","","","","",""
"html-keyboard-response","366","431869","0.0-7.0-2.39","FL","ol68ft1h8h","2732","1536","0","1","0","5e5e17c97593e912e086c640","","null","","","learningBlock2","","","","<div style=""font-size:60px;""> </div>","null","FL","learning/Slide120.JPG","That was a dep.","","",""
"image-keyboard-response","367","432055","0.0-7.0-0.40","FL","ol68ft1h8h","2732","1536","0","1","0","5e5e17c97593e912e086c640","","null","","","","","","","learning/Slide121.JPG","null","","","","","",""
"html-keyboard-response","368","433220","0.0-7.0-1.40","FL","ol68ft1h8h","2732","1536","0","1","0","5e5e17c97593e912e086c640","","null","","","learningBlock2","","","","That was a bim.","null","","","","","",""
"html-keyboard-response","369","434232","0.0-7.0-2.40","FL","ol68ft1h8h","2732","1536","0","1","0","5e5e17c97593e912e086c640","","null","","","learningBlock2","","","","<div style=""font-size:60px;""> </div>","null","FL","learning/Slide121.JPG","That was a bim.","","",""
"image-keyboard-response","370","434418","0.0-7.0-0.41","FL","ol68ft1h8h","2732","1536","0","1","0","5e5e17c97593e912e086c640","","null","","","","","","","learning/Slide122.JPG","null","","","","","",""
"html-keyboard-response","371","435593","0.0-7.0-1.41","FL","ol68ft1h8h","2732","1536","0","1","0","5e5e17c97593e912e086c640","","null","","","learningBlock2","","","","That was a wug.","null","","","","","",""
"html-keyboard-response","372","436606","0.0-7.0-2.41","FL","ol68ft1h8h","2732","1536","0","1","0","5e5e17c97593e912e086c640","","null","","","learningBlock2","","","","<div style=""font-size:60px;""> </div>","null","FL","learning/Slide122.JPG","That was a wug.","","",""
"image-keyboard-response","373","436793","0.0-7.0-0.42","FL","ol68ft1h8h","2732","1536","0","1","0","5e5e17c97593e912e086c640","","null","","","","","","","learning/Slide123.JPG","null","","","","","",""
"html-keyboard-response","374","437958","0.0-7.0-1.42","FL","ol68ft1h8h","2732","1536","0","1","0","5e5e17c97593e912e086c640","","null","","","learningBlock2","","","","That was a bim.","null","","","","","",""
"html-keyboard-response","375","438975","0.0-7.0-2.42","FL","ol68ft1h8h","2732","1536","0","1","0","5e5e17c97593e912e086c640","","null","","","learningBlock2","","","","<div style=""font-size:60px;""> </div>","null","FL","learning/Slide123.JPG","That was a bim.","","",""
"image-keyboard-response","376","439158","0.0-7.0-0.43","FL","ol68ft1h8h","2732","1536","0","1","0","5e5e17c97593e912e086c640","","null","","","","","","","learning/Slide124.JPG","null","","","","","",""
"html-keyboard-response","377","440328","0.0-7.0-1.43","FL","ol68ft1h8h","2732","1536","0","1","0","5e5e17c97593e912e086c640","","null","","","learningBlock2","","","","That was a tob.","null","","","","","",""
"html-keyboard-response","378","441330","0.0-7.0-2.43","FL","ol68ft1h8h","2732","1536","0","1","0","5e5e17c97593e912e086c640","","null","","","learningBlock2","","","","<div style=""font-size:60px;""> </div>","null","FL","learning/Slide124.JPG","That was a tob.","","",""
"image-keyboard-response","379","441517","0.0-7.0-0.44","FL","ol68ft1h8h","2732","1536","0","1","0","5e5e17c97593e912e086c640","","null","","","","","","","learning/Slide125.JPG","null","","","","","",""
"html-keyboard-response","380","442678","0.0-7.0-1.44","FL","ol68ft1h8h","2732","1536","0","1","0","5e5e17c97593e912e086c640","","null","","","learningBlock2","","","","That was a bim.","null","","","","","",""
"html-keyboard-response","381","443680","0.0-7.0-2.44","FL","ol68ft1h8h","2732","1536","0","1","0","5e5e17c97593e912e086c640","","null","","","learningBlock2","","","","<div style=""font-size:60px;""> </div>","null","FL","learning/Slide125.JPG","That was a bim.","","",""
"image-keyboard-response","382","443865","0.0-7.0-0.45","FL","ol68ft1h8h","2732","1536","0","1","0","5e5e17c97593e912e086c640","","null","","","","","","","learning/Slide126.JPG","null","","","","","",""
"html-keyboard-response","383","445036","0.0-7.0-1.45","FL","ol68ft1h8h","2732","1536","0","1","0","5e5e17c97593e912e086c640","","null","","","learningBlock2","","","","That was a tob.","null","","","","","",""
"html-keyboard-response","384","446048","0.0-7.0-2.45","FL","ol68ft1h8h","2732","1536","0","1","0","5e5e17c97593e912e086c640","","null","","","learningBlock2","","","","<div style=""font-size:60px;""> </div>","null","FL","learning/Slide126.JPG","That was a tob.","","",""
"image-keyboard-response","385","446234","0.0-7.0-0.46","FL","ol68ft1h8h","2732","1536","0","1","0","5e5e17c97593e912e086c640","","null","","","","","","","learning/Slide127.JPG","null","","","","","",""
"html-keyboard-response","386","447395","0.0-7.0-1.46","FL","ol68ft1h8h","2732","1536","0","1","0","5e5e17c97593e912e086c640","","null","","","learningBlock2","","","","That was a dep.","null","","","","","",""
"html-keyboard-response","387","448404","0.0-7.0-2.46","FL","ol68ft1h8h","2732","1536","0","1","0","5e5e17c97593e912e086c640","","null","","","learningBlock2","","","","<div style=""font-size:60px;""> </div>","null","FL","learning/Slide127.JPG","That was a dep.","","",""
"image-keyboard-response","388","448592","0.0-7.0-0.47","FL","ol68ft1h8h","2732","1536","0","1","0","5e5e17c97593e912e086c640","","null","","","","","","","learning/Slide128.JPG","null","","","","","",""
"html-keyboard-response","389","449757","0.0-7.0-1.47","FL","ol68ft1h8h","2732","1536","0","1","0","5e5e17c97593e912e086c640","","null","","","learningBlock2","","","","That was a wug.","null","","","","","",""
"html-keyboard-response","390","450767","0.0-7.0-2.47","FL","ol68ft1h8h","2732","1536","0","1","0","5e5e17c97593e912e086c640","","null","","","learningBlock2","","","","<div style=""font-size:60px;""> </div>","null","FL","learning/Slide128.JPG","That was a wug.","","",""
"image-keyboard-response","391","450954","0.0-7.0-0.48","FL","ol68ft1h8h","2732","1536","0","1","0","5e5e17c97593e912e086c640","","null","","","","","","","learning/Slide129.JPG","null","","","","","",""
"html-keyboard-response","392","452123","0.0-7.0-1.48","FL","ol68ft1h8h","2732","1536","0","1","0","5e5e17c97593e912e086c640","","null","","","learningBlock2","","","","That was a tob.","null","","","","","",""
"html-keyboard-response","393","453133","0.0-7.0-2.48","FL","ol68ft1h8h","2732","1536","0","1","0","5e5e17c97593e912e086c640","","null","","","learningBlock2","","","","<div style=""font-size:60px;""> </div>","null","FL","learning/Slide129.JPG","That was a tob.","","",""
"image-keyboard-response","394","453310","0.0-7.0-0.49","FL","ol68ft1h8h","2732","1536","0","1","0","5e5e17c97593e912e086c640","","null","","","","","","","learning/Slide130.JPG","null","","","","","",""
"html-keyboard-response","395","454470","0.0-7.0-1.49","FL","ol68ft1h8h","2732","1536","0","1","0","5e5e17c97593e912e086c640","","null","","","learningBlock2","","","","That was a wug.","null","","","","","",""
"html-keyboard-response","396","455479","0.0-7.0-2.49","FL","ol68ft1h8h","2732","1536","0","1","0","5e5e17c97593e912e086c640","","null","","","learningBlock2","","","","<div style=""font-size:60px;""> </div>","null","FL","learning/Slide130.JPG","That was a wug.","","",""
"image-keyboard-response","397","455666","0.0-7.0-0.50","FL","ol68ft1h8h","2732","1536","0","1","0","5e5e17c97593e912e086c640","","null","","","","","","","learning/Slide131.JPG","null","","","","","",""
"html-keyboard-response","398","456830","0.0-7.0-1.50","FL","ol68ft1h8h","2732","1536","0","1","0","5e5e17c97593e912e086c640","","null","","","learningBlock2","","","","That was a bim.","null","","","","","",""
"html-keyboard-response","399","457843","0.0-7.0-2.50","FL","ol68ft1h8h","2732","1536","0","1","0","5e5e17c97593e912e086c640","","null","","","learningBlock2","","","","<div style=""font-size:60px;""> </div>","null","FL","learning/Slide131.JPG","That was a bim.","","",""
"image-keyboard-response","400","458030","0.0-7.0-0.51","FL","ol68ft1h8h","2732","1536","0","1","0","5e5e17c97593e912e086c640","","null","","","","","","","learning/Slide132.JPG","null","","","","","",""
"html-keyboard-response","401","459197","0.0-7.0-1.51","FL","ol68ft1h8h","2732","1536","0","1","0","5e5e17c97593e912e086c640","","null","","","learningBlock2","","","","That was a dep.","null","","","","","",""
"html-keyboard-response","402","460207","0.0-7.0-2.51","FL","ol68ft1h8h","2732","1536","0","1","0","5e5e17c97593e912e086c640","","null","","","learningBlock2","","","","<div style=""font-size:60px;""> </div>","null","FL","learning/Slide132.JPG","That was a dep.","","",""
"image-keyboard-response","403","460395","0.0-7.0-0.52","FL","ol68ft1h8h","2732","1536","0","1","0","5e5e17c97593e912e086c640","","null","","","","","","","learning/Slide133.JPG","null","","","","","",""
"html-keyboard-response","404","461564","0.0-7.0-1.52","FL","ol68ft1h8h","2732","1536","0","1","0","5e5e17c97593e912e086c640","","null","","","learningBlock2","","","","That was a tob.","null","","","","","",""
"html-keyboard-response","405","462572","0.0-7.0-2.52","FL","ol68ft1h8h","2732","1536","0","1","0","5e5e17c97593e912e086c640","","null","","","learningBlock2","","","","<div style=""font-size:60px;""> </div>","null","FL","learning/Slide133.JPG","That was a tob.","","",""
"image-keyboard-response","406","462756","0.0-7.0-0.53","FL","ol68ft1h8h","2732","1536","0","1","0","5e5e17c97593e912e086c640","","null","","","","","","","learning/Slide134.JPG","null","","","","","",""
"html-keyboard-response","407","463926","0.0-7.0-1.53","FL","ol68ft1h8h","2732","1536","0","1","0","5e5e17c97593e912e086c640","","null","","","learningBlock2","","","","That was a dep.","null","","","","","",""
"html-keyboard-response","408","464942","0.0-7.0-2.53","FL","ol68ft1h8h","2732","1536","0","1","0","5e5e17c97593e912e086c640","","null","","","learningBlock2","","","","<div style=""font-size:60px;""> </div>","null","FL","learning/Slide134.JPG","That was a dep.","","",""
"image-keyboard-response","409","465127","0.0-7.0-0.54","FL","ol68ft1h8h","2732","1536","0","1","0","5e5e17c97593e912e086c640","","null","","","","","","","learning/Slide135.JPG","null","","","","","",""
"html-keyboard-response","410","466299","0.0-7.0-1.54","FL","ol68ft1h8h","2732","1536","0","1","0","5e5e17c97593e912e086c640","","null","","","learningBlock2","","","","That was a tob.","null","","","","","",""
"html-keyboard-response","411","467306","0.0-7.0-2.54","FL","ol68ft1h8h","2732","1536","0","1","0","5e5e17c97593e912e086c640","","null","","","learningBlock2","","","","<div style=""font-size:60px;""> </div>","null","FL","learning/Slide135.JPG","That was a tob.","","",""
"image-keyboard-response","412","467490","0.0-7.0-0.55","FL","ol68ft1h8h","2732","1536","0","1","0","5e5e17c97593e912e086c640","","null","","","","","","","learning/Slide136.JPG","null","","","","","",""
"html-keyboard-response","413","468657","0.0-7.0-1.55","FL","ol68ft1h8h","2732","1536","0","1","0","5e5e17c97593e912e086c640","","null","","","learningBlock2","","","","That was a wug.","null","","","","","",""
"html-keyboard-response","414","469670","0.0-7.0-2.55","FL","ol68ft1h8h","2732","1536","0","1","0","5e5e17c97593e912e086c640","","null","","","learningBlock2","","","","<div style=""font-size:60px;""> </div>","null","FL","learning/Slide136.JPG","That was a wug.","","",""
"image-keyboard-response","415","469855","0.0-7.0-0.56","FL","ol68ft1h8h","2732","1536","0","1","0","5e5e17c97593e912e086c640","","null","","","","","","","learning/Slide137.JPG","null","","","","","",""
"html-keyboard-response","416","471023","0.0-7.0-1.56","FL","ol68ft1h8h","2732","1536","0","1","0","5e5e17c97593e912e086c640","","null","","","learningBlock2","","","","That was a tob.","null","","","","","",""
"html-keyboard-response","417","472032","0.0-7.0-2.56","FL","ol68ft1h8h","2732","1536","0","1","0","5e5e17c97593e912e086c640","","null","","","learningBlock2","","","","<div style=""font-size:60px;""> </div>","null","FL","learning/Slide137.JPG","That was a tob.","","",""
"image-keyboard-response","418","472216","0.0-7.0-0.57","FL","ol68ft1h8h","2732","1536","0","1","0","5e5e17c97593e912e086c640","","null","","","","","","","learning/Slide138.JPG","null","","","","","",""
"html-keyboard-response","419","473382","0.0-7.0-1.57","FL","ol68ft1h8h","2732","1536","0","1","0","5e5e17c97593e912e086c640","","null","","","learningBlock2","","","","That was a bim.","null","","","","","",""
"html-keyboard-response","420","474391","0.0-7.0-2.57","FL","ol68ft1h8h","2732","1536","0","1","0","5e5e17c97593e912e086c640","","null","","","learningBlock2","","","","<div style=""font-size:60px;""> </div>","null","FL","learning/Slide138.JPG","That was a bim.","","",""
"image-keyboard-response","421","474578","0.0-7.0-0.58","FL","ol68ft1h8h","2732","1536","0","1","0","5e5e17c97593e912e086c640","","null","","","","","","","learning/Slide139.JPG","null","","","","","",""
"html-keyboard-response","422","475738","0.0-7.0-1.58","FL","ol68ft1h8h","2732","1536","0","1","0","5e5e17c97593e912e086c640","","null","","","learningBlock2","","","","That was a wug.","null","","","","","",""
"html-keyboard-response","423","476748","0.0-7.0-2.58","FL","ol68ft1h8h","2732","1536","0","1","0","5e5e17c97593e912e086c640","","null","","","learningBlock2","","","","<div style=""font-size:60px;""> </div>","null","FL","learning/Slide139.JPG","That was a wug.","","",""
"image-keyboard-response","424","476950","0.0-7.0-0.59","FL","ol68ft1h8h","2732","1536","0","1","0","5e5e17c97593e912e086c640","","null","","","","","","","learning/Slide140.JPG","null","","","","","",""
"html-keyboard-response","425","478117","0.0-7.0-1.59","FL","ol68ft1h8h","2732","1536","0","1","0","5e5e17c97593e912e086c640","","null","","","learningBlock2","","","","That was a dep.","null","","","","","",""
"html-keyboard-response","426","479134","0.0-7.0-2.59","FL","ol68ft1h8h","2732","1536","0","1","0","5e5e17c97593e912e086c640","","null","","","learningBlock2","","","","<div style=""font-size:60px;""> </div>","null","FL","learning/Slide140.JPG","That was a dep.","","",""
"image-keyboard-response","427","479319","0.0-7.0-0.60","FL","ol68ft1h8h","2732","1536","0","1","0","5e5e17c97593e912e086c640","","null","","","","","","","learning/Slide141.JPG","null","","","","","",""
"html-keyboard-response","428","480478","0.0-7.0-1.60","FL","ol68ft1h8h","2732","1536","0","1","0","5e5e17c97593e912e086c640","","null","","","learningBlock2","","","","That was a tob.","null","","","","","",""
"html-keyboard-response","429","481493","0.0-7.0-2.60","FL","ol68ft1h8h","2732","1536","0","1","0","5e5e17c97593e912e086c640","","null","","","learningBlock2","","","","<div style=""font-size:60px;""> </div>","null","FL","learning/Slide141.JPG","That was a tob.","","",""
"image-keyboard-response","430","481679","0.0-7.0-0.61","FL","ol68ft1h8h","2732","1536","0","1","0","5e5e17c97593e912e086c640","","null","","","","","","","learning/Slide142.JPG","null","","","","","",""
"html-keyboard-response","431","482847","0.0-7.0-1.61","FL","ol68ft1h8h","2732","1536","0","1","0","5e5e17c97593e912e086c640","","null","","","learningBlock2","","","","That was a wug.","null","","","","","",""
"html-keyboard-response","432","483856","0.0-7.0-2.61","FL","ol68ft1h8h","2732","1536","0","1","0","5e5e17c97593e912e086c640","","null","","","learningBlock2","","","","<div style=""font-size:60px;""> </div>","null","FL","learning/Slide142.JPG","That was a wug.","","",""
"image-keyboard-response","433","484044","0.0-7.0-0.62","FL","ol68ft1h8h","2732","1536","0","1","0","5e5e17c97593e912e086c640","","null","","","","","","","learning/Slide143.JPG","null","","","","","",""
"html-keyboard-response","434","485199","0.0-7.0-1.62","FL","ol68ft1h8h","2732","1536","0","1","0","5e5e17c97593e912e086c640","","null","","","learningBlock2","","","","That was a bim.","null","","","","","",""
