"trial_type","trial_index","time_elapsed","internal_node_id","condition","subject","screen_width","screen_height","attention","distraction","conscientious","prolificID","success","rt","url","view_history","test_part","final_height_px","final_width_px","scale_factor","stimulus","key_press","learningType","presentedImage","presentedLabel","button_pressed","response","responses"
"pavlovia","0","31","0.0-0.0","LF","gcrz58pdx0","1920","1080","0","1","1","5f9b106e21189e2d3b853846","","","","","","","","","","","","","","","",""
"fullscreen","1","2926","0.0-1.0","LF","gcrz58pdx0","1920","1080","0","1","1","5f9b106e21189e2d3b853846","true","","","","","","","","","","","","","","",""
"external-html","2","6732","0.0-2.0-0.0","LF","gcrz58pdx0","1920","1080","0","1","1","5f9b106e21189e2d3b853846","","3733.1600000034086","text/information_english.html","","","","","","","","","","","","",""
"external-html","3","17452","0.0-2.0-1.0","LF","gcrz58pdx0","1920","1080","0","1","1","5f9b106e21189e2d3b853846","","10669.239999959245","text/consent_english.html","","","","","","","","","","","","",""
"instructions","4","28157","0.0-3.0","LF","gcrz58pdx0","1920","1080","0","1","1","5f9b106e21189e2d3b853846","","NA","","[{""page_index"":0,""viewing_time"":1342.8950000088662},{""page_index"":1,""viewing_time"":9359.760000021197}]","instructions","","","","","","","","","","",""
"resize","5","51204","0.0-4.0","LF","gcrz58pdx0","1920","1080","0","1","1","5f9b106e21189e2d3b853846","","","","","","","346","2.196825396825397","","","","","","","",""
"html-keyboard-response","6","52208","0.0-5.0-0.0","LF","gcrz58pdx0","1920","1080","0","1","1","5f9b106e21189e2d3b853846","","null","","","learningBlock1","","","","This is a tob:","null","","","","","",""
"image-keyboard-response","7","52536","0.0-5.0-1.0","LF","gcrz58pdx0","1920","1080","0","1","1","5f9b106e21189e2d3b853846","","null","","","","","","","learning/Slide1.JPG","null","","","","","",""
"html-keyboard-response","8","53538","0.0-5.0-2.0","LF","gcrz58pdx0","1920","1080","0","1","1","5f9b106e21189e2d3b853846","","null","","","learningBlock1","","","","<div style=""font-size:60px;""> </div>","null","LF","learning/Slide1.JPG","This is a tob:","","",""
"html-keyboard-response","9","54540","0.0-5.0-0.1","LF","gcrz58pdx0","1920","1080","0","1","1","5f9b106e21189e2d3b853846","","null","","","learningBlock1","","","","This is a wug:","null","","","","","",""
"image-keyboard-response","10","54868","0.0-5.0-1.1","LF","gcrz58pdx0","1920","1080","0","1","1","5f9b106e21189e2d3b853846","","null","","","","","","","learning/Slide2.JPG","null","","","","","",""
"html-keyboard-response","11","55871","0.0-5.0-2.1","LF","gcrz58pdx0","1920","1080","0","1","1","5f9b106e21189e2d3b853846","","null","","","learningBlock1","","","","<div style=""font-size:60px;""> </div>","null","LF","learning/Slide2.JPG","This is a wug:","","",""
"html-keyboard-response","12","56873","0.0-5.0-0.2","LF","gcrz58pdx0","1920","1080","0","1","1","5f9b106e21189e2d3b853846","","null","","","learningBlock1","","","","This is a bim:","null","","","","","",""
"image-keyboard-response","13","57201","0.0-5.0-1.2","LF","gcrz58pdx0","1920","1080","0","1","1","5f9b106e21189e2d3b853846","","null","","","","","","","learning/Slide3.JPG","null","","","","","",""
"html-keyboard-response","14","58202","0.0-5.0-2.2","LF","gcrz58pdx0","1920","1080","0","1","1","5f9b106e21189e2d3b853846","","null","","","learningBlock1","","","","<div style=""font-size:60px;""> </div>","null","LF","learning/Slide3.JPG","This is a bim:","","",""
"html-keyboard-response","15","59204","0.0-5.0-0.3","LF","gcrz58pdx0","1920","1080","0","1","1","5f9b106e21189e2d3b853846","","null","","","learningBlock1","","","","This is a dep:","null","","","","","",""
"image-keyboard-response","16","59532","0.0-5.0-1.3","LF","gcrz58pdx0","1920","1080","0","1","1","5f9b106e21189e2d3b853846","","null","","","","","","","learning/Slide4.JPG","null","","","","","",""
"html-keyboard-response","17","60533","0.0-5.0-2.3","LF","gcrz58pdx0","1920","1080","0","1","1","5f9b106e21189e2d3b853846","","null","","","learningBlock1","","","","<div style=""font-size:60px;""> </div>","null","LF","learning/Slide4.JPG","This is a dep:","","",""
"html-keyboard-response","18","61535","0.0-5.0-0.4","LF","gcrz58pdx0","1920","1080","0","1","1","5f9b106e21189e2d3b853846","","null","","","learningBlock1","","","","This is a wug:","null","","","","","",""
"image-keyboard-response","19","61864","0.0-5.0-1.4","LF","gcrz58pdx0","1920","1080","0","1","1","5f9b106e21189e2d3b853846","","null","","","","","","","learning/Slide5.JPG","null","","","","","",""
"html-keyboard-response","20","62865","0.0-5.0-2.4","LF","gcrz58pdx0","1920","1080","0","1","1","5f9b106e21189e2d3b853846","","null","","","learningBlock1","","","","<div style=""font-size:60px;""> </div>","null","LF","learning/Slide5.JPG","This is a wug:","","",""
"html-keyboard-response","21","63866","0.0-5.0-0.5","LF","gcrz58pdx0","1920","1080","0","1","1","5f9b106e21189e2d3b853846","","null","","","learningBlock1","","","","This is a dep:","null","","","","","",""
"image-keyboard-response","22","64194","0.0-5.0-1.5","LF","gcrz58pdx0","1920","1080","0","1","1","5f9b106e21189e2d3b853846","","null","","","","","","","learning/Slide6.JPG","null","","","","","",""
"html-keyboard-response","23","65197","0.0-5.0-2.5","LF","gcrz58pdx0","1920","1080","0","1","1","5f9b106e21189e2d3b853846","","null","","","learningBlock1","","","","<div style=""font-size:60px;""> </div>","null","LF","learning/Slide6.JPG","This is a dep:","","",""
"html-keyboard-response","24","66199","0.0-5.0-0.6","LF","gcrz58pdx0","1920","1080","0","1","1","5f9b106e21189e2d3b853846","","null","","","learningBlock1","","","","This is a wug:","null","","","","","",""
"image-keyboard-response","25","66527","0.0-5.0-1.6","LF","gcrz58pdx0","1920","1080","0","1","1","5f9b106e21189e2d3b853846","","null","","","","","","","learning/Slide7.JPG","null","","","","","",""
"html-keyboard-response","26","67528","0.0-5.0-2.6","LF","gcrz58pdx0","1920","1080","0","1","1","5f9b106e21189e2d3b853846","","null","","","learningBlock1","","","","<div style=""font-size:60px;""> </div>","null","LF","learning/Slide7.JPG","This is a wug:","","",""
"html-keyboard-response","27","68530","0.0-5.0-0.7","LF","gcrz58pdx0","1920","1080","0","1","1","5f9b106e21189e2d3b853846","","null","","","learningBlock1","","","","This is a bim:","null","","","","","",""
"image-keyboard-response","28","68856","0.0-5.0-1.7","LF","gcrz58pdx0","1920","1080","0","1","1","5f9b106e21189e2d3b853846","","null","","","","","","","learning/Slide8.JPG","null","","","","","",""
"html-keyboard-response","29","69857","0.0-5.0-2.7","LF","gcrz58pdx0","1920","1080","0","1","1","5f9b106e21189e2d3b853846","","null","","","learningBlock1","","","","<div style=""font-size:60px;""> </div>","null","LF","learning/Slide8.JPG","This is a bim:","","",""
"html-keyboard-response","30","70858","0.0-5.0-0.8","LF","gcrz58pdx0","1920","1080","0","1","1","5f9b106e21189e2d3b853846","","null","","","learningBlock1","","","","This is a wug:","null","","","","","",""
"image-keyboard-response","31","71184","0.0-5.0-1.8","LF","gcrz58pdx0","1920","1080","0","1","1","5f9b106e21189e2d3b853846","","null","","","","","","","learning/Slide9.JPG","null","","","","","",""
"html-keyboard-response","32","72186","0.0-5.0-2.8","LF","gcrz58pdx0","1920","1080","0","1","1","5f9b106e21189e2d3b853846","","null","","","learningBlock1","","","","<div style=""font-size:60px;""> </div>","null","LF","learning/Slide9.JPG","This is a wug:","","",""
"html-keyboard-response","33","73187","0.0-5.0-0.9","LF","gcrz58pdx0","1920","1080","0","1","1","5f9b106e21189e2d3b853846","","null","","","learningBlock1","","","","This is a dep:","null","","","","","",""
"image-keyboard-response","34","73513","0.0-5.0-1.9","LF","gcrz58pdx0","1920","1080","0","1","1","5f9b106e21189e2d3b853846","","null","","","","","","","learning/Slide10.JPG","null","","","","","",""
"html-keyboard-response","35","74515","0.0-5.0-2.9","LF","gcrz58pdx0","1920","1080","0","1","1","5f9b106e21189e2d3b853846","","null","","","learningBlock1","","","","<div style=""font-size:60px;""> </div>","null","LF","learning/Slide10.JPG","This is a dep:","","",""
"html-keyboard-response","36","75517","0.0-5.0-0.10","LF","gcrz58pdx0","1920","1080","0","1","1","5f9b106e21189e2d3b853846","","null","","","learningBlock1","","","","This is a tob:","null","","","","","",""
"image-keyboard-response","37","75846","0.0-5.0-1.10","LF","gcrz58pdx0","1920","1080","0","1","1","5f9b106e21189e2d3b853846","","null","","","","","","","learning/Slide11.JPG","null","","","","","",""
"html-keyboard-response","38","76847","0.0-5.0-2.10","LF","gcrz58pdx0","1920","1080","0","1","1","5f9b106e21189e2d3b853846","","null","","","learningBlock1","","","","<div style=""font-size:60px;""> </div>","null","LF","learning/Slide11.JPG","This is a tob:","","",""
"html-keyboard-response","39","77848","0.0-5.0-0.11","LF","gcrz58pdx0","1920","1080","0","1","1","5f9b106e21189e2d3b853846","","null","","","learningBlock1","","","","This is a dep:","null","","","","","",""
"image-keyboard-response","40","78176","0.0-5.0-1.11","LF","gcrz58pdx0","1920","1080","0","1","1","5f9b106e21189e2d3b853846","","null","","","","","","","learning/Slide12.JPG","null","","","","","",""
"html-keyboard-response","41","79177","0.0-5.0-2.11","LF","gcrz58pdx0","1920","1080","0","1","1","5f9b106e21189e2d3b853846","","null","","","learningBlock1","","","","<div style=""font-size:60px;""> </div>","null","LF","learning/Slide12.JPG","This is a dep:","","",""
"html-keyboard-response","42","80179","0.0-5.0-0.12","LF","gcrz58pdx0","1920","1080","0","1","1","5f9b106e21189e2d3b853846","","null","","","learningBlock1","","","","This is a bim:","null","","","","","",""
"image-keyboard-response","43","80507","0.0-5.0-1.12","LF","gcrz58pdx0","1920","1080","0","1","1","5f9b106e21189e2d3b853846","","null","","","","","","","learning/Slide13.JPG","null","","","","","",""
"html-keyboard-response","44","81508","0.0-5.0-2.12","LF","gcrz58pdx0","1920","1080","0","1","1","5f9b106e21189e2d3b853846","","null","","","learningBlock1","","","","<div style=""font-size:60px;""> </div>","null","LF","learning/Slide13.JPG","This is a bim:","","",""
"html-keyboard-response","45","82511","0.0-5.0-0.13","LF","gcrz58pdx0","1920","1080","0","1","1","5f9b106e21189e2d3b853846","","null","","","learningBlock1","","","","This is a wug:","null","","","","","",""
"image-keyboard-response","46","82838","0.0-5.0-1.13","LF","gcrz58pdx0","1920","1080","0","1","1","5f9b106e21189e2d3b853846","","null","","","","","","","learning/Slide14.JPG","null","","","","","",""
"html-keyboard-response","47","83840","0.0-5.0-2.13","LF","gcrz58pdx0","1920","1080","0","1","1","5f9b106e21189e2d3b853846","","null","","","learningBlock1","","","","<div style=""font-size:60px;""> </div>","null","LF","learning/Slide14.JPG","This is a wug:","","",""
"html-keyboard-response","48","84840","0.0-5.0-0.14","LF","gcrz58pdx0","1920","1080","0","1","1","5f9b106e21189e2d3b853846","","null","","","learningBlock1","","","","This is a tob:","null","","","","","",""
"image-keyboard-response","49","85167","0.0-5.0-1.14","LF","gcrz58pdx0","1920","1080","0","1","1","5f9b106e21189e2d3b853846","","null","","","","","","","learning/Slide15.JPG","null","","","","","",""
"html-keyboard-response","50","86168","0.0-5.0-2.14","LF","gcrz58pdx0","1920","1080","0","1","1","5f9b106e21189e2d3b853846","","null","","","learningBlock1","","","","<div style=""font-size:60px;""> </div>","null","LF","learning/Slide15.JPG","This is a tob:","","",""
"html-keyboard-response","51","87170","0.0-5.0-0.15","LF","gcrz58pdx0","1920","1080","0","1","1","5f9b106e21189e2d3b853846","","null","","","learningBlock1","","","","This is a dep:","null","","","","","",""
"image-keyboard-response","52","87500","0.0-5.0-1.15","LF","gcrz58pdx0","1920","1080","0","1","1","5f9b106e21189e2d3b853846","","null","","","","","","","learning/Slide16.JPG","null","","","","","",""
"html-keyboard-response","53","88502","0.0-5.0-2.15","LF","gcrz58pdx0","1920","1080","0","1","1","5f9b106e21189e2d3b853846","","null","","","learningBlock1","","","","<div style=""font-size:60px;""> </div>","null","LF","learning/Slide16.JPG","This is a dep:","","",""
"html-keyboard-response","54","89504","0.0-5.0-0.16","LF","gcrz58pdx0","1920","1080","0","1","1","5f9b106e21189e2d3b853846","","null","","","learningBlock1","","","","This is a bim:","null","","","","","",""
"image-keyboard-response","55","89830","0.0-5.0-1.16","LF","gcrz58pdx0","1920","1080","0","1","1","5f9b106e21189e2d3b853846","","null","","","","","","","learning/Slide17.JPG","null","","","","","",""
"html-keyboard-response","56","90832","0.0-5.0-2.16","LF","gcrz58pdx0","1920","1080","0","1","1","5f9b106e21189e2d3b853846","","null","","","learningBlock1","","","","<div style=""font-size:60px;""> </div>","null","LF","learning/Slide17.JPG","This is a bim:","","",""
"html-keyboard-response","57","91834","0.0-5.0-0.17","LF","gcrz58pdx0","1920","1080","0","1","1","5f9b106e21189e2d3b853846","","null","","","learningBlock1","","","","This is a tob:","null","","","","","",""
"image-keyboard-response","58","92162","0.0-5.0-1.17","LF","gcrz58pdx0","1920","1080","0","1","1","5f9b106e21189e2d3b853846","","null","","","","","","","learning/Slide18.JPG","null","","","","","",""
"html-keyboard-response","59","93163","0.0-5.0-2.17","LF","gcrz58pdx0","1920","1080","0","1","1","5f9b106e21189e2d3b853846","","null","","","learningBlock1","","","","<div style=""font-size:60px;""> </div>","null","LF","learning/Slide18.JPG","This is a tob:","","",""
"html-keyboard-response","60","94164","0.0-5.0-0.18","LF","gcrz58pdx0","1920","1080","0","1","1","5f9b106e21189e2d3b853846","","null","","","learningBlock1","","","","This is a wug:","null","","","","","",""
"image-keyboard-response","61","94492","0.0-5.0-1.18","LF","gcrz58pdx0","1920","1080","0","1","1","5f9b106e21189e2d3b853846","","null","","","","","","","learning/Slide19.JPG","null","","","","","",""
"html-keyboard-response","62","95493","0.0-5.0-2.18","LF","gcrz58pdx0","1920","1080","0","1","1","5f9b106e21189e2d3b853846","","null","","","learningBlock1","","","","<div style=""font-size:60px;""> </div>","null","LF","learning/Slide19.JPG","This is a wug:","","",""
"html-keyboard-response","63","96495","0.0-5.0-0.19","LF","gcrz58pdx0","1920","1080","0","1","1","5f9b106e21189e2d3b853846","","null","","","learningBlock1","","","","This is a bim:","null","","","","","",""
"image-keyboard-response","64","96824","0.0-5.0-1.19","LF","gcrz58pdx0","1920","1080","0","1","1","5f9b106e21189e2d3b853846","","null","","","","","","","learning/Slide20.JPG","null","","","","","",""
"html-keyboard-response","65","97829","0.0-5.0-2.19","LF","gcrz58pdx0","1920","1080","0","1","1","5f9b106e21189e2d3b853846","","null","","","learningBlock1","","","","<div style=""font-size:60px;""> </div>","null","LF","learning/Slide20.JPG","This is a bim:","","",""
"html-keyboard-response","66","98832","0.0-5.0-0.20","LF","gcrz58pdx0","1920","1080","0","1","1","5f9b106e21189e2d3b853846","","null","","","learningBlock1","","","","This is a dep:","null","","","","","",""
"image-keyboard-response","67","99160","0.0-5.0-1.20","LF","gcrz58pdx0","1920","1080","0","1","1","5f9b106e21189e2d3b853846","","null","","","","","","","learning/Slide21.JPG","null","","","","","",""
"html-keyboard-response","68","100162","0.0-5.0-2.20","LF","gcrz58pdx0","1920","1080","0","1","1","5f9b106e21189e2d3b853846","","null","","","learningBlock1","","","","<div style=""font-size:60px;""> </div>","null","LF","learning/Slide21.JPG","This is a dep:","","",""
"html-keyboard-response","69","101164","0.0-5.0-0.21","LF","gcrz58pdx0","1920","1080","0","1","1","5f9b106e21189e2d3b853846","","null","","","learningBlock1","","","","This is a bim:","null","","","","","",""
"image-keyboard-response","70","101492","0.0-5.0-1.21","LF","gcrz58pdx0","1920","1080","0","1","1","5f9b106e21189e2d3b853846","","null","","","","","","","learning/Slide22.JPG","null","","","","","",""
"html-keyboard-response","71","102493","0.0-5.0-2.21","LF","gcrz58pdx0","1920","1080","0","1","1","5f9b106e21189e2d3b853846","","null","","","learningBlock1","","","","<div style=""font-size:60px;""> </div>","null","LF","learning/Slide22.JPG","This is a bim:","","",""
"html-keyboard-response","72","103495","0.0-5.0-0.22","LF","gcrz58pdx0","1920","1080","0","1","1","5f9b106e21189e2d3b853846","","null","","","learningBlock1","","","","This is a tob:","null","","","","","",""
"image-keyboard-response","73","103822","0.0-5.0-1.22","LF","gcrz58pdx0","1920","1080","0","1","1","5f9b106e21189e2d3b853846","","null","","","","","","","learning/Slide23.JPG","null","","","","","",""
"html-keyboard-response","74","104825","0.0-5.0-2.22","LF","gcrz58pdx0","1920","1080","0","1","1","5f9b106e21189e2d3b853846","","null","","","learningBlock1","","","","<div style=""font-size:60px;""> </div>","null","LF","learning/Slide23.JPG","This is a tob:","","",""
"html-keyboard-response","75","105826","0.0-5.0-0.23","LF","gcrz58pdx0","1920","1080","0","1","1","5f9b106e21189e2d3b853846","","null","","","learningBlock1","","","","This is a wug:","null","","","","","",""
"image-keyboard-response","76","106153","0.0-5.0-1.23","LF","gcrz58pdx0","1920","1080","0","1","1","5f9b106e21189e2d3b853846","","null","","","","","","","learning/Slide24.JPG","null","","","","","",""
"html-keyboard-response","77","107157","0.0-5.0-2.23","LF","gcrz58pdx0","1920","1080","0","1","1","5f9b106e21189e2d3b853846","","null","","","learningBlock1","","","","<div style=""font-size:60px;""> </div>","null","LF","learning/Slide24.JPG","This is a wug:","","",""
"html-keyboard-response","78","108159","0.0-5.0-0.24","LF","gcrz58pdx0","1920","1080","0","1","1","5f9b106e21189e2d3b853846","","null","","","learningBlock1","","","","This is a dep:","null","","","","","",""
"image-keyboard-response","79","108487","0.0-5.0-1.24","LF","gcrz58pdx0","1920","1080","0","1","1","5f9b106e21189e2d3b853846","","null","","","","","","","learning/Slide25.JPG","null","","","","","",""
"html-keyboard-response","80","109488","0.0-5.0-2.24","LF","gcrz58pdx0","1920","1080","0","1","1","5f9b106e21189e2d3b853846","","null","","","learningBlock1","","","","<div style=""font-size:60px;""> </div>","null","LF","learning/Slide25.JPG","This is a dep:","","",""
"html-keyboard-response","81","110491","0.0-5.0-0.25","LF","gcrz58pdx0","1920","1080","0","1","1","5f9b106e21189e2d3b853846","","null","","","learningBlock1","","","","This is a wug:","null","","","","","",""
"image-keyboard-response","82","110819","0.0-5.0-1.25","LF","gcrz58pdx0","1920","1080","0","1","1","5f9b106e21189e2d3b853846","","null","","","","","","","learning/Slide26.JPG","null","","","","","",""
"html-keyboard-response","83","111821","0.0-5.0-2.25","LF","gcrz58pdx0","1920","1080","0","1","1","5f9b106e21189e2d3b853846","","null","","","learningBlock1","","","","<div style=""font-size:60px;""> </div>","null","LF","learning/Slide26.JPG","This is a wug:","","",""
"html-keyboard-response","84","112822","0.0-5.0-0.26","LF","gcrz58pdx0","1920","1080","0","1","1","5f9b106e21189e2d3b853846","","null","","","learningBlock1","","","","This is a bim:","null","","","","","",""
"image-keyboard-response","85","113150","0.0-5.0-1.26","LF","gcrz58pdx0","1920","1080","0","1","1","5f9b106e21189e2d3b853846","","null","","","","","","","learning/Slide27.JPG","null","","","","","",""
"html-keyboard-response","86","114152","0.0-5.0-2.26","LF","gcrz58pdx0","1920","1080","0","1","1","5f9b106e21189e2d3b853846","","null","","","learningBlock1","","","","<div style=""font-size:60px;""> </div>","null","LF","learning/Slide27.JPG","This is a bim:","","",""
"html-keyboard-response","87","115154","0.0-5.0-0.27","LF","gcrz58pdx0","1920","1080","0","1","1","5f9b106e21189e2d3b853846","","null","","","learningBlock1","","","","This is a dep:","null","","","","","",""
"image-keyboard-response","88","115481","0.0-5.0-1.27","LF","gcrz58pdx0","1920","1080","0","1","1","5f9b106e21189e2d3b853846","","null","","","","","","","learning/Slide28.JPG","null","","","","","",""
"html-keyboard-response","89","116482","0.0-5.0-2.27","LF","gcrz58pdx0","1920","1080","0","1","1","5f9b106e21189e2d3b853846","","null","","","learningBlock1","","","","<div style=""font-size:60px;""> </div>","null","LF","learning/Slide28.JPG","This is a dep:","","",""
"html-keyboard-response","90","117485","0.0-5.0-0.28","LF","gcrz58pdx0","1920","1080","0","1","1","5f9b106e21189e2d3b853846","","null","","","learningBlock1","","","","This is a tob:","null","","","","","",""
"image-keyboard-response","91","117813","0.0-5.0-1.28","LF","gcrz58pdx0","1920","1080","0","1","1","5f9b106e21189e2d3b853846","","null","","","","","","","learning/Slide29.JPG","null","","","","","",""
"html-keyboard-response","92","118814","0.0-5.0-2.28","LF","gcrz58pdx0","1920","1080","0","1","1","5f9b106e21189e2d3b853846","","null","","","learningBlock1","","","","<div style=""font-size:60px;""> </div>","null","LF","learning/Slide29.JPG","This is a tob:","","",""
"html-keyboard-response","93","119816","0.0-5.0-0.29","LF","gcrz58pdx0","1920","1080","0","1","1","5f9b106e21189e2d3b853846","","null","","","learningBlock1","","","","This is a dep:","null","","","","","",""
"image-keyboard-response","94","120144","0.0-5.0-1.29","LF","gcrz58pdx0","1920","1080","0","1","1","5f9b106e21189e2d3b853846","","null","","","","","","","learning/Slide30.JPG","null","","","","","",""
"html-keyboard-response","95","121146","0.0-5.0-2.29","LF","gcrz58pdx0","1920","1080","0","1","1","5f9b106e21189e2d3b853846","","null","","","learningBlock1","","","","<div style=""font-size:60px;""> </div>","null","LF","learning/Slide30.JPG","This is a dep:","","",""
"html-keyboard-response","96","122147","0.0-5.0-0.30","LF","gcrz58pdx0","1920","1080","0","1","1","5f9b106e21189e2d3b853846","","null","","","learningBlock1","","","","This is a wug:","null","","","","","",""
"image-keyboard-response","97","122476","0.0-5.0-1.30","LF","gcrz58pdx0","1920","1080","0","1","1","5f9b106e21189e2d3b853846","","null","","","","","","","learning/Slide31.JPG","null","","","","","",""
"html-keyboard-response","98","123477","0.0-5.0-2.30","LF","gcrz58pdx0","1920","1080","0","1","1","5f9b106e21189e2d3b853846","","null","","","learningBlock1","","","","<div style=""font-size:60px;""> </div>","null","LF","learning/Slide31.JPG","This is a wug:","","",""
"html-keyboard-response","99","124479","0.0-5.0-0.31","LF","gcrz58pdx0","1920","1080","0","1","1","5f9b106e21189e2d3b853846","","null","","","learningBlock1","","","","This is a tob:","null","","","","","",""
"image-keyboard-response","100","124806","0.0-5.0-1.31","LF","gcrz58pdx0","1920","1080","0","1","1","5f9b106e21189e2d3b853846","","null","","","","","","","learning/Slide32.JPG","null","","","","","",""
"html-keyboard-response","101","125809","0.0-5.0-2.31","LF","gcrz58pdx0","1920","1080","0","1","1","5f9b106e21189e2d3b853846","","null","","","learningBlock1","","","","<div style=""font-size:60px;""> </div>","null","LF","learning/Slide32.JPG","This is a tob:","","",""
"html-keyboard-response","102","126810","0.0-5.0-0.32","LF","gcrz58pdx0","1920","1080","0","1","1","5f9b106e21189e2d3b853846","","null","","","learningBlock1","","","","This is a bim:","null","","","","","",""
"image-keyboard-response","103","127137","0.0-5.0-1.32","LF","gcrz58pdx0","1920","1080","0","1","1","5f9b106e21189e2d3b853846","","null","","","","","","","learning/Slide33.JPG","null","","","","","",""
"html-keyboard-response","104","128139","0.0-5.0-2.32","LF","gcrz58pdx0","1920","1080","0","1","1","5f9b106e21189e2d3b853846","","null","","","learningBlock1","","","","<div style=""font-size:60px;""> </div>","null","LF","learning/Slide33.JPG","This is a bim:","","",""
"html-keyboard-response","105","129141","0.0-5.0-0.33","LF","gcrz58pdx0","1920","1080","0","1","1","5f9b106e21189e2d3b853846","","null","","","learningBlock1","","","","This is a tob:","null","","","","","",""
"image-keyboard-response","106","129469","0.0-5.0-1.33","LF","gcrz58pdx0","1920","1080","0","1","1","5f9b106e21189e2d3b853846","","null","","","","","","","learning/Slide34.JPG","null","","","","","",""
"html-keyboard-response","107","130470","0.0-5.0-2.33","LF","gcrz58pdx0","1920","1080","0","1","1","5f9b106e21189e2d3b853846","","null","","","learningBlock1","","","","<div style=""font-size:60px;""> </div>","null","LF","learning/Slide34.JPG","This is a tob:","","",""
"html-keyboard-response","108","131471","0.0-5.0-0.34","LF","gcrz58pdx0","1920","1080","0","1","1","5f9b106e21189e2d3b853846","","null","","","learningBlock1","","","","This is a bim:","null","","","","","",""
"image-keyboard-response","109","131798","0.0-5.0-1.34","LF","gcrz58pdx0","1920","1080","0","1","1","5f9b106e21189e2d3b853846","","null","","","","","","","learning/Slide35.JPG","null","","","","","",""
"html-keyboard-response","110","132799","0.0-5.0-2.34","LF","gcrz58pdx0","1920","1080","0","1","1","5f9b106e21189e2d3b853846","","null","","","learningBlock1","","","","<div style=""font-size:60px;""> </div>","null","LF","learning/Slide35.JPG","This is a bim:","","",""
"html-keyboard-response","111","133801","0.0-5.0-0.35","LF","gcrz58pdx0","1920","1080","0","1","1","5f9b106e21189e2d3b853846","","null","","","learningBlock1","","","","This is a dep:","null","","","","","",""
"image-keyboard-response","112","134127","0.0-5.0-1.35","LF","gcrz58pdx0","1920","1080","0","1","1","5f9b106e21189e2d3b853846","","null","","","","","","","learning/Slide36.JPG","null","","","","","",""
"html-keyboard-response","113","135131","0.0-5.0-2.35","LF","gcrz58pdx0","1920","1080","0","1","1","5f9b106e21189e2d3b853846","","null","","","learningBlock1","","","","<div style=""font-size:60px;""> </div>","null","LF","learning/Slide36.JPG","This is a dep:","","",""
"html-keyboard-response","114","136132","0.0-5.0-0.36","LF","gcrz58pdx0","1920","1080","0","1","1","5f9b106e21189e2d3b853846","","null","","","learningBlock1","","","","This is a tob:","null","","","","","",""
"image-keyboard-response","115","136458","0.0-5.0-1.36","LF","gcrz58pdx0","1920","1080","0","1","1","5f9b106e21189e2d3b853846","","null","","","","","","","learning/Slide37.JPG","null","","","","","",""
"html-keyboard-response","116","137460","0.0-5.0-2.36","LF","gcrz58pdx0","1920","1080","0","1","1","5f9b106e21189e2d3b853846","","null","","","learningBlock1","","","","<div style=""font-size:60px;""> </div>","null","LF","learning/Slide37.JPG","This is a tob:","","",""
"html-keyboard-response","117","138461","0.0-5.0-0.37","LF","gcrz58pdx0","1920","1080","0","1","1","5f9b106e21189e2d3b853846","","null","","","learningBlock1","","","","This is a wug:","null","","","","","",""
"image-keyboard-response","118","138790","0.0-5.0-1.37","LF","gcrz58pdx0","1920","1080","0","1","1","5f9b106e21189e2d3b853846","","null","","","","","","","learning/Slide38.JPG","null","","","","","",""
"html-keyboard-response","119","139791","0.0-5.0-2.37","LF","gcrz58pdx0","1920","1080","0","1","1","5f9b106e21189e2d3b853846","","null","","","learningBlock1","","","","<div style=""font-size:60px;""> </div>","null","LF","learning/Slide38.JPG","This is a wug:","","",""
"html-keyboard-response","120","140793","0.0-5.0-0.38","LF","gcrz58pdx0","1920","1080","0","1","1","5f9b106e21189e2d3b853846","","null","","","learningBlock1","","","","This is a bim:","null","","","","","",""
"image-keyboard-response","121","141120","0.0-5.0-1.38","LF","gcrz58pdx0","1920","1080","0","1","1","5f9b106e21189e2d3b853846","","null","","","","","","","learning/Slide39.JPG","null","","","","","",""
"html-keyboard-response","122","142121","0.0-5.0-2.38","LF","gcrz58pdx0","1920","1080","0","1","1","5f9b106e21189e2d3b853846","","null","","","learningBlock1","","","","<div style=""font-size:60px;""> </div>","null","LF","learning/Slide39.JPG","This is a bim:","","",""
"html-keyboard-response","123","143123","0.0-5.0-0.39","LF","gcrz58pdx0","1920","1080","0","1","1","5f9b106e21189e2d3b853846","","null","","","learningBlock1","","","","This is a tob:","null","","","","","",""
"image-keyboard-response","124","143451","0.0-5.0-1.39","LF","gcrz58pdx0","1920","1080","0","1","1","5f9b106e21189e2d3b853846","","null","","","","","","","learning/Slide40.JPG","null","","","","","",""
"html-keyboard-response","125","144452","0.0-5.0-2.39","LF","gcrz58pdx0","1920","1080","0","1","1","5f9b106e21189e2d3b853846","","null","","","learningBlock1","","","","<div style=""font-size:60px;""> </div>","null","LF","learning/Slide40.JPG","This is a tob:","","",""
"html-keyboard-response","126","145453","0.0-5.0-0.40","LF","gcrz58pdx0","1920","1080","0","1","1","5f9b106e21189e2d3b853846","","null","","","learningBlock1","","","","This is a bim:","null","","","","","",""
"image-keyboard-response","127","145780","0.0-5.0-1.40","LF","gcrz58pdx0","1920","1080","0","1","1","5f9b106e21189e2d3b853846","","null","","","","","","","learning/Slide41.JPG","null","","","","","",""
"html-keyboard-response","128","146781","0.0-5.0-2.40","LF","gcrz58pdx0","1920","1080","0","1","1","5f9b106e21189e2d3b853846","","null","","","learningBlock1","","","","<div style=""font-size:60px;""> </div>","null","LF","learning/Slide41.JPG","This is a bim:","","",""
"html-keyboard-response","129","147783","0.0-5.0-0.41","LF","gcrz58pdx0","1920","1080","0","1","1","5f9b106e21189e2d3b853846","","null","","","learningBlock1","","","","This is a dep:","null","","","","","",""
"image-keyboard-response","130","148110","0.0-5.0-1.41","LF","gcrz58pdx0","1920","1080","0","1","1","5f9b106e21189e2d3b853846","","null","","","","","","","learning/Slide42.JPG","null","","","","","",""
"html-keyboard-response","131","149111","0.0-5.0-2.41","LF","gcrz58pdx0","1920","1080","0","1","1","5f9b106e21189e2d3b853846","","null","","","learningBlock1","","","","<div style=""font-size:60px;""> </div>","null","LF","learning/Slide42.JPG","This is a dep:","","",""
"html-keyboard-response","132","150113","0.0-5.0-0.42","LF","gcrz58pdx0","1920","1080","0","1","1","5f9b106e21189e2d3b853846","","null","","","learningBlock1","","","","This is a wug:","null","","","","","",""
"image-keyboard-response","133","150440","0.0-5.0-1.42","LF","gcrz58pdx0","1920","1080","0","1","1","5f9b106e21189e2d3b853846","","null","","","","","","","learning/Slide43.JPG","null","","","","","",""
"html-keyboard-response","134","151441","0.0-5.0-2.42","LF","gcrz58pdx0","1920","1080","0","1","1","5f9b106e21189e2d3b853846","","null","","","learningBlock1","","","","<div style=""font-size:60px;""> </div>","null","LF","learning/Slide43.JPG","This is a wug:","","",""
"html-keyboard-response","135","152442","0.0-5.0-0.43","LF","gcrz58pdx0","1920","1080","0","1","1","5f9b106e21189e2d3b853846","","null","","","learningBlock1","","","","This is a bim:","null","","","","","",""
"image-keyboard-response","136","152771","0.0-5.0-1.43","LF","gcrz58pdx0","1920","1080","0","1","1","5f9b106e21189e2d3b853846","","null","","","","","","","learning/Slide44.JPG","null","","","","","",""
"html-keyboard-response","137","153772","0.0-5.0-2.43","LF","gcrz58pdx0","1920","1080","0","1","1","5f9b106e21189e2d3b853846","","null","","","learningBlock1","","","","<div style=""font-size:60px;""> </div>","null","LF","learning/Slide44.JPG","This is a bim:","","",""
"html-keyboard-response","138","154773","0.0-5.0-0.44","LF","gcrz58pdx0","1920","1080","0","1","1","5f9b106e21189e2d3b853846","","null","","","learningBlock1","","","","This is a wug:","null","","","","","",""
"image-keyboard-response","139","155100","0.0-5.0-1.44","LF","gcrz58pdx0","1920","1080","0","1","1","5f9b106e21189e2d3b853846","","null","","","","","","","learning/Slide45.JPG","null","","","","","",""
"html-keyboard-response","140","156102","0.0-5.0-2.44","LF","gcrz58pdx0","1920","1080","0","1","1","5f9b106e21189e2d3b853846","","null","","","learningBlock1","","","","<div style=""font-size:60px;""> </div>","null","LF","learning/Slide45.JPG","This is a wug:","","",""
"html-keyboard-response","141","157103","0.0-5.0-0.45","LF","gcrz58pdx0","1920","1080","0","1","1","5f9b106e21189e2d3b853846","","null","","","learningBlock1","","","","This is a dep:","null","","","","","",""
"image-keyboard-response","142","157431","0.0-5.0-1.45","LF","gcrz58pdx0","1920","1080","0","1","1","5f9b106e21189e2d3b853846","","null","","","","","","","learning/Slide46.JPG","null","","","","","",""
"html-keyboard-response","143","158433","0.0-5.0-2.45","LF","gcrz58pdx0","1920","1080","0","1","1","5f9b106e21189e2d3b853846","","null","","","learningBlock1","","","","<div style=""font-size:60px;""> </div>","null","LF","learning/Slide46.JPG","This is a dep:","","",""
"html-keyboard-response","144","159435","0.0-5.0-0.46","LF","gcrz58pdx0","1920","1080","0","1","1","5f9b106e21189e2d3b853846","","null","","","learningBlock1","","","","This is a tob:","null","","","","","",""
"image-keyboard-response","145","159762","0.0-5.0-1.46","LF","gcrz58pdx0","1920","1080","0","1","1","5f9b106e21189e2d3b853846","","null","","","","","","","learning/Slide47.JPG","null","","","","","",""
"html-keyboard-response","146","160763","0.0-5.0-2.46","LF","gcrz58pdx0","1920","1080","0","1","1","5f9b106e21189e2d3b853846","","null","","","learningBlock1","","","","<div style=""font-size:60px;""> </div>","null","LF","learning/Slide47.JPG","This is a tob:","","",""
"html-keyboard-response","147","161764","0.0-5.0-0.47","LF","gcrz58pdx0","1920","1080","0","1","1","5f9b106e21189e2d3b853846","","null","","","learningBlock1","","","","This is a bim:","null","","","","","",""
"image-keyboard-response","148","162092","0.0-5.0-1.47","LF","gcrz58pdx0","1920","1080","0","1","1","5f9b106e21189e2d3b853846","","null","","","","","","","learning/Slide48.JPG","null","","","","","",""
"html-keyboard-response","149","163093","0.0-5.0-2.47","LF","gcrz58pdx0","1920","1080","0","1","1","5f9b106e21189e2d3b853846","","null","","","learningBlock1","","","","<div style=""font-size:60px;""> </div>","null","LF","learning/Slide48.JPG","This is a bim:","","",""
"html-keyboard-response","150","164094","0.0-5.0-0.48","LF","gcrz58pdx0","1920","1080","0","1","1","5f9b106e21189e2d3b853846","","null","","","learningBlock1","","","","This is a dep:","null","","","","","",""
"image-keyboard-response","151","164422","0.0-5.0-1.48","LF","gcrz58pdx0","1920","1080","0","1","1","5f9b106e21189e2d3b853846","","null","","","","","","","learning/Slide49.JPG","null","","","","","",""
"html-keyboard-response","152","165423","0.0-5.0-2.48","LF","gcrz58pdx0","1920","1080","0","1","1","5f9b106e21189e2d3b853846","","null","","","learningBlock1","","","","<div style=""font-size:60px;""> </div>","null","LF","learning/Slide49.JPG","This is a dep:","","",""
"html-keyboard-response","153","166424","0.0-5.0-0.49","LF","gcrz58pdx0","1920","1080","0","1","1","5f9b106e21189e2d3b853846","","null","","","learningBlock1","","","","This is a tob:","null","","","","","",""
"image-keyboard-response","154","166751","0.0-5.0-1.49","LF","gcrz58pdx0","1920","1080","0","1","1","5f9b106e21189e2d3b853846","","null","","","","","","","learning/Slide50.JPG","null","","","","","",""
"html-keyboard-response","155","167753","0.0-5.0-2.49","LF","gcrz58pdx0","1920","1080","0","1","1","5f9b106e21189e2d3b853846","","null","","","learningBlock1","","","","<div style=""font-size:60px;""> </div>","null","LF","learning/Slide50.JPG","This is a tob:","","",""
"html-keyboard-response","156","168754","0.0-5.0-0.50","LF","gcrz58pdx0","1920","1080","0","1","1","5f9b106e21189e2d3b853846","","null","","","learningBlock1","","","","This is a bim:","null","","","","","",""
"image-keyboard-response","157","169082","0.0-5.0-1.50","LF","gcrz58pdx0","1920","1080","0","1","1","5f9b106e21189e2d3b853846","","null","","","","","","","learning/Slide51.JPG","null","","","","","",""
"html-keyboard-response","158","170083","0.0-5.0-2.50","LF","gcrz58pdx0","1920","1080","0","1","1","5f9b106e21189e2d3b853846","","null","","","learningBlock1","","","","<div style=""font-size:60px;""> </div>","null","LF","learning/Slide51.JPG","This is a bim:","","",""
"html-keyboard-response","159","171085","0.0-5.0-0.51","LF","gcrz58pdx0","1920","1080","0","1","1","5f9b106e21189e2d3b853846","","null","","","learningBlock1","","","","This is a wug:","null","","","","","",""
"image-keyboard-response","160","171412","0.0-5.0-1.51","LF","gcrz58pdx0","1920","1080","0","1","1","5f9b106e21189e2d3b853846","","null","","","","","","","learning/Slide52.JPG","null","","","","","",""
"html-keyboard-response","161","172414","0.0-5.0-2.51","LF","gcrz58pdx0","1920","1080","0","1","1","5f9b106e21189e2d3b853846","","null","","","learningBlock1","","","","<div style=""font-size:60px;""> </div>","null","LF","learning/Slide52.JPG","This is a wug:","","",""
"html-keyboard-response","162","173415","0.0-5.0-0.52","LF","gcrz58pdx0","1920","1080","0","1","1","5f9b106e21189e2d3b853846","","null","","","learningBlock1","","","","This is a tob:","null","","","","","",""
"image-keyboard-response","163","173742","0.0-5.0-1.52","LF","gcrz58pdx0","1920","1080","0","1","1","5f9b106e21189e2d3b853846","","null","","","","","","","learning/Slide53.JPG","null","","","","","",""
"html-keyboard-response","164","174745","0.0-5.0-2.52","LF","gcrz58pdx0","1920","1080","0","1","1","5f9b106e21189e2d3b853846","","null","","","learningBlock1","","","","<div style=""font-size:60px;""> </div>","null","LF","learning/Slide53.JPG","This is a tob:","","",""
"html-keyboard-response","165","175748","0.0-5.0-0.53","LF","gcrz58pdx0","1920","1080","0","1","1","5f9b106e21189e2d3b853846","","null","","","learningBlock1","","","","This is a dep:","null","","","","","",""
"image-keyboard-response","166","176075","0.0-5.0-1.53","LF","gcrz58pdx0","1920","1080","0","1","1","5f9b106e21189e2d3b853846","","null","","","","","","","learning/Slide54.JPG","null","","","","","",""
"html-keyboard-response","167","177077","0.0-5.0-2.53","LF","gcrz58pdx0","1920","1080","0","1","1","5f9b106e21189e2d3b853846","","null","","","learningBlock1","","","","<div style=""font-size:60px;""> </div>","null","LF","learning/Slide54.JPG","This is a dep:","","",""
"html-keyboard-response","168","178078","0.0-5.0-0.54","LF","gcrz58pdx0","1920","1080","0","1","1","5f9b106e21189e2d3b853846","","null","","","learningBlock1","","","","This is a bim:","null","","","","","",""
"image-keyboard-response","169","178406","0.0-5.0-1.54","LF","gcrz58pdx0","1920","1080","0","1","1","5f9b106e21189e2d3b853846","","null","","","","","","","learning/Slide55.JPG","null","","","","","",""
"html-keyboard-response","170","179408","0.0-5.0-2.54","LF","gcrz58pdx0","1920","1080","0","1","1","5f9b106e21189e2d3b853846","","null","","","learningBlock1","","","","<div style=""font-size:60px;""> </div>","null","LF","learning/Slide55.JPG","This is a bim:","","",""
"html-keyboard-response","171","180409","0.0-5.0-0.55","LF","gcrz58pdx0","1920","1080","0","1","1","5f9b106e21189e2d3b853846","","null","","","learningBlock1","","","","This is a tob:","null","","","","","",""
"image-keyboard-response","172","180737","0.0-5.0-1.55","LF","gcrz58pdx0","1920","1080","0","1","1","5f9b106e21189e2d3b853846","","null","","","","","","","learning/Slide56.JPG","null","","","","","",""
"html-keyboard-response","173","181739","0.0-5.0-2.55","LF","gcrz58pdx0","1920","1080","0","1","1","5f9b106e21189e2d3b853846","","null","","","learningBlock1","","","","<div style=""font-size:60px;""> </div>","null","LF","learning/Slide56.JPG","This is a tob:","","",""
"html-keyboard-response","174","182740","0.0-5.0-0.56","LF","gcrz58pdx0","1920","1080","0","1","1","5f9b106e21189e2d3b853846","","null","","","learningBlock1","","","","This is a dep:","null","","","","","",""
"image-keyboard-response","175","183067","0.0-5.0-1.56","LF","gcrz58pdx0","1920","1080","0","1","1","5f9b106e21189e2d3b853846","","null","","","","","","","learning/Slide57.JPG","null","","","","","",""
"html-keyboard-response","176","184070","0.0-5.0-2.56","LF","gcrz58pdx0","1920","1080","0","1","1","5f9b106e21189e2d3b853846","","null","","","learningBlock1","","","","<div style=""font-size:60px;""> </div>","null","LF","learning/Slide57.JPG","This is a dep:","","",""
"html-keyboard-response","177","185071","0.0-5.0-0.57","LF","gcrz58pdx0","1920","1080","0","1","1","5f9b106e21189e2d3b853846","","null","","","learningBlock1","","","","This is a wug:","null","","","","","",""
"image-keyboard-response","178","185401","0.0-5.0-1.57","LF","gcrz58pdx0","1920","1080","0","1","1","5f9b106e21189e2d3b853846","","null","","","","","","","learning/Slide58.JPG","null","","","","","",""
"html-keyboard-response","179","186402","0.0-5.0-2.57","LF","gcrz58pdx0","1920","1080","0","1","1","5f9b106e21189e2d3b853846","","null","","","learningBlock1","","","","<div style=""font-size:60px;""> </div>","null","LF","learning/Slide58.JPG","This is a wug:","","",""
"html-keyboard-response","180","187404","0.0-5.0-0.58","LF","gcrz58pdx0","1920","1080","0","1","1","5f9b106e21189e2d3b853846","","null","","","learningBlock1","","","","This is a dep:","null","","","","","",""
"image-keyboard-response","181","187730","0.0-5.0-1.58","LF","gcrz58pdx0","1920","1080","0","1","1","5f9b106e21189e2d3b853846","","null","","","","","","","learning/Slide59.JPG","null","","","","","",""
"html-keyboard-response","182","188733","0.0-5.0-2.58","LF","gcrz58pdx0","1920","1080","0","1","1","5f9b106e21189e2d3b853846","","null","","","learningBlock1","","","","<div style=""font-size:60px;""> </div>","null","LF","learning/Slide59.JPG","This is a dep:","","",""
"html-keyboard-response","183","189734","0.0-5.0-0.59","LF","gcrz58pdx0","1920","1080","0","1","1","5f9b106e21189e2d3b853846","","null","","","learningBlock1","","","","This is a wug:","null","","","","","",""
"image-keyboard-response","184","190061","0.0-5.0-1.59","LF","gcrz58pdx0","1920","1080","0","1","1","5f9b106e21189e2d3b853846","","null","","","","","","","learning/Slide60.JPG","null","","","","","",""
"html-keyboard-response","185","191064","0.0-5.0-2.59","LF","gcrz58pdx0","1920","1080","0","1","1","5f9b106e21189e2d3b853846","","null","","","learningBlock1","","","","<div style=""font-size:60px;""> </div>","null","LF","learning/Slide60.JPG","This is a wug:","","",""
"html-keyboard-response","186","192065","0.0-5.0-0.60","LF","gcrz58pdx0","1920","1080","0","1","1","5f9b106e21189e2d3b853846","","null","","","learningBlock1","","","","This is a bim:","null","","","","","",""
"image-keyboard-response","187","192391","0.0-5.0-1.60","LF","gcrz58pdx0","1920","1080","0","1","1","5f9b106e21189e2d3b853846","","null","","","","","","","learning/Slide61.JPG","null","","","","","",""
"html-keyboard-response","188","193392","0.0-5.0-2.60","LF","gcrz58pdx0","1920","1080","0","1","1","5f9b106e21189e2d3b853846","","null","","","learningBlock1","","","","<div style=""font-size:60px;""> </div>","null","LF","learning/Slide61.JPG","This is a bim:","","",""
"html-keyboard-response","189","194393","0.0-5.0-0.61","LF","gcrz58pdx0","1920","1080","0","1","1","5f9b106e21189e2d3b853846","","null","","","learningBlock1","","","","This is a dep:","null","","","","","",""
"image-keyboard-response","190","194720","0.0-5.0-1.61","LF","gcrz58pdx0","1920","1080","0","1","1","5f9b106e21189e2d3b853846","","null","","","","","","","learning/Slide62.JPG","null","","","","","",""
"html-keyboard-response","191","195723","0.0-5.0-2.61","LF","gcrz58pdx0","1920","1080","0","1","1","5f9b106e21189e2d3b853846","","null","","","learningBlock1","","","","<div style=""font-size:60px;""> </div>","null","LF","learning/Slide62.JPG","This is a dep:","","",""
"html-keyboard-response","192","196725","0.0-5.0-0.62","LF","gcrz58pdx0","1920","1080","0","1","1","5f9b106e21189e2d3b853846","","null","","","learningBlock1","","","","This is a bim:","null","","","","","",""
"image-keyboard-response","193","197052","0.0-5.0-1.62","LF","gcrz58pdx0","1920","1080","0","1","1","5f9b106e21189e2d3b853846","","null","","","","","","","learning/Slide63.JPG","null","","","","","",""
"html-keyboard-response","194","198053","0.0-5.0-2.62","LF","gcrz58pdx0","1920","1080","0","1","1","5f9b106e21189e2d3b853846","","null","","","learningBlock1","","","","<div style=""font-size:60px;""> </div>","null","LF","learning/Slide63.JPG","This is a bim:","","",""
"html-keyboard-response","195","199054","0.0-5.0-0.63","LF","gcrz58pdx0","1920","1080","0","1","1","5f9b106e21189e2d3b853846","","null","","","learningBlock1","","","","This is a tob:","null","","","","","",""
"image-keyboard-response","196","199381","0.0-5.0-1.63","LF","gcrz58pdx0","1920","1080","0","1","1","5f9b106e21189e2d3b853846","","null","","","","","","","learning/Slide64.JPG","null","","","","","",""
"html-keyboard-response","197","200383","0.0-5.0-2.63","LF","gcrz58pdx0","1920","1080","0","1","1","5f9b106e21189e2d3b853846","","null","","","learningBlock1","","","","<div style=""font-size:60px;""> </div>","null","LF","learning/Slide64.JPG","This is a tob:","","",""
"html-keyboard-response","198","201384","0.0-5.0-0.64","LF","gcrz58pdx0","1920","1080","0","1","1","5f9b106e21189e2d3b853846","","null","","","learningBlock1","","","","This is a wug:","null","","","","","",""
"image-keyboard-response","199","201713","0.0-5.0-1.64","LF","gcrz58pdx0","1920","1080","0","1","1","5f9b106e21189e2d3b853846","","null","","","","","","","learning/Slide65.JPG","null","","","","","",""
"html-keyboard-response","200","202714","0.0-5.0-2.64","LF","gcrz58pdx0","1920","1080","0","1","1","5f9b106e21189e2d3b853846","","null","","","learningBlock1","","","","<div style=""font-size:60px;""> </div>","null","LF","learning/Slide65.JPG","This is a wug:","","",""
"html-keyboard-response","201","203721","0.0-5.0-0.65","LF","gcrz58pdx0","1920","1080","0","1","1","5f9b106e21189e2d3b853846","","null","","","learningBlock1","","","","This is a dep:","null","","","","","",""
"image-keyboard-response","202","204049","0.0-5.0-1.65","LF","gcrz58pdx0","1920","1080","0","1","1","5f9b106e21189e2d3b853846","","null","","","","","","","learning/Slide66.JPG","null","","","","","",""
"html-keyboard-response","203","205050","0.0-5.0-2.65","LF","gcrz58pdx0","1920","1080","0","1","1","5f9b106e21189e2d3b853846","","null","","","learningBlock1","","","","<div style=""font-size:60px;""> </div>","null","LF","learning/Slide66.JPG","This is a dep:","","",""
"html-keyboard-response","204","206052","0.0-5.0-0.66","LF","gcrz58pdx0","1920","1080","0","1","1","5f9b106e21189e2d3b853846","","null","","","learningBlock1","","","","This is a tob:","null","","","","","",""
"image-keyboard-response","205","206381","0.0-5.0-1.66","LF","gcrz58pdx0","1920","1080","0","1","1","5f9b106e21189e2d3b853846","","null","","","","","","","learning/Slide67.JPG","null","","","","","",""
"html-keyboard-response","206","207415","0.0-5.0-2.66","LF","gcrz58pdx0","1920","1080","0","1","1","5f9b106e21189e2d3b853846","","null","","","learningBlock1","","","","<div style=""font-size:60px;""> </div>","null","LF","learning/Slide67.JPG","This is a tob:","","",""
"html-keyboard-response","207","208417","0.0-5.0-0.67","LF","gcrz58pdx0","1920","1080","0","1","1","5f9b106e21189e2d3b853846","","null","","","learningBlock1","","","","This is a wug:","null","","","","","",""
"image-keyboard-response","208","208746","0.0-5.0-1.67","LF","gcrz58pdx0","1920","1080","0","1","1","5f9b106e21189e2d3b853846","","null","","","","","","","learning/Slide68.JPG","null","","","","","",""
"html-keyboard-response","209","209748","0.0-5.0-2.67","LF","gcrz58pdx0","1920","1080","0","1","1","5f9b106e21189e2d3b853846","","null","","","learningBlock1","","","","<div style=""font-size:60px;""> </div>","null","LF","learning/Slide68.JPG","This is a wug:","","",""
"html-keyboard-response","210","210749","0.0-5.0-0.68","LF","gcrz58pdx0","1920","1080","0","1","1","5f9b106e21189e2d3b853846","","null","","","learningBlock1","","","","This is a tob:","null","","","","","",""
"image-keyboard-response","211","211076","0.0-5.0-1.68","LF","gcrz58pdx0","1920","1080","0","1","1","5f9b106e21189e2d3b853846","","null","","","","","","","learning/Slide69.JPG","null","","","","","",""
"html-keyboard-response","212","212079","0.0-5.0-2.68","LF","gcrz58pdx0","1920","1080","0","1","1","5f9b106e21189e2d3b853846","","null","","","learningBlock1","","","","<div style=""font-size:60px;""> </div>","null","LF","learning/Slide69.JPG","This is a tob:","","",""
"html-keyboard-response","213","213080","0.0-5.0-0.69","LF","gcrz58pdx0","1920","1080","0","1","1","5f9b106e21189e2d3b853846","","null","","","learningBlock1","","","","This is a dep:","null","","","","","",""
"image-keyboard-response","214","213408","0.0-5.0-1.69","LF","gcrz58pdx0","1920","1080","0","1","1","5f9b106e21189e2d3b853846","","null","","","","","","","learning/Slide70.JPG","null","","","","","",""
"html-keyboard-response","215","214411","0.0-5.0-2.69","LF","gcrz58pdx0","1920","1080","0","1","1","5f9b106e21189e2d3b853846","","null","","","learningBlock1","","","","<div style=""font-size:60px;""> </div>","null","LF","learning/Slide70.JPG","This is a dep:","","",""
"html-keyboard-response","216","215411","0.0-5.0-0.70","LF","gcrz58pdx0","1920","1080","0","1","1","5f9b106e21189e2d3b853846","","null","","","learningBlock1","","","","This is a wug:","null","","","","","",""
"image-keyboard-response","217","215738","0.0-5.0-1.70","LF","gcrz58pdx0","1920","1080","0","1","1","5f9b106e21189e2d3b853846","","null","","","","","","","learning/Slide71.JPG","null","","","","","",""
"html-keyboard-response","218","216740","0.0-5.0-2.70","LF","gcrz58pdx0","1920","1080","0","1","1","5f9b106e21189e2d3b853846","","null","","","learningBlock1","","","","<div style=""font-size:60px;""> </div>","null","LF","learning/Slide71.JPG","This is a wug:","","",""
"html-keyboard-response","219","217741","0.0-5.0-0.71","LF","gcrz58pdx0","1920","1080","0","1","1","5f9b106e21189e2d3b853846","","null","","","learningBlock1","","","","This is a bim:","null","","","","","",""
"image-keyboard-response","220","218069","0.0-5.0-1.71","LF","gcrz58pdx0","1920","1080","0","1","1","5f9b106e21189e2d3b853846","","null","","","","","","","learning/Slide72.JPG","null","","","","","",""
"html-keyboard-response","221","219070","0.0-5.0-2.71","LF","gcrz58pdx0","1920","1080","0","1","1","5f9b106e21189e2d3b853846","","null","","","learningBlock1","","","","<div style=""font-size:60px;""> </div>","null","LF","learning/Slide72.JPG","This is a bim:","","",""
"html-keyboard-response","222","220071","0.0-5.0-0.72","LF","gcrz58pdx0","1920","1080","0","1","1","5f9b106e21189e2d3b853846","","null","","","learningBlock1","","","","This is a wug:","null","","","","","",""
"image-keyboard-response","223","220400","0.0-5.0-1.72","LF","gcrz58pdx0","1920","1080","0","1","1","5f9b106e21189e2d3b853846","","null","","","","","","","learning/Slide73.JPG","null","","","","","",""
"html-keyboard-response","224","221402","0.0-5.0-2.72","LF","gcrz58pdx0","1920","1080","0","1","1","5f9b106e21189e2d3b853846","","null","","","learningBlock1","","","","<div style=""font-size:60px;""> </div>","null","LF","learning/Slide73.JPG","This is a wug:","","",""
"html-keyboard-response","225","222404","0.0-5.0-0.73","LF","gcrz58pdx0","1920","1080","0","1","1","5f9b106e21189e2d3b853846","","null","","","learningBlock1","","","","This is a dep:","null","","","","","",""
"image-keyboard-response","226","222732","0.0-5.0-1.73","LF","gcrz58pdx0","1920","1080","0","1","1","5f9b106e21189e2d3b853846","","null","","","","","","","learning/Slide74.JPG","null","","","","","",""
"html-keyboard-response","227","223733","0.0-5.0-2.73","LF","gcrz58pdx0","1920","1080","0","1","1","5f9b106e21189e2d3b853846","","null","","","learningBlock1","","","","<div style=""font-size:60px;""> </div>","null","LF","learning/Slide74.JPG","This is a dep:","","",""
"html-keyboard-response","228","224734","0.0-5.0-0.74","LF","gcrz58pdx0","1920","1080","0","1","1","5f9b106e21189e2d3b853846","","null","","","learningBlock1","","","","This is a tob:","null","","","","","",""
"image-keyboard-response","229","225062","0.0-5.0-1.74","LF","gcrz58pdx0","1920","1080","0","1","1","5f9b106e21189e2d3b853846","","null","","","","","","","learning/Slide75.JPG","null","","","","","",""
"html-keyboard-response","230","226062","0.0-5.0-2.74","LF","gcrz58pdx0","1920","1080","0","1","1","5f9b106e21189e2d3b853846","","null","","","learningBlock1","","","","<div style=""font-size:60px;""> </div>","null","LF","learning/Slide75.JPG","This is a tob:","","",""
"html-keyboard-response","231","227063","0.0-5.0-0.75","LF","gcrz58pdx0","1920","1080","0","1","1","5f9b106e21189e2d3b853846","","null","","","learningBlock1","","","","This is a bim:","null","","","","","",""
"image-keyboard-response","232","227391","0.0-5.0-1.75","LF","gcrz58pdx0","1920","1080","0","1","1","5f9b106e21189e2d3b853846","","null","","","","","","","learning/Slide76.JPG","null","","","","","",""
"html-keyboard-response","233","228392","0.0-5.0-2.75","LF","gcrz58pdx0","1920","1080","0","1","1","5f9b106e21189e2d3b853846","","null","","","learningBlock1","","","","<div style=""font-size:60px;""> </div>","null","LF","learning/Slide76.JPG","This is a bim:","","",""
"html-keyboard-response","234","229394","0.0-5.0-0.76","LF","gcrz58pdx0","1920","1080","0","1","1","5f9b106e21189e2d3b853846","","null","","","learningBlock1","","","","This is a tob:","null","","","","","",""
"image-keyboard-response","235","229722","0.0-5.0-1.76","LF","gcrz58pdx0","1920","1080","0","1","1","5f9b106e21189e2d3b853846","","null","","","","","","","learning/Slide77.JPG","null","","","","","",""
"html-keyboard-response","236","230724","0.0-5.0-2.76","LF","gcrz58pdx0","1920","1080","0","1","1","5f9b106e21189e2d3b853846","","null","","","learningBlock1","","","","<div style=""font-size:60px;""> </div>","null","LF","learning/Slide77.JPG","This is a tob:","","",""
"html-keyboard-response","237","231726","0.0-5.0-0.77","LF","gcrz58pdx0","1920","1080","0","1","1","5f9b106e21189e2d3b853846","","null","","","learningBlock1","","","","This is a wug:","null","","","","","",""
"image-keyboard-response","238","232052","0.0-5.0-1.77","LF","gcrz58pdx0","1920","1080","0","1","1","5f9b106e21189e2d3b853846","","null","","","","","","","learning/Slide78.JPG","null","","","","","",""
"html-keyboard-response","239","233053","0.0-5.0-2.77","LF","gcrz58pdx0","1920","1080","0","1","1","5f9b106e21189e2d3b853846","","null","","","learningBlock1","","","","<div style=""font-size:60px;""> </div>","null","LF","learning/Slide78.JPG","This is a wug:","","",""
"html-keyboard-response","240","234055","0.0-5.0-0.78","LF","gcrz58pdx0","1920","1080","0","1","1","5f9b106e21189e2d3b853846","","null","","","learningBlock1","","","","This is a bim:","null","","","","","",""
"image-keyboard-response","241","234383","0.0-5.0-1.78","LF","gcrz58pdx0","1920","1080","0","1","1","5f9b106e21189e2d3b853846","","null","","","","","","","learning/Slide79.JPG","null","","","","","",""
"html-keyboard-response","242","235386","0.0-5.0-2.78","LF","gcrz58pdx0","1920","1080","0","1","1","5f9b106e21189e2d3b853846","","null","","","learningBlock1","","","","<div style=""font-size:60px;""> </div>","null","LF","learning/Slide79.JPG","This is a bim:","","",""
"html-keyboard-response","243","236388","0.0-5.0-0.79","LF","gcrz58pdx0","1920","1080","0","1","1","5f9b106e21189e2d3b853846","","null","","","learningBlock1","","","","This is a tob:","null","","","","","",""
"image-keyboard-response","244","236714","0.0-5.0-1.79","LF","gcrz58pdx0","1920","1080","0","1","1","5f9b106e21189e2d3b853846","","null","","","","","","","learning/Slide80.JPG","null","","","","","",""
"html-keyboard-response","245","237716","0.0-5.0-2.79","LF","gcrz58pdx0","1920","1080","0","1","1","5f9b106e21189e2d3b853846","","null","","","learningBlock1","","","","<div style=""font-size:60px;""> </div>","null","LF","learning/Slide80.JPG","This is a tob:","","",""
"instructions","246","255101","0.0-6.0","LF","gcrz58pdx0","1920","1080","0","1","1","5f9b106e21189e2d3b853846","","NA","","[{""page_index"":0,""viewing_time"":17383.97000002442}]","instructions","","","","","","","","","","",""
"html-keyboard-response","247","256102","0.0-7.0-0.0","LF","gcrz58pdx0","1920","1080","0","1","1","5f9b106e21189e2d3b853846","","null","","","learningBlock2","","","","This is a wug:","null","","","","","",""
"image-keyboard-response","248","256429","0.0-7.0-1.0","LF","gcrz58pdx0","1920","1080","0","1","1","5f9b106e21189e2d3b853846","","null","","","","","","","learning/Slide81.JPG","null","","","","","",""
"html-keyboard-response","249","257431","0.0-7.0-2.0","LF","gcrz58pdx0","1920","1080","0","1","1","5f9b106e21189e2d3b853846","","null","","","learningBlock2","","","","<div style=""font-size:60px;""> </div>","null","LF","learning/Slide81.JPG","This is a wug:","","",""
"html-keyboard-response","250","258433","0.0-7.0-0.1","LF","gcrz58pdx0","1920","1080","0","1","1","5f9b106e21189e2d3b853846","","null","","","learningBlock2","","","","This is a bim:","null","","","","","",""
"image-keyboard-response","251","258760","0.0-7.0-1.1","LF","gcrz58pdx0","1920","1080","0","1","1","5f9b106e21189e2d3b853846","","null","","","","","","","learning/Slide82.JPG","null","","","","","",""
"html-keyboard-response","252","259763","0.0-7.0-2.1","LF","gcrz58pdx0","1920","1080","0","1","1","5f9b106e21189e2d3b853846","","null","","","learningBlock2","","","","<div style=""font-size:60px;""> </div>","null","LF","learning/Slide82.JPG","This is a bim:","","",""
"html-keyboard-response","253","260764","0.0-7.0-0.2","LF","gcrz58pdx0","1920","1080","0","1","1","5f9b106e21189e2d3b853846","","null","","","learningBlock2","","","","This is a wug:","null","","","","","",""
"image-keyboard-response","254","261091","0.0-7.0-1.2","LF","gcrz58pdx0","1920","1080","0","1","1","5f9b106e21189e2d3b853846","","null","","","","","","","learning/Slide83.JPG","null","","","","","",""
"html-keyboard-response","255","262094","0.0-7.0-2.2","LF","gcrz58pdx0","1920","1080","0","1","1","5f9b106e21189e2d3b853846","","null","","","learningBlock2","","","","<div style=""font-size:60px;""> </div>","null","LF","learning/Slide83.JPG","This is a wug:","","",""
"html-keyboard-response","256","263096","0.0-7.0-0.3","LF","gcrz58pdx0","1920","1080","0","1","1","5f9b106e21189e2d3b853846","","null","","","learningBlock2","","","","This is a dep:","null","","","","","",""
"image-keyboard-response","257","263423","0.0-7.0-1.3","LF","gcrz58pdx0","1920","1080","0","1","1","5f9b106e21189e2d3b853846","","null","","","","","","","learning/Slide84.JPG","null","","","","","",""
"html-keyboard-response","258","264424","0.0-7.0-2.3","LF","gcrz58pdx0","1920","1080","0","1","1","5f9b106e21189e2d3b853846","","null","","","learningBlock2","","","","<div style=""font-size:60px;""> </div>","null","LF","learning/Slide84.JPG","This is a dep:","","",""
"html-keyboard-response","259","265425","0.0-7.0-0.4","LF","gcrz58pdx0","1920","1080","0","1","1","5f9b106e21189e2d3b853846","","null","","","learningBlock2","","","","This is a bim:","null","","","","","",""
"image-keyboard-response","260","265753","0.0-7.0-1.4","LF","gcrz58pdx0","1920","1080","0","1","1","5f9b106e21189e2d3b853846","","null","","","","","","","learning/Slide85.JPG","null","","","","","",""
"html-keyboard-response","261","266754","0.0-7.0-2.4","LF","gcrz58pdx0","1920","1080","0","1","1","5f9b106e21189e2d3b853846","","null","","","learningBlock2","","","","<div style=""font-size:60px;""> </div>","null","LF","learning/Slide85.JPG","This is a bim:","","",""
"html-keyboard-response","262","267755","0.0-7.0-0.5","LF","gcrz58pdx0","1920","1080","0","1","1","5f9b106e21189e2d3b853846","","null","","","learningBlock2","","","","This is a tob:","null","","","","","",""
"image-keyboard-response","263","268082","0.0-7.0-1.5","LF","gcrz58pdx0","1920","1080","0","1","1","5f9b106e21189e2d3b853846","","null","","","","","","","learning/Slide86.JPG","null","","","","","",""
"html-keyboard-response","264","269083","0.0-7.0-2.5","LF","gcrz58pdx0","1920","1080","0","1","1","5f9b106e21189e2d3b853846","","null","","","learningBlock2","","","","<div style=""font-size:60px;""> </div>","null","LF","learning/Slide86.JPG","This is a tob:","","",""
"html-keyboard-response","265","270084","0.0-7.0-0.6","LF","gcrz58pdx0","1920","1080","0","1","1","5f9b106e21189e2d3b853846","","null","","","learningBlock2","","","","This is a wug:","null","","","","","",""
"image-keyboard-response","266","270412","0.0-7.0-1.6","LF","gcrz58pdx0","1920","1080","0","1","1","5f9b106e21189e2d3b853846","","null","","","","","","","learning/Slide87.JPG","null","","","","","",""
"html-keyboard-response","267","271413","0.0-7.0-2.6","LF","gcrz58pdx0","1920","1080","0","1","1","5f9b106e21189e2d3b853846","","null","","","learningBlock2","","","","<div style=""font-size:60px;""> </div>","null","LF","learning/Slide87.JPG","This is a wug:","","",""
"html-keyboard-response","268","272414","0.0-7.0-0.7","LF","gcrz58pdx0","1920","1080","0","1","1","5f9b106e21189e2d3b853846","","null","","","learningBlock2","","","","This is a tob:","null","","","","","",""
"image-keyboard-response","269","272741","0.0-7.0-1.7","LF","gcrz58pdx0","1920","1080","0","1","1","5f9b106e21189e2d3b853846","","null","","","","","","","learning/Slide88.JPG","null","","","","","",""
"html-keyboard-response","270","273743","0.0-7.0-2.7","LF","gcrz58pdx0","1920","1080","0","1","1","5f9b106e21189e2d3b853846","","null","","","learningBlock2","","","","<div style=""font-size:60px;""> </div>","null","LF","learning/Slide88.JPG","This is a tob:","","",""
"html-keyboard-response","271","274746","0.0-7.0-0.8","LF","gcrz58pdx0","1920","1080","0","1","1","5f9b106e21189e2d3b853846","","null","","","learningBlock2","","","","This is a bim:","null","","","","","",""
"image-keyboard-response","272","275073","0.0-7.0-1.8","LF","gcrz58pdx0","1920","1080","0","1","1","5f9b106e21189e2d3b853846","","null","","","","","","","learning/Slide89.JPG","null","","","","","",""
"html-keyboard-response","273","276076","0.0-7.0-2.8","LF","gcrz58pdx0","1920","1080","0","1","1","5f9b106e21189e2d3b853846","","null","","","learningBlock2","","","","<div style=""font-size:60px;""> </div>","null","LF","learning/Slide89.JPG","This is a bim:","","",""
"html-keyboard-response","274","277077","0.0-7.0-0.9","LF","gcrz58pdx0","1920","1080","0","1","1","5f9b106e21189e2d3b853846","","null","","","learningBlock2","","","","This is a dep:","null","","","","","",""
"image-keyboard-response","275","277404","0.0-7.0-1.9","LF","gcrz58pdx0","1920","1080","0","1","1","5f9b106e21189e2d3b853846","","null","","","","","","","learning/Slide90.JPG","null","","","","","",""
"html-keyboard-response","276","278405","0.0-7.0-2.9","LF","gcrz58pdx0","1920","1080","0","1","1","5f9b106e21189e2d3b853846","","null","","","learningBlock2","","","","<div style=""font-size:60px;""> </div>","null","LF","learning/Slide90.JPG","This is a dep:","","",""
"html-keyboard-response","277","279408","0.0-7.0-0.10","LF","gcrz58pdx0","1920","1080","0","1","1","5f9b106e21189e2d3b853846","","null","","","learningBlock2","","","","This is a wug:","null","","","","","",""
"image-keyboard-response","278","279735","0.0-7.0-1.10","LF","gcrz58pdx0","1920","1080","0","1","1","5f9b106e21189e2d3b853846","","null","","","","","","","learning/Slide91.JPG","null","","","","","",""
"html-keyboard-response","279","280737","0.0-7.0-2.10","LF","gcrz58pdx0","1920","1080","0","1","1","5f9b106e21189e2d3b853846","","null","","","learningBlock2","","","","<div style=""font-size:60px;""> </div>","null","LF","learning/Slide91.JPG","This is a wug:","","",""
"html-keyboard-response","280","281739","0.0-7.0-0.11","LF","gcrz58pdx0","1920","1080","0","1","1","5f9b106e21189e2d3b853846","","null","","","learningBlock2","","","","This is a tob:","null","","","","","",""
"image-keyboard-response","281","282067","0.0-7.0-1.11","LF","gcrz58pdx0","1920","1080","0","1","1","5f9b106e21189e2d3b853846","","null","","","","","","","learning/Slide92.JPG","null","","","","","",""
"html-keyboard-response","282","283069","0.0-7.0-2.11","LF","gcrz58pdx0","1920","1080","0","1","1","5f9b106e21189e2d3b853846","","null","","","learningBlock2","","","","<div style=""font-size:60px;""> </div>","null","LF","learning/Slide92.JPG","This is a tob:","","",""
"html-keyboard-response","283","284070","0.0-7.0-0.12","LF","gcrz58pdx0","1920","1080","0","1","1","5f9b106e21189e2d3b853846","","null","","","learningBlock2","","","","This is a bim:","null","","","","","",""
"image-keyboard-response","284","284398","0.0-7.0-1.12","LF","gcrz58pdx0","1920","1080","0","1","1","5f9b106e21189e2d3b853846","","null","","","","","","","learning/Slide93.JPG","null","","","","","",""
"html-keyboard-response","285","285400","0.0-7.0-2.12","LF","gcrz58pdx0","1920","1080","0","1","1","5f9b106e21189e2d3b853846","","null","","","learningBlock2","","","","<div style=""font-size:60px;""> </div>","null","LF","learning/Slide93.JPG","This is a bim:","","",""
"html-keyboard-response","286","286401","0.0-7.0-0.13","LF","gcrz58pdx0","1920","1080","0","1","1","5f9b106e21189e2d3b853846","","null","","","learningBlock2","","","","This is a tob:","null","","","","","",""
"image-keyboard-response","287","286728","0.0-7.0-1.13","LF","gcrz58pdx0","1920","1080","0","1","1","5f9b106e21189e2d3b853846","","null","","","","","","","learning/Slide94.JPG","null","","","","","",""
"html-keyboard-response","288","287730","0.0-7.0-2.13","LF","gcrz58pdx0","1920","1080","0","1","1","5f9b106e21189e2d3b853846","","null","","","learningBlock2","","","","<div style=""font-size:60px;""> </div>","null","LF","learning/Slide94.JPG","This is a tob:","","",""
"html-keyboard-response","289","288732","0.0-7.0-0.14","LF","gcrz58pdx0","1920","1080","0","1","1","5f9b106e21189e2d3b853846","","null","","","learningBlock2","","","","This is a wug:","null","","","","","",""
"image-keyboard-response","290","289058","0.0-7.0-1.14","LF","gcrz58pdx0","1920","1080","0","1","1","5f9b106e21189e2d3b853846","","null","","","","","","","learning/Slide95.JPG","null","","","","","",""
"html-keyboard-response","291","290059","0.0-7.0-2.14","LF","gcrz58pdx0","1920","1080","0","1","1","5f9b106e21189e2d3b853846","","null","","","learningBlock2","","","","<div style=""font-size:60px;""> </div>","null","LF","learning/Slide95.JPG","This is a wug:","","",""
"html-keyboard-response","292","291061","0.0-7.0-0.15","LF","gcrz58pdx0","1920","1080","0","1","1","5f9b106e21189e2d3b853846","","null","","","learningBlock2","","","","This is a tob:","null","","","","","",""
"image-keyboard-response","293","291388","0.0-7.0-1.15","LF","gcrz58pdx0","1920","1080","0","1","1","5f9b106e21189e2d3b853846","","null","","","","","","","learning/Slide96.JPG","null","","","","","",""
"html-keyboard-response","294","292389","0.0-7.0-2.15","LF","gcrz58pdx0","1920","1080","0","1","1","5f9b106e21189e2d3b853846","","null","","","learningBlock2","","","","<div style=""font-size:60px;""> </div>","null","LF","learning/Slide96.JPG","This is a tob:","","",""
"html-keyboard-response","295","293391","0.0-7.0-0.16","LF","gcrz58pdx0","1920","1080","0","1","1","5f9b106e21189e2d3b853846","","null","","","learningBlock2","","","","This is a dep:","null","","","","","",""
"image-keyboard-response","296","293720","0.0-7.0-1.16","LF","gcrz58pdx0","1920","1080","0","1","1","5f9b106e21189e2d3b853846","","null","","","","","","","learning/Slide97.JPG","null","","","","","",""
"html-keyboard-response","297","294722","0.0-7.0-2.16","LF","gcrz58pdx0","1920","1080","0","1","1","5f9b106e21189e2d3b853846","","null","","","learningBlock2","","","","<div style=""font-size:60px;""> </div>","null","LF","learning/Slide97.JPG","This is a dep:","","",""
"html-keyboard-response","298","295724","0.0-7.0-0.17","LF","gcrz58pdx0","1920","1080","0","1","1","5f9b106e21189e2d3b853846","","null","","","learningBlock2","","","","This is a bim:","null","","","","","",""
"image-keyboard-response","299","296051","0.0-7.0-1.17","LF","gcrz58pdx0","1920","1080","0","1","1","5f9b106e21189e2d3b853846","","null","","","","","","","learning/Slide98.JPG","null","","","","","",""
"html-keyboard-response","300","297054","0.0-7.0-2.17","LF","gcrz58pdx0","1920","1080","0","1","1","5f9b106e21189e2d3b853846","","null","","","learningBlock2","","","","<div style=""font-size:60px;""> </div>","null","LF","learning/Slide98.JPG","This is a bim:","","",""
"html-keyboard-response","301","298055","0.0-7.0-0.18","LF","gcrz58pdx0","1920","1080","0","1","1","5f9b106e21189e2d3b853846","","null","","","learningBlock2","","","","This is a dep:","null","","","","","",""
"image-keyboard-response","302","298382","0.0-7.0-1.18","LF","gcrz58pdx0","1920","1080","0","1","1","5f9b106e21189e2d3b853846","","null","","","","","","","learning/Slide99.JPG","null","","","","","",""
"html-keyboard-response","303","299384","0.0-7.0-2.18","LF","gcrz58pdx0","1920","1080","0","1","1","5f9b106e21189e2d3b853846","","null","","","learningBlock2","","","","<div style=""font-size:60px;""> </div>","null","LF","learning/Slide99.JPG","This is a dep:","","",""
"html-keyboard-response","304","300387","0.0-7.0-0.19","LF","gcrz58pdx0","1920","1080","0","1","1","5f9b106e21189e2d3b853846","","null","","","learningBlock2","","","","This is a bim:","null","","","","","",""
"image-keyboard-response","305","300713","0.0-7.0-1.19","LF","gcrz58pdx0","1920","1080","0","1","1","5f9b106e21189e2d3b853846","","null","","","","","","","learning/Slide100.JPG","null","","","","","",""
"html-keyboard-response","306","301715","0.0-7.0-2.19","LF","gcrz58pdx0","1920","1080","0","1","1","5f9b106e21189e2d3b853846","","null","","","learningBlock2","","","","<div style=""font-size:60px;""> </div>","null","LF","learning/Slide100.JPG","This is a bim:","","",""
"html-keyboard-response","307","302716","0.0-7.0-0.20","LF","gcrz58pdx0","1920","1080","0","1","1","5f9b106e21189e2d3b853846","","null","","","learningBlock2","","","","This is a tob:","null","","","","","",""
"image-keyboard-response","308","303044","0.0-7.0-1.20","LF","gcrz58pdx0","1920","1080","0","1","1","5f9b106e21189e2d3b853846","","null","","","","","","","learning/Slide101.JPG","null","","","","","",""
"html-keyboard-response","309","304045","0.0-7.0-2.20","LF","gcrz58pdx0","1920","1080","0","1","1","5f9b106e21189e2d3b853846","","null","","","learningBlock2","","","","<div style=""font-size:60px;""> </div>","null","LF","learning/Slide101.JPG","This is a tob:","","",""
"html-keyboard-response","310","305047","0.0-7.0-0.21","LF","gcrz58pdx0","1920","1080","0","1","1","5f9b106e21189e2d3b853846","","null","","","learningBlock2","","","","This is a bim:","null","","","","","",""
"image-keyboard-response","311","305373","0.0-7.0-1.21","LF","gcrz58pdx0","1920","1080","0","1","1","5f9b106e21189e2d3b853846","","null","","","","","","","learning/Slide102.JPG","null","","","","","",""
"html-keyboard-response","312","306375","0.0-7.0-2.21","LF","gcrz58pdx0","1920","1080","0","1","1","5f9b106e21189e2d3b853846","","null","","","learningBlock2","","","","<div style=""font-size:60px;""> </div>","null","LF","learning/Slide102.JPG","This is a bim:","","",""
"html-keyboard-response","313","307377","0.0-7.0-0.22","LF","gcrz58pdx0","1920","1080","0","1","1","5f9b106e21189e2d3b853846","","null","","","learningBlock2","","","","This is a dep:","null","","","","","",""
"image-keyboard-response","314","307704","0.0-7.0-1.22","LF","gcrz58pdx0","1920","1080","0","1","1","5f9b106e21189e2d3b853846","","null","","","","","","","learning/Slide103.JPG","null","","","","","",""
"html-keyboard-response","315","308706","0.0-7.0-2.22","LF","gcrz58pdx0","1920","1080","0","1","1","5f9b106e21189e2d3b853846","","null","","","learningBlock2","","","","<div style=""font-size:60px;""> </div>","null","LF","learning/Slide103.JPG","This is a dep:","","",""
"html-keyboard-response","316","309707","0.0-7.0-0.23","LF","gcrz58pdx0","1920","1080","0","1","1","5f9b106e21189e2d3b853846","","null","","","learningBlock2","","","","This is a tob:","null","","","","","",""
"image-keyboard-response","317","310034","0.0-7.0-1.23","LF","gcrz58pdx0","1920","1080","0","1","1","5f9b106e21189e2d3b853846","","null","","","","","","","learning/Slide104.JPG","null","","","","","",""
"html-keyboard-response","318","311037","0.0-7.0-2.23","LF","gcrz58pdx0","1920","1080","0","1","1","5f9b106e21189e2d3b853846","","null","","","learningBlock2","","","","<div style=""font-size:60px;""> </div>","null","LF","learning/Slide104.JPG","This is a tob:","","",""
"html-keyboard-response","319","312038","0.0-7.0-0.24","LF","gcrz58pdx0","1920","1080","0","1","1","5f9b106e21189e2d3b853846","","null","","","learningBlock2","","","","This is a dep:","null","","","","","",""
"image-keyboard-response","320","312366","0.0-7.0-1.24","LF","gcrz58pdx0","1920","1080","0","1","1","5f9b106e21189e2d3b853846","","null","","","","","","","learning/Slide105.JPG","null","","","","","",""
"html-keyboard-response","321","313367","0.0-7.0-2.24","LF","gcrz58pdx0","1920","1080","0","1","1","5f9b106e21189e2d3b853846","","null","","","learningBlock2","","","","<div style=""font-size:60px;""> </div>","null","LF","learning/Slide105.JPG","This is a dep:","","",""
"html-keyboard-response","322","314369","0.0-7.0-0.25","LF","gcrz58pdx0","1920","1080","0","1","1","5f9b106e21189e2d3b853846","","null","","","learningBlock2","","","","This is a wug:","null","","","","","",""
"image-keyboard-response","323","314696","0.0-7.0-1.25","LF","gcrz58pdx0","1920","1080","0","1","1","5f9b106e21189e2d3b853846","","null","","","","","","","learning/Slide106.JPG","null","","","","","",""
"html-keyboard-response","324","315699","0.0-7.0-2.25","LF","gcrz58pdx0","1920","1080","0","1","1","5f9b106e21189e2d3b853846","","null","","","learningBlock2","","","","<div style=""font-size:60px;""> </div>","null","LF","learning/Slide106.JPG","This is a wug:","","",""
"html-keyboard-response","325","316700","0.0-7.0-0.26","LF","gcrz58pdx0","1920","1080","0","1","1","5f9b106e21189e2d3b853846","","null","","","learningBlock2","","","","This is a bim:","null","","","","","",""
"image-keyboard-response","326","317027","0.0-7.0-1.26","LF","gcrz58pdx0","1920","1080","0","1","1","5f9b106e21189e2d3b853846","","null","","","","","","","learning/Slide107.JPG","null","","","","","",""
"html-keyboard-response","327","318029","0.0-7.0-2.26","LF","gcrz58pdx0","1920","1080","0","1","1","5f9b106e21189e2d3b853846","","null","","","learningBlock2","","","","<div style=""font-size:60px;""> </div>","null","LF","learning/Slide107.JPG","This is a bim:","","",""
"html-keyboard-response","328","319031","0.0-7.0-0.27","LF","gcrz58pdx0","1920","1080","0","1","1","5f9b106e21189e2d3b853846","","null","","","learningBlock2","","","","This is a dep:","null","","","","","",""
"image-keyboard-response","329","319358","0.0-7.0-1.27","LF","gcrz58pdx0","1920","1080","0","1","1","5f9b106e21189e2d3b853846","","null","","","","","","","learning/Slide108.JPG","null","","","","","",""
"html-keyboard-response","330","320360","0.0-7.0-2.27","LF","gcrz58pdx0","1920","1080","0","1","1","5f9b106e21189e2d3b853846","","null","","","learningBlock2","","","","<div style=""font-size:60px;""> </div>","null","LF","learning/Slide108.JPG","This is a dep:","","",""
"html-keyboard-response","331","321360","0.0-7.0-0.28","LF","gcrz58pdx0","1920","1080","0","1","1","5f9b106e21189e2d3b853846","","null","","","learningBlock2","","","","This is a wug:","null","","","","","",""
"image-keyboard-response","332","321688","0.0-7.0-1.28","LF","gcrz58pdx0","1920","1080","0","1","1","5f9b106e21189e2d3b853846","","null","","","","","","","learning/Slide109.JPG","null","","","","","",""
"html-keyboard-response","333","322689","0.0-7.0-2.28","LF","gcrz58pdx0","1920","1080","0","1","1","5f9b106e21189e2d3b853846","","null","","","learningBlock2","","","","<div style=""font-size:60px;""> </div>","null","LF","learning/Slide109.JPG","This is a wug:","","",""
"html-keyboard-response","334","323690","0.0-7.0-0.29","LF","gcrz58pdx0","1920","1080","0","1","1","5f9b106e21189e2d3b853846","","null","","","learningBlock2","","","","This is a bim:","null","","","","","",""
"image-keyboard-response","335","324017","0.0-7.0-1.29","LF","gcrz58pdx0","1920","1080","0","1","1","5f9b106e21189e2d3b853846","","null","","","","","","","learning/Slide110.JPG","null","","","","","",""
"html-keyboard-response","336","325019","0.0-7.0-2.29","LF","gcrz58pdx0","1920","1080","0","1","1","5f9b106e21189e2d3b853846","","null","","","learningBlock2","","","","<div style=""font-size:60px;""> </div>","null","LF","learning/Slide110.JPG","This is a bim:","","",""
"html-keyboard-response","337","326021","0.0-7.0-0.30","LF","gcrz58pdx0","1920","1080","0","1","1","5f9b106e21189e2d3b853846","","null","","","learningBlock2","","","","This is a tob:","null","","","","","",""
"image-keyboard-response","338","326348","0.0-7.0-1.30","LF","gcrz58pdx0","1920","1080","0","1","1","5f9b106e21189e2d3b853846","","null","","","","","","","learning/Slide111.JPG","null","","","","","",""
"html-keyboard-response","339","327349","0.0-7.0-2.30","LF","gcrz58pdx0","1920","1080","0","1","1","5f9b106e21189e2d3b853846","","null","","","learningBlock2","","","","<div style=""font-size:60px;""> </div>","null","LF","learning/Slide111.JPG","This is a tob:","","",""
"html-keyboard-response","340","328351","0.0-7.0-0.31","LF","gcrz58pdx0","1920","1080","0","1","1","5f9b106e21189e2d3b853846","","null","","","learningBlock2","","","","This is a wug:","null","","","","","",""
"image-keyboard-response","341","328684","0.0-7.0-1.31","LF","gcrz58pdx0","1920","1080","0","1","1","5f9b106e21189e2d3b853846","","null","","","","","","","learning/Slide112.JPG","null","","","","","",""
"html-keyboard-response","342","329685","0.0-7.0-2.31","LF","gcrz58pdx0","1920","1080","0","1","1","5f9b106e21189e2d3b853846","","null","","","learningBlock2","","","","<div style=""font-size:60px;""> </div>","null","LF","learning/Slide112.JPG","This is a wug:","","",""
"html-keyboard-response","343","330687","0.0-7.0-0.32","LF","gcrz58pdx0","1920","1080","0","1","1","5f9b106e21189e2d3b853846","","null","","","learningBlock2","","","","This is a tob:","null","","","","","",""
"image-keyboard-response","344","331014","0.0-7.0-1.32","LF","gcrz58pdx0","1920","1080","0","1","1","5f9b106e21189e2d3b853846","","null","","","","","","","learning/Slide113.JPG","null","","","","","",""
"html-keyboard-response","345","332017","0.0-7.0-2.32","LF","gcrz58pdx0","1920","1080","0","1","1","5f9b106e21189e2d3b853846","","null","","","learningBlock2","","","","<div style=""font-size:60px;""> </div>","null","LF","learning/Slide113.JPG","This is a tob:","","",""
"html-keyboard-response","346","333019","0.0-7.0-0.33","LF","gcrz58pdx0","1920","1080","0","1","1","5f9b106e21189e2d3b853846","","null","","","learningBlock2","","","","This is a wug:","null","","","","","",""
"image-keyboard-response","347","333346","0.0-7.0-1.33","LF","gcrz58pdx0","1920","1080","0","1","1","5f9b106e21189e2d3b853846","","null","","","","","","","learning/Slide114.JPG","null","","","","","",""
"html-keyboard-response","348","334347","0.0-7.0-2.33","LF","gcrz58pdx0","1920","1080","0","1","1","5f9b106e21189e2d3b853846","","null","","","learningBlock2","","","","<div style=""font-size:60px;""> </div>","null","LF","learning/Slide114.JPG","This is a wug:","","",""
"html-keyboard-response","349","335348","0.0-7.0-0.34","LF","gcrz58pdx0","1920","1080","0","1","1","5f9b106e21189e2d3b853846","","null","","","learningBlock2","","","","This is a bim:","null","","","","","",""
"image-keyboard-response","350","335676","0.0-7.0-1.34","LF","gcrz58pdx0","1920","1080","0","1","1","5f9b106e21189e2d3b853846","","null","","","","","","","learning/Slide115.JPG","null","","","","","",""
"html-keyboard-response","351","336678","0.0-7.0-2.34","LF","gcrz58pdx0","1920","1080","0","1","1","5f9b106e21189e2d3b853846","","null","","","learningBlock2","","","","<div style=""font-size:60px;""> </div>","null","LF","learning/Slide115.JPG","This is a bim:","","",""
"html-keyboard-response","352","337679","0.0-7.0-0.35","LF","gcrz58pdx0","1920","1080","0","1","1","5f9b106e21189e2d3b853846","","null","","","learningBlock2","","","","This is a dep:","null","","","","","",""
"image-keyboard-response","353","338007","0.0-7.0-1.35","LF","gcrz58pdx0","1920","1080","0","1","1","5f9b106e21189e2d3b853846","","null","","","","","","","learning/Slide116.JPG","null","","","","","",""
"html-keyboard-response","354","339008","0.0-7.0-2.35","LF","gcrz58pdx0","1920","1080","0","1","1","5f9b106e21189e2d3b853846","","null","","","learningBlock2","","","","<div style=""font-size:60px;""> </div>","null","LF","learning/Slide116.JPG","This is a dep:","","",""
"html-keyboard-response","355","340009","0.0-7.0-0.36","LF","gcrz58pdx0","1920","1080","0","1","1","5f9b106e21189e2d3b853846","","null","","","learningBlock2","","","","This is a tob:","null","","","","","",""
"image-keyboard-response","356","340337","0.0-7.0-1.36","LF","gcrz58pdx0","1920","1080","0","1","1","5f9b106e21189e2d3b853846","","null","","","","","","","learning/Slide117.JPG","null","","","","","",""
"html-keyboard-response","357","341339","0.0-7.0-2.36","LF","gcrz58pdx0","1920","1080","0","1","1","5f9b106e21189e2d3b853846","","null","","","learningBlock2","","","","<div style=""font-size:60px;""> </div>","null","LF","learning/Slide117.JPG","This is a tob:","","",""
"html-keyboard-response","358","342341","0.0-7.0-0.37","LF","gcrz58pdx0","1920","1080","0","1","1","5f9b106e21189e2d3b853846","","null","","","learningBlock2","","","","This is a dep:","null","","","","","",""
"image-keyboard-response","359","342669","0.0-7.0-1.37","LF","gcrz58pdx0","1920","1080","0","1","1","5f9b106e21189e2d3b853846","","null","","","","","","","learning/Slide118.JPG","null","","","","","",""
"html-keyboard-response","360","343670","0.0-7.0-2.37","LF","gcrz58pdx0","1920","1080","0","1","1","5f9b106e21189e2d3b853846","","null","","","learningBlock2","","","","<div style=""font-size:60px;""> </div>","null","LF","learning/Slide118.JPG","This is a dep:","","",""
"html-keyboard-response","361","344672","0.0-7.0-0.38","LF","gcrz58pdx0","1920","1080","0","1","1","5f9b106e21189e2d3b853846","","null","","","learningBlock2","","","","This is a wug:","null","","","","","",""
"image-keyboard-response","362","344999","0.0-7.0-1.38","LF","gcrz58pdx0","1920","1080","0","1","1","5f9b106e21189e2d3b853846","","null","","","","","","","learning/Slide119.JPG","null","","","","","",""
"html-keyboard-response","363","346001","0.0-7.0-2.38","LF","gcrz58pdx0","1920","1080","0","1","1","5f9b106e21189e2d3b853846","","null","","","learningBlock2","","","","<div style=""font-size:60px;""> </div>","null","LF","learning/Slide119.JPG","This is a wug:","","",""
"html-keyboard-response","364","347003","0.0-7.0-0.39","LF","gcrz58pdx0","1920","1080","0","1","1","5f9b106e21189e2d3b853846","","null","","","learningBlock2","","","","This is a dep:","null","","","","","",""
"image-keyboard-response","365","347330","0.0-7.0-1.39","LF","gcrz58pdx0","1920","1080","0","1","1","5f9b106e21189e2d3b853846","","null","","","","","","","learning/Slide120.JPG","null","","","","","",""
"html-keyboard-response","366","348331","0.0-7.0-2.39","LF","gcrz58pdx0","1920","1080","0","1","1","5f9b106e21189e2d3b853846","","null","","","learningBlock2","","","","<div style=""font-size:60px;""> </div>","null","LF","learning/Slide120.JPG","This is a dep:","","",""
"html-keyboard-response","367","349333","0.0-7.0-0.40","LF","gcrz58pdx0","1920","1080","0","1","1","5f9b106e21189e2d3b853846","","null","","","learningBlock2","","","","This is a bim:","null","","","","","",""
"image-keyboard-response","368","349661","0.0-7.0-1.40","LF","gcrz58pdx0","1920","1080","0","1","1","5f9b106e21189e2d3b853846","","null","","","","","","","learning/Slide121.JPG","null","","","","","",""
"html-keyboard-response","369","350664","0.0-7.0-2.40","LF","gcrz58pdx0","1920","1080","0","1","1","5f9b106e21189e2d3b853846","","null","","","learningBlock2","","","","<div style=""font-size:60px;""> </div>","null","LF","learning/Slide121.JPG","This is a bim:","","",""
"html-keyboard-response","370","351666","0.0-7.0-0.41","LF","gcrz58pdx0","1920","1080","0","1","1","5f9b106e21189e2d3b853846","","null","","","learningBlock2","","","","This is a wug:","null","","","","","",""
"image-keyboard-response","371","351993","0.0-7.0-1.41","LF","gcrz58pdx0","1920","1080","0","1","1","5f9b106e21189e2d3b853846","","null","","","","","","","learning/Slide122.JPG","null","","","","","",""
"html-keyboard-response","372","352994","0.0-7.0-2.41","LF","gcrz58pdx0","1920","1080","0","1","1","5f9b106e21189e2d3b853846","","null","","","learningBlock2","","","","<div style=""font-size:60px;""> </div>","null","LF","learning/Slide122.JPG","This is a wug:","","",""
"html-keyboard-response","373","353996","0.0-7.0-0.42","LF","gcrz58pdx0","1920","1080","0","1","1","5f9b106e21189e2d3b853846","","null","","","learningBlock2","","","","This is a bim:","null","","","","","",""
"image-keyboard-response","374","354323","0.0-7.0-1.42","LF","gcrz58pdx0","1920","1080","0","1","1","5f9b106e21189e2d3b853846","","null","","","","","","","learning/Slide123.JPG","null","","","","","",""
"html-keyboard-response","375","355324","0.0-7.0-2.42","LF","gcrz58pdx0","1920","1080","0","1","1","5f9b106e21189e2d3b853846","","null","","","learningBlock2","","","","<div style=""font-size:60px;""> </div>","null","LF","learning/Slide123.JPG","This is a bim:","","",""
"html-keyboard-response","376","356327","0.0-7.0-0.43","LF","gcrz58pdx0","1920","1080","0","1","1","5f9b106e21189e2d3b853846","","null","","","learningBlock2","","","","This is a tob:","null","","","","","",""
"image-keyboard-response","377","356654","0.0-7.0-1.43","LF","gcrz58pdx0","1920","1080","0","1","1","5f9b106e21189e2d3b853846","","null","","","","","","","learning/Slide124.JPG","null","","","","","",""
"html-keyboard-response","378","357656","0.0-7.0-2.43","LF","gcrz58pdx0","1920","1080","0","1","1","5f9b106e21189e2d3b853846","","null","","","learningBlock2","","","","<div style=""font-size:60px;""> </div>","null","LF","learning/Slide124.JPG","This is a tob:","","",""
"html-keyboard-response","379","358658","0.0-7.0-0.44","LF","gcrz58pdx0","1920","1080","0","1","1","5f9b106e21189e2d3b853846","","null","","","learningBlock2","","","","This is a bim:","null","","","","","",""
"image-keyboard-response","380","358985","0.0-7.0-1.44","LF","gcrz58pdx0","1920","1080","0","1","1","5f9b106e21189e2d3b853846","","null","","","","","","","learning/Slide125.JPG","null","","","","","",""
"html-keyboard-response","381","359987","0.0-7.0-2.44","LF","gcrz58pdx0","1920","1080","0","1","1","5f9b106e21189e2d3b853846","","null","","","learningBlock2","","","","<div style=""font-size:60px;""> </div>","null","LF","learning/Slide125.JPG","This is a bim:","","",""
"html-keyboard-response","382","360989","0.0-7.0-0.45","LF","gcrz58pdx0","1920","1080","0","1","1","5f9b106e21189e2d3b853846","","null","","","learningBlock2","","","","This is a tob:","null","","","","","",""
"image-keyboard-response","383","361317","0.0-7.0-1.45","LF","gcrz58pdx0","1920","1080","0","1","1","5f9b106e21189e2d3b853846","","null","","","","","","","learning/Slide126.JPG","null","","","","","",""
"html-keyboard-response","384","362318","0.0-7.0-2.45","LF","gcrz58pdx0","1920","1080","0","1","1","5f9b106e21189e2d3b853846","","null","","","learningBlock2","","","","<div style=""font-size:60px;""> </div>","null","LF","learning/Slide126.JPG","This is a tob:","","",""
"html-keyboard-response","385","363319","0.0-7.0-0.46","LF","gcrz58pdx0","1920","1080","0","1","1","5f9b106e21189e2d3b853846","","null","","","learningBlock2","","","","This is a dep:","null","","","","","",""
"image-keyboard-response","386","363648","0.0-7.0-1.46","LF","gcrz58pdx0","1920","1080","0","1","1","5f9b106e21189e2d3b853846","","null","","","","","","","learning/Slide127.JPG","null","","","","","",""
"html-keyboard-response","387","364650","0.0-7.0-2.46","LF","gcrz58pdx0","1920","1080","0","1","1","5f9b106e21189e2d3b853846","","null","","","learningBlock2","","","","<div style=""font-size:60px;""> </div>","null","LF","learning/Slide127.JPG","This is a dep:","","",""
"html-keyboard-response","388","365651","0.0-7.0-0.47","LF","gcrz58pdx0","1920","1080","0","1","1","5f9b106e21189e2d3b853846","","null","","","learningBlock2","","","","This is a wug:","null","","","","","",""
"image-keyboard-response","389","365978","0.0-7.0-1.47","LF","gcrz58pdx0","1920","1080","0","1","1","5f9b106e21189e2d3b853846","","null","","","","","","","learning/Slide128.JPG","null","","","","","",""
"html-keyboard-response","390","366979","0.0-7.0-2.47","LF","gcrz58pdx0","1920","1080","0","1","1","5f9b106e21189e2d3b853846","","null","","","learningBlock2","","","","<div style=""font-size:60px;""> </div>","null","LF","learning/Slide128.JPG","This is a wug:","","",""
"html-keyboard-response","391","367981","0.0-7.0-0.48","LF","gcrz58pdx0","1920","1080","0","1","1","5f9b106e21189e2d3b853846","","null","","","learningBlock2","","","","This is a tob:","null","","","","","",""
"image-keyboard-response","392","368310","0.0-7.0-1.48","LF","gcrz58pdx0","1920","1080","0","1","1","5f9b106e21189e2d3b853846","","null","","","","","","","learning/Slide129.JPG","null","","","","","",""
"html-keyboard-response","393","369311","0.0-7.0-2.48","LF","gcrz58pdx0","1920","1080","0","1","1","5f9b106e21189e2d3b853846","","null","","","learningBlock2","","","","<div style=""font-size:60px;""> </div>","null","LF","learning/Slide129.JPG","This is a tob:","","",""
"html-keyboard-response","394","370311","0.0-7.0-0.49","LF","gcrz58pdx0","1920","1080","0","1","1","5f9b106e21189e2d3b853846","","null","","","learningBlock2","","","","This is a wug:","null","","","","","",""
"image-keyboard-response","395","370640","0.0-7.0-1.49","LF","gcrz58pdx0","1920","1080","0","1","1","5f9b106e21189e2d3b853846","","null","","","","","","","learning/Slide130.JPG","null","","","","","",""
"html-keyboard-response","396","371641","0.0-7.0-2.49","LF","gcrz58pdx0","1920","1080","0","1","1","5f9b106e21189e2d3b853846","","null","","","learningBlock2","","","","<div style=""font-size:60px;""> </div>","null","LF","learning/Slide130.JPG","This is a wug:","","",""
"html-keyboard-response","397","372642","0.0-7.0-0.50","LF","gcrz58pdx0","1920","1080","0","1","1","5f9b106e21189e2d3b853846","","null","","","learningBlock2","","","","This is a bim:","null","","","","","",""
"image-keyboard-response","398","372969","0.0-7.0-1.50","LF","gcrz58pdx0","1920","1080","0","1","1","5f9b106e21189e2d3b853846","","null","","","","","","","learning/Slide131.JPG","null","","","","","",""
"html-keyboard-response","399","373970","0.0-7.0-2.50","LF","gcrz58pdx0","1920","1080","0","1","1","5f9b106e21189e2d3b853846","","null","","","learningBlock2","","","","<div style=""font-size:60px;""> </div>","null","LF","learning/Slide131.JPG","This is a bim:","","",""
"html-keyboard-response","400","374971","0.0-7.0-0.51","LF","gcrz58pdx0","1920","1080","0","1","1","5f9b106e21189e2d3b853846","","null","","","learningBlock2","","","","This is a dep:","null","","","","","",""
"image-keyboard-response","401","375299","0.0-7.0-1.51","LF","gcrz58pdx0","1920","1080","0","1","1","5f9b106e21189e2d3b853846","","null","","","","","","","learning/Slide132.JPG","null","","","","","",""
"html-keyboard-response","402","376303","0.0-7.0-2.51","LF","gcrz58pdx0","1920","1080","0","1","1","5f9b106e21189e2d3b853846","","null","","","learningBlock2","","","","<div style=""font-size:60px;""> </div>","null","LF","learning/Slide132.JPG","This is a dep:","","",""
"html-keyboard-response","403","377305","0.0-7.0-0.52","LF","gcrz58pdx0","1920","1080","0","1","1","5f9b106e21189e2d3b853846","","null","","","learningBlock2","","","","This is a tob:","null","","","","","",""
"image-keyboard-response","404","377633","0.0-7.0-1.52","LF","gcrz58pdx0","1920","1080","0","1","1","5f9b106e21189e2d3b853846","","null","","","","","","","learning/Slide133.JPG","null","","","","","",""
"html-keyboard-response","405","378635","0.0-7.0-2.52","LF","gcrz58pdx0","1920","1080","0","1","1","5f9b106e21189e2d3b853846","","null","","","learningBlock2","","","","<div style=""font-size:60px;""> </div>","null","LF","learning/Slide133.JPG","This is a tob:","","",""
"html-keyboard-response","406","379637","0.0-7.0-0.53","LF","gcrz58pdx0","1920","1080","0","1","1","5f9b106e21189e2d3b853846","","null","","","learningBlock2","","","","This is a dep:","null","","","","","",""
"image-keyboard-response","407","379964","0.0-7.0-1.53","LF","gcrz58pdx0","1920","1080","0","1","1","5f9b106e21189e2d3b853846","","null","","","","","","","learning/Slide134.JPG","null","","","","","",""
"html-keyboard-response","408","380966","0.0-7.0-2.53","LF","gcrz58pdx0","1920","1080","0","1","1","5f9b106e21189e2d3b853846","","null","","","learningBlock2","","","","<div style=""font-size:60px;""> </div>","null","LF","learning/Slide134.JPG","This is a dep:","","",""
"html-keyboard-response","409","381967","0.0-7.0-0.54","LF","gcrz58pdx0","1920","1080","0","1","1","5f9b106e21189e2d3b853846","","null","","","learningBlock2","","","","This is a tob:","null","","","","","",""
"image-keyboard-response","410","382293","0.0-7.0-1.54","LF","gcrz58pdx0","1920","1080","0","1","1","5f9b106e21189e2d3b853846","","null","","","","","","","learning/Slide135.JPG","null","","","","","",""
"html-keyboard-response","411","383294","0.0-7.0-2.54","LF","gcrz58pdx0","1920","1080","0","1","1","5f9b106e21189e2d3b853846","","null","","","learningBlock2","","","","<div style=""font-size:60px;""> </div>","null","LF","learning/Slide135.JPG","This is a tob:","","",""
"html-keyboard-response","412","384296","0.0-7.0-0.55","LF","gcrz58pdx0","1920","1080","0","1","1","5f9b106e21189e2d3b853846","","null","","","learningBlock2","","","","This is a wug:","null","","","","","",""
"image-keyboard-response","413","384622","0.0-7.0-1.55","LF","gcrz58pdx0","1920","1080","0","1","1","5f9b106e21189e2d3b853846","","null","","","","","","","learning/Slide136.JPG","null","","","","","",""
"html-keyboard-response","414","385623","0.0-7.0-2.55","LF","gcrz58pdx0","1920","1080","0","1","1","5f9b106e21189e2d3b853846","","null","","","learningBlock2","","","","<div style=""font-size:60px;""> </div>","null","LF","learning/Slide136.JPG","This is a wug:","","",""
"html-keyboard-response","415","386624","0.0-7.0-0.56","LF","gcrz58pdx0","1920","1080","0","1","1","5f9b106e21189e2d3b853846","","null","","","learningBlock2","","","","This is a tob:","null","","","","","",""
"image-keyboard-response","416","386951","0.0-7.0-1.56","LF","gcrz58pdx0","1920","1080","0","1","1","5f9b106e21189e2d3b853846","","null","","","","","","","learning/Slide137.JPG","null","","","","","",""
"html-keyboard-response","417","387953","0.0-7.0-2.56","LF","gcrz58pdx0","1920","1080","0","1","1","5f9b106e21189e2d3b853846","","null","","","learningBlock2","","","","<div style=""font-size:60px;""> </div>","null","LF","learning/Slide137.JPG","This is a tob:","","",""
"html-keyboard-response","418","388955","0.0-7.0-0.57","LF","gcrz58pdx0","1920","1080","0","1","1","5f9b106e21189e2d3b853846","","null","","","learningBlock2","","","","This is a bim:","null","","","","","",""
"image-keyboard-response","419","389283","0.0-7.0-1.57","LF","gcrz58pdx0","1920","1080","0","1","1","5f9b106e21189e2d3b853846","","null","","","","","","","learning/Slide138.JPG","null","","","","","",""
"html-keyboard-response","420","390285","0.0-7.0-2.57","LF","gcrz58pdx0","1920","1080","0","1","1","5f9b106e21189e2d3b853846","","null","","","learningBlock2","","","","<div style=""font-size:60px;""> </div>","null","LF","learning/Slide138.JPG","This is a bim:","","",""
"html-keyboard-response","421","391287","0.0-7.0-0.58","LF","gcrz58pdx0","1920","1080","0","1","1","5f9b106e21189e2d3b853846","","null","","","learningBlock2","","","","This is a wug:","null","","","","","",""
"image-keyboard-response","422","391616","0.0-7.0-1.58","LF","gcrz58pdx0","1920","1080","0","1","1","5f9b106e21189e2d3b853846","","null","","","","","","","learning/Slide139.JPG","null","","","","","",""
"html-keyboard-response","423","392617","0.0-7.0-2.58","LF","gcrz58pdx0","1920","1080","0","1","1","5f9b106e21189e2d3b853846","","null","","","learningBlock2","","","","<div style=""font-size:60px;""> </div>","null","LF","learning/Slide139.JPG","This is a wug:","","",""
"html-keyboard-response","424","393619","0.0-7.0-0.59","LF","gcrz58pdx0","1920","1080","0","1","1","5f9b106e21189e2d3b853846","","null","","","learningBlock2","","","","This is a dep:","null","","","","","",""
"image-keyboard-response","425","393947","0.0-7.0-1.59","LF","gcrz58pdx0","1920","1080","0","1","1","5f9b106e21189e2d3b853846","","null","","","","","","","learning/Slide140.JPG","null","","","","","",""
"html-keyboard-response","426","394948","0.0-7.0-2.59","LF","gcrz58pdx0","1920","1080","0","1","1","5f9b106e21189e2d3b853846","","null","","","learningBlock2","","","","<div style=""font-size:60px;""> </div>","null","LF","learning/Slide140.JPG","This is a dep:","","",""
"html-keyboard-response","427","395949","0.0-7.0-0.60","LF","gcrz58pdx0","1920","1080","0","1","1","5f9b106e21189e2d3b853846","","null","","","learningBlock2","","","","This is a tob:","null","","","","","",""
"image-keyboard-response","428","396276","0.0-7.0-1.60","LF","gcrz58pdx0","1920","1080","0","1","1","5f9b106e21189e2d3b853846","","null","","","","","","","learning/Slide141.JPG","null","","","","","",""
"html-keyboard-response","429","397278","0.0-7.0-2.60","LF","gcrz58pdx0","1920","1080","0","1","1","5f9b106e21189e2d3b853846","","null","","","learningBlock2","","","","<div style=""font-size:60px;""> </div>","null","LF","learning/Slide141.JPG","This is a tob:","","",""
"html-keyboard-response","430","398280","0.0-7.0-0.61","LF","gcrz58pdx0","1920","1080","0","1","1","5f9b106e21189e2d3b853846","","null","","","learningBlock2","","","","This is a wug:","null","","","","","",""
"image-keyboard-response","431","398608","0.0-7.0-1.61","LF","gcrz58pdx0","1920","1080","0","1","1","5f9b106e21189e2d3b853846","","null","","","","","","","learning/Slide142.JPG","null","","","","","",""
"html-keyboard-response","432","399610","0.0-7.0-2.61","LF","gcrz58pdx0","1920","1080","0","1","1","5f9b106e21189e2d3b853846","","null","","","learningBlock2","","","","<div style=""font-size:60px;""> </div>","null","LF","learning/Slide142.JPG","This is a wug:","","",""
"html-keyboard-response","433","400612","0.0-7.0-0.62","LF","gcrz58pdx0","1920","1080","0","1","1","5f9b106e21189e2d3b853846","","null","","","learningBlock2","","","","This is a bim:","null","","","","","",""
"image-keyboard-response","434","400939","0.0-7.0-1.62","LF","gcrz58pdx0","1920","1080","0","1","1","5f9b106e21189e2d3b853846","","null","","","","","","","learning/Slide143.JPG","null","","","","","",""
"html-keyboard-response","435","401941","0.0-7.0-2.62","LF","gcrz58pdx0","1920","1080","0","1","1","5f9b106e21189e2d3b853846","","null","","","learningBlock2","","","","<div style=""font-size:60px;""> </div>","null","LF","learning/Slide143.JPG","This is a bim:","","",""
"html-keyboard-response","436","402942","0.0-7.0-0.63","LF","gcrz58pdx0","1920","1080","0","1","1","5f9b106e21189e2d3b853846","","null","","","learningBlock2","","","","This is a dep:","null","","","","","",""
