"trial_type","trial_index","time_elapsed","internal_node_id","condition","subject","screen_width","screen_height","attention","distraction","conscientious","prolificID","success","rt","url","view_history","test_part","final_height_px","final_width_px","scale_factor","stimulus","key_press","learningType","presentedImage","presentedLabel","button_pressed","response","responses"
"pavlovia","0","27","0.0-0.0","LF","5qj7var04h","1920","1080","0","1","0","5f4f835cea1e870397a4d295","","","","","","","","","","","","","","","",""
"fullscreen","1","8020","0.0-1.0","LF","5qj7var04h","1920","1080","0","1","0","5f4f835cea1e870397a4d295","true","","","","","","","","","","","","","","",""
"external-html","2","15083","0.0-2.0-0.0","LF","5qj7var04h","1920","1080","0","1","0","5f4f835cea1e870397a4d295","","6971.630000000005","text/information_english.html","","","","","","","","","","","","",""
"external-html","3","22219","0.0-2.0-1.0","LF","5qj7var04h","1920","1080","0","1","0","5f4f835cea1e870397a4d295","","7059.720000001107","text/consent_english.html","","","","","","","","","","","","",""
"instructions","4","40035","0.0-3.0","LF","5qj7var04h","1920","1080","0","1","0","5f4f835cea1e870397a4d295","","NA","","[{""page_index"":0,""viewing_time"":2462.5300000006973},{""page_index"":1,""viewing_time"":15351.875000000291}]","instructions","","","","","","","","","","",""
"resize","5","66547","0.0-4.0","LF","5qj7var04h","1920","1080","0","1","0","5f4f835cea1e870397a4d295","","","","","","","100","0.634920634920635","","","","","","","",""
"html-keyboard-response","6","67551","0.0-5.0-0.0","LF","5qj7var04h","1920","1080","0","1","0","5f4f835cea1e870397a4d295","","null","","","learningBlock1","","","","This is a tob:","null","","","","","",""
"image-keyboard-response","7","67880","0.0-5.0-1.0","LF","5qj7var04h","1920","1080","0","1","0","5f4f835cea1e870397a4d295","","null","","","","","","","learning/Slide1.JPG","null","","","","","",""
"html-keyboard-response","8","68883","0.0-5.0-2.0","LF","5qj7var04h","1920","1080","0","1","0","5f4f835cea1e870397a4d295","","null","","","learningBlock1","","","","<div style=""font-size:60px;""> </div>","null","LF","learning/Slide1.JPG","This is a tob:","","",""
"html-keyboard-response","9","69886","0.0-5.0-0.1","LF","5qj7var04h","1920","1080","0","1","0","5f4f835cea1e870397a4d295","","null","","","learningBlock1","","","","This is a wug:","null","","","","","",""
"image-keyboard-response","10","70215","0.0-5.0-1.1","LF","5qj7var04h","1920","1080","0","1","0","5f4f835cea1e870397a4d295","","null","","","","","","","learning/Slide2.JPG","null","","","","","",""
"html-keyboard-response","11","71217","0.0-5.0-2.1","LF","5qj7var04h","1920","1080","0","1","0","5f4f835cea1e870397a4d295","","null","","","learningBlock1","","","","<div style=""font-size:60px;""> </div>","null","LF","learning/Slide2.JPG","This is a wug:","","",""
"html-keyboard-response","12","72220","0.0-5.0-0.2","LF","5qj7var04h","1920","1080","0","1","0","5f4f835cea1e870397a4d295","","null","","","learningBlock1","","","","This is a bim:","null","","","","","",""
"image-keyboard-response","13","72548","0.0-5.0-1.2","LF","5qj7var04h","1920","1080","0","1","0","5f4f835cea1e870397a4d295","","null","","","","","","","learning/Slide3.JPG","null","","","","","",""
"html-keyboard-response","14","73552","0.0-5.0-2.2","LF","5qj7var04h","1920","1080","0","1","0","5f4f835cea1e870397a4d295","","null","","","learningBlock1","","","","<div style=""font-size:60px;""> </div>","null","LF","learning/Slide3.JPG","This is a bim:","","",""
"html-keyboard-response","15","74555","0.0-5.0-0.3","LF","5qj7var04h","1920","1080","0","1","0","5f4f835cea1e870397a4d295","","null","","","learningBlock1","","","","This is a dep:","null","","","","","",""
"image-keyboard-response","16","74922","0.0-5.0-1.3","LF","5qj7var04h","1920","1080","0","1","0","5f4f835cea1e870397a4d295","","null","","","","","","","learning/Slide4.JPG","null","","","","","",""
"html-keyboard-response","17","75924","0.0-5.0-2.3","LF","5qj7var04h","1920","1080","0","1","0","5f4f835cea1e870397a4d295","","null","","","learningBlock1","","","","<div style=""font-size:60px;""> </div>","null","LF","learning/Slide4.JPG","This is a dep:","","",""
"html-keyboard-response","18","76926","0.0-5.0-0.4","LF","5qj7var04h","1920","1080","0","1","0","5f4f835cea1e870397a4d295","","null","","","learningBlock1","","","","This is a wug:","null","","","","","",""
"image-keyboard-response","19","77255","0.0-5.0-1.4","LF","5qj7var04h","1920","1080","0","1","0","5f4f835cea1e870397a4d295","","null","","","","","","","learning/Slide5.JPG","null","","","","","",""
"html-keyboard-response","20","78258","0.0-5.0-2.4","LF","5qj7var04h","1920","1080","0","1","0","5f4f835cea1e870397a4d295","","null","","","learningBlock1","","","","<div style=""font-size:60px;""> </div>","null","LF","learning/Slide5.JPG","This is a wug:","","",""
"html-keyboard-response","21","79261","0.0-5.0-0.5","LF","5qj7var04h","1920","1080","0","1","0","5f4f835cea1e870397a4d295","","null","","","learningBlock1","","","","This is a dep:","null","","","","","",""
"image-keyboard-response","22","79591","0.0-5.0-1.5","LF","5qj7var04h","1920","1080","0","1","0","5f4f835cea1e870397a4d295","","null","","","","","","","learning/Slide6.JPG","null","","","","","",""
"html-keyboard-response","23","80594","0.0-5.0-2.5","LF","5qj7var04h","1920","1080","0","1","0","5f4f835cea1e870397a4d295","","null","","","learningBlock1","","","","<div style=""font-size:60px;""> </div>","null","LF","learning/Slide6.JPG","This is a dep:","","",""
"html-keyboard-response","24","81597","0.0-5.0-0.6","LF","5qj7var04h","1920","1080","0","1","0","5f4f835cea1e870397a4d295","","null","","","learningBlock1","","","","This is a wug:","null","","","","","",""
"image-keyboard-response","25","81927","0.0-5.0-1.6","LF","5qj7var04h","1920","1080","0","1","0","5f4f835cea1e870397a4d295","","null","","","","","","","learning/Slide7.JPG","null","","","","","",""
"html-keyboard-response","26","82929","0.0-5.0-2.6","LF","5qj7var04h","1920","1080","0","1","0","5f4f835cea1e870397a4d295","","null","","","learningBlock1","","","","<div style=""font-size:60px;""> </div>","null","LF","learning/Slide7.JPG","This is a wug:","","",""
"html-keyboard-response","27","83932","0.0-5.0-0.7","LF","5qj7var04h","1920","1080","0","1","0","5f4f835cea1e870397a4d295","","null","","","learningBlock1","","","","This is a bim:","null","","","","","",""
"image-keyboard-response","28","84262","0.0-5.0-1.7","LF","5qj7var04h","1920","1080","0","1","0","5f4f835cea1e870397a4d295","","null","","","","","","","learning/Slide8.JPG","null","","","","","",""
"html-keyboard-response","29","85264","0.0-5.0-2.7","LF","5qj7var04h","1920","1080","0","1","0","5f4f835cea1e870397a4d295","","null","","","learningBlock1","","","","<div style=""font-size:60px;""> </div>","null","LF","learning/Slide8.JPG","This is a bim:","","",""
"html-keyboard-response","30","86267","0.0-5.0-0.8","LF","5qj7var04h","1920","1080","0","1","0","5f4f835cea1e870397a4d295","","null","","","learningBlock1","","","","This is a wug:","null","","","","","",""
"image-keyboard-response","31","86595","0.0-5.0-1.8","LF","5qj7var04h","1920","1080","0","1","0","5f4f835cea1e870397a4d295","","null","","","","","","","learning/Slide9.JPG","null","","","","","",""
"html-keyboard-response","32","87597","0.0-5.0-2.8","LF","5qj7var04h","1920","1080","0","1","0","5f4f835cea1e870397a4d295","","null","","","learningBlock1","","","","<div style=""font-size:60px;""> </div>","null","LF","learning/Slide9.JPG","This is a wug:","","",""
"html-keyboard-response","33","88601","0.0-5.0-0.9","LF","5qj7var04h","1920","1080","0","1","0","5f4f835cea1e870397a4d295","","null","","","learningBlock1","","","","This is a dep:","null","","","","","",""
"image-keyboard-response","34","88930","0.0-5.0-1.9","LF","5qj7var04h","1920","1080","0","1","0","5f4f835cea1e870397a4d295","","null","","","","","","","learning/Slide10.JPG","null","","","","","",""
"html-keyboard-response","35","89933","0.0-5.0-2.9","LF","5qj7var04h","1920","1080","0","1","0","5f4f835cea1e870397a4d295","","null","","","learningBlock1","","","","<div style=""font-size:60px;""> </div>","null","LF","learning/Slide10.JPG","This is a dep:","","",""
"html-keyboard-response","36","90936","0.0-5.0-0.10","LF","5qj7var04h","1920","1080","0","1","0","5f4f835cea1e870397a4d295","","null","","","learningBlock1","","","","This is a tob:","null","","","","","",""
"image-keyboard-response","37","91264","0.0-5.0-1.10","LF","5qj7var04h","1920","1080","0","1","0","5f4f835cea1e870397a4d295","","null","","","","","","","learning/Slide11.JPG","null","","","","","",""
"html-keyboard-response","38","92267","0.0-5.0-2.10","LF","5qj7var04h","1920","1080","0","1","0","5f4f835cea1e870397a4d295","","null","","","learningBlock1","","","","<div style=""font-size:60px;""> </div>","null","LF","learning/Slide11.JPG","This is a tob:","","",""
"html-keyboard-response","39","93270","0.0-5.0-0.11","LF","5qj7var04h","1920","1080","0","1","0","5f4f835cea1e870397a4d295","","null","","","learningBlock1","","","","This is a dep:","null","","","","","",""
"image-keyboard-response","40","93603","0.0-5.0-1.11","LF","5qj7var04h","1920","1080","0","1","0","5f4f835cea1e870397a4d295","","null","","","","","","","learning/Slide12.JPG","null","","","","","",""
"html-keyboard-response","41","94605","0.0-5.0-2.11","LF","5qj7var04h","1920","1080","0","1","0","5f4f835cea1e870397a4d295","","null","","","learningBlock1","","","","<div style=""font-size:60px;""> </div>","null","LF","learning/Slide12.JPG","This is a dep:","","",""
"html-keyboard-response","42","95608","0.0-5.0-0.12","LF","5qj7var04h","1920","1080","0","1","0","5f4f835cea1e870397a4d295","","null","","","learningBlock1","","","","This is a bim:","null","","","","","",""
"image-keyboard-response","43","95937","0.0-5.0-1.12","LF","5qj7var04h","1920","1080","0","1","0","5f4f835cea1e870397a4d295","","null","","","","","","","learning/Slide13.JPG","null","","","","","",""
"html-keyboard-response","44","96940","0.0-5.0-2.12","LF","5qj7var04h","1920","1080","0","1","0","5f4f835cea1e870397a4d295","","null","","","learningBlock1","","","","<div style=""font-size:60px;""> </div>","null","LF","learning/Slide13.JPG","This is a bim:","","",""
"html-keyboard-response","45","97942","0.0-5.0-0.13","LF","5qj7var04h","1920","1080","0","1","0","5f4f835cea1e870397a4d295","","null","","","learningBlock1","","","","This is a wug:","null","","","","","",""
"image-keyboard-response","46","98272","0.0-5.0-1.13","LF","5qj7var04h","1920","1080","0","1","0","5f4f835cea1e870397a4d295","","null","","","","","","","learning/Slide14.JPG","null","","","","","",""
"html-keyboard-response","47","99275","0.0-5.0-2.13","LF","5qj7var04h","1920","1080","0","1","0","5f4f835cea1e870397a4d295","","null","","","learningBlock1","","","","<div style=""font-size:60px;""> </div>","null","LF","learning/Slide14.JPG","This is a wug:","","",""
"html-keyboard-response","48","100278","0.0-5.0-0.14","LF","5qj7var04h","1920","1080","0","1","0","5f4f835cea1e870397a4d295","","null","","","learningBlock1","","","","This is a tob:","null","","","","","",""
"image-keyboard-response","49","100606","0.0-5.0-1.14","LF","5qj7var04h","1920","1080","0","1","0","5f4f835cea1e870397a4d295","","null","","","","","","","learning/Slide15.JPG","null","","","","","",""
"html-keyboard-response","50","101609","0.0-5.0-2.14","LF","5qj7var04h","1920","1080","0","1","0","5f4f835cea1e870397a4d295","","null","","","learningBlock1","","","","<div style=""font-size:60px;""> </div>","null","LF","learning/Slide15.JPG","This is a tob:","","",""
"html-keyboard-response","51","102612","0.0-5.0-0.15","LF","5qj7var04h","1920","1080","0","1","0","5f4f835cea1e870397a4d295","","null","","","learningBlock1","","","","This is a dep:","null","","","","","",""
"image-keyboard-response","52","102941","0.0-5.0-1.15","LF","5qj7var04h","1920","1080","0","1","0","5f4f835cea1e870397a4d295","","null","","","","","","","learning/Slide16.JPG","null","","","","","",""
"html-keyboard-response","53","103943","0.0-5.0-2.15","LF","5qj7var04h","1920","1080","0","1","0","5f4f835cea1e870397a4d295","","null","","","learningBlock1","","","","<div style=""font-size:60px;""> </div>","null","LF","learning/Slide16.JPG","This is a dep:","","",""
"html-keyboard-response","54","104946","0.0-5.0-0.16","LF","5qj7var04h","1920","1080","0","1","0","5f4f835cea1e870397a4d295","","null","","","learningBlock1","","","","This is a bim:","null","","","","","",""
"image-keyboard-response","55","105274","0.0-5.0-1.16","LF","5qj7var04h","1920","1080","0","1","0","5f4f835cea1e870397a4d295","","null","","","","","","","learning/Slide17.JPG","null","","","","","",""
"html-keyboard-response","56","106277","0.0-5.0-2.16","LF","5qj7var04h","1920","1080","0","1","0","5f4f835cea1e870397a4d295","","null","","","learningBlock1","","","","<div style=""font-size:60px;""> </div>","null","LF","learning/Slide17.JPG","This is a bim:","","",""
"html-keyboard-response","57","107281","0.0-5.0-0.17","LF","5qj7var04h","1920","1080","0","1","0","5f4f835cea1e870397a4d295","","null","","","learningBlock1","","","","This is a tob:","null","","","","","",""
"image-keyboard-response","58","107612","0.0-5.0-1.17","LF","5qj7var04h","1920","1080","0","1","0","5f4f835cea1e870397a4d295","","null","","","","","","","learning/Slide18.JPG","null","","","","","",""
"html-keyboard-response","59","108614","0.0-5.0-2.17","LF","5qj7var04h","1920","1080","0","1","0","5f4f835cea1e870397a4d295","","null","","","learningBlock1","","","","<div style=""font-size:60px;""> </div>","null","LF","learning/Slide18.JPG","This is a tob:","","",""
"html-keyboard-response","60","109616","0.0-5.0-0.18","LF","5qj7var04h","1920","1080","0","1","0","5f4f835cea1e870397a4d295","","null","","","learningBlock1","","","","This is a wug:","null","","","","","",""
"image-keyboard-response","61","109945","0.0-5.0-1.18","LF","5qj7var04h","1920","1080","0","1","0","5f4f835cea1e870397a4d295","","null","","","","","","","learning/Slide19.JPG","null","","","","","",""
"html-keyboard-response","62","110947","0.0-5.0-2.18","LF","5qj7var04h","1920","1080","0","1","0","5f4f835cea1e870397a4d295","","null","","","learningBlock1","","","","<div style=""font-size:60px;""> </div>","null","LF","learning/Slide19.JPG","This is a wug:","","",""
"html-keyboard-response","63","111950","0.0-5.0-0.19","LF","5qj7var04h","1920","1080","0","1","0","5f4f835cea1e870397a4d295","","null","","","learningBlock1","","","","This is a bim:","null","","","","","",""
"image-keyboard-response","64","112279","0.0-5.0-1.19","LF","5qj7var04h","1920","1080","0","1","0","5f4f835cea1e870397a4d295","","null","","","","","","","learning/Slide20.JPG","null","","","","","",""
"html-keyboard-response","65","113281","0.0-5.0-2.19","LF","5qj7var04h","1920","1080","0","1","0","5f4f835cea1e870397a4d295","","null","","","learningBlock1","","","","<div style=""font-size:60px;""> </div>","null","LF","learning/Slide20.JPG","This is a bim:","","",""
"html-keyboard-response","66","114284","0.0-5.0-0.20","LF","5qj7var04h","1920","1080","0","1","0","5f4f835cea1e870397a4d295","","null","","","learningBlock1","","","","This is a dep:","null","","","","","",""
"image-keyboard-response","67","114612","0.0-5.0-1.20","LF","5qj7var04h","1920","1080","0","1","0","5f4f835cea1e870397a4d295","","null","","","","","","","learning/Slide21.JPG","null","","","","","",""
"html-keyboard-response","68","115614","0.0-5.0-2.20","LF","5qj7var04h","1920","1080","0","1","0","5f4f835cea1e870397a4d295","","null","","","learningBlock1","","","","<div style=""font-size:60px;""> </div>","null","LF","learning/Slide21.JPG","This is a dep:","","",""
"html-keyboard-response","69","116622","0.0-5.0-0.21","LF","5qj7var04h","1920","1080","0","1","0","5f4f835cea1e870397a4d295","","null","","","learningBlock1","","","","This is a bim:","null","","","","","",""
"image-keyboard-response","70","116950","0.0-5.0-1.21","LF","5qj7var04h","1920","1080","0","1","0","5f4f835cea1e870397a4d295","","null","","","","","","","learning/Slide22.JPG","null","","","","","",""
"html-keyboard-response","71","117952","0.0-5.0-2.21","LF","5qj7var04h","1920","1080","0","1","0","5f4f835cea1e870397a4d295","","null","","","learningBlock1","","","","<div style=""font-size:60px;""> </div>","null","LF","learning/Slide22.JPG","This is a bim:","","",""
"html-keyboard-response","72","118954","0.0-5.0-0.22","LF","5qj7var04h","1920","1080","0","1","0","5f4f835cea1e870397a4d295","","null","","","learningBlock1","","","","This is a tob:","null","","","","","",""
"image-keyboard-response","73","119282","0.0-5.0-1.22","LF","5qj7var04h","1920","1080","0","1","0","5f4f835cea1e870397a4d295","","null","","","","","","","learning/Slide23.JPG","null","","","","","",""
"html-keyboard-response","74","120284","0.0-5.0-2.22","LF","5qj7var04h","1920","1080","0","1","0","5f4f835cea1e870397a4d295","","null","","","learningBlock1","","","","<div style=""font-size:60px;""> </div>","null","LF","learning/Slide23.JPG","This is a tob:","","",""
"html-keyboard-response","75","121287","0.0-5.0-0.23","LF","5qj7var04h","1920","1080","0","1","0","5f4f835cea1e870397a4d295","","null","","","learningBlock1","","","","This is a wug:","null","","","","","",""
"image-keyboard-response","76","121614","0.0-5.0-1.23","LF","5qj7var04h","1920","1080","0","1","0","5f4f835cea1e870397a4d295","","null","","","","","","","learning/Slide24.JPG","null","","","","","",""
"html-keyboard-response","77","122616","0.0-5.0-2.23","LF","5qj7var04h","1920","1080","0","1","0","5f4f835cea1e870397a4d295","","null","","","learningBlock1","","","","<div style=""font-size:60px;""> </div>","null","LF","learning/Slide24.JPG","This is a wug:","","",""
"html-keyboard-response","78","123619","0.0-5.0-0.24","LF","5qj7var04h","1920","1080","0","1","0","5f4f835cea1e870397a4d295","","null","","","learningBlock1","","","","This is a dep:","null","","","","","",""
"image-keyboard-response","79","123946","0.0-5.0-1.24","LF","5qj7var04h","1920","1080","0","1","0","5f4f835cea1e870397a4d295","","null","","","","","","","learning/Slide25.JPG","null","","","","","",""
"html-keyboard-response","80","124948","0.0-5.0-2.24","LF","5qj7var04h","1920","1080","0","1","0","5f4f835cea1e870397a4d295","","null","","","learningBlock1","","","","<div style=""font-size:60px;""> </div>","null","LF","learning/Slide25.JPG","This is a dep:","","",""
"html-keyboard-response","81","125951","0.0-5.0-0.25","LF","5qj7var04h","1920","1080","0","1","0","5f4f835cea1e870397a4d295","","null","","","learningBlock1","","","","This is a wug:","null","","","","","",""
"image-keyboard-response","82","126280","0.0-5.0-1.25","LF","5qj7var04h","1920","1080","0","1","0","5f4f835cea1e870397a4d295","","null","","","","","","","learning/Slide26.JPG","null","","","","","",""
"html-keyboard-response","83","127282","0.0-5.0-2.25","LF","5qj7var04h","1920","1080","0","1","0","5f4f835cea1e870397a4d295","","null","","","learningBlock1","","","","<div style=""font-size:60px;""> </div>","null","LF","learning/Slide26.JPG","This is a wug:","","",""
"html-keyboard-response","84","128285","0.0-5.0-0.26","LF","5qj7var04h","1920","1080","0","1","0","5f4f835cea1e870397a4d295","","null","","","learningBlock1","","","","This is a bim:","null","","","","","",""
"image-keyboard-response","85","128614","0.0-5.0-1.26","LF","5qj7var04h","1920","1080","0","1","0","5f4f835cea1e870397a4d295","","null","","","","","","","learning/Slide27.JPG","null","","","","","",""
"html-keyboard-response","86","129616","0.0-5.0-2.26","LF","5qj7var04h","1920","1080","0","1","0","5f4f835cea1e870397a4d295","","null","","","learningBlock1","","","","<div style=""font-size:60px;""> </div>","null","LF","learning/Slide27.JPG","This is a bim:","","",""
"html-keyboard-response","87","130618","0.0-5.0-0.27","LF","5qj7var04h","1920","1080","0","1","0","5f4f835cea1e870397a4d295","","null","","","learningBlock1","","","","This is a dep:","null","","","","","",""
"image-keyboard-response","88","130947","0.0-5.0-1.27","LF","5qj7var04h","1920","1080","0","1","0","5f4f835cea1e870397a4d295","","null","","","","","","","learning/Slide28.JPG","null","","","","","",""
"html-keyboard-response","89","131949","0.0-5.0-2.27","LF","5qj7var04h","1920","1080","0","1","0","5f4f835cea1e870397a4d295","","null","","","learningBlock1","","","","<div style=""font-size:60px;""> </div>","null","LF","learning/Slide28.JPG","This is a dep:","","",""
"html-keyboard-response","90","132952","0.0-5.0-0.28","LF","5qj7var04h","1920","1080","0","1","0","5f4f835cea1e870397a4d295","","null","","","learningBlock1","","","","This is a tob:","null","","","","","",""
"image-keyboard-response","91","133281","0.0-5.0-1.28","LF","5qj7var04h","1920","1080","0","1","0","5f4f835cea1e870397a4d295","","null","","","","","","","learning/Slide29.JPG","null","","","","","",""
"html-keyboard-response","92","134283","0.0-5.0-2.28","LF","5qj7var04h","1920","1080","0","1","0","5f4f835cea1e870397a4d295","","null","","","learningBlock1","","","","<div style=""font-size:60px;""> </div>","null","LF","learning/Slide29.JPG","This is a tob:","","",""
"html-keyboard-response","93","135286","0.0-5.0-0.29","LF","5qj7var04h","1920","1080","0","1","0","5f4f835cea1e870397a4d295","","null","","","learningBlock1","","","","This is a dep:","null","","","","","",""
"image-keyboard-response","94","135614","0.0-5.0-1.29","LF","5qj7var04h","1920","1080","0","1","0","5f4f835cea1e870397a4d295","","null","","","","","","","learning/Slide30.JPG","null","","","","","",""
"html-keyboard-response","95","136616","0.0-5.0-2.29","LF","5qj7var04h","1920","1080","0","1","0","5f4f835cea1e870397a4d295","","null","","","learningBlock1","","","","<div style=""font-size:60px;""> </div>","null","LF","learning/Slide30.JPG","This is a dep:","","",""
"html-keyboard-response","96","137618","0.0-5.0-0.30","LF","5qj7var04h","1920","1080","0","1","0","5f4f835cea1e870397a4d295","","null","","","learningBlock1","","","","This is a wug:","null","","","","","",""
"image-keyboard-response","97","137947","0.0-5.0-1.30","LF","5qj7var04h","1920","1080","0","1","0","5f4f835cea1e870397a4d295","","null","","","","","","","learning/Slide31.JPG","null","","","","","",""
"html-keyboard-response","98","138949","0.0-5.0-2.30","LF","5qj7var04h","1920","1080","0","1","0","5f4f835cea1e870397a4d295","","null","","","learningBlock1","","","","<div style=""font-size:60px;""> </div>","null","LF","learning/Slide31.JPG","This is a wug:","","",""
"html-keyboard-response","99","139952","0.0-5.0-0.31","LF","5qj7var04h","1920","1080","0","1","0","5f4f835cea1e870397a4d295","","null","","","learningBlock1","","","","This is a tob:","null","","","","","",""
"image-keyboard-response","100","140280","0.0-5.0-1.31","LF","5qj7var04h","1920","1080","0","1","0","5f4f835cea1e870397a4d295","","null","","","","","","","learning/Slide32.JPG","null","","","","","",""
"html-keyboard-response","101","141282","0.0-5.0-2.31","LF","5qj7var04h","1920","1080","0","1","0","5f4f835cea1e870397a4d295","","null","","","learningBlock1","","","","<div style=""font-size:60px;""> </div>","null","LF","learning/Slide32.JPG","This is a tob:","","",""
"html-keyboard-response","102","142285","0.0-5.0-0.32","LF","5qj7var04h","1920","1080","0","1","0","5f4f835cea1e870397a4d295","","null","","","learningBlock1","","","","This is a bim:","null","","","","","",""
"image-keyboard-response","103","142613","0.0-5.0-1.32","LF","5qj7var04h","1920","1080","0","1","0","5f4f835cea1e870397a4d295","","null","","","","","","","learning/Slide33.JPG","null","","","","","",""
"html-keyboard-response","104","143615","0.0-5.0-2.32","LF","5qj7var04h","1920","1080","0","1","0","5f4f835cea1e870397a4d295","","null","","","learningBlock1","","","","<div style=""font-size:60px;""> </div>","null","LF","learning/Slide33.JPG","This is a bim:","","",""
"html-keyboard-response","105","144618","0.0-5.0-0.33","LF","5qj7var04h","1920","1080","0","1","0","5f4f835cea1e870397a4d295","","null","","","learningBlock1","","","","This is a tob:","null","","","","","",""
"image-keyboard-response","106","144946","0.0-5.0-1.33","LF","5qj7var04h","1920","1080","0","1","0","5f4f835cea1e870397a4d295","","null","","","","","","","learning/Slide34.JPG","null","","","","","",""
"html-keyboard-response","107","145948","0.0-5.0-2.33","LF","5qj7var04h","1920","1080","0","1","0","5f4f835cea1e870397a4d295","","null","","","learningBlock1","","","","<div style=""font-size:60px;""> </div>","null","LF","learning/Slide34.JPG","This is a tob:","","",""
"html-keyboard-response","108","146952","0.0-5.0-0.34","LF","5qj7var04h","1920","1080","0","1","0","5f4f835cea1e870397a4d295","","null","","","learningBlock1","","","","This is a bim:","null","","","","","",""
"image-keyboard-response","109","147282","0.0-5.0-1.34","LF","5qj7var04h","1920","1080","0","1","0","5f4f835cea1e870397a4d295","","null","","","","","","","learning/Slide35.JPG","null","","","","","",""
"html-keyboard-response","110","148285","0.0-5.0-2.34","LF","5qj7var04h","1920","1080","0","1","0","5f4f835cea1e870397a4d295","","null","","","learningBlock1","","","","<div style=""font-size:60px;""> </div>","null","LF","learning/Slide35.JPG","This is a bim:","","",""
"html-keyboard-response","111","149287","0.0-5.0-0.35","LF","5qj7var04h","1920","1080","0","1","0","5f4f835cea1e870397a4d295","","null","","","learningBlock1","","","","This is a dep:","null","","","","","",""
"image-keyboard-response","112","149615","0.0-5.0-1.35","LF","5qj7var04h","1920","1080","0","1","0","5f4f835cea1e870397a4d295","","null","","","","","","","learning/Slide36.JPG","null","","","","","",""
"html-keyboard-response","113","150617","0.0-5.0-2.35","LF","5qj7var04h","1920","1080","0","1","0","5f4f835cea1e870397a4d295","","null","","","learningBlock1","","","","<div style=""font-size:60px;""> </div>","null","LF","learning/Slide36.JPG","This is a dep:","","",""
"html-keyboard-response","114","151619","0.0-5.0-0.36","LF","5qj7var04h","1920","1080","0","1","0","5f4f835cea1e870397a4d295","","null","","","learningBlock1","","","","This is a tob:","null","","","","","",""
"image-keyboard-response","115","151948","0.0-5.0-1.36","LF","5qj7var04h","1920","1080","0","1","0","5f4f835cea1e870397a4d295","","null","","","","","","","learning/Slide37.JPG","null","","","","","",""
"html-keyboard-response","116","152951","0.0-5.0-2.36","LF","5qj7var04h","1920","1080","0","1","0","5f4f835cea1e870397a4d295","","null","","","learningBlock1","","","","<div style=""font-size:60px;""> </div>","null","LF","learning/Slide37.JPG","This is a tob:","","",""
"html-keyboard-response","117","153953","0.0-5.0-0.37","LF","5qj7var04h","1920","1080","0","1","0","5f4f835cea1e870397a4d295","","null","","","learningBlock1","","","","This is a wug:","null","","","","","",""
"image-keyboard-response","118","154281","0.0-5.0-1.37","LF","5qj7var04h","1920","1080","0","1","0","5f4f835cea1e870397a4d295","","null","","","","","","","learning/Slide38.JPG","null","","","","","",""
"html-keyboard-response","119","155284","0.0-5.0-2.37","LF","5qj7var04h","1920","1080","0","1","0","5f4f835cea1e870397a4d295","","null","","","learningBlock1","","","","<div style=""font-size:60px;""> </div>","null","LF","learning/Slide38.JPG","This is a wug:","","",""
"html-keyboard-response","120","156286","0.0-5.0-0.38","LF","5qj7var04h","1920","1080","0","1","0","5f4f835cea1e870397a4d295","","null","","","learningBlock1","","","","This is a bim:","null","","","","","",""
"image-keyboard-response","121","156615","0.0-5.0-1.38","LF","5qj7var04h","1920","1080","0","1","0","5f4f835cea1e870397a4d295","","null","","","","","","","learning/Slide39.JPG","null","","","","","",""
"html-keyboard-response","122","157617","0.0-5.0-2.38","LF","5qj7var04h","1920","1080","0","1","0","5f4f835cea1e870397a4d295","","null","","","learningBlock1","","","","<div style=""font-size:60px;""> </div>","null","LF","learning/Slide39.JPG","This is a bim:","","",""
"html-keyboard-response","123","158619","0.0-5.0-0.39","LF","5qj7var04h","1920","1080","0","1","0","5f4f835cea1e870397a4d295","","null","","","learningBlock1","","","","This is a tob:","null","","","","","",""
"image-keyboard-response","124","158947","0.0-5.0-1.39","LF","5qj7var04h","1920","1080","0","1","0","5f4f835cea1e870397a4d295","","null","","","","","","","learning/Slide40.JPG","null","","","","","",""
"html-keyboard-response","125","159950","0.0-5.0-2.39","LF","5qj7var04h","1920","1080","0","1","0","5f4f835cea1e870397a4d295","","null","","","learningBlock1","","","","<div style=""font-size:60px;""> </div>","null","LF","learning/Slide40.JPG","This is a tob:","","",""
"html-keyboard-response","126","160953","0.0-5.0-0.40","LF","5qj7var04h","1920","1080","0","1","0","5f4f835cea1e870397a4d295","","null","","","learningBlock1","","","","This is a bim:","null","","","","","",""
"image-keyboard-response","127","161281","0.0-5.0-1.40","LF","5qj7var04h","1920","1080","0","1","0","5f4f835cea1e870397a4d295","","null","","","","","","","learning/Slide41.JPG","null","","","","","",""
"html-keyboard-response","128","162284","0.0-5.0-2.40","LF","5qj7var04h","1920","1080","0","1","0","5f4f835cea1e870397a4d295","","null","","","learningBlock1","","","","<div style=""font-size:60px;""> </div>","null","LF","learning/Slide41.JPG","This is a bim:","","",""
"html-keyboard-response","129","163286","0.0-5.0-0.41","LF","5qj7var04h","1920","1080","0","1","0","5f4f835cea1e870397a4d295","","null","","","learningBlock1","","","","This is a dep:","null","","","","","",""
"image-keyboard-response","130","163615","0.0-5.0-1.41","LF","5qj7var04h","1920","1080","0","1","0","5f4f835cea1e870397a4d295","","null","","","","","","","learning/Slide42.JPG","null","","","","","",""
"html-keyboard-response","131","164617","0.0-5.0-2.41","LF","5qj7var04h","1920","1080","0","1","0","5f4f835cea1e870397a4d295","","null","","","learningBlock1","","","","<div style=""font-size:60px;""> </div>","null","LF","learning/Slide42.JPG","This is a dep:","","",""
"html-keyboard-response","132","165619","0.0-5.0-0.42","LF","5qj7var04h","1920","1080","0","1","0","5f4f835cea1e870397a4d295","","null","","","learningBlock1","","","","This is a wug:","null","","","","","",""
"image-keyboard-response","133","165949","0.0-5.0-1.42","LF","5qj7var04h","1920","1080","0","1","0","5f4f835cea1e870397a4d295","","null","","","","","","","learning/Slide43.JPG","null","","","","","",""
"html-keyboard-response","134","166952","0.0-5.0-2.42","LF","5qj7var04h","1920","1080","0","1","0","5f4f835cea1e870397a4d295","","null","","","learningBlock1","","","","<div style=""font-size:60px;""> </div>","null","LF","learning/Slide43.JPG","This is a wug:","","",""
"html-keyboard-response","135","167954","0.0-5.0-0.43","LF","5qj7var04h","1920","1080","0","1","0","5f4f835cea1e870397a4d295","","null","","","learningBlock1","","","","This is a bim:","null","","","","","",""
"image-keyboard-response","136","168283","0.0-5.0-1.43","LF","5qj7var04h","1920","1080","0","1","0","5f4f835cea1e870397a4d295","","null","","","","","","","learning/Slide44.JPG","null","","","","","",""
"html-keyboard-response","137","169286","0.0-5.0-2.43","LF","5qj7var04h","1920","1080","0","1","0","5f4f835cea1e870397a4d295","","null","","","learningBlock1","","","","<div style=""font-size:60px;""> </div>","null","LF","learning/Slide44.JPG","This is a bim:","","",""
"html-keyboard-response","138","170289","0.0-5.0-0.44","LF","5qj7var04h","1920","1080","0","1","0","5f4f835cea1e870397a4d295","","null","","","learningBlock1","","","","This is a wug:","null","","","","","",""
"image-keyboard-response","139","170617","0.0-5.0-1.44","LF","5qj7var04h","1920","1080","0","1","0","5f4f835cea1e870397a4d295","","null","","","","","","","learning/Slide45.JPG","null","","","","","",""
"html-keyboard-response","140","171620","0.0-5.0-2.44","LF","5qj7var04h","1920","1080","0","1","0","5f4f835cea1e870397a4d295","","null","","","learningBlock1","","","","<div style=""font-size:60px;""> </div>","null","LF","learning/Slide45.JPG","This is a wug:","","",""
"html-keyboard-response","141","172623","0.0-5.0-0.45","LF","5qj7var04h","1920","1080","0","1","0","5f4f835cea1e870397a4d295","","null","","","learningBlock1","","","","This is a dep:","null","","","","","",""
"image-keyboard-response","142","172951","0.0-5.0-1.45","LF","5qj7var04h","1920","1080","0","1","0","5f4f835cea1e870397a4d295","","null","","","","","","","learning/Slide46.JPG","null","","","","","",""
"html-keyboard-response","143","173954","0.0-5.0-2.45","LF","5qj7var04h","1920","1080","0","1","0","5f4f835cea1e870397a4d295","","null","","","learningBlock1","","","","<div style=""font-size:60px;""> </div>","null","LF","learning/Slide46.JPG","This is a dep:","","",""
"html-keyboard-response","144","174956","0.0-5.0-0.46","LF","5qj7var04h","1920","1080","0","1","0","5f4f835cea1e870397a4d295","","null","","","learningBlock1","","","","This is a tob:","null","","","","","",""
"image-keyboard-response","145","175284","0.0-5.0-1.46","LF","5qj7var04h","1920","1080","0","1","0","5f4f835cea1e870397a4d295","","null","","","","","","","learning/Slide47.JPG","null","","","","","",""
"html-keyboard-response","146","176287","0.0-5.0-2.46","LF","5qj7var04h","1920","1080","0","1","0","5f4f835cea1e870397a4d295","","null","","","learningBlock1","","","","<div style=""font-size:60px;""> </div>","null","LF","learning/Slide47.JPG","This is a tob:","","",""
"html-keyboard-response","147","177289","0.0-5.0-0.47","LF","5qj7var04h","1920","1080","0","1","0","5f4f835cea1e870397a4d295","","null","","","learningBlock1","","","","This is a bim:","null","","","","","",""
"image-keyboard-response","148","177617","0.0-5.0-1.47","LF","5qj7var04h","1920","1080","0","1","0","5f4f835cea1e870397a4d295","","null","","","","","","","learning/Slide48.JPG","null","","","","","",""
"html-keyboard-response","149","178620","0.0-5.0-2.47","LF","5qj7var04h","1920","1080","0","1","0","5f4f835cea1e870397a4d295","","null","","","learningBlock1","","","","<div style=""font-size:60px;""> </div>","null","LF","learning/Slide48.JPG","This is a bim:","","",""
"html-keyboard-response","150","179623","0.0-5.0-0.48","LF","5qj7var04h","1920","1080","0","1","0","5f4f835cea1e870397a4d295","","null","","","learningBlock1","","","","This is a dep:","null","","","","","",""
"image-keyboard-response","151","179951","0.0-5.0-1.48","LF","5qj7var04h","1920","1080","0","1","0","5f4f835cea1e870397a4d295","","null","","","","","","","learning/Slide49.JPG","null","","","","","",""
"html-keyboard-response","152","180953","0.0-5.0-2.48","LF","5qj7var04h","1920","1080","0","1","0","5f4f835cea1e870397a4d295","","null","","","learningBlock1","","","","<div style=""font-size:60px;""> </div>","null","LF","learning/Slide49.JPG","This is a dep:","","",""
"html-keyboard-response","153","181956","0.0-5.0-0.49","LF","5qj7var04h","1920","1080","0","1","0","5f4f835cea1e870397a4d295","","null","","","learningBlock1","","","","This is a tob:","null","","","","","",""
"image-keyboard-response","154","182285","0.0-5.0-1.49","LF","5qj7var04h","1920","1080","0","1","0","5f4f835cea1e870397a4d295","","null","","","","","","","learning/Slide50.JPG","null","","","","","",""
"html-keyboard-response","155","183287","0.0-5.0-2.49","LF","5qj7var04h","1920","1080","0","1","0","5f4f835cea1e870397a4d295","","null","","","learningBlock1","","","","<div style=""font-size:60px;""> </div>","null","LF","learning/Slide50.JPG","This is a tob:","","",""
"html-keyboard-response","156","184289","0.0-5.0-0.50","LF","5qj7var04h","1920","1080","0","1","0","5f4f835cea1e870397a4d295","","null","","","learningBlock1","","","","This is a bim:","null","","","","","",""
"image-keyboard-response","157","184617","0.0-5.0-1.50","LF","5qj7var04h","1920","1080","0","1","0","5f4f835cea1e870397a4d295","","null","","","","","","","learning/Slide51.JPG","null","","","","","",""
"html-keyboard-response","158","185619","0.0-5.0-2.50","LF","5qj7var04h","1920","1080","0","1","0","5f4f835cea1e870397a4d295","","null","","","learningBlock1","","","","<div style=""font-size:60px;""> </div>","null","LF","learning/Slide51.JPG","This is a bim:","","",""
"html-keyboard-response","159","186620","0.0-5.0-0.51","LF","5qj7var04h","1920","1080","0","1","0","5f4f835cea1e870397a4d295","","null","","","learningBlock1","","","","This is a wug:","null","","","","","",""
"image-keyboard-response","160","186948","0.0-5.0-1.51","LF","5qj7var04h","1920","1080","0","1","0","5f4f835cea1e870397a4d295","","null","","","","","","","learning/Slide52.JPG","null","","","","","",""
"html-keyboard-response","161","187949","0.0-5.0-2.51","LF","5qj7var04h","1920","1080","0","1","0","5f4f835cea1e870397a4d295","","null","","","learningBlock1","","","","<div style=""font-size:60px;""> </div>","null","LF","learning/Slide52.JPG","This is a wug:","","",""
"html-keyboard-response","162","188951","0.0-5.0-0.52","LF","5qj7var04h","1920","1080","0","1","0","5f4f835cea1e870397a4d295","","null","","","learningBlock1","","","","This is a tob:","null","","","","","",""
"image-keyboard-response","163","189278","0.0-5.0-1.52","LF","5qj7var04h","1920","1080","0","1","0","5f4f835cea1e870397a4d295","","null","","","","","","","learning/Slide53.JPG","null","","","","","",""
"html-keyboard-response","164","190279","0.0-5.0-2.52","LF","5qj7var04h","1920","1080","0","1","0","5f4f835cea1e870397a4d295","","null","","","learningBlock1","","","","<div style=""font-size:60px;""> </div>","null","LF","learning/Slide53.JPG","This is a tob:","","",""
"html-keyboard-response","165","191282","0.0-5.0-0.53","LF","5qj7var04h","1920","1080","0","1","0","5f4f835cea1e870397a4d295","","null","","","learningBlock1","","","","This is a dep:","null","","","","","",""
"image-keyboard-response","166","191610","0.0-5.0-1.53","LF","5qj7var04h","1920","1080","0","1","0","5f4f835cea1e870397a4d295","","null","","","","","","","learning/Slide54.JPG","null","","","","","",""
"html-keyboard-response","167","192612","0.0-5.0-2.53","LF","5qj7var04h","1920","1080","0","1","0","5f4f835cea1e870397a4d295","","null","","","learningBlock1","","","","<div style=""font-size:60px;""> </div>","null","LF","learning/Slide54.JPG","This is a dep:","","",""
"html-keyboard-response","168","193614","0.0-5.0-0.54","LF","5qj7var04h","1920","1080","0","1","0","5f4f835cea1e870397a4d295","","null","","","learningBlock1","","","","This is a bim:","null","","","","","",""
"image-keyboard-response","169","193943","0.0-5.0-1.54","LF","5qj7var04h","1920","1080","0","1","0","5f4f835cea1e870397a4d295","","null","","","","","","","learning/Slide55.JPG","null","","","","","",""
"html-keyboard-response","170","194945","0.0-5.0-2.54","LF","5qj7var04h","1920","1080","0","1","0","5f4f835cea1e870397a4d295","","null","","","learningBlock1","","","","<div style=""font-size:60px;""> </div>","null","LF","learning/Slide55.JPG","This is a bim:","","",""
"html-keyboard-response","171","195948","0.0-5.0-0.55","LF","5qj7var04h","1920","1080","0","1","0","5f4f835cea1e870397a4d295","","null","","","learningBlock1","","","","This is a tob:","null","","","","","",""
"image-keyboard-response","172","196277","0.0-5.0-1.55","LF","5qj7var04h","1920","1080","0","1","0","5f4f835cea1e870397a4d295","","null","","","","","","","learning/Slide56.JPG","null","","","","","",""
"html-keyboard-response","173","197280","0.0-5.0-2.55","LF","5qj7var04h","1920","1080","0","1","0","5f4f835cea1e870397a4d295","","null","","","learningBlock1","","","","<div style=""font-size:60px;""> </div>","null","LF","learning/Slide56.JPG","This is a tob:","","",""
"html-keyboard-response","174","198282","0.0-5.0-0.56","LF","5qj7var04h","1920","1080","0","1","0","5f4f835cea1e870397a4d295","","null","","","learningBlock1","","","","This is a dep:","null","","","","","",""
"image-keyboard-response","175","198611","0.0-5.0-1.56","LF","5qj7var04h","1920","1080","0","1","0","5f4f835cea1e870397a4d295","","null","","","","","","","learning/Slide57.JPG","null","","","","","",""
"html-keyboard-response","176","199612","0.0-5.0-2.56","LF","5qj7var04h","1920","1080","0","1","0","5f4f835cea1e870397a4d295","","null","","","learningBlock1","","","","<div style=""font-size:60px;""> </div>","null","LF","learning/Slide57.JPG","This is a dep:","","",""
"html-keyboard-response","177","200615","0.0-5.0-0.57","LF","5qj7var04h","1920","1080","0","1","0","5f4f835cea1e870397a4d295","","null","","","learningBlock1","","","","This is a wug:","null","","","","","",""
"image-keyboard-response","178","200943","0.0-5.0-1.57","LF","5qj7var04h","1920","1080","0","1","0","5f4f835cea1e870397a4d295","","null","","","","","","","learning/Slide58.JPG","null","","","","","",""
"html-keyboard-response","179","201952","0.0-5.0-2.57","LF","5qj7var04h","1920","1080","0","1","0","5f4f835cea1e870397a4d295","","null","","","learningBlock1","","","","<div style=""font-size:60px;""> </div>","null","LF","learning/Slide58.JPG","This is a wug:","","",""
"html-keyboard-response","180","202955","0.0-5.0-0.58","LF","5qj7var04h","1920","1080","0","1","0","5f4f835cea1e870397a4d295","","null","","","learningBlock1","","","","This is a dep:","null","","","","","",""
"image-keyboard-response","181","203284","0.0-5.0-1.58","LF","5qj7var04h","1920","1080","0","1","0","5f4f835cea1e870397a4d295","","null","","","","","","","learning/Slide59.JPG","null","","","","","",""
"html-keyboard-response","182","204286","0.0-5.0-2.58","LF","5qj7var04h","1920","1080","0","1","0","5f4f835cea1e870397a4d295","","null","","","learningBlock1","","","","<div style=""font-size:60px;""> </div>","null","LF","learning/Slide59.JPG","This is a dep:","","",""
"html-keyboard-response","183","205289","0.0-5.0-0.59","LF","5qj7var04h","1920","1080","0","1","0","5f4f835cea1e870397a4d295","","null","","","learningBlock1","","","","This is a wug:","null","","","","","",""
"image-keyboard-response","184","205618","0.0-5.0-1.59","LF","5qj7var04h","1920","1080","0","1","0","5f4f835cea1e870397a4d295","","null","","","","","","","learning/Slide60.JPG","null","","","","","",""
"html-keyboard-response","185","206621","0.0-5.0-2.59","LF","5qj7var04h","1920","1080","0","1","0","5f4f835cea1e870397a4d295","","null","","","learningBlock1","","","","<div style=""font-size:60px;""> </div>","null","LF","learning/Slide60.JPG","This is a wug:","","",""
"html-keyboard-response","186","207623","0.0-5.0-0.60","LF","5qj7var04h","1920","1080","0","1","0","5f4f835cea1e870397a4d295","","null","","","learningBlock1","","","","This is a bim:","null","","","","","",""
"image-keyboard-response","187","207952","0.0-5.0-1.60","LF","5qj7var04h","1920","1080","0","1","0","5f4f835cea1e870397a4d295","","null","","","","","","","learning/Slide61.JPG","null","","","","","",""
"html-keyboard-response","188","208955","0.0-5.0-2.60","LF","5qj7var04h","1920","1080","0","1","0","5f4f835cea1e870397a4d295","","null","","","learningBlock1","","","","<div style=""font-size:60px;""> </div>","null","LF","learning/Slide61.JPG","This is a bim:","","",""
"html-keyboard-response","189","209957","0.0-5.0-0.61","LF","5qj7var04h","1920","1080","0","1","0","5f4f835cea1e870397a4d295","","null","","","learningBlock1","","","","This is a dep:","null","","","","","",""
"image-keyboard-response","190","210285","0.0-5.0-1.61","LF","5qj7var04h","1920","1080","0","1","0","5f4f835cea1e870397a4d295","","null","","","","","","","learning/Slide62.JPG","null","","","","","",""
"html-keyboard-response","191","211288","0.0-5.0-2.61","LF","5qj7var04h","1920","1080","0","1","0","5f4f835cea1e870397a4d295","","null","","","learningBlock1","","","","<div style=""font-size:60px;""> </div>","null","LF","learning/Slide62.JPG","This is a dep:","","",""
"html-keyboard-response","192","212290","0.0-5.0-0.62","LF","5qj7var04h","1920","1080","0","1","0","5f4f835cea1e870397a4d295","","null","","","learningBlock1","","","","This is a bim:","null","","","","","",""
"image-keyboard-response","193","212617","0.0-5.0-1.62","LF","5qj7var04h","1920","1080","0","1","0","5f4f835cea1e870397a4d295","","null","","","","","","","learning/Slide63.JPG","null","","","","","",""
"html-keyboard-response","194","213621","0.0-5.0-2.62","LF","5qj7var04h","1920","1080","0","1","0","5f4f835cea1e870397a4d295","","null","","","learningBlock1","","","","<div style=""font-size:60px;""> </div>","null","LF","learning/Slide63.JPG","This is a bim:","","",""
"html-keyboard-response","195","214623","0.0-5.0-0.63","LF","5qj7var04h","1920","1080","0","1","0","5f4f835cea1e870397a4d295","","null","","","learningBlock1","","","","This is a tob:","null","","","","","",""
"image-keyboard-response","196","214951","0.0-5.0-1.63","LF","5qj7var04h","1920","1080","0","1","0","5f4f835cea1e870397a4d295","","null","","","","","","","learning/Slide64.JPG","null","","","","","",""
"html-keyboard-response","197","215953","0.0-5.0-2.63","LF","5qj7var04h","1920","1080","0","1","0","5f4f835cea1e870397a4d295","","null","","","learningBlock1","","","","<div style=""font-size:60px;""> </div>","null","LF","learning/Slide64.JPG","This is a tob:","","",""
"html-keyboard-response","198","216955","0.0-5.0-0.64","LF","5qj7var04h","1920","1080","0","1","0","5f4f835cea1e870397a4d295","","null","","","learningBlock1","","","","This is a wug:","null","","","","","",""
"image-keyboard-response","199","217284","0.0-5.0-1.64","LF","5qj7var04h","1920","1080","0","1","0","5f4f835cea1e870397a4d295","","null","","","","","","","learning/Slide65.JPG","null","","","","","",""
"html-keyboard-response","200","218286","0.0-5.0-2.64","LF","5qj7var04h","1920","1080","0","1","0","5f4f835cea1e870397a4d295","","null","","","learningBlock1","","","","<div style=""font-size:60px;""> </div>","null","LF","learning/Slide65.JPG","This is a wug:","","",""
"html-keyboard-response","201","219289","0.0-5.0-0.65","LF","5qj7var04h","1920","1080","0","1","0","5f4f835cea1e870397a4d295","","null","","","learningBlock1","","","","This is a dep:","null","","","","","",""
"image-keyboard-response","202","219617","0.0-5.0-1.65","LF","5qj7var04h","1920","1080","0","1","0","5f4f835cea1e870397a4d295","","null","","","","","","","learning/Slide66.JPG","null","","","","","",""
"html-keyboard-response","203","220619","0.0-5.0-2.65","LF","5qj7var04h","1920","1080","0","1","0","5f4f835cea1e870397a4d295","","null","","","learningBlock1","","","","<div style=""font-size:60px;""> </div>","null","LF","learning/Slide66.JPG","This is a dep:","","",""
"html-keyboard-response","204","221622","0.0-5.0-0.66","LF","5qj7var04h","1920","1080","0","1","0","5f4f835cea1e870397a4d295","","null","","","learningBlock1","","","","This is a tob:","null","","","","","",""
"image-keyboard-response","205","221951","0.0-5.0-1.66","LF","5qj7var04h","1920","1080","0","1","0","5f4f835cea1e870397a4d295","","null","","","","","","","learning/Slide67.JPG","null","","","","","",""
"html-keyboard-response","206","222953","0.0-5.0-2.66","LF","5qj7var04h","1920","1080","0","1","0","5f4f835cea1e870397a4d295","","null","","","learningBlock1","","","","<div style=""font-size:60px;""> </div>","null","LF","learning/Slide67.JPG","This is a tob:","","",""
"html-keyboard-response","207","223956","0.0-5.0-0.67","LF","5qj7var04h","1920","1080","0","1","0","5f4f835cea1e870397a4d295","","null","","","learningBlock1","","","","This is a wug:","null","","","","","",""
"image-keyboard-response","208","224286","0.0-5.0-1.67","LF","5qj7var04h","1920","1080","0","1","0","5f4f835cea1e870397a4d295","","null","","","","","","","learning/Slide68.JPG","null","","","","","",""
"html-keyboard-response","209","225288","0.0-5.0-2.67","LF","5qj7var04h","1920","1080","0","1","0","5f4f835cea1e870397a4d295","","null","","","learningBlock1","","","","<div style=""font-size:60px;""> </div>","null","LF","learning/Slide68.JPG","This is a wug:","","",""
"html-keyboard-response","210","226290","0.0-5.0-0.68","LF","5qj7var04h","1920","1080","0","1","0","5f4f835cea1e870397a4d295","","null","","","learningBlock1","","","","This is a tob:","null","","","","","",""
"image-keyboard-response","211","226619","0.0-5.0-1.68","LF","5qj7var04h","1920","1080","0","1","0","5f4f835cea1e870397a4d295","","null","","","","","","","learning/Slide69.JPG","null","","","","","",""
"html-keyboard-response","212","227621","0.0-5.0-2.68","LF","5qj7var04h","1920","1080","0","1","0","5f4f835cea1e870397a4d295","","null","","","learningBlock1","","","","<div style=""font-size:60px;""> </div>","null","LF","learning/Slide69.JPG","This is a tob:","","",""
"html-keyboard-response","213","228624","0.0-5.0-0.69","LF","5qj7var04h","1920","1080","0","1","0","5f4f835cea1e870397a4d295","","null","","","learningBlock1","","","","This is a dep:","null","","","","","",""
"image-keyboard-response","214","228952","0.0-5.0-1.69","LF","5qj7var04h","1920","1080","0","1","0","5f4f835cea1e870397a4d295","","null","","","","","","","learning/Slide70.JPG","null","","","","","",""
"html-keyboard-response","215","229954","0.0-5.0-2.69","LF","5qj7var04h","1920","1080","0","1","0","5f4f835cea1e870397a4d295","","null","","","learningBlock1","","","","<div style=""font-size:60px;""> </div>","null","LF","learning/Slide70.JPG","This is a dep:","","",""
"html-keyboard-response","216","230957","0.0-5.0-0.70","LF","5qj7var04h","1920","1080","0","1","0","5f4f835cea1e870397a4d295","","null","","","learningBlock1","","","","This is a wug:","null","","","","","",""
"image-keyboard-response","217","231285","0.0-5.0-1.70","LF","5qj7var04h","1920","1080","0","1","0","5f4f835cea1e870397a4d295","","null","","","","","","","learning/Slide71.JPG","null","","","","","",""
"html-keyboard-response","218","232287","0.0-5.0-2.70","LF","5qj7var04h","1920","1080","0","1","0","5f4f835cea1e870397a4d295","","null","","","learningBlock1","","","","<div style=""font-size:60px;""> </div>","null","LF","learning/Slide71.JPG","This is a wug:","","",""
"html-keyboard-response","219","233291","0.0-5.0-0.71","LF","5qj7var04h","1920","1080","0","1","0","5f4f835cea1e870397a4d295","","null","","","learningBlock1","","","","This is a bim:","null","","","","","",""
"image-keyboard-response","220","233621","0.0-5.0-1.71","LF","5qj7var04h","1920","1080","0","1","0","5f4f835cea1e870397a4d295","","null","","","","","","","learning/Slide72.JPG","null","","","","","",""
"html-keyboard-response","221","234623","0.0-5.0-2.71","LF","5qj7var04h","1920","1080","0","1","0","5f4f835cea1e870397a4d295","","null","","","learningBlock1","","","","<div style=""font-size:60px;""> </div>","null","LF","learning/Slide72.JPG","This is a bim:","","",""
"html-keyboard-response","222","235626","0.0-5.0-0.72","LF","5qj7var04h","1920","1080","0","1","0","5f4f835cea1e870397a4d295","","null","","","learningBlock1","","","","This is a wug:","null","","","","","",""
"image-keyboard-response","223","235955","0.0-5.0-1.72","LF","5qj7var04h","1920","1080","0","1","0","5f4f835cea1e870397a4d295","","null","","","","","","","learning/Slide73.JPG","null","","","","","",""
"html-keyboard-response","224","236971","0.0-5.0-2.72","LF","5qj7var04h","1920","1080","0","1","0","5f4f835cea1e870397a4d295","","null","","","learningBlock1","","","","<div style=""font-size:60px;""> </div>","null","LF","learning/Slide73.JPG","This is a wug:","","",""
"html-keyboard-response","225","237973","0.0-5.0-0.73","LF","5qj7var04h","1920","1080","0","1","0","5f4f835cea1e870397a4d295","","null","","","learningBlock1","","","","This is a dep:","null","","","","","",""
"image-keyboard-response","226","238301","0.0-5.0-1.73","LF","5qj7var04h","1920","1080","0","1","0","5f4f835cea1e870397a4d295","","null","","","","","","","learning/Slide74.JPG","null","","","","","",""
"html-keyboard-response","227","239303","0.0-5.0-2.73","LF","5qj7var04h","1920","1080","0","1","0","5f4f835cea1e870397a4d295","","null","","","learningBlock1","","","","<div style=""font-size:60px;""> </div>","null","LF","learning/Slide74.JPG","This is a dep:","","",""
"html-keyboard-response","228","240306","0.0-5.0-0.74","LF","5qj7var04h","1920","1080","0","1","0","5f4f835cea1e870397a4d295","","null","","","learningBlock1","","","","This is a tob:","null","","","","","",""
"image-keyboard-response","229","240633","0.0-5.0-1.74","LF","5qj7var04h","1920","1080","0","1","0","5f4f835cea1e870397a4d295","","null","","","","","","","learning/Slide75.JPG","null","","","","","",""
"html-keyboard-response","230","241636","0.0-5.0-2.74","LF","5qj7var04h","1920","1080","0","1","0","5f4f835cea1e870397a4d295","","null","","","learningBlock1","","","","<div style=""font-size:60px;""> </div>","null","LF","learning/Slide75.JPG","This is a tob:","","",""
"html-keyboard-response","231","242638","0.0-5.0-0.75","LF","5qj7var04h","1920","1080","0","1","0","5f4f835cea1e870397a4d295","","null","","","learningBlock1","","","","This is a bim:","null","","","","","",""
"image-keyboard-response","232","242968","0.0-5.0-1.75","LF","5qj7var04h","1920","1080","0","1","0","5f4f835cea1e870397a4d295","","null","","","","","","","learning/Slide76.JPG","null","","","","","",""
"html-keyboard-response","233","243970","0.0-5.0-2.75","LF","5qj7var04h","1920","1080","0","1","0","5f4f835cea1e870397a4d295","","null","","","learningBlock1","","","","<div style=""font-size:60px;""> </div>","null","LF","learning/Slide76.JPG","This is a bim:","","",""
"html-keyboard-response","234","244972","0.0-5.0-0.76","LF","5qj7var04h","1920","1080","0","1","0","5f4f835cea1e870397a4d295","","null","","","learningBlock1","","","","This is a tob:","null","","","","","",""
"image-keyboard-response","235","245301","0.0-5.0-1.76","LF","5qj7var04h","1920","1080","0","1","0","5f4f835cea1e870397a4d295","","null","","","","","","","learning/Slide77.JPG","null","","","","","",""
"html-keyboard-response","236","246303","0.0-5.0-2.76","LF","5qj7var04h","1920","1080","0","1","0","5f4f835cea1e870397a4d295","","null","","","learningBlock1","","","","<div style=""font-size:60px;""> </div>","null","LF","learning/Slide77.JPG","This is a tob:","","",""
"html-keyboard-response","237","247305","0.0-5.0-0.77","LF","5qj7var04h","1920","1080","0","1","0","5f4f835cea1e870397a4d295","","null","","","learningBlock1","","","","This is a wug:","null","","","","","",""
"image-keyboard-response","238","247633","0.0-5.0-1.77","LF","5qj7var04h","1920","1080","0","1","0","5f4f835cea1e870397a4d295","","null","","","","","","","learning/Slide78.JPG","null","","","","","",""
"html-keyboard-response","239","248636","0.0-5.0-2.77","LF","5qj7var04h","1920","1080","0","1","0","5f4f835cea1e870397a4d295","","null","","","learningBlock1","","","","<div style=""font-size:60px;""> </div>","null","LF","learning/Slide78.JPG","This is a wug:","","",""
"html-keyboard-response","240","249638","0.0-5.0-0.78","LF","5qj7var04h","1920","1080","0","1","0","5f4f835cea1e870397a4d295","","null","","","learningBlock1","","","","This is a bim:","null","","","","","",""
"image-keyboard-response","241","249966","0.0-5.0-1.78","LF","5qj7var04h","1920","1080","0","1","0","5f4f835cea1e870397a4d295","","null","","","","","","","learning/Slide79.JPG","null","","","","","",""
"html-keyboard-response","242","250969","0.0-5.0-2.78","LF","5qj7var04h","1920","1080","0","1","0","5f4f835cea1e870397a4d295","","null","","","learningBlock1","","","","<div style=""font-size:60px;""> </div>","null","LF","learning/Slide79.JPG","This is a bim:","","",""
"html-keyboard-response","243","251972","0.0-5.0-0.79","LF","5qj7var04h","1920","1080","0","1","0","5f4f835cea1e870397a4d295","","null","","","learningBlock1","","","","This is a tob:","null","","","","","",""
"image-keyboard-response","244","252301","0.0-5.0-1.79","LF","5qj7var04h","1920","1080","0","1","0","5f4f835cea1e870397a4d295","","null","","","","","","","learning/Slide80.JPG","null","","","","","",""
"html-keyboard-response","245","253303","0.0-5.0-2.79","LF","5qj7var04h","1920","1080","0","1","0","5f4f835cea1e870397a4d295","","null","","","learningBlock1","","","","<div style=""font-size:60px;""> </div>","null","LF","learning/Slide80.JPG","This is a tob:","","",""
"instructions","246","259571","0.0-6.0","LF","5qj7var04h","1920","1080","0","1","0","5f4f835cea1e870397a4d295","","NA","","[{""page_index"":0,""viewing_time"":6266.129999999976}]","instructions","","","","","","","","","","",""
"html-keyboard-response","247","260573","0.0-7.0-0.0","LF","5qj7var04h","1920","1080","0","1","0","5f4f835cea1e870397a4d295","","null","","","learningBlock2","","","","This is a wug:","null","","","","","",""
"image-keyboard-response","248","260901","0.0-7.0-1.0","LF","5qj7var04h","1920","1080","0","1","0","5f4f835cea1e870397a4d295","","null","","","","","","","learning/Slide81.JPG","null","","","","","",""
"html-keyboard-response","249","261903","0.0-7.0-2.0","LF","5qj7var04h","1920","1080","0","1","0","5f4f835cea1e870397a4d295","","null","","","learningBlock2","","","","<div style=""font-size:60px;""> </div>","null","LF","learning/Slide81.JPG","This is a wug:","","",""
"html-keyboard-response","250","262905","0.0-7.0-0.1","LF","5qj7var04h","1920","1080","0","1","0","5f4f835cea1e870397a4d295","","null","","","learningBlock2","","","","This is a bim:","null","","","","","",""
"image-keyboard-response","251","263233","0.0-7.0-1.1","LF","5qj7var04h","1920","1080","0","1","0","5f4f835cea1e870397a4d295","","null","","","","","","","learning/Slide82.JPG","null","","","","","",""
"html-keyboard-response","252","264235","0.0-7.0-2.1","LF","5qj7var04h","1920","1080","0","1","0","5f4f835cea1e870397a4d295","","null","","","learningBlock2","","","","<div style=""font-size:60px;""> </div>","null","LF","learning/Slide82.JPG","This is a bim:","","",""
"html-keyboard-response","253","265238","0.0-7.0-0.2","LF","5qj7var04h","1920","1080","0","1","0","5f4f835cea1e870397a4d295","","null","","","learningBlock2","","","","This is a wug:","null","","","","","",""
"image-keyboard-response","254","265566","0.0-7.0-1.2","LF","5qj7var04h","1920","1080","0","1","0","5f4f835cea1e870397a4d295","","null","","","","","","","learning/Slide83.JPG","null","","","","","",""
"html-keyboard-response","255","266568","0.0-7.0-2.2","LF","5qj7var04h","1920","1080","0","1","0","5f4f835cea1e870397a4d295","","null","","","learningBlock2","","","","<div style=""font-size:60px;""> </div>","null","LF","learning/Slide83.JPG","This is a wug:","","",""
"html-keyboard-response","256","267571","0.0-7.0-0.3","LF","5qj7var04h","1920","1080","0","1","0","5f4f835cea1e870397a4d295","","null","","","learningBlock2","","","","This is a dep:","null","","","","","",""
"image-keyboard-response","257","267899","0.0-7.0-1.3","LF","5qj7var04h","1920","1080","0","1","0","5f4f835cea1e870397a4d295","","null","","","","","","","learning/Slide84.JPG","null","","","","","",""
"html-keyboard-response","258","268902","0.0-7.0-2.3","LF","5qj7var04h","1920","1080","0","1","0","5f4f835cea1e870397a4d295","","null","","","learningBlock2","","","","<div style=""font-size:60px;""> </div>","null","LF","learning/Slide84.JPG","This is a dep:","","",""
"html-keyboard-response","259","269905","0.0-7.0-0.4","LF","5qj7var04h","1920","1080","0","1","0","5f4f835cea1e870397a4d295","","null","","","learningBlock2","","","","This is a bim:","null","","","","","",""
"image-keyboard-response","260","270233","0.0-7.0-1.4","LF","5qj7var04h","1920","1080","0","1","0","5f4f835cea1e870397a4d295","","null","","","","","","","learning/Slide85.JPG","null","","","","","",""
"html-keyboard-response","261","271235","0.0-7.0-2.4","LF","5qj7var04h","1920","1080","0","1","0","5f4f835cea1e870397a4d295","","null","","","learningBlock2","","","","<div style=""font-size:60px;""> </div>","null","LF","learning/Slide85.JPG","This is a bim:","","",""
"html-keyboard-response","262","272238","0.0-7.0-0.5","LF","5qj7var04h","1920","1080","0","1","0","5f4f835cea1e870397a4d295","","null","","","learningBlock2","","","","This is a tob:","null","","","","","",""
"image-keyboard-response","263","272568","0.0-7.0-1.5","LF","5qj7var04h","1920","1080","0","1","0","5f4f835cea1e870397a4d295","","null","","","","","","","learning/Slide86.JPG","null","","","","","",""
"html-keyboard-response","264","273571","0.0-7.0-2.5","LF","5qj7var04h","1920","1080","0","1","0","5f4f835cea1e870397a4d295","","null","","","learningBlock2","","","","<div style=""font-size:60px;""> </div>","null","LF","learning/Slide86.JPG","This is a tob:","","",""
"html-keyboard-response","265","274574","0.0-7.0-0.6","LF","5qj7var04h","1920","1080","0","1","0","5f4f835cea1e870397a4d295","","null","","","learningBlock2","","","","This is a wug:","null","","","","","",""
"image-keyboard-response","266","274902","0.0-7.0-1.6","LF","5qj7var04h","1920","1080","0","1","0","5f4f835cea1e870397a4d295","","null","","","","","","","learning/Slide87.JPG","null","","","","","",""
"html-keyboard-response","267","275904","0.0-7.0-2.6","LF","5qj7var04h","1920","1080","0","1","0","5f4f835cea1e870397a4d295","","null","","","learningBlock2","","","","<div style=""font-size:60px;""> </div>","null","LF","learning/Slide87.JPG","This is a wug:","","",""
"html-keyboard-response","268","276906","0.0-7.0-0.7","LF","5qj7var04h","1920","1080","0","1","0","5f4f835cea1e870397a4d295","","null","","","learningBlock2","","","","This is a tob:","null","","","","","",""
"image-keyboard-response","269","277235","0.0-7.0-1.7","LF","5qj7var04h","1920","1080","0","1","0","5f4f835cea1e870397a4d295","","null","","","","","","","learning/Slide88.JPG","null","","","","","",""
"html-keyboard-response","270","278237","0.0-7.0-2.7","LF","5qj7var04h","1920","1080","0","1","0","5f4f835cea1e870397a4d295","","null","","","learningBlock2","","","","<div style=""font-size:60px;""> </div>","null","LF","learning/Slide88.JPG","This is a tob:","","",""
"html-keyboard-response","271","279240","0.0-7.0-0.8","LF","5qj7var04h","1920","1080","0","1","0","5f4f835cea1e870397a4d295","","null","","","learningBlock2","","","","This is a bim:","null","","","","","",""
"image-keyboard-response","272","279569","0.0-7.0-1.8","LF","5qj7var04h","1920","1080","0","1","0","5f4f835cea1e870397a4d295","","null","","","","","","","learning/Slide89.JPG","null","","","","","",""
"html-keyboard-response","273","280572","0.0-7.0-2.8","LF","5qj7var04h","1920","1080","0","1","0","5f4f835cea1e870397a4d295","","null","","","learningBlock2","","","","<div style=""font-size:60px;""> </div>","null","LF","learning/Slide89.JPG","This is a bim:","","",""
"html-keyboard-response","274","281575","0.0-7.0-0.9","LF","5qj7var04h","1920","1080","0","1","0","5f4f835cea1e870397a4d295","","null","","","learningBlock2","","","","This is a dep:","null","","","","","",""
"image-keyboard-response","275","281903","0.0-7.0-1.9","LF","5qj7var04h","1920","1080","0","1","0","5f4f835cea1e870397a4d295","","null","","","","","","","learning/Slide90.JPG","null","","","","","",""
"html-keyboard-response","276","282905","0.0-7.0-2.9","LF","5qj7var04h","1920","1080","0","1","0","5f4f835cea1e870397a4d295","","null","","","learningBlock2","","","","<div style=""font-size:60px;""> </div>","null","LF","learning/Slide90.JPG","This is a dep:","","",""
"html-keyboard-response","277","283908","0.0-7.0-0.10","LF","5qj7var04h","1920","1080","0","1","0","5f4f835cea1e870397a4d295","","null","","","learningBlock2","","","","This is a wug:","null","","","","","",""
"image-keyboard-response","278","284236","0.0-7.0-1.10","LF","5qj7var04h","1920","1080","0","1","0","5f4f835cea1e870397a4d295","","null","","","","","","","learning/Slide91.JPG","null","","","","","",""
"html-keyboard-response","279","285238","0.0-7.0-2.10","LF","5qj7var04h","1920","1080","0","1","0","5f4f835cea1e870397a4d295","","null","","","learningBlock2","","","","<div style=""font-size:60px;""> </div>","null","LF","learning/Slide91.JPG","This is a wug:","","",""
"html-keyboard-response","280","286242","0.0-7.0-0.11","LF","5qj7var04h","1920","1080","0","1","0","5f4f835cea1e870397a4d295","","null","","","learningBlock2","","","","This is a tob:","null","","","","","",""
"image-keyboard-response","281","286571","0.0-7.0-1.11","LF","5qj7var04h","1920","1080","0","1","0","5f4f835cea1e870397a4d295","","null","","","","","","","learning/Slide92.JPG","null","","","","","",""
"html-keyboard-response","282","287574","0.0-7.0-2.11","LF","5qj7var04h","1920","1080","0","1","0","5f4f835cea1e870397a4d295","","null","","","learningBlock2","","","","<div style=""font-size:60px;""> </div>","null","LF","learning/Slide92.JPG","This is a tob:","","",""
"html-keyboard-response","283","288576","0.0-7.0-0.12","LF","5qj7var04h","1920","1080","0","1","0","5f4f835cea1e870397a4d295","","null","","","learningBlock2","","","","This is a bim:","null","","","","","",""
"image-keyboard-response","284","288905","0.0-7.0-1.12","LF","5qj7var04h","1920","1080","0","1","0","5f4f835cea1e870397a4d295","","null","","","","","","","learning/Slide93.JPG","null","","","","","",""
"html-keyboard-response","285","289907","0.0-7.0-2.12","LF","5qj7var04h","1920","1080","0","1","0","5f4f835cea1e870397a4d295","","null","","","learningBlock2","","","","<div style=""font-size:60px;""> </div>","null","LF","learning/Slide93.JPG","This is a bim:","","",""
"html-keyboard-response","286","290909","0.0-7.0-0.13","LF","5qj7var04h","1920","1080","0","1","0","5f4f835cea1e870397a4d295","","null","","","learningBlock2","","","","This is a tob:","null","","","","","",""
"image-keyboard-response","287","291238","0.0-7.0-1.13","LF","5qj7var04h","1920","1080","0","1","0","5f4f835cea1e870397a4d295","","null","","","","","","","learning/Slide94.JPG","null","","","","","",""
"html-keyboard-response","288","292240","0.0-7.0-2.13","LF","5qj7var04h","1920","1080","0","1","0","5f4f835cea1e870397a4d295","","null","","","learningBlock2","","","","<div style=""font-size:60px;""> </div>","null","LF","learning/Slide94.JPG","This is a tob:","","",""
"html-keyboard-response","289","293243","0.0-7.0-0.14","LF","5qj7var04h","1920","1080","0","1","0","5f4f835cea1e870397a4d295","","null","","","learningBlock2","","","","This is a wug:","null","","","","","",""
"image-keyboard-response","290","293571","0.0-7.0-1.14","LF","5qj7var04h","1920","1080","0","1","0","5f4f835cea1e870397a4d295","","null","","","","","","","learning/Slide95.JPG","null","","","","","",""
"html-keyboard-response","291","294573","0.0-7.0-2.14","LF","5qj7var04h","1920","1080","0","1","0","5f4f835cea1e870397a4d295","","null","","","learningBlock2","","","","<div style=""font-size:60px;""> </div>","null","LF","learning/Slide95.JPG","This is a wug:","","",""
"html-keyboard-response","292","295576","0.0-7.0-0.15","LF","5qj7var04h","1920","1080","0","1","0","5f4f835cea1e870397a4d295","","null","","","learningBlock2","","","","This is a tob:","null","","","","","",""
"image-keyboard-response","293","295903","0.0-7.0-1.15","LF","5qj7var04h","1920","1080","0","1","0","5f4f835cea1e870397a4d295","","null","","","","","","","learning/Slide96.JPG","null","","","","","",""
"html-keyboard-response","294","296905","0.0-7.0-2.15","LF","5qj7var04h","1920","1080","0","1","0","5f4f835cea1e870397a4d295","","null","","","learningBlock2","","","","<div style=""font-size:60px;""> </div>","null","LF","learning/Slide96.JPG","This is a tob:","","",""
"html-keyboard-response","295","297908","0.0-7.0-0.16","LF","5qj7var04h","1920","1080","0","1","0","5f4f835cea1e870397a4d295","","null","","","learningBlock2","","","","This is a dep:","null","","","","","",""
"image-keyboard-response","296","298236","0.0-7.0-1.16","LF","5qj7var04h","1920","1080","0","1","0","5f4f835cea1e870397a4d295","","null","","","","","","","learning/Slide97.JPG","null","","","","","",""
"html-keyboard-response","297","299239","0.0-7.0-2.16","LF","5qj7var04h","1920","1080","0","1","0","5f4f835cea1e870397a4d295","","null","","","learningBlock2","","","","<div style=""font-size:60px;""> </div>","null","LF","learning/Slide97.JPG","This is a dep:","","",""
"html-keyboard-response","298","300242","0.0-7.0-0.17","LF","5qj7var04h","1920","1080","0","1","0","5f4f835cea1e870397a4d295","","null","","","learningBlock2","","","","This is a bim:","null","","","","","",""
"image-keyboard-response","299","300571","0.0-7.0-1.17","LF","5qj7var04h","1920","1080","0","1","0","5f4f835cea1e870397a4d295","","null","","","","","","","learning/Slide98.JPG","null","","","","","",""
"html-keyboard-response","300","301573","0.0-7.0-2.17","LF","5qj7var04h","1920","1080","0","1","0","5f4f835cea1e870397a4d295","","null","","","learningBlock2","","","","<div style=""font-size:60px;""> </div>","null","LF","learning/Slide98.JPG","This is a bim:","","",""
"html-keyboard-response","301","302575","0.0-7.0-0.18","LF","5qj7var04h","1920","1080","0","1","0","5f4f835cea1e870397a4d295","","null","","","learningBlock2","","","","This is a dep:","null","","","","","",""
"image-keyboard-response","302","302903","0.0-7.0-1.18","LF","5qj7var04h","1920","1080","0","1","0","5f4f835cea1e870397a4d295","","null","","","","","","","learning/Slide99.JPG","null","","","","","",""
"html-keyboard-response","303","303905","0.0-7.0-2.18","LF","5qj7var04h","1920","1080","0","1","0","5f4f835cea1e870397a4d295","","null","","","learningBlock2","","","","<div style=""font-size:60px;""> </div>","null","LF","learning/Slide99.JPG","This is a dep:","","",""
"html-keyboard-response","304","304908","0.0-7.0-0.19","LF","5qj7var04h","1920","1080","0","1","0","5f4f835cea1e870397a4d295","","null","","","learningBlock2","","","","This is a bim:","null","","","","","",""
"image-keyboard-response","305","305237","0.0-7.0-1.19","LF","5qj7var04h","1920","1080","0","1","0","5f4f835cea1e870397a4d295","","null","","","","","","","learning/Slide100.JPG","null","","","","","",""
"html-keyboard-response","306","306240","0.0-7.0-2.19","LF","5qj7var04h","1920","1080","0","1","0","5f4f835cea1e870397a4d295","","null","","","learningBlock2","","","","<div style=""font-size:60px;""> </div>","null","LF","learning/Slide100.JPG","This is a bim:","","",""
"html-keyboard-response","307","307242","0.0-7.0-0.20","LF","5qj7var04h","1920","1080","0","1","0","5f4f835cea1e870397a4d295","","null","","","learningBlock2","","","","This is a tob:","null","","","","","",""
"image-keyboard-response","308","307570","0.0-7.0-1.20","LF","5qj7var04h","1920","1080","0","1","0","5f4f835cea1e870397a4d295","","null","","","","","","","learning/Slide101.JPG","null","","","","","",""
"html-keyboard-response","309","308572","0.0-7.0-2.20","LF","5qj7var04h","1920","1080","0","1","0","5f4f835cea1e870397a4d295","","null","","","learningBlock2","","","","<div style=""font-size:60px;""> </div>","null","LF","learning/Slide101.JPG","This is a tob:","","",""
"html-keyboard-response","310","309575","0.0-7.0-0.21","LF","5qj7var04h","1920","1080","0","1","0","5f4f835cea1e870397a4d295","","null","","","learningBlock2","","","","This is a bim:","null","","","","","",""
"image-keyboard-response","311","309903","0.0-7.0-1.21","LF","5qj7var04h","1920","1080","0","1","0","5f4f835cea1e870397a4d295","","null","","","","","","","learning/Slide102.JPG","null","","","","","",""
"html-keyboard-response","312","310905","0.0-7.0-2.21","LF","5qj7var04h","1920","1080","0","1","0","5f4f835cea1e870397a4d295","","null","","","learningBlock2","","","","<div style=""font-size:60px;""> </div>","null","LF","learning/Slide102.JPG","This is a bim:","","",""
"html-keyboard-response","313","311908","0.0-7.0-0.22","LF","5qj7var04h","1920","1080","0","1","0","5f4f835cea1e870397a4d295","","null","","","learningBlock2","","","","This is a dep:","null","","","","","",""
"image-keyboard-response","314","312236","0.0-7.0-1.22","LF","5qj7var04h","1920","1080","0","1","0","5f4f835cea1e870397a4d295","","null","","","","","","","learning/Slide103.JPG","null","","","","","",""
"html-keyboard-response","315","313238","0.0-7.0-2.22","LF","5qj7var04h","1920","1080","0","1","0","5f4f835cea1e870397a4d295","","null","","","learningBlock2","","","","<div style=""font-size:60px;""> </div>","null","LF","learning/Slide103.JPG","This is a dep:","","",""
"html-keyboard-response","316","314241","0.0-7.0-0.23","LF","5qj7var04h","1920","1080","0","1","0","5f4f835cea1e870397a4d295","","null","","","learningBlock2","","","","This is a tob:","null","","","","","",""
"image-keyboard-response","317","314571","0.0-7.0-1.23","LF","5qj7var04h","1920","1080","0","1","0","5f4f835cea1e870397a4d295","","null","","","","","","","learning/Slide104.JPG","null","","","","","",""
"html-keyboard-response","318","315573","0.0-7.0-2.23","LF","5qj7var04h","1920","1080","0","1","0","5f4f835cea1e870397a4d295","","null","","","learningBlock2","","","","<div style=""font-size:60px;""> </div>","null","LF","learning/Slide104.JPG","This is a tob:","","",""
"html-keyboard-response","319","316576","0.0-7.0-0.24","LF","5qj7var04h","1920","1080","0","1","0","5f4f835cea1e870397a4d295","","null","","","learningBlock2","","","","This is a dep:","null","","","","","",""
"image-keyboard-response","320","316905","0.0-7.0-1.24","LF","5qj7var04h","1920","1080","0","1","0","5f4f835cea1e870397a4d295","","null","","","","","","","learning/Slide105.JPG","null","","","","","",""
"html-keyboard-response","321","317908","0.0-7.0-2.24","LF","5qj7var04h","1920","1080","0","1","0","5f4f835cea1e870397a4d295","","null","","","learningBlock2","","","","<div style=""font-size:60px;""> </div>","null","LF","learning/Slide105.JPG","This is a dep:","","",""
"html-keyboard-response","322","318912","0.0-7.0-0.25","LF","5qj7var04h","1920","1080","0","1","0","5f4f835cea1e870397a4d295","","null","","","learningBlock2","","","","This is a wug:","null","","","","","",""
"image-keyboard-response","323","319241","0.0-7.0-1.25","LF","5qj7var04h","1920","1080","0","1","0","5f4f835cea1e870397a4d295","","null","","","","","","","learning/Slide106.JPG","null","","","","","",""
"html-keyboard-response","324","320244","0.0-7.0-2.25","LF","5qj7var04h","1920","1080","0","1","0","5f4f835cea1e870397a4d295","","null","","","learningBlock2","","","","<div style=""font-size:60px;""> </div>","null","LF","learning/Slide106.JPG","This is a wug:","","",""
"html-keyboard-response","325","321246","0.0-7.0-0.26","LF","5qj7var04h","1920","1080","0","1","0","5f4f835cea1e870397a4d295","","null","","","learningBlock2","","","","This is a bim:","null","","","","","",""
"image-keyboard-response","326","321573","0.0-7.0-1.26","LF","5qj7var04h","1920","1080","0","1","0","5f4f835cea1e870397a4d295","","null","","","","","","","learning/Slide107.JPG","null","","","","","",""
"html-keyboard-response","327","322575","0.0-7.0-2.26","LF","5qj7var04h","1920","1080","0","1","0","5f4f835cea1e870397a4d295","","null","","","learningBlock2","","","","<div style=""font-size:60px;""> </div>","null","LF","learning/Slide107.JPG","This is a bim:","","",""
"html-keyboard-response","328","323578","0.0-7.0-0.27","LF","5qj7var04h","1920","1080","0","1","0","5f4f835cea1e870397a4d295","","null","","","learningBlock2","","","","This is a dep:","null","","","","","",""
"image-keyboard-response","329","323906","0.0-7.0-1.27","LF","5qj7var04h","1920","1080","0","1","0","5f4f835cea1e870397a4d295","","null","","","","","","","learning/Slide108.JPG","null","","","","","",""
"html-keyboard-response","330","324909","0.0-7.0-2.27","LF","5qj7var04h","1920","1080","0","1","0","5f4f835cea1e870397a4d295","","null","","","learningBlock2","","","","<div style=""font-size:60px;""> </div>","null","LF","learning/Slide108.JPG","This is a dep:","","",""
"html-keyboard-response","331","325912","0.0-7.0-0.28","LF","5qj7var04h","1920","1080","0","1","0","5f4f835cea1e870397a4d295","","null","","","learningBlock2","","","","This is a wug:","null","","","","","",""
"image-keyboard-response","332","326241","0.0-7.0-1.28","LF","5qj7var04h","1920","1080","0","1","0","5f4f835cea1e870397a4d295","","null","","","","","","","learning/Slide109.JPG","null","","","","","",""
"html-keyboard-response","333","327243","0.0-7.0-2.28","LF","5qj7var04h","1920","1080","0","1","0","5f4f835cea1e870397a4d295","","null","","","learningBlock2","","","","<div style=""font-size:60px;""> </div>","null","LF","learning/Slide109.JPG","This is a wug:","","",""
"html-keyboard-response","334","328246","0.0-7.0-0.29","LF","5qj7var04h","1920","1080","0","1","0","5f4f835cea1e870397a4d295","","null","","","learningBlock2","","","","This is a bim:","null","","","","","",""
"image-keyboard-response","335","328573","0.0-7.0-1.29","LF","5qj7var04h","1920","1080","0","1","0","5f4f835cea1e870397a4d295","","null","","","","","","","learning/Slide110.JPG","null","","","","","",""
"html-keyboard-response","336","329576","0.0-7.0-2.29","LF","5qj7var04h","1920","1080","0","1","0","5f4f835cea1e870397a4d295","","null","","","learningBlock2","","","","<div style=""font-size:60px;""> </div>","null","LF","learning/Slide110.JPG","This is a bim:","","",""
"html-keyboard-response","337","330578","0.0-7.0-0.30","LF","5qj7var04h","1920","1080","0","1","0","5f4f835cea1e870397a4d295","","null","","","learningBlock2","","","","This is a tob:","null","","","","","",""
"image-keyboard-response","338","330907","0.0-7.0-1.30","LF","5qj7var04h","1920","1080","0","1","0","5f4f835cea1e870397a4d295","","null","","","","","","","learning/Slide111.JPG","null","","","","","",""
"html-keyboard-response","339","331909","0.0-7.0-2.30","LF","5qj7var04h","1920","1080","0","1","0","5f4f835cea1e870397a4d295","","null","","","learningBlock2","","","","<div style=""font-size:60px;""> </div>","null","LF","learning/Slide111.JPG","This is a tob:","","",""
"html-keyboard-response","340","332912","0.0-7.0-0.31","LF","5qj7var04h","1920","1080","0","1","0","5f4f835cea1e870397a4d295","","null","","","learningBlock2","","","","This is a wug:","null","","","","","",""
"image-keyboard-response","341","333240","0.0-7.0-1.31","LF","5qj7var04h","1920","1080","0","1","0","5f4f835cea1e870397a4d295","","null","","","","","","","learning/Slide112.JPG","null","","","","","",""
"html-keyboard-response","342","334242","0.0-7.0-2.31","LF","5qj7var04h","1920","1080","0","1","0","5f4f835cea1e870397a4d295","","null","","","learningBlock2","","","","<div style=""font-size:60px;""> </div>","null","LF","learning/Slide112.JPG","This is a wug:","","",""
"html-keyboard-response","343","335245","0.0-7.0-0.32","LF","5qj7var04h","1920","1080","0","1","0","5f4f835cea1e870397a4d295","","null","","","learningBlock2","","","","This is a tob:","null","","","","","",""
"image-keyboard-response","344","335574","0.0-7.0-1.32","LF","5qj7var04h","1920","1080","0","1","0","5f4f835cea1e870397a4d295","","null","","","","","","","learning/Slide113.JPG","null","","","","","",""
"html-keyboard-response","345","336576","0.0-7.0-2.32","LF","5qj7var04h","1920","1080","0","1","0","5f4f835cea1e870397a4d295","","null","","","learningBlock2","","","","<div style=""font-size:60px;""> </div>","null","LF","learning/Slide113.JPG","This is a tob:","","",""
"html-keyboard-response","346","337578","0.0-7.0-0.33","LF","5qj7var04h","1920","1080","0","1","0","5f4f835cea1e870397a4d295","","null","","","learningBlock2","","","","This is a wug:","null","","","","","",""
"image-keyboard-response","347","337906","0.0-7.0-1.33","LF","5qj7var04h","1920","1080","0","1","0","5f4f835cea1e870397a4d295","","null","","","","","","","learning/Slide114.JPG","null","","","","","",""
"html-keyboard-response","348","338908","0.0-7.0-2.33","LF","5qj7var04h","1920","1080","0","1","0","5f4f835cea1e870397a4d295","","null","","","learningBlock2","","","","<div style=""font-size:60px;""> </div>","null","LF","learning/Slide114.JPG","This is a wug:","","",""
"html-keyboard-response","349","339909","0.0-7.0-0.34","LF","5qj7var04h","1920","1080","0","1","0","5f4f835cea1e870397a4d295","","null","","","learningBlock2","","","","This is a bim:","null","","","","","",""
"image-keyboard-response","350","340238","0.0-7.0-1.34","LF","5qj7var04h","1920","1080","0","1","0","5f4f835cea1e870397a4d295","","null","","","","","","","learning/Slide115.JPG","null","","","","","",""
"html-keyboard-response","351","341239","0.0-7.0-2.34","LF","5qj7var04h","1920","1080","0","1","0","5f4f835cea1e870397a4d295","","null","","","learningBlock2","","","","<div style=""font-size:60px;""> </div>","null","LF","learning/Slide115.JPG","This is a bim:","","",""
"html-keyboard-response","352","342242","0.0-7.0-0.35","LF","5qj7var04h","1920","1080","0","1","0","5f4f835cea1e870397a4d295","","null","","","learningBlock2","","","","This is a dep:","null","","","","","",""
"image-keyboard-response","353","342571","0.0-7.0-1.35","LF","5qj7var04h","1920","1080","0","1","0","5f4f835cea1e870397a4d295","","null","","","","","","","learning/Slide116.JPG","null","","","","","",""
"html-keyboard-response","354","343574","0.0-7.0-2.35","LF","5qj7var04h","1920","1080","0","1","0","5f4f835cea1e870397a4d295","","null","","","learningBlock2","","","","<div style=""font-size:60px;""> </div>","null","LF","learning/Slide116.JPG","This is a dep:","","",""
"html-keyboard-response","355","344577","0.0-7.0-0.36","LF","5qj7var04h","1920","1080","0","1","0","5f4f835cea1e870397a4d295","","null","","","learningBlock2","","","","This is a tob:","null","","","","","",""
"image-keyboard-response","356","344905","0.0-7.0-1.36","LF","5qj7var04h","1920","1080","0","1","0","5f4f835cea1e870397a4d295","","null","","","","","","","learning/Slide117.JPG","null","","","","","",""
"html-keyboard-response","357","345908","0.0-7.0-2.36","LF","5qj7var04h","1920","1080","0","1","0","5f4f835cea1e870397a4d295","","null","","","learningBlock2","","","","<div style=""font-size:60px;""> </div>","null","LF","learning/Slide117.JPG","This is a tob:","","",""
"html-keyboard-response","358","346911","0.0-7.0-0.37","LF","5qj7var04h","1920","1080","0","1","0","5f4f835cea1e870397a4d295","","null","","","learningBlock2","","","","This is a dep:","null","","","","","",""
"image-keyboard-response","359","347240","0.0-7.0-1.37","LF","5qj7var04h","1920","1080","0","1","0","5f4f835cea1e870397a4d295","","null","","","","","","","learning/Slide118.JPG","null","","","","","",""
"html-keyboard-response","360","348242","0.0-7.0-2.37","LF","5qj7var04h","1920","1080","0","1","0","5f4f835cea1e870397a4d295","","null","","","learningBlock2","","","","<div style=""font-size:60px;""> </div>","null","LF","learning/Slide118.JPG","This is a dep:","","",""
"html-keyboard-response","361","349245","0.0-7.0-0.38","LF","5qj7var04h","1920","1080","0","1","0","5f4f835cea1e870397a4d295","","null","","","learningBlock2","","","","This is a wug:","null","","","","","",""
"image-keyboard-response","362","349573","0.0-7.0-1.38","LF","5qj7var04h","1920","1080","0","1","0","5f4f835cea1e870397a4d295","","null","","","","","","","learning/Slide119.JPG","null","","","","","",""
"html-keyboard-response","363","350575","0.0-7.0-2.38","LF","5qj7var04h","1920","1080","0","1","0","5f4f835cea1e870397a4d295","","null","","","learningBlock2","","","","<div style=""font-size:60px;""> </div>","null","LF","learning/Slide119.JPG","This is a wug:","","",""
"html-keyboard-response","364","351577","0.0-7.0-0.39","LF","5qj7var04h","1920","1080","0","1","0","5f4f835cea1e870397a4d295","","null","","","learningBlock2","","","","This is a dep:","null","","","","","",""
"image-keyboard-response","365","351906","0.0-7.0-1.39","LF","5qj7var04h","1920","1080","0","1","0","5f4f835cea1e870397a4d295","","null","","","","","","","learning/Slide120.JPG","null","","","","","",""
"html-keyboard-response","366","352908","0.0-7.0-2.39","LF","5qj7var04h","1920","1080","0","1","0","5f4f835cea1e870397a4d295","","null","","","learningBlock2","","","","<div style=""font-size:60px;""> </div>","null","LF","learning/Slide120.JPG","This is a dep:","","",""
"html-keyboard-response","367","353911","0.0-7.0-0.40","LF","5qj7var04h","1920","1080","0","1","0","5f4f835cea1e870397a4d295","","null","","","learningBlock2","","","","This is a bim:","null","","","","","",""
"image-keyboard-response","368","354241","0.0-7.0-1.40","LF","5qj7var04h","1920","1080","0","1","0","5f4f835cea1e870397a4d295","","null","","","","","","","learning/Slide121.JPG","null","","","","","",""
"html-keyboard-response","369","355243","0.0-7.0-2.40","LF","5qj7var04h","1920","1080","0","1","0","5f4f835cea1e870397a4d295","","null","","","learningBlock2","","","","<div style=""font-size:60px;""> </div>","null","LF","learning/Slide121.JPG","This is a bim:","","",""
"html-keyboard-response","370","356246","0.0-7.0-0.41","LF","5qj7var04h","1920","1080","0","1","0","5f4f835cea1e870397a4d295","","null","","","learningBlock2","","","","This is a wug:","null","","","","","",""
"image-keyboard-response","371","356574","0.0-7.0-1.41","LF","5qj7var04h","1920","1080","0","1","0","5f4f835cea1e870397a4d295","","null","","","","","","","learning/Slide122.JPG","null","","","","","",""
"html-keyboard-response","372","357576","0.0-7.0-2.41","LF","5qj7var04h","1920","1080","0","1","0","5f4f835cea1e870397a4d295","","null","","","learningBlock2","","","","<div style=""font-size:60px;""> </div>","null","LF","learning/Slide122.JPG","This is a wug:","","",""
"html-keyboard-response","373","358579","0.0-7.0-0.42","LF","5qj7var04h","1920","1080","0","1","0","5f4f835cea1e870397a4d295","","null","","","learningBlock2","","","","This is a bim:","null","","","","","",""
"image-keyboard-response","374","358907","0.0-7.0-1.42","LF","5qj7var04h","1920","1080","0","1","0","5f4f835cea1e870397a4d295","","null","","","","","","","learning/Slide123.JPG","null","","","","","",""
"html-keyboard-response","375","359911","0.0-7.0-2.42","LF","5qj7var04h","1920","1080","0","1","0","5f4f835cea1e870397a4d295","","null","","","learningBlock2","","","","<div style=""font-size:60px;""> </div>","null","LF","learning/Slide123.JPG","This is a bim:","","",""
"html-keyboard-response","376","360913","0.0-7.0-0.43","LF","5qj7var04h","1920","1080","0","1","0","5f4f835cea1e870397a4d295","","null","","","learningBlock2","","","","This is a tob:","null","","","","","",""
"image-keyboard-response","377","361240","0.0-7.0-1.43","LF","5qj7var04h","1920","1080","0","1","0","5f4f835cea1e870397a4d295","","null","","","","","","","learning/Slide124.JPG","null","","","","","",""
"html-keyboard-response","378","362243","0.0-7.0-2.43","LF","5qj7var04h","1920","1080","0","1","0","5f4f835cea1e870397a4d295","","null","","","learningBlock2","","","","<div style=""font-size:60px;""> </div>","null","LF","learning/Slide124.JPG","This is a tob:","","",""
"html-keyboard-response","379","363245","0.0-7.0-0.44","LF","5qj7var04h","1920","1080","0","1","0","5f4f835cea1e870397a4d295","","null","","","learningBlock2","","","","This is a bim:","null","","","","","",""
"image-keyboard-response","380","363573","0.0-7.0-1.44","LF","5qj7var04h","1920","1080","0","1","0","5f4f835cea1e870397a4d295","","null","","","","","","","learning/Slide125.JPG","null","","","","","",""
"html-keyboard-response","381","364575","0.0-7.0-2.44","LF","5qj7var04h","1920","1080","0","1","0","5f4f835cea1e870397a4d295","","null","","","learningBlock2","","","","<div style=""font-size:60px;""> </div>","null","LF","learning/Slide125.JPG","This is a bim:","","",""
"html-keyboard-response","382","365578","0.0-7.0-0.45","LF","5qj7var04h","1920","1080","0","1","0","5f4f835cea1e870397a4d295","","null","","","learningBlock2","","","","This is a tob:","null","","","","","",""
"image-keyboard-response","383","365907","0.0-7.0-1.45","LF","5qj7var04h","1920","1080","0","1","0","5f4f835cea1e870397a4d295","","null","","","","","","","learning/Slide126.JPG","null","","","","","",""
"html-keyboard-response","384","366909","0.0-7.0-2.45","LF","5qj7var04h","1920","1080","0","1","0","5f4f835cea1e870397a4d295","","null","","","learningBlock2","","","","<div style=""font-size:60px;""> </div>","null","LF","learning/Slide126.JPG","This is a tob:","","",""
"html-keyboard-response","385","367912","0.0-7.0-0.46","LF","5qj7var04h","1920","1080","0","1","0","5f4f835cea1e870397a4d295","","null","","","learningBlock2","","","","This is a dep:","null","","","","","",""
"image-keyboard-response","386","368241","0.0-7.0-1.46","LF","5qj7var04h","1920","1080","0","1","0","5f4f835cea1e870397a4d295","","null","","","","","","","learning/Slide127.JPG","null","","","","","",""
"html-keyboard-response","387","369243","0.0-7.0-2.46","LF","5qj7var04h","1920","1080","0","1","0","5f4f835cea1e870397a4d295","","null","","","learningBlock2","","","","<div style=""font-size:60px;""> </div>","null","LF","learning/Slide127.JPG","This is a dep:","","",""
"html-keyboard-response","388","370246","0.0-7.0-0.47","LF","5qj7var04h","1920","1080","0","1","0","5f4f835cea1e870397a4d295","","null","","","learningBlock2","","","","This is a wug:","null","","","","","",""
"image-keyboard-response","389","370575","0.0-7.0-1.47","LF","5qj7var04h","1920","1080","0","1","0","5f4f835cea1e870397a4d295","","null","","","","","","","learning/Slide128.JPG","null","","","","","",""
"html-keyboard-response","390","371577","0.0-7.0-2.47","LF","5qj7var04h","1920","1080","0","1","0","5f4f835cea1e870397a4d295","","null","","","learningBlock2","","","","<div style=""font-size:60px;""> </div>","null","LF","learning/Slide128.JPG","This is a wug:","","",""
"html-keyboard-response","391","372580","0.0-7.0-0.48","LF","5qj7var04h","1920","1080","0","1","0","5f4f835cea1e870397a4d295","","null","","","learningBlock2","","","","This is a tob:","null","","","","","",""
"image-keyboard-response","392","372908","0.0-7.0-1.48","LF","5qj7var04h","1920","1080","0","1","0","5f4f835cea1e870397a4d295","","null","","","","","","","learning/Slide129.JPG","null","","","","","",""
"html-keyboard-response","393","373912","0.0-7.0-2.48","LF","5qj7var04h","1920","1080","0","1","0","5f4f835cea1e870397a4d295","","null","","","learningBlock2","","","","<div style=""font-size:60px;""> </div>","null","LF","learning/Slide129.JPG","This is a tob:","","",""
"html-keyboard-response","394","374914","0.0-7.0-0.49","LF","5qj7var04h","1920","1080","0","1","0","5f4f835cea1e870397a4d295","","null","","","learningBlock2","","","","This is a wug:","null","","","","","",""
"image-keyboard-response","395","375243","0.0-7.0-1.49","LF","5qj7var04h","1920","1080","0","1","0","5f4f835cea1e870397a4d295","","null","","","","","","","learning/Slide130.JPG","null","","","","","",""
"html-keyboard-response","396","376246","0.0-7.0-2.49","LF","5qj7var04h","1920","1080","0","1","0","5f4f835cea1e870397a4d295","","null","","","learningBlock2","","","","<div style=""font-size:60px;""> </div>","null","LF","learning/Slide130.JPG","This is a wug:","","",""
"html-keyboard-response","397","377249","0.0-7.0-0.50","LF","5qj7var04h","1920","1080","0","1","0","5f4f835cea1e870397a4d295","","null","","","learningBlock2","","","","This is a bim:","null","","","","","",""
"image-keyboard-response","398","377578","0.0-7.0-1.50","LF","5qj7var04h","1920","1080","0","1","0","5f4f835cea1e870397a4d295","","null","","","","","","","learning/Slide131.JPG","null","","","","","",""
"html-keyboard-response","399","378581","0.0-7.0-2.50","LF","5qj7var04h","1920","1080","0","1","0","5f4f835cea1e870397a4d295","","null","","","learningBlock2","","","","<div style=""font-size:60px;""> </div>","null","LF","learning/Slide131.JPG","This is a bim:","","",""
"html-keyboard-response","400","379583","0.0-7.0-0.51","LF","5qj7var04h","1920","1080","0","1","0","5f4f835cea1e870397a4d295","","null","","","learningBlock2","","","","This is a dep:","null","","","","","",""
"image-keyboard-response","401","379911","0.0-7.0-1.51","LF","5qj7var04h","1920","1080","0","1","0","5f4f835cea1e870397a4d295","","null","","","","","","","learning/Slide132.JPG","null","","","","","",""
"html-keyboard-response","402","380914","0.0-7.0-2.51","LF","5qj7var04h","1920","1080","0","1","0","5f4f835cea1e870397a4d295","","null","","","learningBlock2","","","","<div style=""font-size:60px;""> </div>","null","LF","learning/Slide132.JPG","This is a dep:","","",""
"html-keyboard-response","403","381916","0.0-7.0-0.52","LF","5qj7var04h","1920","1080","0","1","0","5f4f835cea1e870397a4d295","","null","","","learningBlock2","","","","This is a tob:","null","","","","","",""
"image-keyboard-response","404","382252","0.0-7.0-1.52","LF","5qj7var04h","1920","1080","0","1","0","5f4f835cea1e870397a4d295","","null","","","","","","","learning/Slide133.JPG","null","","","","","",""
"html-keyboard-response","405","383255","0.0-7.0-2.52","LF","5qj7var04h","1920","1080","0","1","0","5f4f835cea1e870397a4d295","","null","","","learningBlock2","","","","<div style=""font-size:60px;""> </div>","null","LF","learning/Slide133.JPG","This is a tob:","","",""
"html-keyboard-response","406","384257","0.0-7.0-0.53","LF","5qj7var04h","1920","1080","0","1","0","5f4f835cea1e870397a4d295","","null","","","learningBlock2","","","","This is a dep:","null","","","","","",""
"image-keyboard-response","407","384586","0.0-7.0-1.53","LF","5qj7var04h","1920","1080","0","1","0","5f4f835cea1e870397a4d295","","null","","","","","","","learning/Slide134.JPG","null","","","","","",""
"html-keyboard-response","408","385588","0.0-7.0-2.53","LF","5qj7var04h","1920","1080","0","1","0","5f4f835cea1e870397a4d295","","null","","","learningBlock2","","","","<div style=""font-size:60px;""> </div>","null","LF","learning/Slide134.JPG","This is a dep:","","",""
"html-keyboard-response","409","386591","0.0-7.0-0.54","LF","5qj7var04h","1920","1080","0","1","0","5f4f835cea1e870397a4d295","","null","","","learningBlock2","","","","This is a tob:","null","","","","","",""
"image-keyboard-response","410","386919","0.0-7.0-1.54","LF","5qj7var04h","1920","1080","0","1","0","5f4f835cea1e870397a4d295","","null","","","","","","","learning/Slide135.JPG","null","","","","","",""
"html-keyboard-response","411","387922","0.0-7.0-2.54","LF","5qj7var04h","1920","1080","0","1","0","5f4f835cea1e870397a4d295","","null","","","learningBlock2","","","","<div style=""font-size:60px;""> </div>","null","LF","learning/Slide135.JPG","This is a tob:","","",""
"html-keyboard-response","412","388925","0.0-7.0-0.55","LF","5qj7var04h","1920","1080","0","1","0","5f4f835cea1e870397a4d295","","null","","","learningBlock2","","","","This is a wug:","null","","","","","",""
"image-keyboard-response","413","389253","0.0-7.0-1.55","LF","5qj7var04h","1920","1080","0","1","0","5f4f835cea1e870397a4d295","","null","","","","","","","learning/Slide136.JPG","null","","","","","",""
"html-keyboard-response","414","390255","0.0-7.0-2.55","LF","5qj7var04h","1920","1080","0","1","0","5f4f835cea1e870397a4d295","","null","","","learningBlock2","","","","<div style=""font-size:60px;""> </div>","null","LF","learning/Slide136.JPG","This is a wug:","","",""
"html-keyboard-response","415","391258","0.0-7.0-0.56","LF","5qj7var04h","1920","1080","0","1","0","5f4f835cea1e870397a4d295","","null","","","learningBlock2","","","","This is a tob:","null","","","","","",""
"image-keyboard-response","416","391586","0.0-7.0-1.56","LF","5qj7var04h","1920","1080","0","1","0","5f4f835cea1e870397a4d295","","null","","","","","","","learning/Slide137.JPG","null","","","","","",""
"html-keyboard-response","417","392590","0.0-7.0-2.56","LF","5qj7var04h","1920","1080","0","1","0","5f4f835cea1e870397a4d295","","null","","","learningBlock2","","","","<div style=""font-size:60px;""> </div>","null","LF","learning/Slide137.JPG","This is a tob:","","",""
"html-keyboard-response","418","393593","0.0-7.0-0.57","LF","5qj7var04h","1920","1080","0","1","0","5f4f835cea1e870397a4d295","","null","","","learningBlock2","","","","This is a bim:","null","","","","","",""
"image-keyboard-response","419","393921","0.0-7.0-1.57","LF","5qj7var04h","1920","1080","0","1","0","5f4f835cea1e870397a4d295","","null","","","","","","","learning/Slide138.JPG","null","","","","","",""
"html-keyboard-response","420","394924","0.0-7.0-2.57","LF","5qj7var04h","1920","1080","0","1","0","5f4f835cea1e870397a4d295","","null","","","learningBlock2","","","","<div style=""font-size:60px;""> </div>","null","LF","learning/Slide138.JPG","This is a bim:","","",""
"html-keyboard-response","421","395936","0.0-7.0-0.58","LF","5qj7var04h","1920","1080","0","1","0","5f4f835cea1e870397a4d295","","null","","","learningBlock2","","","","This is a wug:","null","","","","","",""
"image-keyboard-response","422","396265","0.0-7.0-1.58","LF","5qj7var04h","1920","1080","0","1","0","5f4f835cea1e870397a4d295","","null","","","","","","","learning/Slide139.JPG","null","","","","","",""
"html-keyboard-response","423","397268","0.0-7.0-2.58","LF","5qj7var04h","1920","1080","0","1","0","5f4f835cea1e870397a4d295","","null","","","learningBlock2","","","","<div style=""font-size:60px;""> </div>","null","LF","learning/Slide139.JPG","This is a wug:","","",""
"html-keyboard-response","424","398271","0.0-7.0-0.59","LF","5qj7var04h","1920","1080","0","1","0","5f4f835cea1e870397a4d295","","null","","","learningBlock2","","","","This is a dep:","null","","","","","",""
"image-keyboard-response","425","398601","0.0-7.0-1.59","LF","5qj7var04h","1920","1080","0","1","0","5f4f835cea1e870397a4d295","","null","","","","","","","learning/Slide140.JPG","null","","","","","",""
"html-keyboard-response","426","399603","0.0-7.0-2.59","LF","5qj7var04h","1920","1080","0","1","0","5f4f835cea1e870397a4d295","","null","","","learningBlock2","","","","<div style=""font-size:60px;""> </div>","null","LF","learning/Slide140.JPG","This is a dep:","","",""
"html-keyboard-response","427","400606","0.0-7.0-0.60","LF","5qj7var04h","1920","1080","0","1","0","5f4f835cea1e870397a4d295","","null","","","learningBlock2","","","","This is a tob:","null","","","","","",""
"image-keyboard-response","428","400933","0.0-7.0-1.60","LF","5qj7var04h","1920","1080","0","1","0","5f4f835cea1e870397a4d295","","null","","","","","","","learning/Slide141.JPG","null","","","","","",""
"html-keyboard-response","429","401935","0.0-7.0-2.60","LF","5qj7var04h","1920","1080","0","1","0","5f4f835cea1e870397a4d295","","null","","","learningBlock2","","","","<div style=""font-size:60px;""> </div>","null","LF","learning/Slide141.JPG","This is a tob:","","",""
"html-keyboard-response","430","402938","0.0-7.0-0.61","LF","5qj7var04h","1920","1080","0","1","0","5f4f835cea1e870397a4d295","","null","","","learningBlock2","","","","This is a wug:","null","","","","","",""
"image-keyboard-response","431","403265","0.0-7.0-1.61","LF","5qj7var04h","1920","1080","0","1","0","5f4f835cea1e870397a4d295","","null","","","","","","","learning/Slide142.JPG","null","","","","","",""
"html-keyboard-response","432","404267","0.0-7.0-2.61","LF","5qj7var04h","1920","1080","0","1","0","5f4f835cea1e870397a4d295","","null","","","learningBlock2","","","","<div style=""font-size:60px;""> </div>","null","LF","learning/Slide142.JPG","This is a wug:","","",""
"html-keyboard-response","433","405270","0.0-7.0-0.62","LF","5qj7var04h","1920","1080","0","1","0","5f4f835cea1e870397a4d295","","null","","","learningBlock2","","","","This is a bim:","null","","","","","",""
"image-keyboard-response","434","405599","0.0-7.0-1.62","LF","5qj7var04h","1920","1080","0","1","0","5f4f835cea1e870397a4d295","","null","","","","","","","learning/Slide143.JPG","null","","","","","",""
"html-keyboard-response","435","406602","0.0-7.0-2.62","LF","5qj7var04h","1920","1080","0","1","0","5f4f835cea1e870397a4d295","","null","","","learningBlock2","","","","<div style=""font-size:60px;""> </div>","null","LF","learning/Slide143.JPG","This is a bim:","","",""
"html-keyboard-response","436","407604","0.0-7.0-0.63","LF","5qj7var04h","1920","1080","0","1","0","5f4f835cea1e870397a4d295","","null","","","learningBlock2","","","","This is a dep:","null","","","","","",""
