"trial_type","trial_index","time_elapsed","internal_node_id","condition","subject","screen_width","screen_height","attention","distraction","conscientious","prolificID","success","rt","url","view_history","test_part","final_height_px","final_width_px","scale_factor","stimulus","key_press","learningType","presentedImage","presentedLabel","button_pressed","response","responses"
"pavlovia","0","16","0.0-0.0","LF","yc8mkz3uaa","1920","1080","0","1","0","5eaeb8b513f83a57d35db285","","","","","","","","","","","","","","","",""
"fullscreen","1","9813","0.0-1.0","LF","yc8mkz3uaa","1920","1080","0","1","0","5eaeb8b513f83a57d35db285","true","","","","","","","","","","","","","","",""
"external-html","2","37203","0.0-2.0-0.0","LF","yc8mkz3uaa","1920","1080","0","1","0","5eaeb8b513f83a57d35db285","","27350.32999998657","text/information_english.html","","","","","","","","","","","","",""
"external-html","3","65277","0.0-2.0-1.0","LF","yc8mkz3uaa","1920","1080","0","1","0","5eaeb8b513f83a57d35db285","","28030.664999969304","text/consent_english.html","","","","","","","","","","","","",""
"instructions","4","83411","0.0-3.0","LF","yc8mkz3uaa","1920","1080","0","1","0","5eaeb8b513f83a57d35db285","","NA","","[{""page_index"":0,""viewing_time"":3577.5550000253133},{""page_index"":1,""viewing_time"":14553.060000005644}]","instructions","","","","","","","","","","",""
"resize","5","133236","0.0-4.0","LF","yc8mkz3uaa","1920","1080","0","1","0","5eaeb8b513f83a57d35db285","","","","","","","436","2.768253968253968","","","","","","","",""
"html-keyboard-response","6","134237","0.0-5.0-0.0","LF","yc8mkz3uaa","1920","1080","0","1","0","5eaeb8b513f83a57d35db285","","null","","","learningBlock1","","","","This is a tob:","null","","","","","",""
"image-keyboard-response","7","134565","0.0-5.0-1.0","LF","yc8mkz3uaa","1920","1080","0","1","0","5eaeb8b513f83a57d35db285","","null","","","","","","","learning/Slide1.JPG","null","","","","","",""
"html-keyboard-response","8","135572","0.0-5.0-2.0","LF","yc8mkz3uaa","1920","1080","0","1","0","5eaeb8b513f83a57d35db285","","null","","","learningBlock1","","","","<div style=""font-size:60px;""> </div>","null","LF","learning/Slide1.JPG","This is a tob:","","",""
"html-keyboard-response","9","136578","0.0-5.0-0.1","LF","yc8mkz3uaa","1920","1080","0","1","0","5eaeb8b513f83a57d35db285","","null","","","learningBlock1","","","","This is a wug:","null","","","","","",""
"image-keyboard-response","10","136920","0.0-5.0-1.1","LF","yc8mkz3uaa","1920","1080","0","1","0","5eaeb8b513f83a57d35db285","","null","","","","","","","learning/Slide2.JPG","null","","","","","",""
"html-keyboard-response","11","137925","0.0-5.0-2.1","LF","yc8mkz3uaa","1920","1080","0","1","0","5eaeb8b513f83a57d35db285","","null","","","learningBlock1","","","","<div style=""font-size:60px;""> </div>","null","LF","learning/Slide2.JPG","This is a wug:","","",""
"html-keyboard-response","12","138933","0.0-5.0-0.2","LF","yc8mkz3uaa","1920","1080","0","1","0","5eaeb8b513f83a57d35db285","","null","","","learningBlock1","","","","This is a bim:","null","","","","","",""
"image-keyboard-response","13","139276","0.0-5.0-1.2","LF","yc8mkz3uaa","1920","1080","0","1","0","5eaeb8b513f83a57d35db285","","null","","","","","","","learning/Slide3.JPG","null","","","","","",""
"html-keyboard-response","14","140283","0.0-5.0-2.2","LF","yc8mkz3uaa","1920","1080","0","1","0","5eaeb8b513f83a57d35db285","","null","","","learningBlock1","","","","<div style=""font-size:60px;""> </div>","null","LF","learning/Slide3.JPG","This is a bim:","","",""
"html-keyboard-response","15","141291","0.0-5.0-0.3","LF","yc8mkz3uaa","1920","1080","0","1","0","5eaeb8b513f83a57d35db285","","null","","","learningBlock1","","","","This is a dep:","null","","","","","",""
"image-keyboard-response","16","141623","0.0-5.0-1.3","LF","yc8mkz3uaa","1920","1080","0","1","0","5eaeb8b513f83a57d35db285","","null","","","","","","","learning/Slide4.JPG","null","","","","","",""
"html-keyboard-response","17","142638","0.0-5.0-2.3","LF","yc8mkz3uaa","1920","1080","0","1","0","5eaeb8b513f83a57d35db285","","null","","","learningBlock1","","","","<div style=""font-size:60px;""> </div>","null","LF","learning/Slide4.JPG","This is a dep:","","",""
"html-keyboard-response","18","143647","0.0-5.0-0.4","LF","yc8mkz3uaa","1920","1080","0","1","0","5eaeb8b513f83a57d35db285","","null","","","learningBlock1","","","","This is a wug:","null","","","","","",""
"image-keyboard-response","19","143987","0.0-5.0-1.4","LF","yc8mkz3uaa","1920","1080","0","1","0","5eaeb8b513f83a57d35db285","","null","","","","","","","learning/Slide5.JPG","null","","","","","",""
"html-keyboard-response","20","144997","0.0-5.0-2.4","LF","yc8mkz3uaa","1920","1080","0","1","0","5eaeb8b513f83a57d35db285","","null","","","learningBlock1","","","","<div style=""font-size:60px;""> </div>","null","LF","learning/Slide5.JPG","This is a wug:","","",""
"html-keyboard-response","21","146007","0.0-5.0-0.5","LF","yc8mkz3uaa","1920","1080","0","1","0","5eaeb8b513f83a57d35db285","","null","","","learningBlock1","","","","This is a dep:","null","","","","","",""
"image-keyboard-response","22","146348","0.0-5.0-1.5","LF","yc8mkz3uaa","1920","1080","0","1","0","5eaeb8b513f83a57d35db285","","null","","","","","","","learning/Slide6.JPG","null","","","","","",""
"html-keyboard-response","23","147352","0.0-5.0-2.5","LF","yc8mkz3uaa","1920","1080","0","1","0","5eaeb8b513f83a57d35db285","","null","","","learningBlock1","","","","<div style=""font-size:60px;""> </div>","null","LF","learning/Slide6.JPG","This is a dep:","","",""
"html-keyboard-response","24","148360","0.0-5.0-0.6","LF","yc8mkz3uaa","1920","1080","0","1","0","5eaeb8b513f83a57d35db285","","null","","","learningBlock1","","","","This is a wug:","null","","","","","",""
"image-keyboard-response","25","148700","0.0-5.0-1.6","LF","yc8mkz3uaa","1920","1080","0","1","0","5eaeb8b513f83a57d35db285","","null","","","","","","","learning/Slide7.JPG","null","","","","","",""
"html-keyboard-response","26","149704","0.0-5.0-2.6","LF","yc8mkz3uaa","1920","1080","0","1","0","5eaeb8b513f83a57d35db285","","null","","","learningBlock1","","","","<div style=""font-size:60px;""> </div>","null","LF","learning/Slide7.JPG","This is a wug:","","",""
"html-keyboard-response","27","150714","0.0-5.0-0.7","LF","yc8mkz3uaa","1920","1080","0","1","0","5eaeb8b513f83a57d35db285","","null","","","learningBlock1","","","","This is a bim:","null","","","","","",""
"image-keyboard-response","28","151056","0.0-5.0-1.7","LF","yc8mkz3uaa","1920","1080","0","1","0","5eaeb8b513f83a57d35db285","","null","","","","","","","learning/Slide8.JPG","null","","","","","",""
"html-keyboard-response","29","152065","0.0-5.0-2.7","LF","yc8mkz3uaa","1920","1080","0","1","0","5eaeb8b513f83a57d35db285","","null","","","learningBlock1","","","","<div style=""font-size:60px;""> </div>","null","LF","learning/Slide8.JPG","This is a bim:","","",""
"html-keyboard-response","30","153073","0.0-5.0-0.8","LF","yc8mkz3uaa","1920","1080","0","1","0","5eaeb8b513f83a57d35db285","","null","","","learningBlock1","","","","This is a wug:","null","","","","","",""
"image-keyboard-response","31","153414","0.0-5.0-1.8","LF","yc8mkz3uaa","1920","1080","0","1","0","5eaeb8b513f83a57d35db285","","null","","","","","","","learning/Slide9.JPG","null","","","","","",""
"html-keyboard-response","32","154420","0.0-5.0-2.8","LF","yc8mkz3uaa","1920","1080","0","1","0","5eaeb8b513f83a57d35db285","","null","","","learningBlock1","","","","<div style=""font-size:60px;""> </div>","null","LF","learning/Slide9.JPG","This is a wug:","","",""
"html-keyboard-response","33","155433","0.0-5.0-0.9","LF","yc8mkz3uaa","1920","1080","0","1","0","5eaeb8b513f83a57d35db285","","null","","","learningBlock1","","","","This is a dep:","null","","","","","",""
"image-keyboard-response","34","155759","0.0-5.0-1.9","LF","yc8mkz3uaa","1920","1080","0","1","0","5eaeb8b513f83a57d35db285","","null","","","","","","","learning/Slide10.JPG","null","","","","","",""
"html-keyboard-response","35","156767","0.0-5.0-2.9","LF","yc8mkz3uaa","1920","1080","0","1","0","5eaeb8b513f83a57d35db285","","null","","","learningBlock1","","","","<div style=""font-size:60px;""> </div>","null","LF","learning/Slide10.JPG","This is a dep:","","",""
"html-keyboard-response","36","157774","0.0-5.0-0.10","LF","yc8mkz3uaa","1920","1080","0","1","0","5eaeb8b513f83a57d35db285","","null","","","learningBlock1","","","","This is a tob:","null","","","","","",""
"image-keyboard-response","37","158115","0.0-5.0-1.10","LF","yc8mkz3uaa","1920","1080","0","1","0","5eaeb8b513f83a57d35db285","","null","","","","","","","learning/Slide11.JPG","null","","","","","",""
"html-keyboard-response","38","159125","0.0-5.0-2.10","LF","yc8mkz3uaa","1920","1080","0","1","0","5eaeb8b513f83a57d35db285","","null","","","learningBlock1","","","","<div style=""font-size:60px;""> </div>","null","LF","learning/Slide11.JPG","This is a tob:","","",""
"html-keyboard-response","39","160133","0.0-5.0-0.11","LF","yc8mkz3uaa","1920","1080","0","1","0","5eaeb8b513f83a57d35db285","","null","","","learningBlock1","","","","This is a dep:","null","","","","","",""
"image-keyboard-response","40","160475","0.0-5.0-1.11","LF","yc8mkz3uaa","1920","1080","0","1","0","5eaeb8b513f83a57d35db285","","null","","","","","","","learning/Slide12.JPG","null","","","","","",""
"html-keyboard-response","41","161480","0.0-5.0-2.11","LF","yc8mkz3uaa","1920","1080","0","1","0","5eaeb8b513f83a57d35db285","","null","","","learningBlock1","","","","<div style=""font-size:60px;""> </div>","null","LF","learning/Slide12.JPG","This is a dep:","","",""
"html-keyboard-response","42","162495","0.0-5.0-0.12","LF","yc8mkz3uaa","1920","1080","0","1","0","5eaeb8b513f83a57d35db285","","null","","","learningBlock1","","","","This is a bim:","null","","","","","",""
"image-keyboard-response","43","162826","0.0-5.0-1.12","LF","yc8mkz3uaa","1920","1080","0","1","0","5eaeb8b513f83a57d35db285","","null","","","","","","","learning/Slide13.JPG","null","","","","","",""
"html-keyboard-response","44","163830","0.0-5.0-2.12","LF","yc8mkz3uaa","1920","1080","0","1","0","5eaeb8b513f83a57d35db285","","null","","","learningBlock1","","","","<div style=""font-size:60px;""> </div>","null","LF","learning/Slide13.JPG","This is a bim:","","",""
"html-keyboard-response","45","164839","0.0-5.0-0.13","LF","yc8mkz3uaa","1920","1080","0","1","0","5eaeb8b513f83a57d35db285","","null","","","learningBlock1","","","","This is a wug:","null","","","","","",""
"image-keyboard-response","46","165178","0.0-5.0-1.13","LF","yc8mkz3uaa","1920","1080","0","1","0","5eaeb8b513f83a57d35db285","","null","","","","","","","learning/Slide14.JPG","null","","","","","",""
"html-keyboard-response","47","166187","0.0-5.0-2.13","LF","yc8mkz3uaa","1920","1080","0","1","0","5eaeb8b513f83a57d35db285","","null","","","learningBlock1","","","","<div style=""font-size:60px;""> </div>","null","LF","learning/Slide14.JPG","This is a wug:","","",""
"html-keyboard-response","48","167198","0.0-5.0-0.14","LF","yc8mkz3uaa","1920","1080","0","1","0","5eaeb8b513f83a57d35db285","","null","","","learningBlock1","","","","This is a tob:","null","","","","","",""
"image-keyboard-response","49","167524","0.0-5.0-1.14","LF","yc8mkz3uaa","1920","1080","0","1","0","5eaeb8b513f83a57d35db285","","null","","","","","","","learning/Slide15.JPG","null","","","","","",""
"html-keyboard-response","50","168530","0.0-5.0-2.14","LF","yc8mkz3uaa","1920","1080","0","1","0","5eaeb8b513f83a57d35db285","","null","","","learningBlock1","","","","<div style=""font-size:60px;""> </div>","null","LF","learning/Slide15.JPG","This is a tob:","","",""
"html-keyboard-response","51","169539","0.0-5.0-0.15","LF","yc8mkz3uaa","1920","1080","0","1","0","5eaeb8b513f83a57d35db285","","null","","","learningBlock1","","","","This is a dep:","null","","","","","",""
"image-keyboard-response","52","169880","0.0-5.0-1.15","LF","yc8mkz3uaa","1920","1080","0","1","0","5eaeb8b513f83a57d35db285","","null","","","","","","","learning/Slide16.JPG","null","","","","","",""
"html-keyboard-response","53","170887","0.0-5.0-2.15","LF","yc8mkz3uaa","1920","1080","0","1","0","5eaeb8b513f83a57d35db285","","null","","","learningBlock1","","","","<div style=""font-size:60px;""> </div>","null","LF","learning/Slide16.JPG","This is a dep:","","",""
"html-keyboard-response","54","171898","0.0-5.0-0.16","LF","yc8mkz3uaa","1920","1080","0","1","0","5eaeb8b513f83a57d35db285","","null","","","learningBlock1","","","","This is a bim:","null","","","","","",""
"image-keyboard-response","55","172225","0.0-5.0-1.16","LF","yc8mkz3uaa","1920","1080","0","1","0","5eaeb8b513f83a57d35db285","","null","","","","","","","learning/Slide17.JPG","null","","","","","",""
"html-keyboard-response","56","173229","0.0-5.0-2.16","LF","yc8mkz3uaa","1920","1080","0","1","0","5eaeb8b513f83a57d35db285","","null","","","learningBlock1","","","","<div style=""font-size:60px;""> </div>","null","LF","learning/Slide17.JPG","This is a bim:","","",""
"html-keyboard-response","57","174235","0.0-5.0-0.17","LF","yc8mkz3uaa","1920","1080","0","1","0","5eaeb8b513f83a57d35db285","","null","","","learningBlock1","","","","This is a tob:","null","","","","","",""
"image-keyboard-response","58","174578","0.0-5.0-1.17","LF","yc8mkz3uaa","1920","1080","0","1","0","5eaeb8b513f83a57d35db285","","null","","","","","","","learning/Slide18.JPG","null","","","","","",""
"html-keyboard-response","59","175585","0.0-5.0-2.17","LF","yc8mkz3uaa","1920","1080","0","1","0","5eaeb8b513f83a57d35db285","","null","","","learningBlock1","","","","<div style=""font-size:60px;""> </div>","null","LF","learning/Slide18.JPG","This is a tob:","","",""
"html-keyboard-response","60","176591","0.0-5.0-0.18","LF","yc8mkz3uaa","1920","1080","0","1","0","5eaeb8b513f83a57d35db285","","null","","","learningBlock1","","","","This is a wug:","null","","","","","",""
"image-keyboard-response","61","176918","0.0-5.0-1.18","LF","yc8mkz3uaa","1920","1080","0","1","0","5eaeb8b513f83a57d35db285","","null","","","","","","","learning/Slide19.JPG","null","","","","","",""
"html-keyboard-response","62","177928","0.0-5.0-2.18","LF","yc8mkz3uaa","1920","1080","0","1","0","5eaeb8b513f83a57d35db285","","null","","","learningBlock1","","","","<div style=""font-size:60px;""> </div>","null","LF","learning/Slide19.JPG","This is a wug:","","",""
"html-keyboard-response","63","178934","0.0-5.0-0.19","LF","yc8mkz3uaa","1920","1080","0","1","0","5eaeb8b513f83a57d35db285","","null","","","learningBlock1","","","","This is a bim:","null","","","","","",""
"image-keyboard-response","64","179261","0.0-5.0-1.19","LF","yc8mkz3uaa","1920","1080","0","1","0","5eaeb8b513f83a57d35db285","","null","","","","","","","learning/Slide20.JPG","null","","","","","",""
"html-keyboard-response","65","180265","0.0-5.0-2.19","LF","yc8mkz3uaa","1920","1080","0","1","0","5eaeb8b513f83a57d35db285","","null","","","learningBlock1","","","","<div style=""font-size:60px;""> </div>","null","LF","learning/Slide20.JPG","This is a bim:","","",""
"html-keyboard-response","66","181273","0.0-5.0-0.20","LF","yc8mkz3uaa","1920","1080","0","1","0","5eaeb8b513f83a57d35db285","","null","","","learningBlock1","","","","This is a dep:","null","","","","","",""
"image-keyboard-response","67","181616","0.0-5.0-1.20","LF","yc8mkz3uaa","1920","1080","0","1","0","5eaeb8b513f83a57d35db285","","null","","","","","","","learning/Slide21.JPG","null","","","","","",""
"html-keyboard-response","68","182622","0.0-5.0-2.20","LF","yc8mkz3uaa","1920","1080","0","1","0","5eaeb8b513f83a57d35db285","","null","","","learningBlock1","","","","<div style=""font-size:60px;""> </div>","null","LF","learning/Slide21.JPG","This is a dep:","","",""
"html-keyboard-response","69","183634","0.0-5.0-0.21","LF","yc8mkz3uaa","1920","1080","0","1","0","5eaeb8b513f83a57d35db285","","null","","","learningBlock1","","","","This is a bim:","null","","","","","",""
"image-keyboard-response","70","183976","0.0-5.0-1.21","LF","yc8mkz3uaa","1920","1080","0","1","0","5eaeb8b513f83a57d35db285","","null","","","","","","","learning/Slide22.JPG","null","","","","","",""
"html-keyboard-response","71","184983","0.0-5.0-2.21","LF","yc8mkz3uaa","1920","1080","0","1","0","5eaeb8b513f83a57d35db285","","null","","","learningBlock1","","","","<div style=""font-size:60px;""> </div>","null","LF","learning/Slide22.JPG","This is a bim:","","",""
"html-keyboard-response","72","185992","0.0-5.0-0.22","LF","yc8mkz3uaa","1920","1080","0","1","0","5eaeb8b513f83a57d35db285","","null","","","learningBlock1","","","","This is a tob:","null","","","","","",""
"image-keyboard-response","73","186332","0.0-5.0-1.22","LF","yc8mkz3uaa","1920","1080","0","1","0","5eaeb8b513f83a57d35db285","","null","","","","","","","learning/Slide23.JPG","null","","","","","",""
"html-keyboard-response","74","187348","0.0-5.0-2.22","LF","yc8mkz3uaa","1920","1080","0","1","0","5eaeb8b513f83a57d35db285","","null","","","learningBlock1","","","","<div style=""font-size:60px;""> </div>","null","LF","learning/Slide23.JPG","This is a tob:","","",""
"html-keyboard-response","75","188352","0.0-5.0-0.23","LF","yc8mkz3uaa","1920","1080","0","1","0","5eaeb8b513f83a57d35db285","","null","","","learningBlock1","","","","This is a wug:","null","","","","","",""
"image-keyboard-response","76","188694","0.0-5.0-1.23","LF","yc8mkz3uaa","1920","1080","0","1","0","5eaeb8b513f83a57d35db285","","null","","","","","","","learning/Slide24.JPG","null","","","","","",""
"html-keyboard-response","77","189699","0.0-5.0-2.23","LF","yc8mkz3uaa","1920","1080","0","1","0","5eaeb8b513f83a57d35db285","","null","","","learningBlock1","","","","<div style=""font-size:60px;""> </div>","null","LF","learning/Slide24.JPG","This is a wug:","","",""
"html-keyboard-response","78","190706","0.0-5.0-0.24","LF","yc8mkz3uaa","1920","1080","0","1","0","5eaeb8b513f83a57d35db285","","null","","","learningBlock1","","","","This is a dep:","null","","","","","",""
"image-keyboard-response","79","191049","0.0-5.0-1.24","LF","yc8mkz3uaa","1920","1080","0","1","0","5eaeb8b513f83a57d35db285","","null","","","","","","","learning/Slide25.JPG","null","","","","","",""
"html-keyboard-response","80","192056","0.0-5.0-2.24","LF","yc8mkz3uaa","1920","1080","0","1","0","5eaeb8b513f83a57d35db285","","null","","","learningBlock1","","","","<div style=""font-size:60px;""> </div>","null","LF","learning/Slide25.JPG","This is a dep:","","",""
"html-keyboard-response","81","193065","0.0-5.0-0.25","LF","yc8mkz3uaa","1920","1080","0","1","0","5eaeb8b513f83a57d35db285","","null","","","learningBlock1","","","","This is a wug:","null","","","","","",""
"image-keyboard-response","82","193391","0.0-5.0-1.25","LF","yc8mkz3uaa","1920","1080","0","1","0","5eaeb8b513f83a57d35db285","","null","","","","","","","learning/Slide26.JPG","null","","","","","",""
"html-keyboard-response","83","194399","0.0-5.0-2.25","LF","yc8mkz3uaa","1920","1080","0","1","0","5eaeb8b513f83a57d35db285","","null","","","learningBlock1","","","","<div style=""font-size:60px;""> </div>","null","LF","learning/Slide26.JPG","This is a wug:","","",""
"html-keyboard-response","84","195406","0.0-5.0-0.26","LF","yc8mkz3uaa","1920","1080","0","1","0","5eaeb8b513f83a57d35db285","","null","","","learningBlock1","","","","This is a bim:","null","","","","","",""
"image-keyboard-response","85","195745","0.0-5.0-1.26","LF","yc8mkz3uaa","1920","1080","0","1","0","5eaeb8b513f83a57d35db285","","null","","","","","","","learning/Slide27.JPG","null","","","","","",""
"html-keyboard-response","86","196753","0.0-5.0-2.26","LF","yc8mkz3uaa","1920","1080","0","1","0","5eaeb8b513f83a57d35db285","","null","","","learningBlock1","","","","<div style=""font-size:60px;""> </div>","null","LF","learning/Slide27.JPG","This is a bim:","","",""
"html-keyboard-response","87","197764","0.0-5.0-0.27","LF","yc8mkz3uaa","1920","1080","0","1","0","5eaeb8b513f83a57d35db285","","null","","","learningBlock1","","","","This is a dep:","null","","","","","",""
"image-keyboard-response","88","198095","0.0-5.0-1.27","LF","yc8mkz3uaa","1920","1080","0","1","0","5eaeb8b513f83a57d35db285","","null","","","","","","","learning/Slide28.JPG","null","","","","","",""
"html-keyboard-response","89","199103","0.0-5.0-2.27","LF","yc8mkz3uaa","1920","1080","0","1","0","5eaeb8b513f83a57d35db285","","null","","","learningBlock1","","","","<div style=""font-size:60px;""> </div>","null","LF","learning/Slide28.JPG","This is a dep:","","",""
"html-keyboard-response","90","200109","0.0-5.0-0.28","LF","yc8mkz3uaa","1920","1080","0","1","0","5eaeb8b513f83a57d35db285","","null","","","learningBlock1","","","","This is a tob:","null","","","","","",""
"image-keyboard-response","91","200436","0.0-5.0-1.28","LF","yc8mkz3uaa","1920","1080","0","1","0","5eaeb8b513f83a57d35db285","","null","","","","","","","learning/Slide29.JPG","null","","","","","",""
"html-keyboard-response","92","201445","0.0-5.0-2.28","LF","yc8mkz3uaa","1920","1080","0","1","0","5eaeb8b513f83a57d35db285","","null","","","learningBlock1","","","","<div style=""font-size:60px;""> </div>","null","LF","learning/Slide29.JPG","This is a tob:","","",""
"html-keyboard-response","93","202452","0.0-5.0-0.29","LF","yc8mkz3uaa","1920","1080","0","1","0","5eaeb8b513f83a57d35db285","","null","","","learningBlock1","","","","This is a dep:","null","","","","","",""
"image-keyboard-response","94","202791","0.0-5.0-1.29","LF","yc8mkz3uaa","1920","1080","0","1","0","5eaeb8b513f83a57d35db285","","null","","","","","","","learning/Slide30.JPG","null","","","","","",""
"html-keyboard-response","95","203801","0.0-5.0-2.29","LF","yc8mkz3uaa","1920","1080","0","1","0","5eaeb8b513f83a57d35db285","","null","","","learningBlock1","","","","<div style=""font-size:60px;""> </div>","null","LF","learning/Slide30.JPG","This is a dep:","","",""
"html-keyboard-response","96","204808","0.0-5.0-0.30","LF","yc8mkz3uaa","1920","1080","0","1","0","5eaeb8b513f83a57d35db285","","null","","","learningBlock1","","","","This is a wug:","null","","","","","",""
"image-keyboard-response","97","205139","0.0-5.0-1.30","LF","yc8mkz3uaa","1920","1080","0","1","0","5eaeb8b513f83a57d35db285","","null","","","","","","","learning/Slide31.JPG","null","","","","","",""
"html-keyboard-response","98","206145","0.0-5.0-2.30","LF","yc8mkz3uaa","1920","1080","0","1","0","5eaeb8b513f83a57d35db285","","null","","","learningBlock1","","","","<div style=""font-size:60px;""> </div>","null","LF","learning/Slide31.JPG","This is a wug:","","",""
"html-keyboard-response","99","207153","0.0-5.0-0.31","LF","yc8mkz3uaa","1920","1080","0","1","0","5eaeb8b513f83a57d35db285","","null","","","learningBlock1","","","","This is a tob:","null","","","","","",""
"image-keyboard-response","100","207479","0.0-5.0-1.31","LF","yc8mkz3uaa","1920","1080","0","1","0","5eaeb8b513f83a57d35db285","","null","","","","","","","learning/Slide32.JPG","null","","","","","",""
"html-keyboard-response","101","208485","0.0-5.0-2.31","LF","yc8mkz3uaa","1920","1080","0","1","0","5eaeb8b513f83a57d35db285","","null","","","learningBlock1","","","","<div style=""font-size:60px;""> </div>","null","LF","learning/Slide32.JPG","This is a tob:","","",""
"html-keyboard-response","102","209496","0.0-5.0-0.32","LF","yc8mkz3uaa","1920","1080","0","1","0","5eaeb8b513f83a57d35db285","","null","","","learningBlock1","","","","This is a bim:","null","","","","","",""
"image-keyboard-response","103","209837","0.0-5.0-1.32","LF","yc8mkz3uaa","1920","1080","0","1","0","5eaeb8b513f83a57d35db285","","null","","","","","","","learning/Slide33.JPG","null","","","","","",""
"html-keyboard-response","104","210847","0.0-5.0-2.32","LF","yc8mkz3uaa","1920","1080","0","1","0","5eaeb8b513f83a57d35db285","","null","","","learningBlock1","","","","<div style=""font-size:60px;""> </div>","null","LF","learning/Slide33.JPG","This is a bim:","","",""
"html-keyboard-response","105","211855","0.0-5.0-0.33","LF","yc8mkz3uaa","1920","1080","0","1","0","5eaeb8b513f83a57d35db285","","null","","","learningBlock1","","","","This is a tob:","null","","","","","",""
"image-keyboard-response","106","212186","0.0-5.0-1.33","LF","yc8mkz3uaa","1920","1080","0","1","0","5eaeb8b513f83a57d35db285","","null","","","","","","","learning/Slide34.JPG","null","","","","","",""
"html-keyboard-response","107","213191","0.0-5.0-2.33","LF","yc8mkz3uaa","1920","1080","0","1","0","5eaeb8b513f83a57d35db285","","null","","","learningBlock1","","","","<div style=""font-size:60px;""> </div>","null","LF","learning/Slide34.JPG","This is a tob:","","",""
"html-keyboard-response","108","214200","0.0-5.0-0.34","LF","yc8mkz3uaa","1920","1080","0","1","0","5eaeb8b513f83a57d35db285","","null","","","learningBlock1","","","","This is a bim:","null","","","","","",""
"image-keyboard-response","109","214540","0.0-5.0-1.34","LF","yc8mkz3uaa","1920","1080","0","1","0","5eaeb8b513f83a57d35db285","","null","","","","","","","learning/Slide35.JPG","null","","","","","",""
"html-keyboard-response","110","215551","0.0-5.0-2.34","LF","yc8mkz3uaa","1920","1080","0","1","0","5eaeb8b513f83a57d35db285","","null","","","learningBlock1","","","","<div style=""font-size:60px;""> </div>","null","LF","learning/Slide35.JPG","This is a bim:","","",""
"html-keyboard-response","111","216557","0.0-5.0-0.35","LF","yc8mkz3uaa","1920","1080","0","1","0","5eaeb8b513f83a57d35db285","","null","","","learningBlock1","","","","This is a dep:","null","","","","","",""
"image-keyboard-response","112","216898","0.0-5.0-1.35","LF","yc8mkz3uaa","1920","1080","0","1","0","5eaeb8b513f83a57d35db285","","null","","","","","","","learning/Slide36.JPG","null","","","","","",""
"html-keyboard-response","113","217903","0.0-5.0-2.35","LF","yc8mkz3uaa","1920","1080","0","1","0","5eaeb8b513f83a57d35db285","","null","","","learningBlock1","","","","<div style=""font-size:60px;""> </div>","null","LF","learning/Slide36.JPG","This is a dep:","","",""
"html-keyboard-response","114","218918","0.0-5.0-0.36","LF","yc8mkz3uaa","1920","1080","0","1","0","5eaeb8b513f83a57d35db285","","null","","","learningBlock1","","","","This is a tob:","null","","","","","",""
"image-keyboard-response","115","219259","0.0-5.0-1.36","LF","yc8mkz3uaa","1920","1080","0","1","0","5eaeb8b513f83a57d35db285","","null","","","","","","","learning/Slide37.JPG","null","","","","","",""
"html-keyboard-response","116","220263","0.0-5.0-2.36","LF","yc8mkz3uaa","1920","1080","0","1","0","5eaeb8b513f83a57d35db285","","null","","","learningBlock1","","","","<div style=""font-size:60px;""> </div>","null","LF","learning/Slide37.JPG","This is a tob:","","",""
"html-keyboard-response","117","221272","0.0-5.0-0.37","LF","yc8mkz3uaa","1920","1080","0","1","0","5eaeb8b513f83a57d35db285","","null","","","learningBlock1","","","","This is a wug:","null","","","","","",""
"image-keyboard-response","118","221604","0.0-5.0-1.37","LF","yc8mkz3uaa","1920","1080","0","1","0","5eaeb8b513f83a57d35db285","","null","","","","","","","learning/Slide38.JPG","null","","","","","",""
"html-keyboard-response","119","222605","0.0-5.0-2.37","LF","yc8mkz3uaa","1920","1080","0","1","0","5eaeb8b513f83a57d35db285","","null","","","learningBlock1","","","","<div style=""font-size:60px;""> </div>","null","LF","learning/Slide38.JPG","This is a wug:","","",""
"html-keyboard-response","120","223613","0.0-5.0-0.38","LF","yc8mkz3uaa","1920","1080","0","1","0","5eaeb8b513f83a57d35db285","","null","","","learningBlock1","","","","This is a bim:","null","","","","","",""
"image-keyboard-response","121","223953","0.0-5.0-1.38","LF","yc8mkz3uaa","1920","1080","0","1","0","5eaeb8b513f83a57d35db285","","null","","","","","","","learning/Slide39.JPG","null","","","","","",""
"html-keyboard-response","122","224965","0.0-5.0-2.38","LF","yc8mkz3uaa","1920","1080","0","1","0","5eaeb8b513f83a57d35db285","","null","","","learningBlock1","","","","<div style=""font-size:60px;""> </div>","null","LF","learning/Slide39.JPG","This is a bim:","","",""
"html-keyboard-response","123","225976","0.0-5.0-0.39","LF","yc8mkz3uaa","1920","1080","0","1","0","5eaeb8b513f83a57d35db285","","null","","","learningBlock1","","","","This is a tob:","null","","","","","",""
"image-keyboard-response","124","226302","0.0-5.0-1.39","LF","yc8mkz3uaa","1920","1080","0","1","0","5eaeb8b513f83a57d35db285","","null","","","","","","","learning/Slide40.JPG","null","","","","","",""
"html-keyboard-response","125","227306","0.0-5.0-2.39","LF","yc8mkz3uaa","1920","1080","0","1","0","5eaeb8b513f83a57d35db285","","null","","","learningBlock1","","","","<div style=""font-size:60px;""> </div>","null","LF","learning/Slide40.JPG","This is a tob:","","",""
"html-keyboard-response","126","228312","0.0-5.0-0.40","LF","yc8mkz3uaa","1920","1080","0","1","0","5eaeb8b513f83a57d35db285","","null","","","learningBlock1","","","","This is a bim:","null","","","","","",""
"image-keyboard-response","127","228656","0.0-5.0-1.40","LF","yc8mkz3uaa","1920","1080","0","1","0","5eaeb8b513f83a57d35db285","","null","","","","","","","learning/Slide41.JPG","null","","","","","",""
"html-keyboard-response","128","229667","0.0-5.0-2.40","LF","yc8mkz3uaa","1920","1080","0","1","0","5eaeb8b513f83a57d35db285","","null","","","learningBlock1","","","","<div style=""font-size:60px;""> </div>","null","LF","learning/Slide41.JPG","This is a bim:","","",""
"html-keyboard-response","129","230675","0.0-5.0-0.41","LF","yc8mkz3uaa","1920","1080","0","1","0","5eaeb8b513f83a57d35db285","","null","","","learningBlock1","","","","This is a dep:","null","","","","","",""
"image-keyboard-response","130","231017","0.0-5.0-1.41","LF","yc8mkz3uaa","1920","1080","0","1","0","5eaeb8b513f83a57d35db285","","null","","","","","","","learning/Slide42.JPG","null","","","","","",""
"html-keyboard-response","131","232026","0.0-5.0-2.41","LF","yc8mkz3uaa","1920","1080","0","1","0","5eaeb8b513f83a57d35db285","","null","","","learningBlock1","","","","<div style=""font-size:60px;""> </div>","null","LF","learning/Slide42.JPG","This is a dep:","","",""
"html-keyboard-response","132","233029","0.0-5.0-0.42","LF","yc8mkz3uaa","1920","1080","0","1","0","5eaeb8b513f83a57d35db285","","null","","","learningBlock1","","","","This is a wug:","null","","","","","",""
"image-keyboard-response","133","233359","0.0-5.0-1.42","LF","yc8mkz3uaa","1920","1080","0","1","0","5eaeb8b513f83a57d35db285","","null","","","","","","","learning/Slide43.JPG","null","","","","","",""
"html-keyboard-response","134","234361","0.0-5.0-2.42","LF","yc8mkz3uaa","1920","1080","0","1","0","5eaeb8b513f83a57d35db285","","null","","","learningBlock1","","","","<div style=""font-size:60px;""> </div>","null","LF","learning/Slide43.JPG","This is a wug:","","",""
"html-keyboard-response","135","235372","0.0-5.0-0.43","LF","yc8mkz3uaa","1920","1080","0","1","0","5eaeb8b513f83a57d35db285","","null","","","learningBlock1","","","","This is a bim:","null","","","","","",""
"image-keyboard-response","136","235703","0.0-5.0-1.43","LF","yc8mkz3uaa","1920","1080","0","1","0","5eaeb8b513f83a57d35db285","","null","","","","","","","learning/Slide44.JPG","null","","","","","",""
"html-keyboard-response","137","236719","0.0-5.0-2.43","LF","yc8mkz3uaa","1920","1080","0","1","0","5eaeb8b513f83a57d35db285","","null","","","learningBlock1","","","","<div style=""font-size:60px;""> </div>","null","LF","learning/Slide44.JPG","This is a bim:","","",""
"html-keyboard-response","138","237723","0.0-5.0-0.44","LF","yc8mkz3uaa","1920","1080","0","1","0","5eaeb8b513f83a57d35db285","","null","","","learningBlock1","","","","This is a wug:","null","","","","","",""
"image-keyboard-response","139","238064","0.0-5.0-1.44","LF","yc8mkz3uaa","1920","1080","0","1","0","5eaeb8b513f83a57d35db285","","null","","","","","","","learning/Slide45.JPG","null","","","","","",""
"html-keyboard-response","140","239071","0.0-5.0-2.44","LF","yc8mkz3uaa","1920","1080","0","1","0","5eaeb8b513f83a57d35db285","","null","","","learningBlock1","","","","<div style=""font-size:60px;""> </div>","null","LF","learning/Slide45.JPG","This is a wug:","","",""
"html-keyboard-response","141","240079","0.0-5.0-0.45","LF","yc8mkz3uaa","1920","1080","0","1","0","5eaeb8b513f83a57d35db285","","null","","","learningBlock1","","","","This is a dep:","null","","","","","",""
"image-keyboard-response","142","240406","0.0-5.0-1.45","LF","yc8mkz3uaa","1920","1080","0","1","0","5eaeb8b513f83a57d35db285","","null","","","","","","","learning/Slide46.JPG","null","","","","","",""
"html-keyboard-response","143","241413","0.0-5.0-2.45","LF","yc8mkz3uaa","1920","1080","0","1","0","5eaeb8b513f83a57d35db285","","null","","","learningBlock1","","","","<div style=""font-size:60px;""> </div>","null","LF","learning/Slide46.JPG","This is a dep:","","",""
"html-keyboard-response","144","242420","0.0-5.0-0.46","LF","yc8mkz3uaa","1920","1080","0","1","0","5eaeb8b513f83a57d35db285","","null","","","learningBlock1","","","","This is a tob:","null","","","","","",""
"image-keyboard-response","145","242746","0.0-5.0-1.46","LF","yc8mkz3uaa","1920","1080","0","1","0","5eaeb8b513f83a57d35db285","","null","","","","","","","learning/Slide47.JPG","null","","","","","",""
"html-keyboard-response","146","243753","0.0-5.0-2.46","LF","yc8mkz3uaa","1920","1080","0","1","0","5eaeb8b513f83a57d35db285","","null","","","learningBlock1","","","","<div style=""font-size:60px;""> </div>","null","LF","learning/Slide47.JPG","This is a tob:","","",""
"html-keyboard-response","147","244761","0.0-5.0-0.47","LF","yc8mkz3uaa","1920","1080","0","1","0","5eaeb8b513f83a57d35db285","","null","","","learningBlock1","","","","This is a bim:","null","","","","","",""
"image-keyboard-response","148","245105","0.0-5.0-1.47","LF","yc8mkz3uaa","1920","1080","0","1","0","5eaeb8b513f83a57d35db285","","null","","","","","","","learning/Slide48.JPG","null","","","","","",""
"html-keyboard-response","149","246111","0.0-5.0-2.47","LF","yc8mkz3uaa","1920","1080","0","1","0","5eaeb8b513f83a57d35db285","","null","","","learningBlock1","","","","<div style=""font-size:60px;""> </div>","null","LF","learning/Slide48.JPG","This is a bim:","","",""
"html-keyboard-response","150","247123","0.0-5.0-0.48","LF","yc8mkz3uaa","1920","1080","0","1","0","5eaeb8b513f83a57d35db285","","null","","","learningBlock1","","","","This is a dep:","null","","","","","",""
"image-keyboard-response","151","247464","0.0-5.0-1.48","LF","yc8mkz3uaa","1920","1080","0","1","0","5eaeb8b513f83a57d35db285","","null","","","","","","","learning/Slide49.JPG","null","","","","","",""
"html-keyboard-response","152","248477","0.0-5.0-2.48","LF","yc8mkz3uaa","1920","1080","0","1","0","5eaeb8b513f83a57d35db285","","null","","","learningBlock1","","","","<div style=""font-size:60px;""> </div>","null","LF","learning/Slide49.JPG","This is a dep:","","",""
"html-keyboard-response","153","249488","0.0-5.0-0.49","LF","yc8mkz3uaa","1920","1080","0","1","0","5eaeb8b513f83a57d35db285","","null","","","learningBlock1","","","","This is a tob:","null","","","","","",""
"image-keyboard-response","154","249818","0.0-5.0-1.49","LF","yc8mkz3uaa","1920","1080","0","1","0","5eaeb8b513f83a57d35db285","","null","","","","","","","learning/Slide50.JPG","null","","","","","",""
"html-keyboard-response","155","250825","0.0-5.0-2.49","LF","yc8mkz3uaa","1920","1080","0","1","0","5eaeb8b513f83a57d35db285","","null","","","learningBlock1","","","","<div style=""font-size:60px;""> </div>","null","LF","learning/Slide50.JPG","This is a tob:","","",""
"html-keyboard-response","156","251837","0.0-5.0-0.50","LF","yc8mkz3uaa","1920","1080","0","1","0","5eaeb8b513f83a57d35db285","","null","","","learningBlock1","","","","This is a bim:","null","","","","","",""
"image-keyboard-response","157","252178","0.0-5.0-1.50","LF","yc8mkz3uaa","1920","1080","0","1","0","5eaeb8b513f83a57d35db285","","null","","","","","","","learning/Slide51.JPG","null","","","","","",""
"html-keyboard-response","158","253187","0.0-5.0-2.50","LF","yc8mkz3uaa","1920","1080","0","1","0","5eaeb8b513f83a57d35db285","","null","","","learningBlock1","","","","<div style=""font-size:60px;""> </div>","null","LF","learning/Slide51.JPG","This is a bim:","","",""
"html-keyboard-response","159","254197","0.0-5.0-0.51","LF","yc8mkz3uaa","1920","1080","0","1","0","5eaeb8b513f83a57d35db285","","null","","","learningBlock1","","","","This is a wug:","null","","","","","",""
"image-keyboard-response","160","254539","0.0-5.0-1.51","LF","yc8mkz3uaa","1920","1080","0","1","0","5eaeb8b513f83a57d35db285","","null","","","","","","","learning/Slide52.JPG","null","","","","","",""
"html-keyboard-response","161","255547","0.0-5.0-2.51","LF","yc8mkz3uaa","1920","1080","0","1","0","5eaeb8b513f83a57d35db285","","null","","","learningBlock1","","","","<div style=""font-size:60px;""> </div>","null","LF","learning/Slide52.JPG","This is a wug:","","",""
"html-keyboard-response","162","256558","0.0-5.0-0.52","LF","yc8mkz3uaa","1920","1080","0","1","0","5eaeb8b513f83a57d35db285","","null","","","learningBlock1","","","","This is a tob:","null","","","","","",""
"image-keyboard-response","163","256885","0.0-5.0-1.52","LF","yc8mkz3uaa","1920","1080","0","1","0","5eaeb8b513f83a57d35db285","","null","","","","","","","learning/Slide53.JPG","null","","","","","",""
"html-keyboard-response","164","257893","0.0-5.0-2.52","LF","yc8mkz3uaa","1920","1080","0","1","0","5eaeb8b513f83a57d35db285","","null","","","learningBlock1","","","","<div style=""font-size:60px;""> </div>","null","LF","learning/Slide53.JPG","This is a tob:","","",""
"html-keyboard-response","165","258900","0.0-5.0-0.53","LF","yc8mkz3uaa","1920","1080","0","1","0","5eaeb8b513f83a57d35db285","","null","","","learningBlock1","","","","This is a dep:","null","","","","","",""
"image-keyboard-response","166","259239","0.0-5.0-1.53","LF","yc8mkz3uaa","1920","1080","0","1","0","5eaeb8b513f83a57d35db285","","null","","","","","","","learning/Slide54.JPG","null","","","","","",""
"html-keyboard-response","167","260246","0.0-5.0-2.53","LF","yc8mkz3uaa","1920","1080","0","1","0","5eaeb8b513f83a57d35db285","","null","","","learningBlock1","","","","<div style=""font-size:60px;""> </div>","null","LF","learning/Slide54.JPG","This is a dep:","","",""
"html-keyboard-response","168","261250","0.0-5.0-0.54","LF","yc8mkz3uaa","1920","1080","0","1","0","5eaeb8b513f83a57d35db285","","null","","","learningBlock1","","","","This is a bim:","null","","","","","",""
"image-keyboard-response","169","261577","0.0-5.0-1.54","LF","yc8mkz3uaa","1920","1080","0","1","0","5eaeb8b513f83a57d35db285","","null","","","","","","","learning/Slide55.JPG","null","","","","","",""
"html-keyboard-response","170","262582","0.0-5.0-2.54","LF","yc8mkz3uaa","1920","1080","0","1","0","5eaeb8b513f83a57d35db285","","null","","","learningBlock1","","","","<div style=""font-size:60px;""> </div>","null","LF","learning/Slide55.JPG","This is a bim:","","",""
"html-keyboard-response","171","263589","0.0-5.0-0.55","LF","yc8mkz3uaa","1920","1080","0","1","0","5eaeb8b513f83a57d35db285","","null","","","learningBlock1","","","","This is a tob:","null","","","","","",""
"image-keyboard-response","172","263930","0.0-5.0-1.55","LF","yc8mkz3uaa","1920","1080","0","1","0","5eaeb8b513f83a57d35db285","","null","","","","","","","learning/Slide56.JPG","null","","","","","",""
"html-keyboard-response","173","264938","0.0-5.0-2.55","LF","yc8mkz3uaa","1920","1080","0","1","0","5eaeb8b513f83a57d35db285","","null","","","learningBlock1","","","","<div style=""font-size:60px;""> </div>","null","LF","learning/Slide56.JPG","This is a tob:","","",""
"html-keyboard-response","174","265947","0.0-5.0-0.56","LF","yc8mkz3uaa","1920","1080","0","1","0","5eaeb8b513f83a57d35db285","","null","","","learningBlock1","","","","This is a dep:","null","","","","","",""
"image-keyboard-response","175","266290","0.0-5.0-1.56","LF","yc8mkz3uaa","1920","1080","0","1","0","5eaeb8b513f83a57d35db285","","null","","","","","","","learning/Slide57.JPG","null","","","","","",""
"html-keyboard-response","176","267295","0.0-5.0-2.56","LF","yc8mkz3uaa","1920","1080","0","1","0","5eaeb8b513f83a57d35db285","","null","","","learningBlock1","","","","<div style=""font-size:60px;""> </div>","null","LF","learning/Slide57.JPG","This is a dep:","","",""
"html-keyboard-response","177","268308","0.0-5.0-0.57","LF","yc8mkz3uaa","1920","1080","0","1","0","5eaeb8b513f83a57d35db285","","null","","","learningBlock1","","","","This is a wug:","null","","","","","",""
"image-keyboard-response","178","268648","0.0-5.0-1.57","LF","yc8mkz3uaa","1920","1080","0","1","0","5eaeb8b513f83a57d35db285","","null","","","","","","","learning/Slide58.JPG","null","","","","","",""
"html-keyboard-response","179","269653","0.0-5.0-2.57","LF","yc8mkz3uaa","1920","1080","0","1","0","5eaeb8b513f83a57d35db285","","null","","","learningBlock1","","","","<div style=""font-size:60px;""> </div>","null","LF","learning/Slide58.JPG","This is a wug:","","",""
"html-keyboard-response","180","270661","0.0-5.0-0.58","LF","yc8mkz3uaa","1920","1080","0","1","0","5eaeb8b513f83a57d35db285","","null","","","learningBlock1","","","","This is a dep:","null","","","","","",""
"image-keyboard-response","181","271002","0.0-5.0-1.58","LF","yc8mkz3uaa","1920","1080","0","1","0","5eaeb8b513f83a57d35db285","","null","","","","","","","learning/Slide59.JPG","null","","","","","",""
"html-keyboard-response","182","272011","0.0-5.0-2.58","LF","yc8mkz3uaa","1920","1080","0","1","0","5eaeb8b513f83a57d35db285","","null","","","learningBlock1","","","","<div style=""font-size:60px;""> </div>","null","LF","learning/Slide59.JPG","This is a dep:","","",""
"html-keyboard-response","183","273016","0.0-5.0-0.59","LF","yc8mkz3uaa","1920","1080","0","1","0","5eaeb8b513f83a57d35db285","","null","","","learningBlock1","","","","This is a wug:","null","","","","","",""
"image-keyboard-response","184","273345","0.0-5.0-1.59","LF","yc8mkz3uaa","1920","1080","0","1","0","5eaeb8b513f83a57d35db285","","null","","","","","","","learning/Slide60.JPG","null","","","","","",""
"html-keyboard-response","185","274354","0.0-5.0-2.59","LF","yc8mkz3uaa","1920","1080","0","1","0","5eaeb8b513f83a57d35db285","","null","","","learningBlock1","","","","<div style=""font-size:60px;""> </div>","null","LF","learning/Slide60.JPG","This is a wug:","","",""
"html-keyboard-response","186","275359","0.0-5.0-0.60","LF","yc8mkz3uaa","1920","1080","0","1","0","5eaeb8b513f83a57d35db285","","null","","","learningBlock1","","","","This is a bim:","null","","","","","",""
"image-keyboard-response","187","275701","0.0-5.0-1.60","LF","yc8mkz3uaa","1920","1080","0","1","0","5eaeb8b513f83a57d35db285","","null","","","","","","","learning/Slide61.JPG","null","","","","","",""
"html-keyboard-response","188","276713","0.0-5.0-2.60","LF","yc8mkz3uaa","1920","1080","0","1","0","5eaeb8b513f83a57d35db285","","null","","","learningBlock1","","","","<div style=""font-size:60px;""> </div>","null","LF","learning/Slide61.JPG","This is a bim:","","",""
"html-keyboard-response","189","277726","0.0-5.0-0.61","LF","yc8mkz3uaa","1920","1080","0","1","0","5eaeb8b513f83a57d35db285","","null","","","learningBlock1","","","","This is a dep:","null","","","","","",""
"image-keyboard-response","190","278069","0.0-5.0-1.61","LF","yc8mkz3uaa","1920","1080","0","1","0","5eaeb8b513f83a57d35db285","","null","","","","","","","learning/Slide62.JPG","null","","","","","",""
"html-keyboard-response","191","279076","0.0-5.0-2.61","LF","yc8mkz3uaa","1920","1080","0","1","0","5eaeb8b513f83a57d35db285","","null","","","learningBlock1","","","","<div style=""font-size:60px;""> </div>","null","LF","learning/Slide62.JPG","This is a dep:","","",""
"html-keyboard-response","192","280082","0.0-5.0-0.62","LF","yc8mkz3uaa","1920","1080","0","1","0","5eaeb8b513f83a57d35db285","","null","","","learningBlock1","","","","This is a bim:","null","","","","","",""
"image-keyboard-response","193","280423","0.0-5.0-1.62","LF","yc8mkz3uaa","1920","1080","0","1","0","5eaeb8b513f83a57d35db285","","null","","","","","","","learning/Slide63.JPG","null","","","","","",""
"html-keyboard-response","194","281433","0.0-5.0-2.62","LF","yc8mkz3uaa","1920","1080","0","1","0","5eaeb8b513f83a57d35db285","","null","","","learningBlock1","","","","<div style=""font-size:60px;""> </div>","null","LF","learning/Slide63.JPG","This is a bim:","","",""
"html-keyboard-response","195","282441","0.0-5.0-0.63","LF","yc8mkz3uaa","1920","1080","0","1","0","5eaeb8b513f83a57d35db285","","null","","","learningBlock1","","","","This is a tob:","null","","","","","",""
"image-keyboard-response","196","282769","0.0-5.0-1.63","LF","yc8mkz3uaa","1920","1080","0","1","0","5eaeb8b513f83a57d35db285","","null","","","","","","","learning/Slide64.JPG","null","","","","","",""
"html-keyboard-response","197","283776","0.0-5.0-2.63","LF","yc8mkz3uaa","1920","1080","0","1","0","5eaeb8b513f83a57d35db285","","null","","","learningBlock1","","","","<div style=""font-size:60px;""> </div>","null","LF","learning/Slide64.JPG","This is a tob:","","",""
"html-keyboard-response","198","284786","0.0-5.0-0.64","LF","yc8mkz3uaa","1920","1080","0","1","0","5eaeb8b513f83a57d35db285","","null","","","learningBlock1","","","","This is a wug:","null","","","","","",""
"image-keyboard-response","199","285116","0.0-5.0-1.64","LF","yc8mkz3uaa","1920","1080","0","1","0","5eaeb8b513f83a57d35db285","","null","","","","","","","learning/Slide65.JPG","null","","","","","",""
"html-keyboard-response","200","286121","0.0-5.0-2.64","LF","yc8mkz3uaa","1920","1080","0","1","0","5eaeb8b513f83a57d35db285","","null","","","learningBlock1","","","","<div style=""font-size:60px;""> </div>","null","LF","learning/Slide65.JPG","This is a wug:","","",""
"html-keyboard-response","201","287128","0.0-5.0-0.65","LF","yc8mkz3uaa","1920","1080","0","1","0","5eaeb8b513f83a57d35db285","","null","","","learningBlock1","","","","This is a dep:","null","","","","","",""
"image-keyboard-response","202","287469","0.0-5.0-1.65","LF","yc8mkz3uaa","1920","1080","0","1","0","5eaeb8b513f83a57d35db285","","null","","","","","","","learning/Slide66.JPG","null","","","","","",""
"html-keyboard-response","203","288478","0.0-5.0-2.65","LF","yc8mkz3uaa","1920","1080","0","1","0","5eaeb8b513f83a57d35db285","","null","","","learningBlock1","","","","<div style=""font-size:60px;""> </div>","null","LF","learning/Slide66.JPG","This is a dep:","","",""
"html-keyboard-response","204","289484","0.0-5.0-0.66","LF","yc8mkz3uaa","1920","1080","0","1","0","5eaeb8b513f83a57d35db285","","null","","","learningBlock1","","","","This is a tob:","null","","","","","",""
"image-keyboard-response","205","289826","0.0-5.0-1.66","LF","yc8mkz3uaa","1920","1080","0","1","0","5eaeb8b513f83a57d35db285","","null","","","","","","","learning/Slide67.JPG","null","","","","","",""
"html-keyboard-response","206","290834","0.0-5.0-2.66","LF","yc8mkz3uaa","1920","1080","0","1","0","5eaeb8b513f83a57d35db285","","null","","","learningBlock1","","","","<div style=""font-size:60px;""> </div>","null","LF","learning/Slide67.JPG","This is a tob:","","",""
"html-keyboard-response","207","291838","0.0-5.0-0.67","LF","yc8mkz3uaa","1920","1080","0","1","0","5eaeb8b513f83a57d35db285","","null","","","learningBlock1","","","","This is a wug:","null","","","","","",""
"image-keyboard-response","208","292169","0.0-5.0-1.67","LF","yc8mkz3uaa","1920","1080","0","1","0","5eaeb8b513f83a57d35db285","","null","","","","","","","learning/Slide68.JPG","null","","","","","",""
"html-keyboard-response","209","293173","0.0-5.0-2.67","LF","yc8mkz3uaa","1920","1080","0","1","0","5eaeb8b513f83a57d35db285","","null","","","learningBlock1","","","","<div style=""font-size:60px;""> </div>","null","LF","learning/Slide68.JPG","This is a wug:","","",""
"html-keyboard-response","210","294180","0.0-5.0-0.68","LF","yc8mkz3uaa","1920","1080","0","1","0","5eaeb8b513f83a57d35db285","","null","","","learningBlock1","","","","This is a tob:","null","","","","","",""
"image-keyboard-response","211","294522","0.0-5.0-1.68","LF","yc8mkz3uaa","1920","1080","0","1","0","5eaeb8b513f83a57d35db285","","null","","","","","","","learning/Slide69.JPG","null","","","","","",""
"html-keyboard-response","212","295529","0.0-5.0-2.68","LF","yc8mkz3uaa","1920","1080","0","1","0","5eaeb8b513f83a57d35db285","","null","","","learningBlock1","","","","<div style=""font-size:60px;""> </div>","null","LF","learning/Slide69.JPG","This is a tob:","","",""
"html-keyboard-response","213","296537","0.0-5.0-0.69","LF","yc8mkz3uaa","1920","1080","0","1","0","5eaeb8b513f83a57d35db285","","null","","","learningBlock1","","","","This is a dep:","null","","","","","",""
"image-keyboard-response","214","296869","0.0-5.0-1.69","LF","yc8mkz3uaa","1920","1080","0","1","0","5eaeb8b513f83a57d35db285","","null","","","","","","","learning/Slide70.JPG","null","","","","","",""
"html-keyboard-response","215","297871","0.0-5.0-2.69","LF","yc8mkz3uaa","1920","1080","0","1","0","5eaeb8b513f83a57d35db285","","null","","","learningBlock1","","","","<div style=""font-size:60px;""> </div>","null","LF","learning/Slide70.JPG","This is a dep:","","",""
"html-keyboard-response","216","298884","0.0-5.0-0.70","LF","yc8mkz3uaa","1920","1080","0","1","0","5eaeb8b513f83a57d35db285","","null","","","learningBlock1","","","","This is a wug:","null","","","","","",""
"image-keyboard-response","217","299212","0.0-5.0-1.70","LF","yc8mkz3uaa","1920","1080","0","1","0","5eaeb8b513f83a57d35db285","","null","","","","","","","learning/Slide71.JPG","null","","","","","",""
"html-keyboard-response","218","300215","0.0-5.0-2.70","LF","yc8mkz3uaa","1920","1080","0","1","0","5eaeb8b513f83a57d35db285","","null","","","learningBlock1","","","","<div style=""font-size:60px;""> </div>","null","LF","learning/Slide71.JPG","This is a wug:","","",""
"html-keyboard-response","219","301223","0.0-5.0-0.71","LF","yc8mkz3uaa","1920","1080","0","1","0","5eaeb8b513f83a57d35db285","","null","","","learningBlock1","","","","This is a bim:","null","","","","","",""
"image-keyboard-response","220","301563","0.0-5.0-1.71","LF","yc8mkz3uaa","1920","1080","0","1","0","5eaeb8b513f83a57d35db285","","null","","","","","","","learning/Slide72.JPG","null","","","","","",""
"html-keyboard-response","221","302571","0.0-5.0-2.71","LF","yc8mkz3uaa","1920","1080","0","1","0","5eaeb8b513f83a57d35db285","","null","","","learningBlock1","","","","<div style=""font-size:60px;""> </div>","null","LF","learning/Slide72.JPG","This is a bim:","","",""
"html-keyboard-response","222","303576","0.0-5.0-0.72","LF","yc8mkz3uaa","1920","1080","0","1","0","5eaeb8b513f83a57d35db285","","null","","","learningBlock1","","","","This is a wug:","null","","","","","",""
"image-keyboard-response","223","303903","0.0-5.0-1.72","LF","yc8mkz3uaa","1920","1080","0","1","0","5eaeb8b513f83a57d35db285","","null","","","","","","","learning/Slide73.JPG","null","","","","","",""
"html-keyboard-response","224","304914","0.0-5.0-2.72","LF","yc8mkz3uaa","1920","1080","0","1","0","5eaeb8b513f83a57d35db285","","null","","","learningBlock1","","","","<div style=""font-size:60px;""> </div>","null","LF","learning/Slide73.JPG","This is a wug:","","",""
"html-keyboard-response","225","305921","0.0-5.0-0.73","LF","yc8mkz3uaa","1920","1080","0","1","0","5eaeb8b513f83a57d35db285","","null","","","learningBlock1","","","","This is a dep:","null","","","","","",""
"image-keyboard-response","226","306248","0.0-5.0-1.73","LF","yc8mkz3uaa","1920","1080","0","1","0","5eaeb8b513f83a57d35db285","","null","","","","","","","learning/Slide74.JPG","null","","","","","",""
"html-keyboard-response","227","307257","0.0-5.0-2.73","LF","yc8mkz3uaa","1920","1080","0","1","0","5eaeb8b513f83a57d35db285","","null","","","learningBlock1","","","","<div style=""font-size:60px;""> </div>","null","LF","learning/Slide74.JPG","This is a dep:","","",""
"html-keyboard-response","228","308264","0.0-5.0-0.74","LF","yc8mkz3uaa","1920","1080","0","1","0","5eaeb8b513f83a57d35db285","","null","","","learningBlock1","","","","This is a tob:","null","","","","","",""
"image-keyboard-response","229","308604","0.0-5.0-1.74","LF","yc8mkz3uaa","1920","1080","0","1","0","5eaeb8b513f83a57d35db285","","null","","","","","","","learning/Slide75.JPG","null","","","","","",""
"html-keyboard-response","230","309618","0.0-5.0-2.74","LF","yc8mkz3uaa","1920","1080","0","1","0","5eaeb8b513f83a57d35db285","","null","","","learningBlock1","","","","<div style=""font-size:60px;""> </div>","null","LF","learning/Slide75.JPG","This is a tob:","","",""
"html-keyboard-response","231","310625","0.0-5.0-0.75","LF","yc8mkz3uaa","1920","1080","0","1","0","5eaeb8b513f83a57d35db285","","null","","","learningBlock1","","","","This is a bim:","null","","","","","",""
"image-keyboard-response","232","310966","0.0-5.0-1.75","LF","yc8mkz3uaa","1920","1080","0","1","0","5eaeb8b513f83a57d35db285","","null","","","","","","","learning/Slide76.JPG","null","","","","","",""
"html-keyboard-response","233","311974","0.0-5.0-2.75","LF","yc8mkz3uaa","1920","1080","0","1","0","5eaeb8b513f83a57d35db285","","null","","","learningBlock1","","","","<div style=""font-size:60px;""> </div>","null","LF","learning/Slide76.JPG","This is a bim:","","",""
"html-keyboard-response","234","312982","0.0-5.0-0.76","LF","yc8mkz3uaa","1920","1080","0","1","0","5eaeb8b513f83a57d35db285","","null","","","learningBlock1","","","","This is a tob:","null","","","","","",""
"image-keyboard-response","235","313309","0.0-5.0-1.76","LF","yc8mkz3uaa","1920","1080","0","1","0","5eaeb8b513f83a57d35db285","","null","","","","","","","learning/Slide77.JPG","null","","","","","",""
"html-keyboard-response","236","314313","0.0-5.0-2.76","LF","yc8mkz3uaa","1920","1080","0","1","0","5eaeb8b513f83a57d35db285","","null","","","learningBlock1","","","","<div style=""font-size:60px;""> </div>","null","LF","learning/Slide77.JPG","This is a tob:","","",""
"html-keyboard-response","237","315320","0.0-5.0-0.77","LF","yc8mkz3uaa","1920","1080","0","1","0","5eaeb8b513f83a57d35db285","","null","","","learningBlock1","","","","This is a wug:","null","","","","","",""
"image-keyboard-response","238","315661","0.0-5.0-1.77","LF","yc8mkz3uaa","1920","1080","0","1","0","5eaeb8b513f83a57d35db285","","null","","","","","","","learning/Slide78.JPG","null","","","","","",""
"html-keyboard-response","239","316669","0.0-5.0-2.77","LF","yc8mkz3uaa","1920","1080","0","1","0","5eaeb8b513f83a57d35db285","","null","","","learningBlock1","","","","<div style=""font-size:60px;""> </div>","null","LF","learning/Slide78.JPG","This is a wug:","","",""
"html-keyboard-response","240","317676","0.0-5.0-0.78","LF","yc8mkz3uaa","1920","1080","0","1","0","5eaeb8b513f83a57d35db285","","null","","","learningBlock1","","","","This is a bim:","null","","","","","",""
"image-keyboard-response","241","318016","0.0-5.0-1.78","LF","yc8mkz3uaa","1920","1080","0","1","0","5eaeb8b513f83a57d35db285","","null","","","","","","","learning/Slide79.JPG","null","","","","","",""
"html-keyboard-response","242","319027","0.0-5.0-2.78","LF","yc8mkz3uaa","1920","1080","0","1","0","5eaeb8b513f83a57d35db285","","null","","","learningBlock1","","","","<div style=""font-size:60px;""> </div>","null","LF","learning/Slide79.JPG","This is a bim:","","",""
"html-keyboard-response","243","320035","0.0-5.0-0.79","LF","yc8mkz3uaa","1920","1080","0","1","0","5eaeb8b513f83a57d35db285","","null","","","learningBlock1","","","","This is a tob:","null","","","","","",""
"image-keyboard-response","244","320362","0.0-5.0-1.79","LF","yc8mkz3uaa","1920","1080","0","1","0","5eaeb8b513f83a57d35db285","","null","","","","","","","learning/Slide80.JPG","null","","","","","",""
"html-keyboard-response","245","321370","0.0-5.0-2.79","LF","yc8mkz3uaa","1920","1080","0","1","0","5eaeb8b513f83a57d35db285","","null","","","learningBlock1","","","","<div style=""font-size:60px;""> </div>","null","LF","learning/Slide80.JPG","This is a tob:","","",""
"instructions","246","323720","0.0-6.0","LF","yc8mkz3uaa","1920","1080","0","1","0","5eaeb8b513f83a57d35db285","","NA","","[{""page_index"":0,""viewing_time"":2348.8699999870732}]","instructions","","","","","","","","","","",""
"html-keyboard-response","247","324723","0.0-7.0-0.0","LF","yc8mkz3uaa","1920","1080","0","1","0","5eaeb8b513f83a57d35db285","","null","","","learningBlock2","","","","This is a wug:","null","","","","","",""
"image-keyboard-response","248","325051","0.0-7.0-1.0","LF","yc8mkz3uaa","1920","1080","0","1","0","5eaeb8b513f83a57d35db285","","null","","","","","","","learning/Slide81.JPG","null","","","","","",""
"html-keyboard-response","249","326057","0.0-7.0-2.0","LF","yc8mkz3uaa","1920","1080","0","1","0","5eaeb8b513f83a57d35db285","","null","","","learningBlock2","","","","<div style=""font-size:60px;""> </div>","null","LF","learning/Slide81.JPG","This is a wug:","","",""
"html-keyboard-response","250","327062","0.0-7.0-0.1","LF","yc8mkz3uaa","1920","1080","0","1","0","5eaeb8b513f83a57d35db285","","null","","","learningBlock2","","","","This is a bim:","null","","","","","",""
"image-keyboard-response","251","327394","0.0-7.0-1.1","LF","yc8mkz3uaa","1920","1080","0","1","0","5eaeb8b513f83a57d35db285","","null","","","","","","","learning/Slide82.JPG","null","","","","","",""
"html-keyboard-response","252","328401","0.0-7.0-2.1","LF","yc8mkz3uaa","1920","1080","0","1","0","5eaeb8b513f83a57d35db285","","null","","","learningBlock2","","","","<div style=""font-size:60px;""> </div>","null","LF","learning/Slide82.JPG","This is a bim:","","",""
"html-keyboard-response","253","329407","0.0-7.0-0.2","LF","yc8mkz3uaa","1920","1080","0","1","0","5eaeb8b513f83a57d35db285","","null","","","learningBlock2","","","","This is a wug:","null","","","","","",""
"image-keyboard-response","254","329735","0.0-7.0-1.2","LF","yc8mkz3uaa","1920","1080","0","1","0","5eaeb8b513f83a57d35db285","","null","","","","","","","learning/Slide83.JPG","null","","","","","",""
"html-keyboard-response","255","330745","0.0-7.0-2.2","LF","yc8mkz3uaa","1920","1080","0","1","0","5eaeb8b513f83a57d35db285","","null","","","learningBlock2","","","","<div style=""font-size:60px;""> </div>","null","LF","learning/Slide83.JPG","This is a wug:","","",""
"html-keyboard-response","256","331755","0.0-7.0-0.3","LF","yc8mkz3uaa","1920","1080","0","1","0","5eaeb8b513f83a57d35db285","","null","","","learningBlock2","","","","This is a dep:","null","","","","","",""
"image-keyboard-response","257","332097","0.0-7.0-1.3","LF","yc8mkz3uaa","1920","1080","0","1","0","5eaeb8b513f83a57d35db285","","null","","","","","","","learning/Slide84.JPG","null","","","","","",""
"html-keyboard-response","258","333107","0.0-7.0-2.3","LF","yc8mkz3uaa","1920","1080","0","1","0","5eaeb8b513f83a57d35db285","","null","","","learningBlock2","","","","<div style=""font-size:60px;""> </div>","null","LF","learning/Slide84.JPG","This is a dep:","","",""
"html-keyboard-response","259","334120","0.0-7.0-0.4","LF","yc8mkz3uaa","1920","1080","0","1","0","5eaeb8b513f83a57d35db285","","null","","","learningBlock2","","","","This is a bim:","null","","","","","",""
"image-keyboard-response","260","334463","0.0-7.0-1.4","LF","yc8mkz3uaa","1920","1080","0","1","0","5eaeb8b513f83a57d35db285","","null","","","","","","","learning/Slide85.JPG","null","","","","","",""
"html-keyboard-response","261","335470","0.0-7.0-2.4","LF","yc8mkz3uaa","1920","1080","0","1","0","5eaeb8b513f83a57d35db285","","null","","","learningBlock2","","","","<div style=""font-size:60px;""> </div>","null","LF","learning/Slide85.JPG","This is a bim:","","",""
"html-keyboard-response","262","336480","0.0-7.0-0.5","LF","yc8mkz3uaa","1920","1080","0","1","0","5eaeb8b513f83a57d35db285","","null","","","learningBlock2","","","","This is a tob:","null","","","","","",""
"image-keyboard-response","263","336808","0.0-7.0-1.5","LF","yc8mkz3uaa","1920","1080","0","1","0","5eaeb8b513f83a57d35db285","","null","","","","","","","learning/Slide86.JPG","null","","","","","",""
"html-keyboard-response","264","337820","0.0-7.0-2.5","LF","yc8mkz3uaa","1920","1080","0","1","0","5eaeb8b513f83a57d35db285","","null","","","learningBlock2","","","","<div style=""font-size:60px;""> </div>","null","LF","learning/Slide86.JPG","This is a tob:","","",""
"html-keyboard-response","265","338823","0.0-7.0-0.6","LF","yc8mkz3uaa","1920","1080","0","1","0","5eaeb8b513f83a57d35db285","","null","","","learningBlock2","","","","This is a wug:","null","","","","","",""
"image-keyboard-response","266","339155","0.0-7.0-1.6","LF","yc8mkz3uaa","1920","1080","0","1","0","5eaeb8b513f83a57d35db285","","null","","","","","","","learning/Slide87.JPG","null","","","","","",""
"html-keyboard-response","267","340157","0.0-7.0-2.6","LF","yc8mkz3uaa","1920","1080","0","1","0","5eaeb8b513f83a57d35db285","","null","","","learningBlock2","","","","<div style=""font-size:60px;""> </div>","null","LF","learning/Slide87.JPG","This is a wug:","","",""
"html-keyboard-response","268","341167","0.0-7.0-0.7","LF","yc8mkz3uaa","1920","1080","0","1","0","5eaeb8b513f83a57d35db285","","null","","","learningBlock2","","","","This is a tob:","null","","","","","",""
"image-keyboard-response","269","341508","0.0-7.0-1.7","LF","yc8mkz3uaa","1920","1080","0","1","0","5eaeb8b513f83a57d35db285","","null","","","","","","","learning/Slide88.JPG","null","","","","","",""
"html-keyboard-response","270","342515","0.0-7.0-2.7","LF","yc8mkz3uaa","1920","1080","0","1","0","5eaeb8b513f83a57d35db285","","null","","","learningBlock2","","","","<div style=""font-size:60px;""> </div>","null","LF","learning/Slide88.JPG","This is a tob:","","",""
"html-keyboard-response","271","343526","0.0-7.0-0.8","LF","yc8mkz3uaa","1920","1080","0","1","0","5eaeb8b513f83a57d35db285","","null","","","learningBlock2","","","","This is a bim:","null","","","","","",""
"image-keyboard-response","272","343868","0.0-7.0-1.8","LF","yc8mkz3uaa","1920","1080","0","1","0","5eaeb8b513f83a57d35db285","","null","","","","","","","learning/Slide89.JPG","null","","","","","",""
"html-keyboard-response","273","344874","0.0-7.0-2.8","LF","yc8mkz3uaa","1920","1080","0","1","0","5eaeb8b513f83a57d35db285","","null","","","learningBlock2","","","","<div style=""font-size:60px;""> </div>","null","LF","learning/Slide89.JPG","This is a bim:","","",""
"html-keyboard-response","274","345883","0.0-7.0-0.9","LF","yc8mkz3uaa","1920","1080","0","1","0","5eaeb8b513f83a57d35db285","","null","","","learningBlock2","","","","This is a dep:","null","","","","","",""
"image-keyboard-response","275","346211","0.0-7.0-1.9","LF","yc8mkz3uaa","1920","1080","0","1","0","5eaeb8b513f83a57d35db285","","null","","","","","","","learning/Slide90.JPG","null","","","","","",""
"html-keyboard-response","276","347214","0.0-7.0-2.9","LF","yc8mkz3uaa","1920","1080","0","1","0","5eaeb8b513f83a57d35db285","","null","","","learningBlock2","","","","<div style=""font-size:60px;""> </div>","null","LF","learning/Slide90.JPG","This is a dep:","","",""
"html-keyboard-response","277","348217","0.0-7.0-0.10","LF","yc8mkz3uaa","1920","1080","0","1","0","5eaeb8b513f83a57d35db285","","null","","","learningBlock2","","","","This is a wug:","null","","","","","",""
"image-keyboard-response","278","348547","0.0-7.0-1.10","LF","yc8mkz3uaa","1920","1080","0","1","0","5eaeb8b513f83a57d35db285","","null","","","","","","","learning/Slide91.JPG","null","","","","","",""
"html-keyboard-response","279","349552","0.0-7.0-2.10","LF","yc8mkz3uaa","1920","1080","0","1","0","5eaeb8b513f83a57d35db285","","null","","","learningBlock2","","","","<div style=""font-size:60px;""> </div>","null","LF","learning/Slide91.JPG","This is a wug:","","",""
"html-keyboard-response","280","350559","0.0-7.0-0.11","LF","yc8mkz3uaa","1920","1080","0","1","0","5eaeb8b513f83a57d35db285","","null","","","learningBlock2","","","","This is a tob:","null","","","","","",""
"image-keyboard-response","281","350899","0.0-7.0-1.11","LF","yc8mkz3uaa","1920","1080","0","1","0","5eaeb8b513f83a57d35db285","","null","","","","","","","learning/Slide92.JPG","null","","","","","",""
"html-keyboard-response","282","351909","0.0-7.0-2.11","LF","yc8mkz3uaa","1920","1080","0","1","0","5eaeb8b513f83a57d35db285","","null","","","learningBlock2","","","","<div style=""font-size:60px;""> </div>","null","LF","learning/Slide92.JPG","This is a tob:","","",""
"html-keyboard-response","283","352917","0.0-7.0-0.12","LF","yc8mkz3uaa","1920","1080","0","1","0","5eaeb8b513f83a57d35db285","","null","","","learningBlock2","","","","This is a bim:","null","","","","","",""
"image-keyboard-response","284","353243","0.0-7.0-1.12","LF","yc8mkz3uaa","1920","1080","0","1","0","5eaeb8b513f83a57d35db285","","null","","","","","","","learning/Slide93.JPG","null","","","","","",""
"html-keyboard-response","285","354259","0.0-7.0-2.12","LF","yc8mkz3uaa","1920","1080","0","1","0","5eaeb8b513f83a57d35db285","","null","","","learningBlock2","","","","<div style=""font-size:60px;""> </div>","null","LF","learning/Slide93.JPG","This is a bim:","","",""
"html-keyboard-response","286","355265","0.0-7.0-0.13","LF","yc8mkz3uaa","1920","1080","0","1","0","5eaeb8b513f83a57d35db285","","null","","","learningBlock2","","","","This is a tob:","null","","","","","",""
"image-keyboard-response","287","355595","0.0-7.0-1.13","LF","yc8mkz3uaa","1920","1080","0","1","0","5eaeb8b513f83a57d35db285","","null","","","","","","","learning/Slide94.JPG","null","","","","","",""
"html-keyboard-response","288","356600","0.0-7.0-2.13","LF","yc8mkz3uaa","1920","1080","0","1","0","5eaeb8b513f83a57d35db285","","null","","","learningBlock2","","","","<div style=""font-size:60px;""> </div>","null","LF","learning/Slide94.JPG","This is a tob:","","",""
"html-keyboard-response","289","357604","0.0-7.0-0.14","LF","yc8mkz3uaa","1920","1080","0","1","0","5eaeb8b513f83a57d35db285","","null","","","learningBlock2","","","","This is a wug:","null","","","","","",""
"image-keyboard-response","290","357945","0.0-7.0-1.14","LF","yc8mkz3uaa","1920","1080","0","1","0","5eaeb8b513f83a57d35db285","","null","","","","","","","learning/Slide95.JPG","null","","","","","",""
"html-keyboard-response","291","358954","0.0-7.0-2.14","LF","yc8mkz3uaa","1920","1080","0","1","0","5eaeb8b513f83a57d35db285","","null","","","learningBlock2","","","","<div style=""font-size:60px;""> </div>","null","LF","learning/Slide95.JPG","This is a wug:","","",""
"html-keyboard-response","292","359965","0.0-7.0-0.15","LF","yc8mkz3uaa","1920","1080","0","1","0","5eaeb8b513f83a57d35db285","","null","","","learningBlock2","","","","This is a tob:","null","","","","","",""
"image-keyboard-response","293","360292","0.0-7.0-1.15","LF","yc8mkz3uaa","1920","1080","0","1","0","5eaeb8b513f83a57d35db285","","null","","","","","","","learning/Slide96.JPG","null","","","","","",""
"html-keyboard-response","294","361298","0.0-7.0-2.15","LF","yc8mkz3uaa","1920","1080","0","1","0","5eaeb8b513f83a57d35db285","","null","","","learningBlock2","","","","<div style=""font-size:60px;""> </div>","null","LF","learning/Slide96.JPG","This is a tob:","","",""
"html-keyboard-response","295","362309","0.0-7.0-0.16","LF","yc8mkz3uaa","1920","1080","0","1","0","5eaeb8b513f83a57d35db285","","null","","","learningBlock2","","","","This is a dep:","null","","","","","",""
"image-keyboard-response","296","362640","0.0-7.0-1.16","LF","yc8mkz3uaa","1920","1080","0","1","0","5eaeb8b513f83a57d35db285","","null","","","","","","","learning/Slide97.JPG","null","","","","","",""
"html-keyboard-response","297","363645","0.0-7.0-2.16","LF","yc8mkz3uaa","1920","1080","0","1","0","5eaeb8b513f83a57d35db285","","null","","","learningBlock2","","","","<div style=""font-size:60px;""> </div>","null","LF","learning/Slide97.JPG","This is a dep:","","",""
"html-keyboard-response","298","364652","0.0-7.0-0.17","LF","yc8mkz3uaa","1920","1080","0","1","0","5eaeb8b513f83a57d35db285","","null","","","learningBlock2","","","","This is a bim:","null","","","","","",""
"image-keyboard-response","299","364992","0.0-7.0-1.17","LF","yc8mkz3uaa","1920","1080","0","1","0","5eaeb8b513f83a57d35db285","","null","","","","","","","learning/Slide98.JPG","null","","","","","",""
"html-keyboard-response","300","365997","0.0-7.0-2.17","LF","yc8mkz3uaa","1920","1080","0","1","0","5eaeb8b513f83a57d35db285","","null","","","learningBlock2","","","","<div style=""font-size:60px;""> </div>","null","LF","learning/Slide98.JPG","This is a bim:","","",""
"html-keyboard-response","301","367005","0.0-7.0-0.18","LF","yc8mkz3uaa","1920","1080","0","1","0","5eaeb8b513f83a57d35db285","","null","","","learningBlock2","","","","This is a dep:","null","","","","","",""
"image-keyboard-response","302","367332","0.0-7.0-1.18","LF","yc8mkz3uaa","1920","1080","0","1","0","5eaeb8b513f83a57d35db285","","null","","","","","","","learning/Slide99.JPG","null","","","","","",""
"html-keyboard-response","303","368336","0.0-7.0-2.18","LF","yc8mkz3uaa","1920","1080","0","1","0","5eaeb8b513f83a57d35db285","","null","","","learningBlock2","","","","<div style=""font-size:60px;""> </div>","null","LF","learning/Slide99.JPG","This is a dep:","","",""
"html-keyboard-response","304","369341","0.0-7.0-0.19","LF","yc8mkz3uaa","1920","1080","0","1","0","5eaeb8b513f83a57d35db285","","null","","","learningBlock2","","","","This is a bim:","null","","","","","",""
"image-keyboard-response","305","369672","0.0-7.0-1.19","LF","yc8mkz3uaa","1920","1080","0","1","0","5eaeb8b513f83a57d35db285","","null","","","","","","","learning/Slide100.JPG","null","","","","","",""
"html-keyboard-response","306","370676","0.0-7.0-2.19","LF","yc8mkz3uaa","1920","1080","0","1","0","5eaeb8b513f83a57d35db285","","null","","","learningBlock2","","","","<div style=""font-size:60px;""> </div>","null","LF","learning/Slide100.JPG","This is a bim:","","",""
"html-keyboard-response","307","371684","0.0-7.0-0.20","LF","yc8mkz3uaa","1920","1080","0","1","0","5eaeb8b513f83a57d35db285","","null","","","learningBlock2","","","","This is a tob:","null","","","","","",""
"image-keyboard-response","308","372023","0.0-7.0-1.20","LF","yc8mkz3uaa","1920","1080","0","1","0","5eaeb8b513f83a57d35db285","","null","","","","","","","learning/Slide101.JPG","null","","","","","",""
"html-keyboard-response","309","373030","0.0-7.0-2.20","LF","yc8mkz3uaa","1920","1080","0","1","0","5eaeb8b513f83a57d35db285","","null","","","learningBlock2","","","","<div style=""font-size:60px;""> </div>","null","LF","learning/Slide101.JPG","This is a tob:","","",""
"html-keyboard-response","310","374038","0.0-7.0-0.21","LF","yc8mkz3uaa","1920","1080","0","1","0","5eaeb8b513f83a57d35db285","","null","","","learningBlock2","","","","This is a bim:","null","","","","","",""
"image-keyboard-response","311","374365","0.0-7.0-1.21","LF","yc8mkz3uaa","1920","1080","0","1","0","5eaeb8b513f83a57d35db285","","null","","","","","","","learning/Slide102.JPG","null","","","","","",""
"html-keyboard-response","312","375370","0.0-7.0-2.21","LF","yc8mkz3uaa","1920","1080","0","1","0","5eaeb8b513f83a57d35db285","","null","","","learningBlock2","","","","<div style=""font-size:60px;""> </div>","null","LF","learning/Slide102.JPG","This is a bim:","","",""
"html-keyboard-response","313","376381","0.0-7.0-0.22","LF","yc8mkz3uaa","1920","1080","0","1","0","5eaeb8b513f83a57d35db285","","null","","","learningBlock2","","","","This is a dep:","null","","","","","",""
"image-keyboard-response","314","376709","0.0-7.0-1.22","LF","yc8mkz3uaa","1920","1080","0","1","0","5eaeb8b513f83a57d35db285","","null","","","","","","","learning/Slide103.JPG","null","","","","","",""
"html-keyboard-response","315","377715","0.0-7.0-2.22","LF","yc8mkz3uaa","1920","1080","0","1","0","5eaeb8b513f83a57d35db285","","null","","","learningBlock2","","","","<div style=""font-size:60px;""> </div>","null","LF","learning/Slide103.JPG","This is a dep:","","",""
"html-keyboard-response","316","378721","0.0-7.0-0.23","LF","yc8mkz3uaa","1920","1080","0","1","0","5eaeb8b513f83a57d35db285","","null","","","learningBlock2","","","","This is a tob:","null","","","","","",""
"image-keyboard-response","317","379053","0.0-7.0-1.23","LF","yc8mkz3uaa","1920","1080","0","1","0","5eaeb8b513f83a57d35db285","","null","","","","","","","learning/Slide104.JPG","null","","","","","",""
"html-keyboard-response","318","380055","0.0-7.0-2.23","LF","yc8mkz3uaa","1920","1080","0","1","0","5eaeb8b513f83a57d35db285","","null","","","learningBlock2","","","","<div style=""font-size:60px;""> </div>","null","LF","learning/Slide104.JPG","This is a tob:","","",""
"html-keyboard-response","319","381059","0.0-7.0-0.24","LF","yc8mkz3uaa","1920","1080","0","1","0","5eaeb8b513f83a57d35db285","","null","","","learningBlock2","","","","This is a dep:","null","","","","","",""
"image-keyboard-response","320","381386","0.0-7.0-1.24","LF","yc8mkz3uaa","1920","1080","0","1","0","5eaeb8b513f83a57d35db285","","null","","","","","","","learning/Slide105.JPG","null","","","","","",""
"html-keyboard-response","321","382398","0.0-7.0-2.24","LF","yc8mkz3uaa","1920","1080","0","1","0","5eaeb8b513f83a57d35db285","","null","","","learningBlock2","","","","<div style=""font-size:60px;""> </div>","null","LF","learning/Slide105.JPG","This is a dep:","","",""
"html-keyboard-response","322","383402","0.0-7.0-0.25","LF","yc8mkz3uaa","1920","1080","0","1","0","5eaeb8b513f83a57d35db285","","null","","","learningBlock2","","","","This is a wug:","null","","","","","",""
"image-keyboard-response","323","383743","0.0-7.0-1.25","LF","yc8mkz3uaa","1920","1080","0","1","0","5eaeb8b513f83a57d35db285","","null","","","","","","","learning/Slide106.JPG","null","","","","","",""
"html-keyboard-response","324","384750","0.0-7.0-2.25","LF","yc8mkz3uaa","1920","1080","0","1","0","5eaeb8b513f83a57d35db285","","null","","","learningBlock2","","","","<div style=""font-size:60px;""> </div>","null","LF","learning/Slide106.JPG","This is a wug:","","",""
"html-keyboard-response","325","385756","0.0-7.0-0.26","LF","yc8mkz3uaa","1920","1080","0","1","0","5eaeb8b513f83a57d35db285","","null","","","learningBlock2","","","","This is a bim:","null","","","","","",""
"image-keyboard-response","326","386102","0.0-7.0-1.26","LF","yc8mkz3uaa","1920","1080","0","1","0","5eaeb8b513f83a57d35db285","","null","","","","","","","learning/Slide107.JPG","null","","","","","",""
"html-keyboard-response","327","387112","0.0-7.0-2.26","LF","yc8mkz3uaa","1920","1080","0","1","0","5eaeb8b513f83a57d35db285","","null","","","learningBlock2","","","","<div style=""font-size:60px;""> </div>","null","LF","learning/Slide107.JPG","This is a bim:","","",""
"html-keyboard-response","328","388121","0.0-7.0-0.27","LF","yc8mkz3uaa","1920","1080","0","1","0","5eaeb8b513f83a57d35db285","","null","","","learningBlock2","","","","This is a dep:","null","","","","","",""
"image-keyboard-response","329","388460","0.0-7.0-1.27","LF","yc8mkz3uaa","1920","1080","0","1","0","5eaeb8b513f83a57d35db285","","null","","","","","","","learning/Slide108.JPG","null","","","","","",""
"html-keyboard-response","330","389464","0.0-7.0-2.27","LF","yc8mkz3uaa","1920","1080","0","1","0","5eaeb8b513f83a57d35db285","","null","","","learningBlock2","","","","<div style=""font-size:60px;""> </div>","null","LF","learning/Slide108.JPG","This is a dep:","","",""
"html-keyboard-response","331","390474","0.0-7.0-0.28","LF","yc8mkz3uaa","1920","1080","0","1","0","5eaeb8b513f83a57d35db285","","null","","","learningBlock2","","","","This is a wug:","null","","","","","",""
"image-keyboard-response","332","390801","0.0-7.0-1.28","LF","yc8mkz3uaa","1920","1080","0","1","0","5eaeb8b513f83a57d35db285","","null","","","","","","","learning/Slide109.JPG","null","","","","","",""
"html-keyboard-response","333","391808","0.0-7.0-2.28","LF","yc8mkz3uaa","1920","1080","0","1","0","5eaeb8b513f83a57d35db285","","null","","","learningBlock2","","","","<div style=""font-size:60px;""> </div>","null","LF","learning/Slide109.JPG","This is a wug:","","",""
"html-keyboard-response","334","392813","0.0-7.0-0.29","LF","yc8mkz3uaa","1920","1080","0","1","0","5eaeb8b513f83a57d35db285","","null","","","learningBlock2","","","","This is a bim:","null","","","","","",""
"image-keyboard-response","335","393145","0.0-7.0-1.29","LF","yc8mkz3uaa","1920","1080","0","1","0","5eaeb8b513f83a57d35db285","","null","","","","","","","learning/Slide110.JPG","null","","","","","",""
"html-keyboard-response","336","394148","0.0-7.0-2.29","LF","yc8mkz3uaa","1920","1080","0","1","0","5eaeb8b513f83a57d35db285","","null","","","learningBlock2","","","","<div style=""font-size:60px;""> </div>","null","LF","learning/Slide110.JPG","This is a bim:","","",""
"html-keyboard-response","337","395154","0.0-7.0-0.30","LF","yc8mkz3uaa","1920","1080","0","1","0","5eaeb8b513f83a57d35db285","","null","","","learningBlock2","","","","This is a tob:","null","","","","","",""
"image-keyboard-response","338","395496","0.0-7.0-1.30","LF","yc8mkz3uaa","1920","1080","0","1","0","5eaeb8b513f83a57d35db285","","null","","","","","","","learning/Slide111.JPG","null","","","","","",""
"html-keyboard-response","339","396506","0.0-7.0-2.30","LF","yc8mkz3uaa","1920","1080","0","1","0","5eaeb8b513f83a57d35db285","","null","","","learningBlock2","","","","<div style=""font-size:60px;""> </div>","null","LF","learning/Slide111.JPG","This is a tob:","","",""
"html-keyboard-response","340","397514","0.0-7.0-0.31","LF","yc8mkz3uaa","1920","1080","0","1","0","5eaeb8b513f83a57d35db285","","null","","","learningBlock2","","","","This is a wug:","null","","","","","",""
"image-keyboard-response","341","397845","0.0-7.0-1.31","LF","yc8mkz3uaa","1920","1080","0","1","0","5eaeb8b513f83a57d35db285","","null","","","","","","","learning/Slide112.JPG","null","","","","","",""
"html-keyboard-response","342","398847","0.0-7.0-2.31","LF","yc8mkz3uaa","1920","1080","0","1","0","5eaeb8b513f83a57d35db285","","null","","","learningBlock2","","","","<div style=""font-size:60px;""> </div>","null","LF","learning/Slide112.JPG","This is a wug:","","",""
"html-keyboard-response","343","399855","0.0-7.0-0.32","LF","yc8mkz3uaa","1920","1080","0","1","0","5eaeb8b513f83a57d35db285","","null","","","learningBlock2","","","","This is a tob:","null","","","","","",""
"image-keyboard-response","344","400186","0.0-7.0-1.32","LF","yc8mkz3uaa","1920","1080","0","1","0","5eaeb8b513f83a57d35db285","","null","","","","","","","learning/Slide113.JPG","null","","","","","",""
"html-keyboard-response","345","401189","0.0-7.0-2.32","LF","yc8mkz3uaa","1920","1080","0","1","0","5eaeb8b513f83a57d35db285","","null","","","learningBlock2","","","","<div style=""font-size:60px;""> </div>","null","LF","learning/Slide113.JPG","This is a tob:","","",""
"html-keyboard-response","346","402196","0.0-7.0-0.33","LF","yc8mkz3uaa","1920","1080","0","1","0","5eaeb8b513f83a57d35db285","","null","","","learningBlock2","","","","This is a wug:","null","","","","","",""
"image-keyboard-response","347","402523","0.0-7.0-1.33","LF","yc8mkz3uaa","1920","1080","0","1","0","5eaeb8b513f83a57d35db285","","null","","","","","","","learning/Slide114.JPG","null","","","","","",""
"html-keyboard-response","348","403534","0.0-7.0-2.33","LF","yc8mkz3uaa","1920","1080","0","1","0","5eaeb8b513f83a57d35db285","","null","","","learningBlock2","","","","<div style=""font-size:60px;""> </div>","null","LF","learning/Slide114.JPG","This is a wug:","","",""
"html-keyboard-response","349","404543","0.0-7.0-0.34","LF","yc8mkz3uaa","1920","1080","0","1","0","5eaeb8b513f83a57d35db285","","null","","","learningBlock2","","","","This is a bim:","null","","","","","",""
"image-keyboard-response","350","404875","0.0-7.0-1.34","LF","yc8mkz3uaa","1920","1080","0","1","0","5eaeb8b513f83a57d35db285","","null","","","","","","","learning/Slide115.JPG","null","","","","","",""
"html-keyboard-response","351","405877","0.0-7.0-2.34","LF","yc8mkz3uaa","1920","1080","0","1","0","5eaeb8b513f83a57d35db285","","null","","","learningBlock2","","","","<div style=""font-size:60px;""> </div>","null","LF","learning/Slide115.JPG","This is a bim:","","",""
"html-keyboard-response","352","406881","0.0-7.0-0.35","LF","yc8mkz3uaa","1920","1080","0","1","0","5eaeb8b513f83a57d35db285","","null","","","learningBlock2","","","","This is a dep:","null","","","","","",""
"image-keyboard-response","353","407209","0.0-7.0-1.35","LF","yc8mkz3uaa","1920","1080","0","1","0","5eaeb8b513f83a57d35db285","","null","","","","","","","learning/Slide116.JPG","null","","","","","",""
"html-keyboard-response","354","408215","0.0-7.0-2.35","LF","yc8mkz3uaa","1920","1080","0","1","0","5eaeb8b513f83a57d35db285","","null","","","learningBlock2","","","","<div style=""font-size:60px;""> </div>","null","LF","learning/Slide116.JPG","This is a dep:","","",""
"html-keyboard-response","355","409219","0.0-7.0-0.36","LF","yc8mkz3uaa","1920","1080","0","1","0","5eaeb8b513f83a57d35db285","","null","","","learningBlock2","","","","This is a tob:","null","","","","","",""
"image-keyboard-response","356","409549","0.0-7.0-1.36","LF","yc8mkz3uaa","1920","1080","0","1","0","5eaeb8b513f83a57d35db285","","null","","","","","","","learning/Slide117.JPG","null","","","","","",""
"html-keyboard-response","357","410556","0.0-7.0-2.36","LF","yc8mkz3uaa","1920","1080","0","1","0","5eaeb8b513f83a57d35db285","","null","","","learningBlock2","","","","<div style=""font-size:60px;""> </div>","null","LF","learning/Slide117.JPG","This is a tob:","","",""
"html-keyboard-response","358","411565","0.0-7.0-0.37","LF","yc8mkz3uaa","1920","1080","0","1","0","5eaeb8b513f83a57d35db285","","null","","","learningBlock2","","","","This is a dep:","null","","","","","",""
"image-keyboard-response","359","411907","0.0-7.0-1.37","LF","yc8mkz3uaa","1920","1080","0","1","0","5eaeb8b513f83a57d35db285","","null","","","","","","","learning/Slide118.JPG","null","","","","","",""
"html-keyboard-response","360","412914","0.0-7.0-2.37","LF","yc8mkz3uaa","1920","1080","0","1","0","5eaeb8b513f83a57d35db285","","null","","","learningBlock2","","","","<div style=""font-size:60px;""> </div>","null","LF","learning/Slide118.JPG","This is a dep:","","",""
"html-keyboard-response","361","413919","0.0-7.0-0.38","LF","yc8mkz3uaa","1920","1080","0","1","0","5eaeb8b513f83a57d35db285","","null","","","learningBlock2","","","","This is a wug:","null","","","","","",""
"image-keyboard-response","362","414261","0.0-7.0-1.38","LF","yc8mkz3uaa","1920","1080","0","1","0","5eaeb8b513f83a57d35db285","","null","","","","","","","learning/Slide119.JPG","null","","","","","",""
"html-keyboard-response","363","415272","0.0-7.0-2.38","LF","yc8mkz3uaa","1920","1080","0","1","0","5eaeb8b513f83a57d35db285","","null","","","learningBlock2","","","","<div style=""font-size:60px;""> </div>","null","LF","learning/Slide119.JPG","This is a wug:","","",""
"html-keyboard-response","364","416280","0.0-7.0-0.39","LF","yc8mkz3uaa","1920","1080","0","1","0","5eaeb8b513f83a57d35db285","","null","","","learningBlock2","","","","This is a dep:","null","","","","","",""
"image-keyboard-response","365","416623","0.0-7.0-1.39","LF","yc8mkz3uaa","1920","1080","0","1","0","5eaeb8b513f83a57d35db285","","null","","","","","","","learning/Slide120.JPG","null","","","","","",""
"html-keyboard-response","366","417631","0.0-7.0-2.39","LF","yc8mkz3uaa","1920","1080","0","1","0","5eaeb8b513f83a57d35db285","","null","","","learningBlock2","","","","<div style=""font-size:60px;""> </div>","null","LF","learning/Slide120.JPG","This is a dep:","","",""
"html-keyboard-response","367","418634","0.0-7.0-0.40","LF","yc8mkz3uaa","1920","1080","0","1","0","5eaeb8b513f83a57d35db285","","null","","","learningBlock2","","","","This is a bim:","null","","","","","",""
"image-keyboard-response","368","418974","0.0-7.0-1.40","LF","yc8mkz3uaa","1920","1080","0","1","0","5eaeb8b513f83a57d35db285","","null","","","","","","","learning/Slide121.JPG","null","","","","","",""
"html-keyboard-response","369","419981","0.0-7.0-2.40","LF","yc8mkz3uaa","1920","1080","0","1","0","5eaeb8b513f83a57d35db285","","null","","","learningBlock2","","","","<div style=""font-size:60px;""> </div>","null","LF","learning/Slide121.JPG","This is a bim:","","",""
"html-keyboard-response","370","420991","0.0-7.0-0.41","LF","yc8mkz3uaa","1920","1080","0","1","0","5eaeb8b513f83a57d35db285","","null","","","learningBlock2","","","","This is a wug:","null","","","","","",""
"image-keyboard-response","371","421318","0.0-7.0-1.41","LF","yc8mkz3uaa","1920","1080","0","1","0","5eaeb8b513f83a57d35db285","","null","","","","","","","learning/Slide122.JPG","null","","","","","",""
"html-keyboard-response","372","422321","0.0-7.0-2.41","LF","yc8mkz3uaa","1920","1080","0","1","0","5eaeb8b513f83a57d35db285","","null","","","learningBlock2","","","","<div style=""font-size:60px;""> </div>","null","LF","learning/Slide122.JPG","This is a wug:","","",""
"html-keyboard-response","373","423328","0.0-7.0-0.42","LF","yc8mkz3uaa","1920","1080","0","1","0","5eaeb8b513f83a57d35db285","","null","","","learningBlock2","","","","This is a bim:","null","","","","","",""
"image-keyboard-response","374","423660","0.0-7.0-1.42","LF","yc8mkz3uaa","1920","1080","0","1","0","5eaeb8b513f83a57d35db285","","null","","","","","","","learning/Slide123.JPG","null","","","","","",""
"html-keyboard-response","375","424676","0.0-7.0-2.42","LF","yc8mkz3uaa","1920","1080","0","1","0","5eaeb8b513f83a57d35db285","","null","","","learningBlock2","","","","<div style=""font-size:60px;""> </div>","null","LF","learning/Slide123.JPG","This is a bim:","","",""
"html-keyboard-response","376","425683","0.0-7.0-0.43","LF","yc8mkz3uaa","1920","1080","0","1","0","5eaeb8b513f83a57d35db285","","null","","","learningBlock2","","","","This is a tob:","null","","","","","",""
"image-keyboard-response","377","426022","0.0-7.0-1.43","LF","yc8mkz3uaa","1920","1080","0","1","0","5eaeb8b513f83a57d35db285","","null","","","","","","","learning/Slide124.JPG","null","","","","","",""
"html-keyboard-response","378","427028","0.0-7.0-2.43","LF","yc8mkz3uaa","1920","1080","0","1","0","5eaeb8b513f83a57d35db285","","null","","","learningBlock2","","","","<div style=""font-size:60px;""> </div>","null","LF","learning/Slide124.JPG","This is a tob:","","",""
"html-keyboard-response","379","428037","0.0-7.0-0.44","LF","yc8mkz3uaa","1920","1080","0","1","0","5eaeb8b513f83a57d35db285","","null","","","learningBlock2","","","","This is a bim:","null","","","","","",""
"image-keyboard-response","380","428366","0.0-7.0-1.44","LF","yc8mkz3uaa","1920","1080","0","1","0","5eaeb8b513f83a57d35db285","","null","","","","","","","learning/Slide125.JPG","null","","","","","",""
"html-keyboard-response","381","429370","0.0-7.0-2.44","LF","yc8mkz3uaa","1920","1080","0","1","0","5eaeb8b513f83a57d35db285","","null","","","learningBlock2","","","","<div style=""font-size:60px;""> </div>","null","LF","learning/Slide125.JPG","This is a bim:","","",""
"html-keyboard-response","382","430375","0.0-7.0-0.45","LF","yc8mkz3uaa","1920","1080","0","1","0","5eaeb8b513f83a57d35db285","","null","","","learningBlock2","","","","This is a tob:","null","","","","","",""
"image-keyboard-response","383","430717","0.0-7.0-1.45","LF","yc8mkz3uaa","1920","1080","0","1","0","5eaeb8b513f83a57d35db285","","null","","","","","","","learning/Slide126.JPG","null","","","","","",""
"html-keyboard-response","384","431728","0.0-7.0-2.45","LF","yc8mkz3uaa","1920","1080","0","1","0","5eaeb8b513f83a57d35db285","","null","","","learningBlock2","","","","<div style=""font-size:60px;""> </div>","null","LF","learning/Slide126.JPG","This is a tob:","","",""
"html-keyboard-response","385","432741","0.0-7.0-0.46","LF","yc8mkz3uaa","1920","1080","0","1","0","5eaeb8b513f83a57d35db285","","null","","","learningBlock2","","","","This is a dep:","null","","","","","",""
"image-keyboard-response","386","433068","0.0-7.0-1.46","LF","yc8mkz3uaa","1920","1080","0","1","0","5eaeb8b513f83a57d35db285","","null","","","","","","","learning/Slide127.JPG","null","","","","","",""
"html-keyboard-response","387","434073","0.0-7.0-2.46","LF","yc8mkz3uaa","1920","1080","0","1","0","5eaeb8b513f83a57d35db285","","null","","","learningBlock2","","","","<div style=""font-size:60px;""> </div>","null","LF","learning/Slide127.JPG","This is a dep:","","",""
"html-keyboard-response","388","435079","0.0-7.0-0.47","LF","yc8mkz3uaa","1920","1080","0","1","0","5eaeb8b513f83a57d35db285","","null","","","learningBlock2","","","","This is a wug:","null","","","","","",""
"image-keyboard-response","389","435419","0.0-7.0-1.47","LF","yc8mkz3uaa","1920","1080","0","1","0","5eaeb8b513f83a57d35db285","","null","","","","","","","learning/Slide128.JPG","null","","","","","",""
"html-keyboard-response","390","436432","0.0-7.0-2.47","LF","yc8mkz3uaa","1920","1080","0","1","0","5eaeb8b513f83a57d35db285","","null","","","learningBlock2","","","","<div style=""font-size:60px;""> </div>","null","LF","learning/Slide128.JPG","This is a wug:","","",""
"html-keyboard-response","391","437441","0.0-7.0-0.48","LF","yc8mkz3uaa","1920","1080","0","1","0","5eaeb8b513f83a57d35db285","","null","","","learningBlock2","","","","This is a tob:","null","","","","","",""
"image-keyboard-response","392","437767","0.0-7.0-1.48","LF","yc8mkz3uaa","1920","1080","0","1","0","5eaeb8b513f83a57d35db285","","null","","","","","","","learning/Slide129.JPG","null","","","","","",""
"html-keyboard-response","393","438775","0.0-7.0-2.48","LF","yc8mkz3uaa","1920","1080","0","1","0","5eaeb8b513f83a57d35db285","","null","","","learningBlock2","","","","<div style=""font-size:60px;""> </div>","null","LF","learning/Slide129.JPG","This is a tob:","","",""
"html-keyboard-response","394","439782","0.0-7.0-0.49","LF","yc8mkz3uaa","1920","1080","0","1","0","5eaeb8b513f83a57d35db285","","null","","","learningBlock2","","","","This is a wug:","null","","","","","",""
"image-keyboard-response","395","440123","0.0-7.0-1.49","LF","yc8mkz3uaa","1920","1080","0","1","0","5eaeb8b513f83a57d35db285","","null","","","","","","","learning/Slide130.JPG","null","","","","","",""
"html-keyboard-response","396","441134","0.0-7.0-2.49","LF","yc8mkz3uaa","1920","1080","0","1","0","5eaeb8b513f83a57d35db285","","null","","","learningBlock2","","","","<div style=""font-size:60px;""> </div>","null","LF","learning/Slide130.JPG","This is a wug:","","",""
"html-keyboard-response","397","442148","0.0-7.0-0.50","LF","yc8mkz3uaa","1920","1080","0","1","0","5eaeb8b513f83a57d35db285","","null","","","learningBlock2","","","","This is a bim:","null","","","","","",""
"image-keyboard-response","398","442491","0.0-7.0-1.50","LF","yc8mkz3uaa","1920","1080","0","1","0","5eaeb8b513f83a57d35db285","","null","","","","","","","learning/Slide131.JPG","null","","","","","",""
"html-keyboard-response","399","443498","0.0-7.0-2.50","LF","yc8mkz3uaa","1920","1080","0","1","0","5eaeb8b513f83a57d35db285","","null","","","learningBlock2","","","","<div style=""font-size:60px;""> </div>","null","LF","learning/Slide131.JPG","This is a bim:","","",""
"html-keyboard-response","400","444511","0.0-7.0-0.51","LF","yc8mkz3uaa","1920","1080","0","1","0","5eaeb8b513f83a57d35db285","","null","","","learningBlock2","","","","This is a dep:","null","","","","","",""
"image-keyboard-response","401","444843","0.0-7.0-1.51","LF","yc8mkz3uaa","1920","1080","0","1","0","5eaeb8b513f83a57d35db285","","null","","","","","","","learning/Slide132.JPG","null","","","","","",""
"html-keyboard-response","402","445846","0.0-7.0-2.51","LF","yc8mkz3uaa","1920","1080","0","1","0","5eaeb8b513f83a57d35db285","","null","","","learningBlock2","","","","<div style=""font-size:60px;""> </div>","null","LF","learning/Slide132.JPG","This is a dep:","","",""
"html-keyboard-response","403","446855","0.0-7.0-0.52","LF","yc8mkz3uaa","1920","1080","0","1","0","5eaeb8b513f83a57d35db285","","null","","","learningBlock2","","","","This is a tob:","null","","","","","",""
"image-keyboard-response","404","447197","0.0-7.0-1.52","LF","yc8mkz3uaa","1920","1080","0","1","0","5eaeb8b513f83a57d35db285","","null","","","","","","","learning/Slide133.JPG","null","","","","","",""
"html-keyboard-response","405","448203","0.0-7.0-2.52","LF","yc8mkz3uaa","1920","1080","0","1","0","5eaeb8b513f83a57d35db285","","null","","","learningBlock2","","","","<div style=""font-size:60px;""> </div>","null","LF","learning/Slide133.JPG","This is a tob:","","",""
"html-keyboard-response","406","449212","0.0-7.0-0.53","LF","yc8mkz3uaa","1920","1080","0","1","0","5eaeb8b513f83a57d35db285","","null","","","learningBlock2","","","","This is a dep:","null","","","","","",""
"image-keyboard-response","407","449554","0.0-7.0-1.53","LF","yc8mkz3uaa","1920","1080","0","1","0","5eaeb8b513f83a57d35db285","","null","","","","","","","learning/Slide134.JPG","null","","","","","",""
"html-keyboard-response","408","450558","0.0-7.0-2.53","LF","yc8mkz3uaa","1920","1080","0","1","0","5eaeb8b513f83a57d35db285","","null","","","learningBlock2","","","","<div style=""font-size:60px;""> </div>","null","LF","learning/Slide134.JPG","This is a dep:","","",""
"html-keyboard-response","409","451562","0.0-7.0-0.54","LF","yc8mkz3uaa","1920","1080","0","1","0","5eaeb8b513f83a57d35db285","","null","","","learningBlock2","","","","This is a tob:","null","","","","","",""
"image-keyboard-response","410","451888","0.0-7.0-1.54","LF","yc8mkz3uaa","1920","1080","0","1","0","5eaeb8b513f83a57d35db285","","null","","","","","","","learning/Slide135.JPG","null","","","","","",""
"html-keyboard-response","411","452893","0.0-7.0-2.54","LF","yc8mkz3uaa","1920","1080","0","1","0","5eaeb8b513f83a57d35db285","","null","","","learningBlock2","","","","<div style=""font-size:60px;""> </div>","null","LF","learning/Slide135.JPG","This is a tob:","","",""
"html-keyboard-response","412","453904","0.0-7.0-0.55","LF","yc8mkz3uaa","1920","1080","0","1","0","5eaeb8b513f83a57d35db285","","null","","","learningBlock2","","","","This is a wug:","null","","","","","",""
"image-keyboard-response","413","454245","0.0-7.0-1.55","LF","yc8mkz3uaa","1920","1080","0","1","0","5eaeb8b513f83a57d35db285","","null","","","","","","","learning/Slide136.JPG","null","","","","","",""
"html-keyboard-response","414","455256","0.0-7.0-2.55","LF","yc8mkz3uaa","1920","1080","0","1","0","5eaeb8b513f83a57d35db285","","null","","","learningBlock2","","","","<div style=""font-size:60px;""> </div>","null","LF","learning/Slide136.JPG","This is a wug:","","",""
"html-keyboard-response","415","456260","0.0-7.0-0.56","LF","yc8mkz3uaa","1920","1080","0","1","0","5eaeb8b513f83a57d35db285","","null","","","learningBlock2","","","","This is a tob:","null","","","","","",""
"image-keyboard-response","416","456592","0.0-7.0-1.56","LF","yc8mkz3uaa","1920","1080","0","1","0","5eaeb8b513f83a57d35db285","","null","","","","","","","learning/Slide137.JPG","null","","","","","",""
"html-keyboard-response","417","457595","0.0-7.0-2.56","LF","yc8mkz3uaa","1920","1080","0","1","0","5eaeb8b513f83a57d35db285","","null","","","learningBlock2","","","","<div style=""font-size:60px;""> </div>","null","LF","learning/Slide137.JPG","This is a tob:","","",""
"html-keyboard-response","418","458598","0.0-7.0-0.57","LF","yc8mkz3uaa","1920","1080","0","1","0","5eaeb8b513f83a57d35db285","","null","","","learningBlock2","","","","This is a bim:","null","","","","","",""
"image-keyboard-response","419","458941","0.0-7.0-1.57","LF","yc8mkz3uaa","1920","1080","0","1","0","5eaeb8b513f83a57d35db285","","null","","","","","","","learning/Slide138.JPG","null","","","","","",""
"html-keyboard-response","420","459946","0.0-7.0-2.57","LF","yc8mkz3uaa","1920","1080","0","1","0","5eaeb8b513f83a57d35db285","","null","","","learningBlock2","","","","<div style=""font-size:60px;""> </div>","null","LF","learning/Slide138.JPG","This is a bim:","","",""
"html-keyboard-response","421","460953","0.0-7.0-0.58","LF","yc8mkz3uaa","1920","1080","0","1","0","5eaeb8b513f83a57d35db285","","null","","","learningBlock2","","","","This is a wug:","null","","","","","",""
"image-keyboard-response","422","461295","0.0-7.0-1.58","LF","yc8mkz3uaa","1920","1080","0","1","0","5eaeb8b513f83a57d35db285","","null","","","","","","","learning/Slide139.JPG","null","","","","","",""
"html-keyboard-response","423","462303","0.0-7.0-2.58","LF","yc8mkz3uaa","1920","1080","0","1","0","5eaeb8b513f83a57d35db285","","null","","","learningBlock2","","","","<div style=""font-size:60px;""> </div>","null","LF","learning/Slide139.JPG","This is a wug:","","",""
"html-keyboard-response","424","463309","0.0-7.0-0.59","LF","yc8mkz3uaa","1920","1080","0","1","0","5eaeb8b513f83a57d35db285","","null","","","learningBlock2","","","","This is a dep:","null","","","","","",""
"image-keyboard-response","425","463650","0.0-7.0-1.59","LF","yc8mkz3uaa","1920","1080","0","1","0","5eaeb8b513f83a57d35db285","","null","","","","","","","learning/Slide140.JPG","null","","","","","",""
"html-keyboard-response","426","464654","0.0-7.0-2.59","LF","yc8mkz3uaa","1920","1080","0","1","0","5eaeb8b513f83a57d35db285","","null","","","learningBlock2","","","","<div style=""font-size:60px;""> </div>","null","LF","learning/Slide140.JPG","This is a dep:","","",""
"html-keyboard-response","427","465664","0.0-7.0-0.60","LF","yc8mkz3uaa","1920","1080","0","1","0","5eaeb8b513f83a57d35db285","","null","","","learningBlock2","","","","This is a tob:","null","","","","","",""
"image-keyboard-response","428","466004","0.0-7.0-1.60","LF","yc8mkz3uaa","1920","1080","0","1","0","5eaeb8b513f83a57d35db285","","null","","","","","","","learning/Slide141.JPG","null","","","","","",""
"html-keyboard-response","429","467011","0.0-7.0-2.60","LF","yc8mkz3uaa","1920","1080","0","1","0","5eaeb8b513f83a57d35db285","","null","","","learningBlock2","","","","<div style=""font-size:60px;""> </div>","null","LF","learning/Slide141.JPG","This is a tob:","","",""
"html-keyboard-response","430","468021","0.0-7.0-0.61","LF","yc8mkz3uaa","1920","1080","0","1","0","5eaeb8b513f83a57d35db285","","null","","","learningBlock2","","","","This is a wug:","null","","","","","",""
"image-keyboard-response","431","468363","0.0-7.0-1.61","LF","yc8mkz3uaa","1920","1080","0","1","0","5eaeb8b513f83a57d35db285","","null","","","","","","","learning/Slide142.JPG","null","","","","","",""
"html-keyboard-response","432","469369","0.0-7.0-2.61","LF","yc8mkz3uaa","1920","1080","0","1","0","5eaeb8b513f83a57d35db285","","null","","","learningBlock2","","","","<div style=""font-size:60px;""> </div>","null","LF","learning/Slide142.JPG","This is a wug:","","",""
"html-keyboard-response","433","470378","0.0-7.0-0.62","LF","yc8mkz3uaa","1920","1080","0","1","0","5eaeb8b513f83a57d35db285","","null","","","learningBlock2","","","","This is a bim:","null","","","","","",""
"image-keyboard-response","434","470722","0.0-7.0-1.62","LF","yc8mkz3uaa","1920","1080","0","1","0","5eaeb8b513f83a57d35db285","","null","","","","","","","learning/Slide143.JPG","null","","","","","",""
"html-keyboard-response","435","471731","0.0-7.0-2.62","LF","yc8mkz3uaa","1920","1080","0","1","0","5eaeb8b513f83a57d35db285","","null","","","learningBlock2","","","","<div style=""font-size:60px;""> </div>","null","LF","learning/Slide143.JPG","This is a bim:","","",""
