"trial_type","trial_index","time_elapsed","internal_node_id","condition","subject","screen_width","screen_height","attention","distraction","conscientious","prolificID","success","rt","url","view_history","test_part","final_height_px","final_width_px","scale_factor","stimulus","key_press","learningType","presentedImage","presentedLabel","button_pressed","response","responses"
"pavlovia","0","25","0.0-0.0","LF","kyb3lzn0xx","1920","1080","0","1","0","5ee9cbbbdcf662000932fb78","","","","","","","","","","","","","","","",""
"fullscreen","1","47362","0.0-1.0","LF","kyb3lzn0xx","1920","1080","0","1","0","5ee9cbbbdcf662000932fb78","true","","","","","","","","","","","","","","",""
"external-html","2","66975","0.0-2.0-0.0","LF","kyb3lzn0xx","1920","1080","0","1","0","5ee9cbbbdcf662000932fb78","","19564.355000155047","text/information_english.html","","","","","","","","","","","","",""
"external-html","3","84063","0.0-2.0-1.0","LF","kyb3lzn0xx","1920","1080","0","1","0","5ee9cbbbdcf662000932fb78","","17037.404999835417","text/consent_english.html","","","","","","","","","","","","",""
"instructions","4","107968","0.0-3.0","LF","kyb3lzn0xx","1920","1080","0","1","0","5ee9cbbbdcf662000932fb78","","NA","","[{""page_index"":0,""viewing_time"":3625.1850000116974},{""page_index"":1,""viewing_time"":20272.12499990128}]","instructions","","","","","","","","","","",""
"resize","5","125343","0.0-4.0","LF","kyb3lzn0xx","1920","1080","0","1","0","5ee9cbbbdcf662000932fb78","","","","","","","100","0.634920634920635","","","","","","","",""
"html-keyboard-response","6","126351","0.0-5.0-0.0","LF","kyb3lzn0xx","1920","1080","0","1","0","5ee9cbbbdcf662000932fb78","","null","","","learningBlock1","","","","This is a tob:","null","","","","","",""
"image-keyboard-response","7","126683","0.0-5.0-1.0","LF","kyb3lzn0xx","1920","1080","0","1","0","5ee9cbbbdcf662000932fb78","","null","","","","","","","learning/Slide1.JPG","null","","","","","",""
"html-keyboard-response","8","127695","0.0-5.0-2.0","LF","kyb3lzn0xx","1920","1080","0","1","0","5ee9cbbbdcf662000932fb78","","null","","","learningBlock1","","","","<div style=""font-size:60px;""> </div>","null","LF","learning/Slide1.JPG","This is a tob:","","",""
"html-keyboard-response","9","128703","0.0-5.0-0.1","LF","kyb3lzn0xx","1920","1080","0","1","0","5ee9cbbbdcf662000932fb78","","null","","","learningBlock1","","","","This is a wug:","null","","","","","",""
"image-keyboard-response","10","129056","0.0-5.0-1.1","LF","kyb3lzn0xx","1920","1080","0","1","0","5ee9cbbbdcf662000932fb78","","null","","","","","","","learning/Slide2.JPG","null","","","","","",""
"html-keyboard-response","11","130057","0.0-5.0-2.1","LF","kyb3lzn0xx","1920","1080","0","1","0","5ee9cbbbdcf662000932fb78","","null","","","learningBlock1","","","","<div style=""font-size:60px;""> </div>","null","LF","learning/Slide2.JPG","This is a wug:","","",""
"html-keyboard-response","12","131073","0.0-5.0-0.2","LF","kyb3lzn0xx","1920","1080","0","1","0","5ee9cbbbdcf662000932fb78","","null","","","learningBlock1","","","","This is a bim:","null","","","","","",""
"image-keyboard-response","13","131415","0.0-5.0-1.2","LF","kyb3lzn0xx","1920","1080","0","1","0","5ee9cbbbdcf662000932fb78","","null","","","","","","","learning/Slide3.JPG","null","","","","","",""
"html-keyboard-response","14","132428","0.0-5.0-2.2","LF","kyb3lzn0xx","1920","1080","0","1","0","5ee9cbbbdcf662000932fb78","","null","","","learningBlock1","","","","<div style=""font-size:60px;""> </div>","null","LF","learning/Slide3.JPG","This is a bim:","","",""
"html-keyboard-response","15","133434","0.0-5.0-0.3","LF","kyb3lzn0xx","1920","1080","0","1","0","5ee9cbbbdcf662000932fb78","","null","","","learningBlock1","","","","This is a dep:","null","","","","","",""
"image-keyboard-response","16","133765","0.0-5.0-1.3","LF","kyb3lzn0xx","1920","1080","0","1","0","5ee9cbbbdcf662000932fb78","","null","","","","","","","learning/Slide4.JPG","null","","","","","",""
"html-keyboard-response","17","134778","0.0-5.0-2.3","LF","kyb3lzn0xx","1920","1080","0","1","0","5ee9cbbbdcf662000932fb78","","null","","","learningBlock1","","","","<div style=""font-size:60px;""> </div>","null","LF","learning/Slide4.JPG","This is a dep:","","",""
"html-keyboard-response","18","135794","0.0-5.0-0.4","LF","kyb3lzn0xx","1920","1080","0","1","0","5ee9cbbbdcf662000932fb78","","null","","","learningBlock1","","","","This is a wug:","null","","","","","",""
"image-keyboard-response","19","136121","0.0-5.0-1.4","LF","kyb3lzn0xx","1920","1080","0","1","0","5ee9cbbbdcf662000932fb78","","null","","","","","","","learning/Slide5.JPG","null","","","","","",""
"html-keyboard-response","20","137123","0.0-5.0-2.4","LF","kyb3lzn0xx","1920","1080","0","1","0","5ee9cbbbdcf662000932fb78","","null","","","learningBlock1","","","","<div style=""font-size:60px;""> </div>","null","LF","learning/Slide5.JPG","This is a wug:","","",""
"html-keyboard-response","21","138127","0.0-5.0-0.5","LF","kyb3lzn0xx","1920","1080","0","1","0","5ee9cbbbdcf662000932fb78","","null","","","learningBlock1","","","","This is a dep:","null","","","","","",""
"image-keyboard-response","22","138464","0.0-5.0-1.5","LF","kyb3lzn0xx","1920","1080","0","1","0","5ee9cbbbdcf662000932fb78","","null","","","","","","","learning/Slide6.JPG","null","","","","","",""
"html-keyboard-response","23","139475","0.0-5.0-2.5","LF","kyb3lzn0xx","1920","1080","0","1","0","5ee9cbbbdcf662000932fb78","","null","","","learningBlock1","","","","<div style=""font-size:60px;""> </div>","null","LF","learning/Slide6.JPG","This is a dep:","","",""
"html-keyboard-response","24","140478","0.0-5.0-0.6","LF","kyb3lzn0xx","1920","1080","0","1","0","5ee9cbbbdcf662000932fb78","","null","","","learningBlock1","","","","This is a wug:","null","","","","","",""
"image-keyboard-response","25","140814","0.0-5.0-1.6","LF","kyb3lzn0xx","1920","1080","0","1","0","5ee9cbbbdcf662000932fb78","","null","","","","","","","learning/Slide7.JPG","null","","","","","",""
"html-keyboard-response","26","141824","0.0-5.0-2.6","LF","kyb3lzn0xx","1920","1080","0","1","0","5ee9cbbbdcf662000932fb78","","null","","","learningBlock1","","","","<div style=""font-size:60px;""> </div>","null","LF","learning/Slide7.JPG","This is a wug:","","",""
"html-keyboard-response","27","142827","0.0-5.0-0.7","LF","kyb3lzn0xx","1920","1080","0","1","0","5ee9cbbbdcf662000932fb78","","null","","","learningBlock1","","","","This is a bim:","null","","","","","",""
"image-keyboard-response","28","143154","0.0-5.0-1.7","LF","kyb3lzn0xx","1920","1080","0","1","0","5ee9cbbbdcf662000932fb78","","null","","","","","","","learning/Slide8.JPG","null","","","","","",""
"html-keyboard-response","29","144156","0.0-5.0-2.7","LF","kyb3lzn0xx","1920","1080","0","1","0","5ee9cbbbdcf662000932fb78","","null","","","learningBlock1","","","","<div style=""font-size:60px;""> </div>","null","LF","learning/Slide8.JPG","This is a bim:","","",""
"html-keyboard-response","30","145158","0.0-5.0-0.8","LF","kyb3lzn0xx","1920","1080","0","1","0","5ee9cbbbdcf662000932fb78","","null","","","learningBlock1","","","","This is a wug:","null","","","","","",""
"image-keyboard-response","31","145496","0.0-5.0-1.8","LF","kyb3lzn0xx","1920","1080","0","1","0","5ee9cbbbdcf662000932fb78","","null","","","","","","","learning/Slide9.JPG","null","","","","","",""
"html-keyboard-response","32","146506","0.0-5.0-2.8","LF","kyb3lzn0xx","1920","1080","0","1","0","5ee9cbbbdcf662000932fb78","","null","","","learningBlock1","","","","<div style=""font-size:60px;""> </div>","null","LF","learning/Slide9.JPG","This is a wug:","","",""
"html-keyboard-response","33","147509","0.0-5.0-0.9","LF","kyb3lzn0xx","1920","1080","0","1","0","5ee9cbbbdcf662000932fb78","","null","","","learningBlock1","","","","This is a dep:","null","","","","","",""
"image-keyboard-response","34","147847","0.0-5.0-1.9","LF","kyb3lzn0xx","1920","1080","0","1","0","5ee9cbbbdcf662000932fb78","","null","","","","","","","learning/Slide10.JPG","null","","","","","",""
"html-keyboard-response","35","148848","0.0-5.0-2.9","LF","kyb3lzn0xx","1920","1080","0","1","0","5ee9cbbbdcf662000932fb78","","null","","","learningBlock1","","","","<div style=""font-size:60px;""> </div>","null","LF","learning/Slide10.JPG","This is a dep:","","",""
"html-keyboard-response","36","149859","0.0-5.0-0.10","LF","kyb3lzn0xx","1920","1080","0","1","0","5ee9cbbbdcf662000932fb78","","null","","","learningBlock1","","","","This is a tob:","null","","","","","",""
"image-keyboard-response","37","150186","0.0-5.0-1.10","LF","kyb3lzn0xx","1920","1080","0","1","0","5ee9cbbbdcf662000932fb78","","null","","","","","","","learning/Slide11.JPG","null","","","","","",""
"html-keyboard-response","38","151187","0.0-5.0-2.10","LF","kyb3lzn0xx","1920","1080","0","1","0","5ee9cbbbdcf662000932fb78","","null","","","learningBlock1","","","","<div style=""font-size:60px;""> </div>","null","LF","learning/Slide11.JPG","This is a tob:","","",""
"html-keyboard-response","39","152191","0.0-5.0-0.11","LF","kyb3lzn0xx","1920","1080","0","1","0","5ee9cbbbdcf662000932fb78","","null","","","learningBlock1","","","","This is a dep:","null","","","","","",""
"image-keyboard-response","40","152518","0.0-5.0-1.11","LF","kyb3lzn0xx","1920","1080","0","1","0","5ee9cbbbdcf662000932fb78","","null","","","","","","","learning/Slide12.JPG","null","","","","","",""
"html-keyboard-response","41","153520","0.0-5.0-2.11","LF","kyb3lzn0xx","1920","1080","0","1","0","5ee9cbbbdcf662000932fb78","","null","","","learningBlock1","","","","<div style=""font-size:60px;""> </div>","null","LF","learning/Slide12.JPG","This is a dep:","","",""
"html-keyboard-response","42","154521","0.0-5.0-0.12","LF","kyb3lzn0xx","1920","1080","0","1","0","5ee9cbbbdcf662000932fb78","","null","","","learningBlock1","","","","This is a bim:","null","","","","","",""
"image-keyboard-response","43","154862","0.0-5.0-1.12","LF","kyb3lzn0xx","1920","1080","0","1","0","5ee9cbbbdcf662000932fb78","","null","","","","","","","learning/Slide13.JPG","null","","","","","",""
"html-keyboard-response","44","155863","0.0-5.0-2.12","LF","kyb3lzn0xx","1920","1080","0","1","0","5ee9cbbbdcf662000932fb78","","null","","","learningBlock1","","","","<div style=""font-size:60px;""> </div>","null","LF","learning/Slide13.JPG","This is a bim:","","",""
"html-keyboard-response","45","156874","0.0-5.0-0.13","LF","kyb3lzn0xx","1920","1080","0","1","0","5ee9cbbbdcf662000932fb78","","null","","","learningBlock1","","","","This is a wug:","null","","","","","",""
"image-keyboard-response","46","157206","0.0-5.0-1.13","LF","kyb3lzn0xx","1920","1080","0","1","0","5ee9cbbbdcf662000932fb78","","null","","","","","","","learning/Slide14.JPG","null","","","","","",""
"html-keyboard-response","47","158207","0.0-5.0-2.13","LF","kyb3lzn0xx","1920","1080","0","1","0","5ee9cbbbdcf662000932fb78","","null","","","learningBlock1","","","","<div style=""font-size:60px;""> </div>","null","LF","learning/Slide14.JPG","This is a wug:","","",""
"html-keyboard-response","48","159221","0.0-5.0-0.14","LF","kyb3lzn0xx","1920","1080","0","1","0","5ee9cbbbdcf662000932fb78","","null","","","learningBlock1","","","","This is a tob:","null","","","","","",""
"image-keyboard-response","49","159562","0.0-5.0-1.14","LF","kyb3lzn0xx","1920","1080","0","1","0","5ee9cbbbdcf662000932fb78","","null","","","","","","","learning/Slide15.JPG","null","","","","","",""
"html-keyboard-response","50","160569","0.0-5.0-2.14","LF","kyb3lzn0xx","1920","1080","0","1","0","5ee9cbbbdcf662000932fb78","","null","","","learningBlock1","","","","<div style=""font-size:60px;""> </div>","null","LF","learning/Slide15.JPG","This is a tob:","","",""
"html-keyboard-response","51","161572","0.0-5.0-0.15","LF","kyb3lzn0xx","1920","1080","0","1","0","5ee9cbbbdcf662000932fb78","","null","","","learningBlock1","","","","This is a dep:","null","","","","","",""
"image-keyboard-response","52","161911","0.0-5.0-1.15","LF","kyb3lzn0xx","1920","1080","0","1","0","5ee9cbbbdcf662000932fb78","","null","","","","","","","learning/Slide16.JPG","null","","","","","",""
"html-keyboard-response","53","162912","0.0-5.0-2.15","LF","kyb3lzn0xx","1920","1080","0","1","0","5ee9cbbbdcf662000932fb78","","null","","","learningBlock1","","","","<div style=""font-size:60px;""> </div>","null","LF","learning/Slide16.JPG","This is a dep:","","",""
"html-keyboard-response","54","163914","0.0-5.0-0.16","LF","kyb3lzn0xx","1920","1080","0","1","0","5ee9cbbbdcf662000932fb78","","null","","","learningBlock1","","","","This is a bim:","null","","","","","",""
"image-keyboard-response","55","164253","0.0-5.0-1.16","LF","kyb3lzn0xx","1920","1080","0","1","0","5ee9cbbbdcf662000932fb78","","null","","","","","","","learning/Slide17.JPG","null","","","","","",""
"html-keyboard-response","56","165255","0.0-5.0-2.16","LF","kyb3lzn0xx","1920","1080","0","1","0","5ee9cbbbdcf662000932fb78","","null","","","learningBlock1","","","","<div style=""font-size:60px;""> </div>","null","LF","learning/Slide17.JPG","This is a bim:","","",""
"html-keyboard-response","57","166269","0.0-5.0-0.17","LF","kyb3lzn0xx","1920","1080","0","1","0","5ee9cbbbdcf662000932fb78","","null","","","learningBlock1","","","","This is a tob:","null","","","","","",""
"image-keyboard-response","58","166611","0.0-5.0-1.17","LF","kyb3lzn0xx","1920","1080","0","1","0","5ee9cbbbdcf662000932fb78","","null","","","","","","","learning/Slide18.JPG","null","","","","","",""
"html-keyboard-response","59","167616","0.0-5.0-2.17","LF","kyb3lzn0xx","1920","1080","0","1","0","5ee9cbbbdcf662000932fb78","","null","","","learningBlock1","","","","<div style=""font-size:60px;""> </div>","null","LF","learning/Slide18.JPG","This is a tob:","","",""
"html-keyboard-response","60","168619","0.0-5.0-0.18","LF","kyb3lzn0xx","1920","1080","0","1","0","5ee9cbbbdcf662000932fb78","","null","","","learningBlock1","","","","This is a wug:","null","","","","","",""
"image-keyboard-response","61","168955","0.0-5.0-1.18","LF","kyb3lzn0xx","1920","1080","0","1","0","5ee9cbbbdcf662000932fb78","","null","","","","","","","learning/Slide19.JPG","null","","","","","",""
"html-keyboard-response","62","169957","0.0-5.0-2.18","LF","kyb3lzn0xx","1920","1080","0","1","0","5ee9cbbbdcf662000932fb78","","null","","","learningBlock1","","","","<div style=""font-size:60px;""> </div>","null","LF","learning/Slide19.JPG","This is a wug:","","",""
"html-keyboard-response","63","170959","0.0-5.0-0.19","LF","kyb3lzn0xx","1920","1080","0","1","0","5ee9cbbbdcf662000932fb78","","null","","","learningBlock1","","","","This is a bim:","null","","","","","",""
"image-keyboard-response","64","171299","0.0-5.0-1.19","LF","kyb3lzn0xx","1920","1080","0","1","0","5ee9cbbbdcf662000932fb78","","null","","","","","","","learning/Slide20.JPG","null","","","","","",""
"html-keyboard-response","65","172302","0.0-5.0-2.19","LF","kyb3lzn0xx","1920","1080","0","1","0","5ee9cbbbdcf662000932fb78","","null","","","learningBlock1","","","","<div style=""font-size:60px;""> </div>","null","LF","learning/Slide20.JPG","This is a bim:","","",""
"html-keyboard-response","66","173316","0.0-5.0-0.20","LF","kyb3lzn0xx","1920","1080","0","1","0","5ee9cbbbdcf662000932fb78","","null","","","learningBlock1","","","","This is a dep:","null","","","","","",""
"image-keyboard-response","67","173659","0.0-5.0-1.20","LF","kyb3lzn0xx","1920","1080","0","1","0","5ee9cbbbdcf662000932fb78","","null","","","","","","","learning/Slide21.JPG","null","","","","","",""
"html-keyboard-response","68","174662","0.0-5.0-2.20","LF","kyb3lzn0xx","1920","1080","0","1","0","5ee9cbbbdcf662000932fb78","","null","","","learningBlock1","","","","<div style=""font-size:60px;""> </div>","null","LF","learning/Slide21.JPG","This is a dep:","","",""
"html-keyboard-response","69","175681","0.0-5.0-0.21","LF","kyb3lzn0xx","1920","1080","0","1","0","5ee9cbbbdcf662000932fb78","","null","","","learningBlock1","","","","This is a bim:","null","","","","","",""
"image-keyboard-response","70","176019","0.0-5.0-1.21","LF","kyb3lzn0xx","1920","1080","0","1","0","5ee9cbbbdcf662000932fb78","","null","","","","","","","learning/Slide22.JPG","null","","","","","",""
"html-keyboard-response","71","177021","0.0-5.0-2.21","LF","kyb3lzn0xx","1920","1080","0","1","0","5ee9cbbbdcf662000932fb78","","null","","","learningBlock1","","","","<div style=""font-size:60px;""> </div>","null","LF","learning/Slide22.JPG","This is a bim:","","",""
"html-keyboard-response","72","178024","0.0-5.0-0.22","LF","kyb3lzn0xx","1920","1080","0","1","0","5ee9cbbbdcf662000932fb78","","null","","","learningBlock1","","","","This is a tob:","null","","","","","",""
"image-keyboard-response","73","178358","0.0-5.0-1.22","LF","kyb3lzn0xx","1920","1080","0","1","0","5ee9cbbbdcf662000932fb78","","null","","","","","","","learning/Slide23.JPG","null","","","","","",""
"html-keyboard-response","74","179365","0.0-5.0-2.22","LF","kyb3lzn0xx","1920","1080","0","1","0","5ee9cbbbdcf662000932fb78","","null","","","learningBlock1","","","","<div style=""font-size:60px;""> </div>","null","LF","learning/Slide23.JPG","This is a tob:","","",""
"html-keyboard-response","75","180378","0.0-5.0-0.23","LF","kyb3lzn0xx","1920","1080","0","1","0","5ee9cbbbdcf662000932fb78","","null","","","learningBlock1","","","","This is a wug:","null","","","","","",""
"image-keyboard-response","76","180724","0.0-5.0-1.23","LF","kyb3lzn0xx","1920","1080","0","1","0","5ee9cbbbdcf662000932fb78","","null","","","","","","","learning/Slide24.JPG","null","","","","","",""
"html-keyboard-response","77","181741","0.0-5.0-2.23","LF","kyb3lzn0xx","1920","1080","0","1","0","5ee9cbbbdcf662000932fb78","","null","","","learningBlock1","","","","<div style=""font-size:60px;""> </div>","null","LF","learning/Slide24.JPG","This is a wug:","","",""
"html-keyboard-response","78","182754","0.0-5.0-0.24","LF","kyb3lzn0xx","1920","1080","0","1","0","5ee9cbbbdcf662000932fb78","","null","","","learningBlock1","","","","This is a dep:","null","","","","","",""
"image-keyboard-response","79","183087","0.0-5.0-1.24","LF","kyb3lzn0xx","1920","1080","0","1","0","5ee9cbbbdcf662000932fb78","","null","","","","","","","learning/Slide25.JPG","null","","","","","",""
"html-keyboard-response","80","184088","0.0-5.0-2.24","LF","kyb3lzn0xx","1920","1080","0","1","0","5ee9cbbbdcf662000932fb78","","null","","","learningBlock1","","","","<div style=""font-size:60px;""> </div>","null","LF","learning/Slide25.JPG","This is a dep:","","",""
"html-keyboard-response","81","185089","0.0-5.0-0.25","LF","kyb3lzn0xx","1920","1080","0","1","0","5ee9cbbbdcf662000932fb78","","null","","","learningBlock1","","","","This is a wug:","null","","","","","",""
"image-keyboard-response","82","185441","0.0-5.0-1.25","LF","kyb3lzn0xx","1920","1080","0","1","0","5ee9cbbbdcf662000932fb78","","null","","","","","","","learning/Slide26.JPG","null","","","","","",""
"html-keyboard-response","83","186443","0.0-5.0-2.25","LF","kyb3lzn0xx","1920","1080","0","1","0","5ee9cbbbdcf662000932fb78","","null","","","learningBlock1","","","","<div style=""font-size:60px;""> </div>","null","LF","learning/Slide26.JPG","This is a wug:","","",""
"html-keyboard-response","84","187456","0.0-5.0-0.26","LF","kyb3lzn0xx","1920","1080","0","1","0","5ee9cbbbdcf662000932fb78","","null","","","learningBlock1","","","","This is a bim:","null","","","","","",""
"image-keyboard-response","85","187790","0.0-5.0-1.26","LF","kyb3lzn0xx","1920","1080","0","1","0","5ee9cbbbdcf662000932fb78","","null","","","","","","","learning/Slide27.JPG","null","","","","","",""
"html-keyboard-response","86","188803","0.0-5.0-2.26","LF","kyb3lzn0xx","1920","1080","0","1","0","5ee9cbbbdcf662000932fb78","","null","","","learningBlock1","","","","<div style=""font-size:60px;""> </div>","null","LF","learning/Slide27.JPG","This is a bim:","","",""
"html-keyboard-response","87","189806","0.0-5.0-0.27","LF","kyb3lzn0xx","1920","1080","0","1","0","5ee9cbbbdcf662000932fb78","","null","","","learningBlock1","","","","This is a dep:","null","","","","","",""
"image-keyboard-response","88","190137","0.0-5.0-1.27","LF","kyb3lzn0xx","1920","1080","0","1","0","5ee9cbbbdcf662000932fb78","","null","","","","","","","learning/Slide28.JPG","null","","","","","",""
"html-keyboard-response","89","191138","0.0-5.0-2.27","LF","kyb3lzn0xx","1920","1080","0","1","0","5ee9cbbbdcf662000932fb78","","null","","","learningBlock1","","","","<div style=""font-size:60px;""> </div>","null","LF","learning/Slide28.JPG","This is a dep:","","",""
"html-keyboard-response","90","192139","0.0-5.0-0.28","LF","kyb3lzn0xx","1920","1080","0","1","0","5ee9cbbbdcf662000932fb78","","null","","","learningBlock1","","","","This is a tob:","null","","","","","",""
"image-keyboard-response","91","192489","0.0-5.0-1.28","LF","kyb3lzn0xx","1920","1080","0","1","0","5ee9cbbbdcf662000932fb78","","null","","","","","","","learning/Slide29.JPG","null","","","","","",""
"html-keyboard-response","92","193505","0.0-5.0-2.28","LF","kyb3lzn0xx","1920","1080","0","1","0","5ee9cbbbdcf662000932fb78","","null","","","learningBlock1","","","","<div style=""font-size:60px;""> </div>","null","LF","learning/Slide29.JPG","This is a tob:","","",""
"html-keyboard-response","93","194518","0.0-5.0-0.29","LF","kyb3lzn0xx","1920","1080","0","1","0","5ee9cbbbdcf662000932fb78","","null","","","learningBlock1","","","","This is a dep:","null","","","","","",""
"image-keyboard-response","94","194855","0.0-5.0-1.29","LF","kyb3lzn0xx","1920","1080","0","1","0","5ee9cbbbdcf662000932fb78","","null","","","","","","","learning/Slide30.JPG","null","","","","","",""
"html-keyboard-response","95","195865","0.0-5.0-2.29","LF","kyb3lzn0xx","1920","1080","0","1","0","5ee9cbbbdcf662000932fb78","","null","","","learningBlock1","","","","<div style=""font-size:60px;""> </div>","null","LF","learning/Slide30.JPG","This is a dep:","","",""
"html-keyboard-response","96","196869","0.0-5.0-0.30","LF","kyb3lzn0xx","1920","1080","0","1","0","5ee9cbbbdcf662000932fb78","","null","","","learningBlock1","","","","This is a wug:","null","","","","","",""
"image-keyboard-response","97","197201","0.0-5.0-1.30","LF","kyb3lzn0xx","1920","1080","0","1","0","5ee9cbbbdcf662000932fb78","","null","","","","","","","learning/Slide31.JPG","null","","","","","",""
"html-keyboard-response","98","198202","0.0-5.0-2.30","LF","kyb3lzn0xx","1920","1080","0","1","0","5ee9cbbbdcf662000932fb78","","null","","","learningBlock1","","","","<div style=""font-size:60px;""> </div>","null","LF","learning/Slide31.JPG","This is a wug:","","",""
"html-keyboard-response","99","199206","0.0-5.0-0.31","LF","kyb3lzn0xx","1920","1080","0","1","0","5ee9cbbbdcf662000932fb78","","null","","","learningBlock1","","","","This is a tob:","null","","","","","",""
"image-keyboard-response","100","199539","0.0-5.0-1.31","LF","kyb3lzn0xx","1920","1080","0","1","0","5ee9cbbbdcf662000932fb78","","null","","","","","","","learning/Slide32.JPG","null","","","","","",""
"html-keyboard-response","101","200553","0.0-5.0-2.31","LF","kyb3lzn0xx","1920","1080","0","1","0","5ee9cbbbdcf662000932fb78","","null","","","learningBlock1","","","","<div style=""font-size:60px;""> </div>","null","LF","learning/Slide32.JPG","This is a tob:","","",""
"html-keyboard-response","102","201566","0.0-5.0-0.32","LF","kyb3lzn0xx","1920","1080","0","1","0","5ee9cbbbdcf662000932fb78","","null","","","learningBlock1","","","","This is a bim:","null","","","","","",""
"image-keyboard-response","103","201904","0.0-5.0-1.32","LF","kyb3lzn0xx","1920","1080","0","1","0","5ee9cbbbdcf662000932fb78","","null","","","","","","","learning/Slide33.JPG","null","","","","","",""
"html-keyboard-response","104","202905","0.0-5.0-2.32","LF","kyb3lzn0xx","1920","1080","0","1","0","5ee9cbbbdcf662000932fb78","","null","","","learningBlock1","","","","<div style=""font-size:60px;""> </div>","null","LF","learning/Slide33.JPG","This is a bim:","","",""
"html-keyboard-response","105","203910","0.0-5.0-0.33","LF","kyb3lzn0xx","1920","1080","0","1","0","5ee9cbbbdcf662000932fb78","","null","","","learningBlock1","","","","This is a tob:","null","","","","","",""
"image-keyboard-response","106","204238","0.0-5.0-1.33","LF","kyb3lzn0xx","1920","1080","0","1","0","5ee9cbbbdcf662000932fb78","","null","","","","","","","learning/Slide34.JPG","null","","","","","",""
"html-keyboard-response","107","205250","0.0-5.0-2.33","LF","kyb3lzn0xx","1920","1080","0","1","0","5ee9cbbbdcf662000932fb78","","null","","","learningBlock1","","","","<div style=""font-size:60px;""> </div>","null","LF","learning/Slide34.JPG","This is a tob:","","",""
"html-keyboard-response","108","206252","0.0-5.0-0.34","LF","kyb3lzn0xx","1920","1080","0","1","0","5ee9cbbbdcf662000932fb78","","null","","","learningBlock1","","","","This is a bim:","null","","","","","",""
"image-keyboard-response","109","206588","0.0-5.0-1.34","LF","kyb3lzn0xx","1920","1080","0","1","0","5ee9cbbbdcf662000932fb78","","null","","","","","","","learning/Slide35.JPG","null","","","","","",""
"html-keyboard-response","110","207601","0.0-5.0-2.34","LF","kyb3lzn0xx","1920","1080","0","1","0","5ee9cbbbdcf662000932fb78","","null","","","learningBlock1","","","","<div style=""font-size:60px;""> </div>","null","LF","learning/Slide35.JPG","This is a bim:","","",""
"html-keyboard-response","111","208613","0.0-5.0-0.35","LF","kyb3lzn0xx","1920","1080","0","1","0","5ee9cbbbdcf662000932fb78","","null","","","learningBlock1","","","","This is a dep:","null","","","","","",""
"image-keyboard-response","112","208949","0.0-5.0-1.35","LF","kyb3lzn0xx","1920","1080","0","1","0","5ee9cbbbdcf662000932fb78","","null","","","","","","","learning/Slide36.JPG","null","","","","","",""
"html-keyboard-response","113","209950","0.0-5.0-2.35","LF","kyb3lzn0xx","1920","1080","0","1","0","5ee9cbbbdcf662000932fb78","","null","","","learningBlock1","","","","<div style=""font-size:60px;""> </div>","null","LF","learning/Slide36.JPG","This is a dep:","","",""
"html-keyboard-response","114","210952","0.0-5.0-0.36","LF","kyb3lzn0xx","1920","1080","0","1","0","5ee9cbbbdcf662000932fb78","","null","","","learningBlock1","","","","This is a tob:","null","","","","","",""
"image-keyboard-response","115","211286","0.0-5.0-1.36","LF","kyb3lzn0xx","1920","1080","0","1","0","5ee9cbbbdcf662000932fb78","","null","","","","","","","learning/Slide37.JPG","null","","","","","",""
"html-keyboard-response","116","212297","0.0-5.0-2.36","LF","kyb3lzn0xx","1920","1080","0","1","0","5ee9cbbbdcf662000932fb78","","null","","","learningBlock1","","","","<div style=""font-size:60px;""> </div>","null","LF","learning/Slide37.JPG","This is a tob:","","",""
"html-keyboard-response","117","213299","0.0-5.0-0.37","LF","kyb3lzn0xx","1920","1080","0","1","0","5ee9cbbbdcf662000932fb78","","null","","","learningBlock1","","","","This is a wug:","null","","","","","",""
"image-keyboard-response","118","213653","0.0-5.0-1.37","LF","kyb3lzn0xx","1920","1080","0","1","0","5ee9cbbbdcf662000932fb78","","null","","","","","","","learning/Slide38.JPG","null","","","","","",""
"html-keyboard-response","119","214663","0.0-5.0-2.37","LF","kyb3lzn0xx","1920","1080","0","1","0","5ee9cbbbdcf662000932fb78","","null","","","learningBlock1","","","","<div style=""font-size:60px;""> </div>","null","LF","learning/Slide38.JPG","This is a wug:","","",""
"html-keyboard-response","120","215674","0.0-5.0-0.38","LF","kyb3lzn0xx","1920","1080","0","1","0","5ee9cbbbdcf662000932fb78","","null","","","learningBlock1","","","","This is a bim:","null","","","","","",""
"image-keyboard-response","121","216022","0.0-5.0-1.38","LF","kyb3lzn0xx","1920","1080","0","1","0","5ee9cbbbdcf662000932fb78","","null","","","","","","","learning/Slide39.JPG","null","","","","","",""
"html-keyboard-response","122","217024","0.0-5.0-2.38","LF","kyb3lzn0xx","1920","1080","0","1","0","5ee9cbbbdcf662000932fb78","","null","","","learningBlock1","","","","<div style=""font-size:60px;""> </div>","null","LF","learning/Slide39.JPG","This is a bim:","","",""
"html-keyboard-response","123","218025","0.0-5.0-0.39","LF","kyb3lzn0xx","1920","1080","0","1","0","5ee9cbbbdcf662000932fb78","","null","","","learningBlock1","","","","This is a tob:","null","","","","","",""
"image-keyboard-response","124","218370","0.0-5.0-1.39","LF","kyb3lzn0xx","1920","1080","0","1","0","5ee9cbbbdcf662000932fb78","","null","","","","","","","learning/Slide40.JPG","null","","","","","",""
"html-keyboard-response","125","219374","0.0-5.0-2.39","LF","kyb3lzn0xx","1920","1080","0","1","0","5ee9cbbbdcf662000932fb78","","null","","","learningBlock1","","","","<div style=""font-size:60px;""> </div>","null","LF","learning/Slide40.JPG","This is a tob:","","",""
"html-keyboard-response","126","220379","0.0-5.0-0.40","LF","kyb3lzn0xx","1920","1080","0","1","0","5ee9cbbbdcf662000932fb78","","null","","","learningBlock1","","","","This is a bim:","null","","","","","",""
"image-keyboard-response","127","220719","0.0-5.0-1.40","LF","kyb3lzn0xx","1920","1080","0","1","0","5ee9cbbbdcf662000932fb78","","null","","","","","","","learning/Slide41.JPG","null","","","","","",""
"html-keyboard-response","128","221725","0.0-5.0-2.40","LF","kyb3lzn0xx","1920","1080","0","1","0","5ee9cbbbdcf662000932fb78","","null","","","learningBlock1","","","","<div style=""font-size:60px;""> </div>","null","LF","learning/Slide41.JPG","This is a bim:","","",""
"html-keyboard-response","129","222737","0.0-5.0-0.41","LF","kyb3lzn0xx","1920","1080","0","1","0","5ee9cbbbdcf662000932fb78","","null","","","learningBlock1","","","","This is a dep:","null","","","","","",""
"image-keyboard-response","130","223084","0.0-5.0-1.41","LF","kyb3lzn0xx","1920","1080","0","1","0","5ee9cbbbdcf662000932fb78","","null","","","","","","","learning/Slide42.JPG","null","","","","","",""
"html-keyboard-response","131","224087","0.0-5.0-2.41","LF","kyb3lzn0xx","1920","1080","0","1","0","5ee9cbbbdcf662000932fb78","","null","","","learningBlock1","","","","<div style=""font-size:60px;""> </div>","null","LF","learning/Slide42.JPG","This is a dep:","","",""
"html-keyboard-response","132","225089","0.0-5.0-0.42","LF","kyb3lzn0xx","1920","1080","0","1","0","5ee9cbbbdcf662000932fb78","","null","","","learningBlock1","","","","This is a wug:","null","","","","","",""
"image-keyboard-response","133","225434","0.0-5.0-1.42","LF","kyb3lzn0xx","1920","1080","0","1","0","5ee9cbbbdcf662000932fb78","","null","","","","","","","learning/Slide43.JPG","null","","","","","",""
"html-keyboard-response","134","226437","0.0-5.0-2.42","LF","kyb3lzn0xx","1920","1080","0","1","0","5ee9cbbbdcf662000932fb78","","null","","","learningBlock1","","","","<div style=""font-size:60px;""> </div>","null","LF","learning/Slide43.JPG","This is a wug:","","",""
"html-keyboard-response","135","227440","0.0-5.0-0.43","LF","kyb3lzn0xx","1920","1080","0","1","0","5ee9cbbbdcf662000932fb78","","null","","","learningBlock1","","","","This is a bim:","null","","","","","",""
"image-keyboard-response","136","227785","0.0-5.0-1.43","LF","kyb3lzn0xx","1920","1080","0","1","0","5ee9cbbbdcf662000932fb78","","null","","","","","","","learning/Slide44.JPG","null","","","","","",""
"html-keyboard-response","137","228787","0.0-5.0-2.43","LF","kyb3lzn0xx","1920","1080","0","1","0","5ee9cbbbdcf662000932fb78","","null","","","learningBlock1","","","","<div style=""font-size:60px;""> </div>","null","LF","learning/Slide44.JPG","This is a bim:","","",""
"html-keyboard-response","138","229800","0.0-5.0-0.44","LF","kyb3lzn0xx","1920","1080","0","1","0","5ee9cbbbdcf662000932fb78","","null","","","learningBlock1","","","","This is a wug:","null","","","","","",""
"image-keyboard-response","139","230134","0.0-5.0-1.44","LF","kyb3lzn0xx","1920","1080","0","1","0","5ee9cbbbdcf662000932fb78","","null","","","","","","","learning/Slide45.JPG","null","","","","","",""
"html-keyboard-response","140","231149","0.0-5.0-2.44","LF","kyb3lzn0xx","1920","1080","0","1","0","5ee9cbbbdcf662000932fb78","","null","","","learningBlock1","","","","<div style=""font-size:60px;""> </div>","null","LF","learning/Slide45.JPG","This is a wug:","","",""
"html-keyboard-response","141","232154","0.0-5.0-0.45","LF","kyb3lzn0xx","1920","1080","0","1","0","5ee9cbbbdcf662000932fb78","","null","","","learningBlock1","","","","This is a dep:","null","","","","","",""
"image-keyboard-response","142","232500","0.0-5.0-1.45","LF","kyb3lzn0xx","1920","1080","0","1","0","5ee9cbbbdcf662000932fb78","","null","","","","","","","learning/Slide46.JPG","null","","","","","",""
"html-keyboard-response","143","233516","0.0-5.0-2.45","LF","kyb3lzn0xx","1920","1080","0","1","0","5ee9cbbbdcf662000932fb78","","null","","","learningBlock1","","","","<div style=""font-size:60px;""> </div>","null","LF","learning/Slide46.JPG","This is a dep:","","",""
"html-keyboard-response","144","234519","0.0-5.0-0.46","LF","kyb3lzn0xx","1920","1080","0","1","0","5ee9cbbbdcf662000932fb78","","null","","","learningBlock1","","","","This is a tob:","null","","","","","",""
"image-keyboard-response","145","234866","0.0-5.0-1.46","LF","kyb3lzn0xx","1920","1080","0","1","0","5ee9cbbbdcf662000932fb78","","null","","","","","","","learning/Slide47.JPG","null","","","","","",""
"html-keyboard-response","146","235882","0.0-5.0-2.46","LF","kyb3lzn0xx","1920","1080","0","1","0","5ee9cbbbdcf662000932fb78","","null","","","learningBlock1","","","","<div style=""font-size:60px;""> </div>","null","LF","learning/Slide47.JPG","This is a tob:","","",""
"html-keyboard-response","147","236894","0.0-5.0-0.47","LF","kyb3lzn0xx","1920","1080","0","1","0","5ee9cbbbdcf662000932fb78","","null","","","learningBlock1","","","","This is a bim:","null","","","","","",""
"image-keyboard-response","148","237233","0.0-5.0-1.47","LF","kyb3lzn0xx","1920","1080","0","1","0","5ee9cbbbdcf662000932fb78","","null","","","","","","","learning/Slide48.JPG","null","","","","","",""
"html-keyboard-response","149","238243","0.0-5.0-2.47","LF","kyb3lzn0xx","1920","1080","0","1","0","5ee9cbbbdcf662000932fb78","","null","","","learningBlock1","","","","<div style=""font-size:60px;""> </div>","null","LF","learning/Slide48.JPG","This is a bim:","","",""
"html-keyboard-response","150","239247","0.0-5.0-0.48","LF","kyb3lzn0xx","1920","1080","0","1","0","5ee9cbbbdcf662000932fb78","","null","","","learningBlock1","","","","This is a dep:","null","","","","","",""
"image-keyboard-response","151","239583","0.0-5.0-1.48","LF","kyb3lzn0xx","1920","1080","0","1","0","5ee9cbbbdcf662000932fb78","","null","","","","","","","learning/Slide49.JPG","null","","","","","",""
"html-keyboard-response","152","240594","0.0-5.0-2.48","LF","kyb3lzn0xx","1920","1080","0","1","0","5ee9cbbbdcf662000932fb78","","null","","","learningBlock1","","","","<div style=""font-size:60px;""> </div>","null","LF","learning/Slide49.JPG","This is a dep:","","",""
"html-keyboard-response","153","241597","0.0-5.0-0.49","LF","kyb3lzn0xx","1920","1080","0","1","0","5ee9cbbbdcf662000932fb78","","null","","","learningBlock1","","","","This is a tob:","null","","","","","",""
"image-keyboard-response","154","241927","0.0-5.0-1.49","LF","kyb3lzn0xx","1920","1080","0","1","0","5ee9cbbbdcf662000932fb78","","null","","","","","","","learning/Slide50.JPG","null","","","","","",""
"html-keyboard-response","155","242928","0.0-5.0-2.49","LF","kyb3lzn0xx","1920","1080","0","1","0","5ee9cbbbdcf662000932fb78","","null","","","learningBlock1","","","","<div style=""font-size:60px;""> </div>","null","LF","learning/Slide50.JPG","This is a tob:","","",""
"html-keyboard-response","156","243930","0.0-5.0-0.50","LF","kyb3lzn0xx","1920","1080","0","1","0","5ee9cbbbdcf662000932fb78","","null","","","learningBlock1","","","","This is a bim:","null","","","","","",""
"image-keyboard-response","157","244265","0.0-5.0-1.50","LF","kyb3lzn0xx","1920","1080","0","1","0","5ee9cbbbdcf662000932fb78","","null","","","","","","","learning/Slide51.JPG","null","","","","","",""
"html-keyboard-response","158","245275","0.0-5.0-2.50","LF","kyb3lzn0xx","1920","1080","0","1","0","5ee9cbbbdcf662000932fb78","","null","","","learningBlock1","","","","<div style=""font-size:60px;""> </div>","null","LF","learning/Slide51.JPG","This is a bim:","","",""
"html-keyboard-response","159","246278","0.0-5.0-0.51","LF","kyb3lzn0xx","1920","1080","0","1","0","5ee9cbbbdcf662000932fb78","","null","","","learningBlock1","","","","This is a wug:","null","","","","","",""
"image-keyboard-response","160","246614","0.0-5.0-1.51","LF","kyb3lzn0xx","1920","1080","0","1","0","5ee9cbbbdcf662000932fb78","","null","","","","","","","learning/Slide52.JPG","null","","","","","",""
"html-keyboard-response","161","247624","0.0-5.0-2.51","LF","kyb3lzn0xx","1920","1080","0","1","0","5ee9cbbbdcf662000932fb78","","null","","","learningBlock1","","","","<div style=""font-size:60px;""> </div>","null","LF","learning/Slide52.JPG","This is a wug:","","",""
"html-keyboard-response","162","248629","0.0-5.0-0.52","LF","kyb3lzn0xx","1920","1080","0","1","0","5ee9cbbbdcf662000932fb78","","null","","","learningBlock1","","","","This is a tob:","null","","","","","",""
"image-keyboard-response","163","248960","0.0-5.0-1.52","LF","kyb3lzn0xx","1920","1080","0","1","0","5ee9cbbbdcf662000932fb78","","null","","","","","","","learning/Slide53.JPG","null","","","","","",""
"html-keyboard-response","164","249972","0.0-5.0-2.52","LF","kyb3lzn0xx","1920","1080","0","1","0","5ee9cbbbdcf662000932fb78","","null","","","learningBlock1","","","","<div style=""font-size:60px;""> </div>","null","LF","learning/Slide53.JPG","This is a tob:","","",""
"html-keyboard-response","165","250974","0.0-5.0-0.53","LF","kyb3lzn0xx","1920","1080","0","1","0","5ee9cbbbdcf662000932fb78","","null","","","learningBlock1","","","","This is a dep:","null","","","","","",""
"image-keyboard-response","166","251314","0.0-5.0-1.53","LF","kyb3lzn0xx","1920","1080","0","1","0","5ee9cbbbdcf662000932fb78","","null","","","","","","","learning/Slide54.JPG","null","","","","","",""
"html-keyboard-response","167","252322","0.0-5.0-2.53","LF","kyb3lzn0xx","1920","1080","0","1","0","5ee9cbbbdcf662000932fb78","","null","","","learningBlock1","","","","<div style=""font-size:60px;""> </div>","null","LF","learning/Slide54.JPG","This is a dep:","","",""
"html-keyboard-response","168","253325","0.0-5.0-0.54","LF","kyb3lzn0xx","1920","1080","0","1","0","5ee9cbbbdcf662000932fb78","","null","","","learningBlock1","","","","This is a bim:","null","","","","","",""
"image-keyboard-response","169","253664","0.0-5.0-1.54","LF","kyb3lzn0xx","1920","1080","0","1","0","5ee9cbbbdcf662000932fb78","","null","","","","","","","learning/Slide55.JPG","null","","","","","",""
"html-keyboard-response","170","254672","0.0-5.0-2.54","LF","kyb3lzn0xx","1920","1080","0","1","0","5ee9cbbbdcf662000932fb78","","null","","","learningBlock1","","","","<div style=""font-size:60px;""> </div>","null","LF","learning/Slide55.JPG","This is a bim:","","",""
"html-keyboard-response","171","255675","0.0-5.0-0.55","LF","kyb3lzn0xx","1920","1080","0","1","0","5ee9cbbbdcf662000932fb78","","null","","","learningBlock1","","","","This is a tob:","null","","","","","",""
"image-keyboard-response","172","256007","0.0-5.0-1.55","LF","kyb3lzn0xx","1920","1080","0","1","0","5ee9cbbbdcf662000932fb78","","null","","","","","","","learning/Slide56.JPG","null","","","","","",""
"html-keyboard-response","173","257018","0.0-5.0-2.55","LF","kyb3lzn0xx","1920","1080","0","1","0","5ee9cbbbdcf662000932fb78","","null","","","learningBlock1","","","","<div style=""font-size:60px;""> </div>","null","LF","learning/Slide56.JPG","This is a tob:","","",""
"html-keyboard-response","174","258021","0.0-5.0-0.56","LF","kyb3lzn0xx","1920","1080","0","1","0","5ee9cbbbdcf662000932fb78","","null","","","learningBlock1","","","","This is a dep:","null","","","","","",""
"image-keyboard-response","175","258363","0.0-5.0-1.56","LF","kyb3lzn0xx","1920","1080","0","1","0","5ee9cbbbdcf662000932fb78","","null","","","","","","","learning/Slide57.JPG","null","","","","","",""
"html-keyboard-response","176","259368","0.0-5.0-2.56","LF","kyb3lzn0xx","1920","1080","0","1","0","5ee9cbbbdcf662000932fb78","","null","","","learningBlock1","","","","<div style=""font-size:60px;""> </div>","null","LF","learning/Slide57.JPG","This is a dep:","","",""
"html-keyboard-response","177","260372","0.0-5.0-0.57","LF","kyb3lzn0xx","1920","1080","0","1","0","5ee9cbbbdcf662000932fb78","","null","","","learningBlock1","","","","This is a wug:","null","","","","","",""
"image-keyboard-response","178","260713","0.0-5.0-1.57","LF","kyb3lzn0xx","1920","1080","0","1","0","5ee9cbbbdcf662000932fb78","","null","","","","","","","learning/Slide58.JPG","null","","","","","",""
"html-keyboard-response","179","261719","0.0-5.0-2.57","LF","kyb3lzn0xx","1920","1080","0","1","0","5ee9cbbbdcf662000932fb78","","null","","","learningBlock1","","","","<div style=""font-size:60px;""> </div>","null","LF","learning/Slide58.JPG","This is a wug:","","",""
"html-keyboard-response","180","262721","0.0-5.0-0.58","LF","kyb3lzn0xx","1920","1080","0","1","0","5ee9cbbbdcf662000932fb78","","null","","","learningBlock1","","","","This is a dep:","null","","","","","",""
"image-keyboard-response","181","263057","0.0-5.0-1.58","LF","kyb3lzn0xx","1920","1080","0","1","0","5ee9cbbbdcf662000932fb78","","null","","","","","","","learning/Slide59.JPG","null","","","","","",""
"html-keyboard-response","182","264066","0.0-5.0-2.58","LF","kyb3lzn0xx","1920","1080","0","1","0","5ee9cbbbdcf662000932fb78","","null","","","learningBlock1","","","","<div style=""font-size:60px;""> </div>","null","LF","learning/Slide59.JPG","This is a dep:","","",""
"html-keyboard-response","183","265068","0.0-5.0-0.59","LF","kyb3lzn0xx","1920","1080","0","1","0","5ee9cbbbdcf662000932fb78","","null","","","learningBlock1","","","","This is a wug:","null","","","","","",""
"image-keyboard-response","184","265411","0.0-5.0-1.59","LF","kyb3lzn0xx","1920","1080","0","1","0","5ee9cbbbdcf662000932fb78","","null","","","","","","","learning/Slide60.JPG","null","","","","","",""
"html-keyboard-response","185","266416","0.0-5.0-2.59","LF","kyb3lzn0xx","1920","1080","0","1","0","5ee9cbbbdcf662000932fb78","","null","","","learningBlock1","","","","<div style=""font-size:60px;""> </div>","null","LF","learning/Slide60.JPG","This is a wug:","","",""
"html-keyboard-response","186","267418","0.0-5.0-0.60","LF","kyb3lzn0xx","1920","1080","0","1","0","5ee9cbbbdcf662000932fb78","","null","","","learningBlock1","","","","This is a bim:","null","","","","","",""
"image-keyboard-response","187","267762","0.0-5.0-1.60","LF","kyb3lzn0xx","1920","1080","0","1","0","5ee9cbbbdcf662000932fb78","","null","","","","","","","learning/Slide61.JPG","null","","","","","",""
"html-keyboard-response","188","268765","0.0-5.0-2.60","LF","kyb3lzn0xx","1920","1080","0","1","0","5ee9cbbbdcf662000932fb78","","null","","","learningBlock1","","","","<div style=""font-size:60px;""> </div>","null","LF","learning/Slide61.JPG","This is a bim:","","",""
"html-keyboard-response","189","269768","0.0-5.0-0.61","LF","kyb3lzn0xx","1920","1080","0","1","0","5ee9cbbbdcf662000932fb78","","null","","","learningBlock1","","","","This is a dep:","null","","","","","",""
"image-keyboard-response","190","270097","0.0-5.0-1.61","LF","kyb3lzn0xx","1920","1080","0","1","0","5ee9cbbbdcf662000932fb78","","null","","","","","","","learning/Slide62.JPG","null","","","","","",""
"html-keyboard-response","191","271112","0.0-5.0-2.61","LF","kyb3lzn0xx","1920","1080","0","1","0","5ee9cbbbdcf662000932fb78","","null","","","learningBlock1","","","","<div style=""font-size:60px;""> </div>","null","LF","learning/Slide62.JPG","This is a dep:","","",""
"html-keyboard-response","192","272116","0.0-5.0-0.62","LF","kyb3lzn0xx","1920","1080","0","1","0","5ee9cbbbdcf662000932fb78","","null","","","learningBlock1","","","","This is a bim:","null","","","","","",""
"image-keyboard-response","193","272461","0.0-5.0-1.62","LF","kyb3lzn0xx","1920","1080","0","1","0","5ee9cbbbdcf662000932fb78","","null","","","","","","","learning/Slide63.JPG","null","","","","","",""
"html-keyboard-response","194","273463","0.0-5.0-2.62","LF","kyb3lzn0xx","1920","1080","0","1","0","5ee9cbbbdcf662000932fb78","","null","","","learningBlock1","","","","<div style=""font-size:60px;""> </div>","null","LF","learning/Slide63.JPG","This is a bim:","","",""
"html-keyboard-response","195","274466","0.0-5.0-0.63","LF","kyb3lzn0xx","1920","1080","0","1","0","5ee9cbbbdcf662000932fb78","","null","","","learningBlock1","","","","This is a tob:","null","","","","","",""
"image-keyboard-response","196","274810","0.0-5.0-1.63","LF","kyb3lzn0xx","1920","1080","0","1","0","5ee9cbbbdcf662000932fb78","","null","","","","","","","learning/Slide64.JPG","null","","","","","",""
"html-keyboard-response","197","275812","0.0-5.0-2.63","LF","kyb3lzn0xx","1920","1080","0","1","0","5ee9cbbbdcf662000932fb78","","null","","","learningBlock1","","","","<div style=""font-size:60px;""> </div>","null","LF","learning/Slide64.JPG","This is a tob:","","",""
"html-keyboard-response","198","276816","0.0-5.0-0.64","LF","kyb3lzn0xx","1920","1080","0","1","0","5ee9cbbbdcf662000932fb78","","null","","","learningBlock1","","","","This is a wug:","null","","","","","",""
"image-keyboard-response","199","277142","0.0-5.0-1.64","LF","kyb3lzn0xx","1920","1080","0","1","0","5ee9cbbbdcf662000932fb78","","null","","","","","","","learning/Slide65.JPG","null","","","","","",""
"html-keyboard-response","200","278144","0.0-5.0-2.64","LF","kyb3lzn0xx","1920","1080","0","1","0","5ee9cbbbdcf662000932fb78","","null","","","learningBlock1","","","","<div style=""font-size:60px;""> </div>","null","LF","learning/Slide65.JPG","This is a wug:","","",""
"html-keyboard-response","201","279148","0.0-5.0-0.65","LF","kyb3lzn0xx","1920","1080","0","1","0","5ee9cbbbdcf662000932fb78","","null","","","learningBlock1","","","","This is a dep:","null","","","","","",""
"image-keyboard-response","202","279493","0.0-5.0-1.65","LF","kyb3lzn0xx","1920","1080","0","1","0","5ee9cbbbdcf662000932fb78","","null","","","","","","","learning/Slide66.JPG","null","","","","","",""
"html-keyboard-response","203","280509","0.0-5.0-2.65","LF","kyb3lzn0xx","1920","1080","0","1","0","5ee9cbbbdcf662000932fb78","","null","","","learningBlock1","","","","<div style=""font-size:60px;""> </div>","null","LF","learning/Slide66.JPG","This is a dep:","","",""
"html-keyboard-response","204","281513","0.0-5.0-0.66","LF","kyb3lzn0xx","1920","1080","0","1","0","5ee9cbbbdcf662000932fb78","","null","","","learningBlock1","","","","This is a tob:","null","","","","","",""
"image-keyboard-response","205","281859","0.0-5.0-1.66","LF","kyb3lzn0xx","1920","1080","0","1","0","5ee9cbbbdcf662000932fb78","","null","","","","","","","learning/Slide67.JPG","null","","","","","",""
"html-keyboard-response","206","282864","0.0-5.0-2.66","LF","kyb3lzn0xx","1920","1080","0","1","0","5ee9cbbbdcf662000932fb78","","null","","","learningBlock1","","","","<div style=""font-size:60px;""> </div>","null","LF","learning/Slide67.JPG","This is a tob:","","",""
"html-keyboard-response","207","283879","0.0-5.0-0.67","LF","kyb3lzn0xx","1920","1080","0","1","0","5ee9cbbbdcf662000932fb78","","null","","","learningBlock1","","","","This is a wug:","null","","","","","",""
"image-keyboard-response","208","284205","0.0-5.0-1.67","LF","kyb3lzn0xx","1920","1080","0","1","0","5ee9cbbbdcf662000932fb78","","null","","","","","","","learning/Slide68.JPG","null","","","","","",""
"html-keyboard-response","209","285207","0.0-5.0-2.67","LF","kyb3lzn0xx","1920","1080","0","1","0","5ee9cbbbdcf662000932fb78","","null","","","learningBlock1","","","","<div style=""font-size:60px;""> </div>","null","LF","learning/Slide68.JPG","This is a wug:","","",""
"html-keyboard-response","210","286209","0.0-5.0-0.68","LF","kyb3lzn0xx","1920","1080","0","1","0","5ee9cbbbdcf662000932fb78","","null","","","learningBlock1","","","","This is a tob:","null","","","","","",""
"image-keyboard-response","211","286542","0.0-5.0-1.68","LF","kyb3lzn0xx","1920","1080","0","1","0","5ee9cbbbdcf662000932fb78","","null","","","","","","","learning/Slide69.JPG","null","","","","","",""
"html-keyboard-response","212","287556","0.0-5.0-2.68","LF","kyb3lzn0xx","1920","1080","0","1","0","5ee9cbbbdcf662000932fb78","","null","","","learningBlock1","","","","<div style=""font-size:60px;""> </div>","null","LF","learning/Slide69.JPG","This is a tob:","","",""
"html-keyboard-response","213","288559","0.0-5.0-0.69","LF","kyb3lzn0xx","1920","1080","0","1","0","5ee9cbbbdcf662000932fb78","","null","","","learningBlock1","","","","This is a dep:","null","","","","","",""
"image-keyboard-response","214","288909","0.0-5.0-1.69","LF","kyb3lzn0xx","1920","1080","0","1","0","5ee9cbbbdcf662000932fb78","","null","","","","","","","learning/Slide70.JPG","null","","","","","",""
"html-keyboard-response","215","289911","0.0-5.0-2.69","LF","kyb3lzn0xx","1920","1080","0","1","0","5ee9cbbbdcf662000932fb78","","null","","","learningBlock1","","","","<div style=""font-size:60px;""> </div>","null","LF","learning/Slide70.JPG","This is a dep:","","",""
"html-keyboard-response","216","290913","0.0-5.0-0.70","LF","kyb3lzn0xx","1920","1080","0","1","0","5ee9cbbbdcf662000932fb78","","null","","","learningBlock1","","","","This is a wug:","null","","","","","",""
"image-keyboard-response","217","291241","0.0-5.0-1.70","LF","kyb3lzn0xx","1920","1080","0","1","0","5ee9cbbbdcf662000932fb78","","null","","","","","","","learning/Slide71.JPG","null","","","","","",""
"html-keyboard-response","218","292252","0.0-5.0-2.70","LF","kyb3lzn0xx","1920","1080","0","1","0","5ee9cbbbdcf662000932fb78","","null","","","learningBlock1","","","","<div style=""font-size:60px;""> </div>","null","LF","learning/Slide71.JPG","This is a wug:","","",""
"html-keyboard-response","219","293257","0.0-5.0-0.71","LF","kyb3lzn0xx","1920","1080","0","1","0","5ee9cbbbdcf662000932fb78","","null","","","learningBlock1","","","","This is a bim:","null","","","","","",""
"image-keyboard-response","220","293591","0.0-5.0-1.71","LF","kyb3lzn0xx","1920","1080","0","1","0","5ee9cbbbdcf662000932fb78","","null","","","","","","","learning/Slide72.JPG","null","","","","","",""
"html-keyboard-response","221","294604","0.0-5.0-2.71","LF","kyb3lzn0xx","1920","1080","0","1","0","5ee9cbbbdcf662000932fb78","","null","","","learningBlock1","","","","<div style=""font-size:60px;""> </div>","null","LF","learning/Slide72.JPG","This is a bim:","","",""
"html-keyboard-response","222","295606","0.0-5.0-0.72","LF","kyb3lzn0xx","1920","1080","0","1","0","5ee9cbbbdcf662000932fb78","","null","","","learningBlock1","","","","This is a wug:","null","","","","","",""
"image-keyboard-response","223","295935","0.0-5.0-1.72","LF","kyb3lzn0xx","1920","1080","0","1","0","5ee9cbbbdcf662000932fb78","","null","","","","","","","learning/Slide73.JPG","null","","","","","",""
"html-keyboard-response","224","296938","0.0-5.0-2.72","LF","kyb3lzn0xx","1920","1080","0","1","0","5ee9cbbbdcf662000932fb78","","null","","","learningBlock1","","","","<div style=""font-size:60px;""> </div>","null","LF","learning/Slide73.JPG","This is a wug:","","",""
"html-keyboard-response","225","297939","0.0-5.0-0.73","LF","kyb3lzn0xx","1920","1080","0","1","0","5ee9cbbbdcf662000932fb78","","null","","","learningBlock1","","","","This is a dep:","null","","","","","",""
"image-keyboard-response","226","298272","0.0-5.0-1.73","LF","kyb3lzn0xx","1920","1080","0","1","0","5ee9cbbbdcf662000932fb78","","null","","","","","","","learning/Slide74.JPG","null","","","","","",""
"html-keyboard-response","227","299283","0.0-5.0-2.73","LF","kyb3lzn0xx","1920","1080","0","1","0","5ee9cbbbdcf662000932fb78","","null","","","learningBlock1","","","","<div style=""font-size:60px;""> </div>","null","LF","learning/Slide74.JPG","This is a dep:","","",""
"html-keyboard-response","228","300287","0.0-5.0-0.74","LF","kyb3lzn0xx","1920","1080","0","1","0","5ee9cbbbdcf662000932fb78","","null","","","learningBlock1","","","","This is a tob:","null","","","","","",""
"image-keyboard-response","229","300624","0.0-5.0-1.74","LF","kyb3lzn0xx","1920","1080","0","1","0","5ee9cbbbdcf662000932fb78","","null","","","","","","","learning/Slide75.JPG","null","","","","","",""
"html-keyboard-response","230","301634","0.0-5.0-2.74","LF","kyb3lzn0xx","1920","1080","0","1","0","5ee9cbbbdcf662000932fb78","","null","","","learningBlock1","","","","<div style=""font-size:60px;""> </div>","null","LF","learning/Slide75.JPG","This is a tob:","","",""
"html-keyboard-response","231","302649","0.0-5.0-0.75","LF","kyb3lzn0xx","1920","1080","0","1","0","5ee9cbbbdcf662000932fb78","","null","","","learningBlock1","","","","This is a bim:","null","","","","","",""
"image-keyboard-response","232","302984","0.0-5.0-1.75","LF","kyb3lzn0xx","1920","1080","0","1","0","5ee9cbbbdcf662000932fb78","","null","","","","","","","learning/Slide76.JPG","null","","","","","",""
"html-keyboard-response","233","303985","0.0-5.0-2.75","LF","kyb3lzn0xx","1920","1080","0","1","0","5ee9cbbbdcf662000932fb78","","null","","","learningBlock1","","","","<div style=""font-size:60px;""> </div>","null","LF","learning/Slide76.JPG","This is a bim:","","",""
"html-keyboard-response","234","304986","0.0-5.0-0.76","LF","kyb3lzn0xx","1920","1080","0","1","0","5ee9cbbbdcf662000932fb78","","null","","","learningBlock1","","","","This is a tob:","null","","","","","",""
"image-keyboard-response","235","305319","0.0-5.0-1.76","LF","kyb3lzn0xx","1920","1080","0","1","0","5ee9cbbbdcf662000932fb78","","null","","","","","","","learning/Slide77.JPG","null","","","","","",""
"html-keyboard-response","236","306331","0.0-5.0-2.76","LF","kyb3lzn0xx","1920","1080","0","1","0","5ee9cbbbdcf662000932fb78","","null","","","learningBlock1","","","","<div style=""font-size:60px;""> </div>","null","LF","learning/Slide77.JPG","This is a tob:","","",""
"html-keyboard-response","237","307334","0.0-5.0-0.77","LF","kyb3lzn0xx","1920","1080","0","1","0","5ee9cbbbdcf662000932fb78","","null","","","learningBlock1","","","","This is a wug:","null","","","","","",""
"image-keyboard-response","238","307672","0.0-5.0-1.77","LF","kyb3lzn0xx","1920","1080","0","1","0","5ee9cbbbdcf662000932fb78","","null","","","","","","","learning/Slide78.JPG","null","","","","","",""
"html-keyboard-response","239","308681","0.0-5.0-2.77","LF","kyb3lzn0xx","1920","1080","0","1","0","5ee9cbbbdcf662000932fb78","","null","","","learningBlock1","","","","<div style=""font-size:60px;""> </div>","null","LF","learning/Slide78.JPG","This is a wug:","","",""
"html-keyboard-response","240","309684","0.0-5.0-0.78","LF","kyb3lzn0xx","1920","1080","0","1","0","5ee9cbbbdcf662000932fb78","","null","","","learningBlock1","","","","This is a bim:","null","","","","","",""
"image-keyboard-response","241","310016","0.0-5.0-1.78","LF","kyb3lzn0xx","1920","1080","0","1","0","5ee9cbbbdcf662000932fb78","","null","","","","","","","learning/Slide79.JPG","null","","","","","",""
"html-keyboard-response","242","311018","0.0-5.0-2.78","LF","kyb3lzn0xx","1920","1080","0","1","0","5ee9cbbbdcf662000932fb78","","null","","","learningBlock1","","","","<div style=""font-size:60px;""> </div>","null","LF","learning/Slide79.JPG","This is a bim:","","",""
"html-keyboard-response","243","312020","0.0-5.0-0.79","LF","kyb3lzn0xx","1920","1080","0","1","0","5ee9cbbbdcf662000932fb78","","null","","","learningBlock1","","","","This is a tob:","null","","","","","",""
"image-keyboard-response","244","312351","0.0-5.0-1.79","LF","kyb3lzn0xx","1920","1080","0","1","0","5ee9cbbbdcf662000932fb78","","null","","","","","","","learning/Slide80.JPG","null","","","","","",""
"html-keyboard-response","245","313363","0.0-5.0-2.79","LF","kyb3lzn0xx","1920","1080","0","1","0","5ee9cbbbdcf662000932fb78","","null","","","learningBlock1","","","","<div style=""font-size:60px;""> </div>","null","LF","learning/Slide80.JPG","This is a tob:","","",""
"instructions","246","316856","0.0-6.0","LF","kyb3lzn0xx","1920","1080","0","1","0","5ee9cbbbdcf662000932fb78","","NA","","[{""page_index"":0,""viewing_time"":3491.779999807477}]","instructions","","","","","","","","","","",""
"html-keyboard-response","247","317860","0.0-7.0-0.0","LF","kyb3lzn0xx","1920","1080","0","1","0","5ee9cbbbdcf662000932fb78","","null","","","learningBlock2","","","","This is a wug:","null","","","","","",""
"image-keyboard-response","248","318187","0.0-7.0-1.0","LF","kyb3lzn0xx","1920","1080","0","1","0","5ee9cbbbdcf662000932fb78","","null","","","","","","","learning/Slide81.JPG","null","","","","","",""
"html-keyboard-response","249","319188","0.0-7.0-2.0","LF","kyb3lzn0xx","1920","1080","0","1","0","5ee9cbbbdcf662000932fb78","","null","","","learningBlock2","","","","<div style=""font-size:60px;""> </div>","null","LF","learning/Slide81.JPG","This is a wug:","","",""
"html-keyboard-response","250","320191","0.0-7.0-0.1","LF","kyb3lzn0xx","1920","1080","0","1","0","5ee9cbbbdcf662000932fb78","","null","","","learningBlock2","","","","This is a bim:","null","","","","","",""
"image-keyboard-response","251","320538","0.0-7.0-1.1","LF","kyb3lzn0xx","1920","1080","0","1","0","5ee9cbbbdcf662000932fb78","","null","","","","","","","learning/Slide82.JPG","null","","","","","",""
"html-keyboard-response","252","321554","0.0-7.0-2.1","LF","kyb3lzn0xx","1920","1080","0","1","0","5ee9cbbbdcf662000932fb78","","null","","","learningBlock2","","","","<div style=""font-size:60px;""> </div>","null","LF","learning/Slide82.JPG","This is a bim:","","",""
"html-keyboard-response","253","322557","0.0-7.0-0.2","LF","kyb3lzn0xx","1920","1080","0","1","0","5ee9cbbbdcf662000932fb78","","null","","","learningBlock2","","","","This is a wug:","null","","","","","",""
"image-keyboard-response","254","322903","0.0-7.0-1.2","LF","kyb3lzn0xx","1920","1080","0","1","0","5ee9cbbbdcf662000932fb78","","null","","","","","","","learning/Slide83.JPG","null","","","","","",""
"html-keyboard-response","255","323906","0.0-7.0-2.2","LF","kyb3lzn0xx","1920","1080","0","1","0","5ee9cbbbdcf662000932fb78","","null","","","learningBlock2","","","","<div style=""font-size:60px;""> </div>","null","LF","learning/Slide83.JPG","This is a wug:","","",""
"html-keyboard-response","256","324907","0.0-7.0-0.3","LF","kyb3lzn0xx","1920","1080","0","1","0","5ee9cbbbdcf662000932fb78","","null","","","learningBlock2","","","","This is a dep:","null","","","","","",""
"image-keyboard-response","257","325237","0.0-7.0-1.3","LF","kyb3lzn0xx","1920","1080","0","1","0","5ee9cbbbdcf662000932fb78","","null","","","","","","","learning/Slide84.JPG","null","","","","","",""
"html-keyboard-response","258","326239","0.0-7.0-2.3","LF","kyb3lzn0xx","1920","1080","0","1","0","5ee9cbbbdcf662000932fb78","","null","","","learningBlock2","","","","<div style=""font-size:60px;""> </div>","null","LF","learning/Slide84.JPG","This is a dep:","","",""
"html-keyboard-response","259","327254","0.0-7.0-0.4","LF","kyb3lzn0xx","1920","1080","0","1","0","5ee9cbbbdcf662000932fb78","","null","","","learningBlock2","","","","This is a bim:","null","","","","","",""
"image-keyboard-response","260","327586","0.0-7.0-1.4","LF","kyb3lzn0xx","1920","1080","0","1","0","5ee9cbbbdcf662000932fb78","","null","","","","","","","learning/Slide85.JPG","null","","","","","",""
"html-keyboard-response","261","328600","0.0-7.0-2.4","LF","kyb3lzn0xx","1920","1080","0","1","0","5ee9cbbbdcf662000932fb78","","null","","","learningBlock2","","","","<div style=""font-size:60px;""> </div>","null","LF","learning/Slide85.JPG","This is a bim:","","",""
"html-keyboard-response","262","329603","0.0-7.0-0.5","LF","kyb3lzn0xx","1920","1080","0","1","0","5ee9cbbbdcf662000932fb78","","null","","","learningBlock2","","","","This is a tob:","null","","","","","",""
"image-keyboard-response","263","329931","0.0-7.0-1.5","LF","kyb3lzn0xx","1920","1080","0","1","0","5ee9cbbbdcf662000932fb78","","null","","","","","","","learning/Slide86.JPG","null","","","","","",""
"html-keyboard-response","264","330933","0.0-7.0-2.5","LF","kyb3lzn0xx","1920","1080","0","1","0","5ee9cbbbdcf662000932fb78","","null","","","learningBlock2","","","","<div style=""font-size:60px;""> </div>","null","LF","learning/Slide86.JPG","This is a tob:","","",""
"html-keyboard-response","265","331934","0.0-7.0-0.6","LF","kyb3lzn0xx","1920","1080","0","1","0","5ee9cbbbdcf662000932fb78","","null","","","learningBlock2","","","","This is a wug:","null","","","","","",""
"image-keyboard-response","266","332268","0.0-7.0-1.6","LF","kyb3lzn0xx","1920","1080","0","1","0","5ee9cbbbdcf662000932fb78","","null","","","","","","","learning/Slide87.JPG","null","","","","","",""
"html-keyboard-response","267","333271","0.0-7.0-2.6","LF","kyb3lzn0xx","1920","1080","0","1","0","5ee9cbbbdcf662000932fb78","","null","","","learningBlock2","","","","<div style=""font-size:60px;""> </div>","null","LF","learning/Slide87.JPG","This is a wug:","","",""
"html-keyboard-response","268","334285","0.0-7.0-0.7","LF","kyb3lzn0xx","1920","1080","0","1","0","5ee9cbbbdcf662000932fb78","","null","","","learningBlock2","","","","This is a tob:","null","","","","","",""
"image-keyboard-response","269","334617","0.0-7.0-1.7","LF","kyb3lzn0xx","1920","1080","0","1","0","5ee9cbbbdcf662000932fb78","","null","","","","","","","learning/Slide88.JPG","null","","","","","",""
"html-keyboard-response","270","335632","0.0-7.0-2.7","LF","kyb3lzn0xx","1920","1080","0","1","0","5ee9cbbbdcf662000932fb78","","null","","","learningBlock2","","","","<div style=""font-size:60px;""> </div>","null","LF","learning/Slide88.JPG","This is a tob:","","",""
"html-keyboard-response","271","336643","0.0-7.0-0.8","LF","kyb3lzn0xx","1920","1080","0","1","0","5ee9cbbbdcf662000932fb78","","null","","","learningBlock2","","","","This is a bim:","null","","","","","",""
"image-keyboard-response","272","336980","0.0-7.0-1.8","LF","kyb3lzn0xx","1920","1080","0","1","0","5ee9cbbbdcf662000932fb78","","null","","","","","","","learning/Slide89.JPG","null","","","","","",""
"html-keyboard-response","273","337981","0.0-7.0-2.8","LF","kyb3lzn0xx","1920","1080","0","1","0","5ee9cbbbdcf662000932fb78","","null","","","learningBlock2","","","","<div style=""font-size:60px;""> </div>","null","LF","learning/Slide89.JPG","This is a bim:","","",""
"html-keyboard-response","274","338983","0.0-7.0-0.9","LF","kyb3lzn0xx","1920","1080","0","1","0","5ee9cbbbdcf662000932fb78","","null","","","learningBlock2","","","","This is a dep:","null","","","","","",""
"image-keyboard-response","275","339315","0.0-7.0-1.9","LF","kyb3lzn0xx","1920","1080","0","1","0","5ee9cbbbdcf662000932fb78","","null","","","","","","","learning/Slide90.JPG","null","","","","","",""
"html-keyboard-response","276","340319","0.0-7.0-2.9","LF","kyb3lzn0xx","1920","1080","0","1","0","5ee9cbbbdcf662000932fb78","","null","","","learningBlock2","","","","<div style=""font-size:60px;""> </div>","null","LF","learning/Slide90.JPG","This is a dep:","","",""
"html-keyboard-response","277","341331","0.0-7.0-0.10","LF","kyb3lzn0xx","1920","1080","0","1","0","5ee9cbbbdcf662000932fb78","","null","","","learningBlock2","","","","This is a wug:","null","","","","","",""
"image-keyboard-response","278","341667","0.0-7.0-1.10","LF","kyb3lzn0xx","1920","1080","0","1","0","5ee9cbbbdcf662000932fb78","","null","","","","","","","learning/Slide91.JPG","null","","","","","",""
"html-keyboard-response","279","342679","0.0-7.0-2.10","LF","kyb3lzn0xx","1920","1080","0","1","0","5ee9cbbbdcf662000932fb78","","null","","","learningBlock2","","","","<div style=""font-size:60px;""> </div>","null","LF","learning/Slide91.JPG","This is a wug:","","",""
"html-keyboard-response","280","343682","0.0-7.0-0.11","LF","kyb3lzn0xx","1920","1080","0","1","0","5ee9cbbbdcf662000932fb78","","null","","","learningBlock2","","","","This is a tob:","null","","","","","",""
"image-keyboard-response","281","344013","0.0-7.0-1.11","LF","kyb3lzn0xx","1920","1080","0","1","0","5ee9cbbbdcf662000932fb78","","null","","","","","","","learning/Slide92.JPG","null","","","","","",""
"html-keyboard-response","282","345014","0.0-7.0-2.11","LF","kyb3lzn0xx","1920","1080","0","1","0","5ee9cbbbdcf662000932fb78","","null","","","learningBlock2","","","","<div style=""font-size:60px;""> </div>","null","LF","learning/Slide92.JPG","This is a tob:","","",""
"html-keyboard-response","283","346015","0.0-7.0-0.12","LF","kyb3lzn0xx","1920","1080","0","1","0","5ee9cbbbdcf662000932fb78","","null","","","learningBlock2","","","","This is a bim:","null","","","","","",""
"image-keyboard-response","284","346350","0.0-7.0-1.12","LF","kyb3lzn0xx","1920","1080","0","1","0","5ee9cbbbdcf662000932fb78","","null","","","","","","","learning/Slide93.JPG","null","","","","","",""
"html-keyboard-response","285","347366","0.0-7.0-2.12","LF","kyb3lzn0xx","1920","1080","0","1","0","5ee9cbbbdcf662000932fb78","","null","","","learningBlock2","","","","<div style=""font-size:60px;""> </div>","null","LF","learning/Slide93.JPG","This is a bim:","","",""
"html-keyboard-response","286","348378","0.0-7.0-0.13","LF","kyb3lzn0xx","1920","1080","0","1","0","5ee9cbbbdcf662000932fb78","","null","","","learningBlock2","","","","This is a tob:","null","","","","","",""
"image-keyboard-response","287","348716","0.0-7.0-1.13","LF","kyb3lzn0xx","1920","1080","0","1","0","5ee9cbbbdcf662000932fb78","","null","","","","","","","learning/Slide94.JPG","null","","","","","",""
"html-keyboard-response","288","349725","0.0-7.0-2.13","LF","kyb3lzn0xx","1920","1080","0","1","0","5ee9cbbbdcf662000932fb78","","null","","","learningBlock2","","","","<div style=""font-size:60px;""> </div>","null","LF","learning/Slide94.JPG","This is a tob:","","",""
"html-keyboard-response","289","350728","0.0-7.0-0.14","LF","kyb3lzn0xx","1920","1080","0","1","0","5ee9cbbbdcf662000932fb78","","null","","","learningBlock2","","","","This is a wug:","null","","","","","",""
"image-keyboard-response","290","351059","0.0-7.0-1.14","LF","kyb3lzn0xx","1920","1080","0","1","0","5ee9cbbbdcf662000932fb78","","null","","","","","","","learning/Slide95.JPG","null","","","","","",""
"html-keyboard-response","291","352060","0.0-7.0-2.14","LF","kyb3lzn0xx","1920","1080","0","1","0","5ee9cbbbdcf662000932fb78","","null","","","learningBlock2","","","","<div style=""font-size:60px;""> </div>","null","LF","learning/Slide95.JPG","This is a wug:","","",""
"html-keyboard-response","292","353061","0.0-7.0-0.15","LF","kyb3lzn0xx","1920","1080","0","1","0","5ee9cbbbdcf662000932fb78","","null","","","learningBlock2","","","","This is a tob:","null","","","","","",""
"image-keyboard-response","293","353399","0.0-7.0-1.15","LF","kyb3lzn0xx","1920","1080","0","1","0","5ee9cbbbdcf662000932fb78","","null","","","","","","","learning/Slide96.JPG","null","","","","","",""
"html-keyboard-response","294","354412","0.0-7.0-2.15","LF","kyb3lzn0xx","1920","1080","0","1","0","5ee9cbbbdcf662000932fb78","","null","","","learningBlock2","","","","<div style=""font-size:60px;""> </div>","null","LF","learning/Slide96.JPG","This is a tob:","","",""
"html-keyboard-response","295","355425","0.0-7.0-0.16","LF","kyb3lzn0xx","1920","1080","0","1","0","5ee9cbbbdcf662000932fb78","","null","","","learningBlock2","","","","This is a dep:","null","","","","","",""
"image-keyboard-response","296","355764","0.0-7.0-1.16","LF","kyb3lzn0xx","1920","1080","0","1","0","5ee9cbbbdcf662000932fb78","","null","","","","","","","learning/Slide97.JPG","null","","","","","",""
"html-keyboard-response","297","356772","0.0-7.0-2.16","LF","kyb3lzn0xx","1920","1080","0","1","0","5ee9cbbbdcf662000932fb78","","null","","","learningBlock2","","","","<div style=""font-size:60px;""> </div>","null","LF","learning/Slide97.JPG","This is a dep:","","",""
"html-keyboard-response","298","357775","0.0-7.0-0.17","LF","kyb3lzn0xx","1920","1080","0","1","0","5ee9cbbbdcf662000932fb78","","null","","","learningBlock2","","","","This is a bim:","null","","","","","",""
"image-keyboard-response","299","358106","0.0-7.0-1.17","LF","kyb3lzn0xx","1920","1080","0","1","0","5ee9cbbbdcf662000932fb78","","null","","","","","","","learning/Slide98.JPG","null","","","","","",""
"html-keyboard-response","300","359108","0.0-7.0-2.17","LF","kyb3lzn0xx","1920","1080","0","1","0","5ee9cbbbdcf662000932fb78","","null","","","learningBlock2","","","","<div style=""font-size:60px;""> </div>","null","LF","learning/Slide98.JPG","This is a bim:","","",""
"html-keyboard-response","301","360110","0.0-7.0-0.18","LF","kyb3lzn0xx","1920","1080","0","1","0","5ee9cbbbdcf662000932fb78","","null","","","learningBlock2","","","","This is a dep:","null","","","","","",""
"image-keyboard-response","302","360447","0.0-7.0-1.18","LF","kyb3lzn0xx","1920","1080","0","1","0","5ee9cbbbdcf662000932fb78","","null","","","","","","","learning/Slide99.JPG","null","","","","","",""
"html-keyboard-response","303","361459","0.0-7.0-2.18","LF","kyb3lzn0xx","1920","1080","0","1","0","5ee9cbbbdcf662000932fb78","","null","","","learningBlock2","","","","<div style=""font-size:60px;""> </div>","null","LF","learning/Slide99.JPG","This is a dep:","","",""
"html-keyboard-response","304","362472","0.0-7.0-0.19","LF","kyb3lzn0xx","1920","1080","0","1","0","5ee9cbbbdcf662000932fb78","","null","","","learningBlock2","","","","This is a bim:","null","","","","","",""
"image-keyboard-response","305","362813","0.0-7.0-1.19","LF","kyb3lzn0xx","1920","1080","0","1","0","5ee9cbbbdcf662000932fb78","","null","","","","","","","learning/Slide100.JPG","null","","","","","",""
"html-keyboard-response","306","363819","0.0-7.0-2.19","LF","kyb3lzn0xx","1920","1080","0","1","0","5ee9cbbbdcf662000932fb78","","null","","","learningBlock2","","","","<div style=""font-size:60px;""> </div>","null","LF","learning/Slide100.JPG","This is a bim:","","",""
"html-keyboard-response","307","364821","0.0-7.0-0.20","LF","kyb3lzn0xx","1920","1080","0","1","0","5ee9cbbbdcf662000932fb78","","null","","","learningBlock2","","","","This is a tob:","null","","","","","",""
"image-keyboard-response","308","365153","0.0-7.0-1.20","LF","kyb3lzn0xx","1920","1080","0","1","0","5ee9cbbbdcf662000932fb78","","null","","","","","","","learning/Slide101.JPG","null","","","","","",""
"html-keyboard-response","309","366156","0.0-7.0-2.20","LF","kyb3lzn0xx","1920","1080","0","1","0","5ee9cbbbdcf662000932fb78","","null","","","learningBlock2","","","","<div style=""font-size:60px;""> </div>","null","LF","learning/Slide101.JPG","This is a tob:","","",""
"html-keyboard-response","310","367157","0.0-7.0-0.21","LF","kyb3lzn0xx","1920","1080","0","1","0","5ee9cbbbdcf662000932fb78","","null","","","learningBlock2","","","","This is a bim:","null","","","","","",""
"image-keyboard-response","311","367496","0.0-7.0-1.21","LF","kyb3lzn0xx","1920","1080","0","1","0","5ee9cbbbdcf662000932fb78","","null","","","","","","","learning/Slide102.JPG","null","","","","","",""
"html-keyboard-response","312","368505","0.0-7.0-2.21","LF","kyb3lzn0xx","1920","1080","0","1","0","5ee9cbbbdcf662000932fb78","","null","","","learningBlock2","","","","<div style=""font-size:60px;""> </div>","null","LF","learning/Slide102.JPG","This is a bim:","","",""
"html-keyboard-response","313","369519","0.0-7.0-0.22","LF","kyb3lzn0xx","1920","1080","0","1","0","5ee9cbbbdcf662000932fb78","","null","","","learningBlock2","","","","This is a dep:","null","","","","","",""
"image-keyboard-response","314","369863","0.0-7.0-1.22","LF","kyb3lzn0xx","1920","1080","0","1","0","5ee9cbbbdcf662000932fb78","","null","","","","","","","learning/Slide103.JPG","null","","","","","",""
"html-keyboard-response","315","370866","0.0-7.0-2.22","LF","kyb3lzn0xx","1920","1080","0","1","0","5ee9cbbbdcf662000932fb78","","null","","","learningBlock2","","","","<div style=""font-size:60px;""> </div>","null","LF","learning/Slide103.JPG","This is a dep:","","",""
"html-keyboard-response","316","371869","0.0-7.0-0.23","LF","kyb3lzn0xx","1920","1080","0","1","0","5ee9cbbbdcf662000932fb78","","null","","","learningBlock2","","","","This is a tob:","null","","","","","",""
"image-keyboard-response","317","372199","0.0-7.0-1.23","LF","kyb3lzn0xx","1920","1080","0","1","0","5ee9cbbbdcf662000932fb78","","null","","","","","","","learning/Slide104.JPG","null","","","","","",""
"html-keyboard-response","318","373203","0.0-7.0-2.23","LF","kyb3lzn0xx","1920","1080","0","1","0","5ee9cbbbdcf662000932fb78","","null","","","learningBlock2","","","","<div style=""font-size:60px;""> </div>","null","LF","learning/Slide104.JPG","This is a tob:","","",""
"html-keyboard-response","319","374206","0.0-7.0-0.24","LF","kyb3lzn0xx","1920","1080","0","1","0","5ee9cbbbdcf662000932fb78","","null","","","learningBlock2","","","","This is a dep:","null","","","","","",""
"image-keyboard-response","320","374545","0.0-7.0-1.24","LF","kyb3lzn0xx","1920","1080","0","1","0","5ee9cbbbdcf662000932fb78","","null","","","","","","","learning/Slide105.JPG","null","","","","","",""
"html-keyboard-response","321","375552","0.0-7.0-2.24","LF","kyb3lzn0xx","1920","1080","0","1","0","5ee9cbbbdcf662000932fb78","","null","","","learningBlock2","","","","<div style=""font-size:60px;""> </div>","null","LF","learning/Slide105.JPG","This is a dep:","","",""
"html-keyboard-response","322","376566","0.0-7.0-0.25","LF","kyb3lzn0xx","1920","1080","0","1","0","5ee9cbbbdcf662000932fb78","","null","","","learningBlock2","","","","This is a wug:","null","","","","","",""
"image-keyboard-response","323","376911","0.0-7.0-1.25","LF","kyb3lzn0xx","1920","1080","0","1","0","5ee9cbbbdcf662000932fb78","","null","","","","","","","learning/Slide106.JPG","null","","","","","",""
"html-keyboard-response","324","377912","0.0-7.0-2.25","LF","kyb3lzn0xx","1920","1080","0","1","0","5ee9cbbbdcf662000932fb78","","null","","","learningBlock2","","","","<div style=""font-size:60px;""> </div>","null","LF","learning/Slide106.JPG","This is a wug:","","",""
"html-keyboard-response","325","378914","0.0-7.0-0.26","LF","kyb3lzn0xx","1920","1080","0","1","0","5ee9cbbbdcf662000932fb78","","null","","","learningBlock2","","","","This is a bim:","null","","","","","",""
"image-keyboard-response","326","379245","0.0-7.0-1.26","LF","kyb3lzn0xx","1920","1080","0","1","0","5ee9cbbbdcf662000932fb78","","null","","","","","","","learning/Slide107.JPG","null","","","","","",""
"html-keyboard-response","327","380250","0.0-7.0-2.26","LF","kyb3lzn0xx","1920","1080","0","1","0","5ee9cbbbdcf662000932fb78","","null","","","learningBlock2","","","","<div style=""font-size:60px;""> </div>","null","LF","learning/Slide107.JPG","This is a bim:","","",""
"html-keyboard-response","328","381253","0.0-7.0-0.27","LF","kyb3lzn0xx","1920","1080","0","1","0","5ee9cbbbdcf662000932fb78","","null","","","learningBlock2","","","","This is a dep:","null","","","","","",""
"image-keyboard-response","329","381594","0.0-7.0-1.27","LF","kyb3lzn0xx","1920","1080","0","1","0","5ee9cbbbdcf662000932fb78","","null","","","","","","","learning/Slide108.JPG","null","","","","","",""
"html-keyboard-response","330","382606","0.0-7.0-2.27","LF","kyb3lzn0xx","1920","1080","0","1","0","5ee9cbbbdcf662000932fb78","","null","","","learningBlock2","","","","<div style=""font-size:60px;""> </div>","null","LF","learning/Slide108.JPG","This is a dep:","","",""
"html-keyboard-response","331","383612","0.0-7.0-0.28","LF","kyb3lzn0xx","1920","1080","0","1","0","5ee9cbbbdcf662000932fb78","","null","","","learningBlock2","","","","This is a wug:","null","","","","","",""
"image-keyboard-response","332","383947","0.0-7.0-1.28","LF","kyb3lzn0xx","1920","1080","0","1","0","5ee9cbbbdcf662000932fb78","","null","","","","","","","learning/Slide109.JPG","null","","","","","",""
"html-keyboard-response","333","384949","0.0-7.0-2.28","LF","kyb3lzn0xx","1920","1080","0","1","0","5ee9cbbbdcf662000932fb78","","null","","","learningBlock2","","","","<div style=""font-size:60px;""> </div>","null","LF","learning/Slide109.JPG","This is a wug:","","",""
"html-keyboard-response","334","385950","0.0-7.0-0.29","LF","kyb3lzn0xx","1920","1080","0","1","0","5ee9cbbbdcf662000932fb78","","null","","","learningBlock2","","","","This is a bim:","null","","","","","",""
"image-keyboard-response","335","386294","0.0-7.0-1.29","LF","kyb3lzn0xx","1920","1080","0","1","0","5ee9cbbbdcf662000932fb78","","null","","","","","","","learning/Slide110.JPG","null","","","","","",""
"html-keyboard-response","336","387296","0.0-7.0-2.29","LF","kyb3lzn0xx","1920","1080","0","1","0","5ee9cbbbdcf662000932fb78","","null","","","learningBlock2","","","","<div style=""font-size:60px;""> </div>","null","LF","learning/Slide110.JPG","This is a bim:","","",""
"html-keyboard-response","337","388310","0.0-7.0-0.30","LF","kyb3lzn0xx","1920","1080","0","1","0","5ee9cbbbdcf662000932fb78","","null","","","learningBlock2","","","","This is a tob:","null","","","","","",""
"image-keyboard-response","338","388643","0.0-7.0-1.30","LF","kyb3lzn0xx","1920","1080","0","1","0","5ee9cbbbdcf662000932fb78","","null","","","","","","","learning/Slide111.JPG","null","","","","","",""
"html-keyboard-response","339","389647","0.0-7.0-2.30","LF","kyb3lzn0xx","1920","1080","0","1","0","5ee9cbbbdcf662000932fb78","","null","","","learningBlock2","","","","<div style=""font-size:60px;""> </div>","null","LF","learning/Slide111.JPG","This is a tob:","","",""
"html-keyboard-response","340","390655","0.0-7.0-0.31","LF","kyb3lzn0xx","1920","1080","0","1","0","5ee9cbbbdcf662000932fb78","","null","","","learningBlock2","","","","This is a wug:","null","","","","","",""
"image-keyboard-response","341","390987","0.0-7.0-1.31","LF","kyb3lzn0xx","1920","1080","0","1","0","5ee9cbbbdcf662000932fb78","","null","","","","","","","learning/Slide112.JPG","null","","","","","",""
"html-keyboard-response","342","392000","0.0-7.0-2.31","LF","kyb3lzn0xx","1920","1080","0","1","0","5ee9cbbbdcf662000932fb78","","null","","","learningBlock2","","","","<div style=""font-size:60px;""> </div>","null","LF","learning/Slide112.JPG","This is a wug:","","",""
"html-keyboard-response","343","393001","0.0-7.0-0.32","LF","kyb3lzn0xx","1920","1080","0","1","0","5ee9cbbbdcf662000932fb78","","null","","","learningBlock2","","","","This is a tob:","null","","","","","",""
"image-keyboard-response","344","393341","0.0-7.0-1.32","LF","kyb3lzn0xx","1920","1080","0","1","0","5ee9cbbbdcf662000932fb78","","null","","","","","","","learning/Slide113.JPG","null","","","","","",""
"html-keyboard-response","345","394343","0.0-7.0-2.32","LF","kyb3lzn0xx","1920","1080","0","1","0","5ee9cbbbdcf662000932fb78","","null","","","learningBlock2","","","","<div style=""font-size:60px;""> </div>","null","LF","learning/Slide113.JPG","This is a tob:","","",""
"html-keyboard-response","346","395347","0.0-7.0-0.33","LF","kyb3lzn0xx","1920","1080","0","1","0","5ee9cbbbdcf662000932fb78","","null","","","learningBlock2","","","","This is a wug:","null","","","","","",""
"image-keyboard-response","347","395692","0.0-7.0-1.33","LF","kyb3lzn0xx","1920","1080","0","1","0","5ee9cbbbdcf662000932fb78","","null","","","","","","","learning/Slide114.JPG","null","","","","","",""
"html-keyboard-response","348","396696","0.0-7.0-2.33","LF","kyb3lzn0xx","1920","1080","0","1","0","5ee9cbbbdcf662000932fb78","","null","","","learningBlock2","","","","<div style=""font-size:60px;""> </div>","null","LF","learning/Slide114.JPG","This is a wug:","","",""
"html-keyboard-response","349","397706","0.0-7.0-0.34","LF","kyb3lzn0xx","1920","1080","0","1","0","5ee9cbbbdcf662000932fb78","","null","","","learningBlock2","","","","This is a bim:","null","","","","","",""
"image-keyboard-response","350","398037","0.0-7.0-1.34","LF","kyb3lzn0xx","1920","1080","0","1","0","5ee9cbbbdcf662000932fb78","","null","","","","","","","learning/Slide115.JPG","null","","","","","",""
"html-keyboard-response","351","399040","0.0-7.0-2.34","LF","kyb3lzn0xx","1920","1080","0","1","0","5ee9cbbbdcf662000932fb78","","null","","","learningBlock2","","","","<div style=""font-size:60px;""> </div>","null","LF","learning/Slide115.JPG","This is a bim:","","",""
"html-keyboard-response","352","400041","0.0-7.0-0.35","LF","kyb3lzn0xx","1920","1080","0","1","0","5ee9cbbbdcf662000932fb78","","null","","","learningBlock2","","","","This is a dep:","null","","","","","",""
"image-keyboard-response","353","400376","0.0-7.0-1.35","LF","kyb3lzn0xx","1920","1080","0","1","0","5ee9cbbbdcf662000932fb78","","null","","","","","","","learning/Slide116.JPG","null","","","","","",""
"html-keyboard-response","354","401391","0.0-7.0-2.35","LF","kyb3lzn0xx","1920","1080","0","1","0","5ee9cbbbdcf662000932fb78","","null","","","learningBlock2","","","","<div style=""font-size:60px;""> </div>","null","LF","learning/Slide116.JPG","This is a dep:","","",""
"html-keyboard-response","355","402405","0.0-7.0-0.36","LF","kyb3lzn0xx","1920","1080","0","1","0","5ee9cbbbdcf662000932fb78","","null","","","learningBlock2","","","","This is a tob:","null","","","","","",""
"image-keyboard-response","356","402740","0.0-7.0-1.36","LF","kyb3lzn0xx","1920","1080","0","1","0","5ee9cbbbdcf662000932fb78","","null","","","","","","","learning/Slide117.JPG","null","","","","","",""
"html-keyboard-response","357","403755","0.0-7.0-2.36","LF","kyb3lzn0xx","1920","1080","0","1","0","5ee9cbbbdcf662000932fb78","","null","","","learningBlock2","","","","<div style=""font-size:60px;""> </div>","null","LF","learning/Slide117.JPG","This is a tob:","","",""
"html-keyboard-response","358","404769","0.0-7.0-0.37","LF","kyb3lzn0xx","1920","1080","0","1","0","5ee9cbbbdcf662000932fb78","","null","","","learningBlock2","","","","This is a dep:","null","","","","","",""
"image-keyboard-response","359","405099","0.0-7.0-1.37","LF","kyb3lzn0xx","1920","1080","0","1","0","5ee9cbbbdcf662000932fb78","","null","","","","","","","learning/Slide118.JPG","null","","","","","",""
"html-keyboard-response","360","406103","0.0-7.0-2.37","LF","kyb3lzn0xx","1920","1080","0","1","0","5ee9cbbbdcf662000932fb78","","null","","","learningBlock2","","","","<div style=""font-size:60px;""> </div>","null","LF","learning/Slide118.JPG","This is a dep:","","",""
"html-keyboard-response","361","407106","0.0-7.0-0.38","LF","kyb3lzn0xx","1920","1080","0","1","0","5ee9cbbbdcf662000932fb78","","null","","","learningBlock2","","","","This is a wug:","null","","","","","",""
"image-keyboard-response","362","407439","0.0-7.0-1.38","LF","kyb3lzn0xx","1920","1080","0","1","0","5ee9cbbbdcf662000932fb78","","null","","","","","","","learning/Slide119.JPG","null","","","","","",""
"html-keyboard-response","363","408453","0.0-7.0-2.38","LF","kyb3lzn0xx","1920","1080","0","1","0","5ee9cbbbdcf662000932fb78","","null","","","learningBlock2","","","","<div style=""font-size:60px;""> </div>","null","LF","learning/Slide119.JPG","This is a wug:","","",""
"html-keyboard-response","364","409456","0.0-7.0-0.39","LF","kyb3lzn0xx","1920","1080","0","1","0","5ee9cbbbdcf662000932fb78","","null","","","learningBlock2","","","","This is a dep:","null","","","","","",""
"image-keyboard-response","365","409790","0.0-7.0-1.39","LF","kyb3lzn0xx","1920","1080","0","1","0","5ee9cbbbdcf662000932fb78","","null","","","","","","","learning/Slide120.JPG","null","","","","","",""
"html-keyboard-response","366","410802","0.0-7.0-2.39","LF","kyb3lzn0xx","1920","1080","0","1","0","5ee9cbbbdcf662000932fb78","","null","","","learningBlock2","","","","<div style=""font-size:60px;""> </div>","null","LF","learning/Slide120.JPG","This is a dep:","","",""
"html-keyboard-response","367","411815","0.0-7.0-0.40","LF","kyb3lzn0xx","1920","1080","0","1","0","5ee9cbbbdcf662000932fb78","","null","","","learningBlock2","","","","This is a bim:","null","","","","","",""
"image-keyboard-response","368","412156","0.0-7.0-1.40","LF","kyb3lzn0xx","1920","1080","0","1","0","5ee9cbbbdcf662000932fb78","","null","","","","","","","learning/Slide121.JPG","null","","","","","",""
"html-keyboard-response","369","413165","0.0-7.0-2.40","LF","kyb3lzn0xx","1920","1080","0","1","0","5ee9cbbbdcf662000932fb78","","null","","","learningBlock2","","","","<div style=""font-size:60px;""> </div>","null","LF","learning/Slide121.JPG","This is a bim:","","",""
"html-keyboard-response","370","414169","0.0-7.0-0.41","LF","kyb3lzn0xx","1920","1080","0","1","0","5ee9cbbbdcf662000932fb78","","null","","","learningBlock2","","","","This is a wug:","null","","","","","",""
"image-keyboard-response","371","414505","0.0-7.0-1.41","LF","kyb3lzn0xx","1920","1080","0","1","0","5ee9cbbbdcf662000932fb78","","null","","","","","","","learning/Slide122.JPG","null","","","","","",""
"html-keyboard-response","372","415515","0.0-7.0-2.41","LF","kyb3lzn0xx","1920","1080","0","1","0","5ee9cbbbdcf662000932fb78","","null","","","learningBlock2","","","","<div style=""font-size:60px;""> </div>","null","LF","learning/Slide122.JPG","This is a wug:","","",""
"html-keyboard-response","373","416519","0.0-7.0-0.42","LF","kyb3lzn0xx","1920","1080","0","1","0","5ee9cbbbdcf662000932fb78","","null","","","learningBlock2","","","","This is a bim:","null","","","","","",""
"image-keyboard-response","374","416855","0.0-7.0-1.42","LF","kyb3lzn0xx","1920","1080","0","1","0","5ee9cbbbdcf662000932fb78","","null","","","","","","","learning/Slide123.JPG","null","","","","","",""
"html-keyboard-response","375","417866","0.0-7.0-2.42","LF","kyb3lzn0xx","1920","1080","0","1","0","5ee9cbbbdcf662000932fb78","","null","","","learningBlock2","","","","<div style=""font-size:60px;""> </div>","null","LF","learning/Slide123.JPG","This is a bim:","","",""
"html-keyboard-response","376","418879","0.0-7.0-0.43","LF","kyb3lzn0xx","1920","1080","0","1","0","5ee9cbbbdcf662000932fb78","","null","","","learningBlock2","","","","This is a tob:","null","","","","","",""
"image-keyboard-response","377","419222","0.0-7.0-1.43","LF","kyb3lzn0xx","1920","1080","0","1","0","5ee9cbbbdcf662000932fb78","","null","","","","","","","learning/Slide124.JPG","null","","","","","",""
"html-keyboard-response","378","420228","0.0-7.0-2.43","LF","kyb3lzn0xx","1920","1080","0","1","0","5ee9cbbbdcf662000932fb78","","null","","","learningBlock2","","","","<div style=""font-size:60px;""> </div>","null","LF","learning/Slide124.JPG","This is a tob:","","",""
"html-keyboard-response","379","421231","0.0-7.0-0.44","LF","kyb3lzn0xx","1920","1080","0","1","0","5ee9cbbbdcf662000932fb78","","null","","","learningBlock2","","","","This is a bim:","null","","","","","",""
"image-keyboard-response","380","421570","0.0-7.0-1.44","LF","kyb3lzn0xx","1920","1080","0","1","0","5ee9cbbbdcf662000932fb78","","null","","","","","","","learning/Slide125.JPG","null","","","","","",""
"html-keyboard-response","381","422579","0.0-7.0-2.44","LF","kyb3lzn0xx","1920","1080","0","1","0","5ee9cbbbdcf662000932fb78","","null","","","learningBlock2","","","","<div style=""font-size:60px;""> </div>","null","LF","learning/Slide125.JPG","This is a bim:","","",""
"html-keyboard-response","382","423590","0.0-7.0-0.45","LF","kyb3lzn0xx","1920","1080","0","1","0","5ee9cbbbdcf662000932fb78","","null","","","learningBlock2","","","","This is a tob:","null","","","","","",""
"image-keyboard-response","383","423931","0.0-7.0-1.45","LF","kyb3lzn0xx","1920","1080","0","1","0","5ee9cbbbdcf662000932fb78","","null","","","","","","","learning/Slide126.JPG","null","","","","","",""
"html-keyboard-response","384","424933","0.0-7.0-2.45","LF","kyb3lzn0xx","1920","1080","0","1","0","5ee9cbbbdcf662000932fb78","","null","","","learningBlock2","","","","<div style=""font-size:60px;""> </div>","null","LF","learning/Slide126.JPG","This is a tob:","","",""
"html-keyboard-response","385","425935","0.0-7.0-0.46","LF","kyb3lzn0xx","1920","1080","0","1","0","5ee9cbbbdcf662000932fb78","","null","","","learningBlock2","","","","This is a dep:","null","","","","","",""
"image-keyboard-response","386","426287","0.0-7.0-1.46","LF","kyb3lzn0xx","1920","1080","0","1","0","5ee9cbbbdcf662000932fb78","","null","","","","","","","learning/Slide127.JPG","null","","","","","",""
"html-keyboard-response","387","427290","0.0-7.0-2.46","LF","kyb3lzn0xx","1920","1080","0","1","0","5ee9cbbbdcf662000932fb78","","null","","","learningBlock2","","","","<div style=""font-size:60px;""> </div>","null","LF","learning/Slide127.JPG","This is a dep:","","",""
"html-keyboard-response","388","428293","0.0-7.0-0.47","LF","kyb3lzn0xx","1920","1080","0","1","0","5ee9cbbbdcf662000932fb78","","null","","","learningBlock2","","","","This is a wug:","null","","","","","",""
"image-keyboard-response","389","428636","0.0-7.0-1.47","LF","kyb3lzn0xx","1920","1080","0","1","0","5ee9cbbbdcf662000932fb78","","null","","","","","","","learning/Slide128.JPG","null","","","","","",""
"html-keyboard-response","390","429639","0.0-7.0-2.47","LF","kyb3lzn0xx","1920","1080","0","1","0","5ee9cbbbdcf662000932fb78","","null","","","learningBlock2","","","","<div style=""font-size:60px;""> </div>","null","LF","learning/Slide128.JPG","This is a wug:","","",""
"html-keyboard-response","391","430644","0.0-7.0-0.48","LF","kyb3lzn0xx","1920","1080","0","1","0","5ee9cbbbdcf662000932fb78","","null","","","learningBlock2","","","","This is a tob:","null","","","","","",""
"image-keyboard-response","392","430981","0.0-7.0-1.48","LF","kyb3lzn0xx","1920","1080","0","1","0","5ee9cbbbdcf662000932fb78","","null","","","","","","","learning/Slide129.JPG","null","","","","","",""
"html-keyboard-response","393","431987","0.0-7.0-2.48","LF","kyb3lzn0xx","1920","1080","0","1","0","5ee9cbbbdcf662000932fb78","","null","","","learningBlock2","","","","<div style=""font-size:60px;""> </div>","null","LF","learning/Slide129.JPG","This is a tob:","","",""
"html-keyboard-response","394","432989","0.0-7.0-0.49","LF","kyb3lzn0xx","1920","1080","0","1","0","5ee9cbbbdcf662000932fb78","","null","","","learningBlock2","","","","This is a wug:","null","","","","","",""
"image-keyboard-response","395","433336","0.0-7.0-1.49","LF","kyb3lzn0xx","1920","1080","0","1","0","5ee9cbbbdcf662000932fb78","","null","","","","","","","learning/Slide130.JPG","null","","","","","",""
"html-keyboard-response","396","434338","0.0-7.0-2.49","LF","kyb3lzn0xx","1920","1080","0","1","0","5ee9cbbbdcf662000932fb78","","null","","","learningBlock2","","","","<div style=""font-size:60px;""> </div>","null","LF","learning/Slide130.JPG","This is a wug:","","",""
"html-keyboard-response","397","435340","0.0-7.0-0.50","LF","kyb3lzn0xx","1920","1080","0","1","0","5ee9cbbbdcf662000932fb78","","null","","","learningBlock2","","","","This is a bim:","null","","","","","",""
"image-keyboard-response","398","435685","0.0-7.0-1.50","LF","kyb3lzn0xx","1920","1080","0","1","0","5ee9cbbbdcf662000932fb78","","null","","","","","","","learning/Slide131.JPG","null","","","","","",""
"html-keyboard-response","399","436687","0.0-7.0-2.50","LF","kyb3lzn0xx","1920","1080","0","1","0","5ee9cbbbdcf662000932fb78","","null","","","learningBlock2","","","","<div style=""font-size:60px;""> </div>","null","LF","learning/Slide131.JPG","This is a bim:","","",""
"html-keyboard-response","400","437691","0.0-7.0-0.51","LF","kyb3lzn0xx","1920","1080","0","1","0","5ee9cbbbdcf662000932fb78","","null","","","learningBlock2","","","","This is a dep:","null","","","","","",""
"image-keyboard-response","401","438028","0.0-7.0-1.51","LF","kyb3lzn0xx","1920","1080","0","1","0","5ee9cbbbdcf662000932fb78","","null","","","","","","","learning/Slide132.JPG","null","","","","","",""
"html-keyboard-response","402","439034","0.0-7.0-2.51","LF","kyb3lzn0xx","1920","1080","0","1","0","5ee9cbbbdcf662000932fb78","","null","","","learningBlock2","","","","<div style=""font-size:60px;""> </div>","null","LF","learning/Slide132.JPG","This is a dep:","","",""
"html-keyboard-response","403","440037","0.0-7.0-0.52","LF","kyb3lzn0xx","1920","1080","0","1","0","5ee9cbbbdcf662000932fb78","","null","","","learningBlock2","","","","This is a tob:","null","","","","","",""
"image-keyboard-response","404","440385","0.0-7.0-1.52","LF","kyb3lzn0xx","1920","1080","0","1","0","5ee9cbbbdcf662000932fb78","","null","","","","","","","learning/Slide133.JPG","null","","","","","",""
"html-keyboard-response","405","441387","0.0-7.0-2.52","LF","kyb3lzn0xx","1920","1080","0","1","0","5ee9cbbbdcf662000932fb78","","null","","","learningBlock2","","","","<div style=""font-size:60px;""> </div>","null","LF","learning/Slide133.JPG","This is a tob:","","",""
"html-keyboard-response","406","442402","0.0-7.0-0.53","LF","kyb3lzn0xx","1920","1080","0","1","0","5ee9cbbbdcf662000932fb78","","null","","","learningBlock2","","","","This is a dep:","null","","","","","",""
"image-keyboard-response","407","442751","0.0-7.0-1.53","LF","kyb3lzn0xx","1920","1080","0","1","0","5ee9cbbbdcf662000932fb78","","null","","","","","","","learning/Slide134.JPG","null","","","","","",""
"html-keyboard-response","408","443765","0.0-7.0-2.53","LF","kyb3lzn0xx","1920","1080","0","1","0","5ee9cbbbdcf662000932fb78","","null","","","learningBlock2","","","","<div style=""font-size:60px;""> </div>","null","LF","learning/Slide134.JPG","This is a dep:","","",""
"html-keyboard-response","409","444769","0.0-7.0-0.54","LF","kyb3lzn0xx","1920","1080","0","1","0","5ee9cbbbdcf662000932fb78","","null","","","learningBlock2","","","","This is a tob:","null","","","","","",""
"image-keyboard-response","410","445096","0.0-7.0-1.54","LF","kyb3lzn0xx","1920","1080","0","1","0","5ee9cbbbdcf662000932fb78","","null","","","","","","","learning/Slide135.JPG","null","","","","","",""
"html-keyboard-response","411","446112","0.0-7.0-2.54","LF","kyb3lzn0xx","1920","1080","0","1","0","5ee9cbbbdcf662000932fb78","","null","","","learningBlock2","","","","<div style=""font-size:60px;""> </div>","null","LF","learning/Slide135.JPG","This is a tob:","","",""
"html-keyboard-response","412","447116","0.0-7.0-0.55","LF","kyb3lzn0xx","1920","1080","0","1","0","5ee9cbbbdcf662000932fb78","","null","","","learningBlock2","","","","This is a wug:","null","","","","","",""
"image-keyboard-response","413","447450","0.0-7.0-1.55","LF","kyb3lzn0xx","1920","1080","0","1","0","5ee9cbbbdcf662000932fb78","","null","","","","","","","learning/Slide136.JPG","null","","","","","",""
"html-keyboard-response","414","448462","0.0-7.0-2.55","LF","kyb3lzn0xx","1920","1080","0","1","0","5ee9cbbbdcf662000932fb78","","null","","","learningBlock2","","","","<div style=""font-size:60px;""> </div>","null","LF","learning/Slide136.JPG","This is a wug:","","",""
"html-keyboard-response","415","449466","0.0-7.0-0.56","LF","kyb3lzn0xx","1920","1080","0","1","0","5ee9cbbbdcf662000932fb78","","null","","","learningBlock2","","","","This is a tob:","null","","","","","",""
"image-keyboard-response","416","449800","0.0-7.0-1.56","LF","kyb3lzn0xx","1920","1080","0","1","0","5ee9cbbbdcf662000932fb78","","null","","","","","","","learning/Slide137.JPG","null","","","","","",""
"html-keyboard-response","417","450810","0.0-7.0-2.56","LF","kyb3lzn0xx","1920","1080","0","1","0","5ee9cbbbdcf662000932fb78","","null","","","learningBlock2","","","","<div style=""font-size:60px;""> </div>","null","LF","learning/Slide137.JPG","This is a tob:","","",""
"html-keyboard-response","418","451815","0.0-7.0-0.57","LF","kyb3lzn0xx","1920","1080","0","1","0","5ee9cbbbdcf662000932fb78","","null","","","learningBlock2","","","","This is a bim:","null","","","","","",""
"image-keyboard-response","419","452143","0.0-7.0-1.57","LF","kyb3lzn0xx","1920","1080","0","1","0","5ee9cbbbdcf662000932fb78","","null","","","","","","","learning/Slide138.JPG","null","","","","","",""
"html-keyboard-response","420","453159","0.0-7.0-2.57","LF","kyb3lzn0xx","1920","1080","0","1","0","5ee9cbbbdcf662000932fb78","","null","","","learningBlock2","","","","<div style=""font-size:60px;""> </div>","null","LF","learning/Slide138.JPG","This is a bim:","","",""
"html-keyboard-response","421","454162","0.0-7.0-0.58","LF","kyb3lzn0xx","1920","1080","0","1","0","5ee9cbbbdcf662000932fb78","","null","","","learningBlock2","","","","This is a wug:","null","","","","","",""
"image-keyboard-response","422","454499","0.0-7.0-1.58","LF","kyb3lzn0xx","1920","1080","0","1","0","5ee9cbbbdcf662000932fb78","","null","","","","","","","learning/Slide139.JPG","null","","","","","",""
"html-keyboard-response","423","455510","0.0-7.0-2.58","LF","kyb3lzn0xx","1920","1080","0","1","0","5ee9cbbbdcf662000932fb78","","null","","","learningBlock2","","","","<div style=""font-size:60px;""> </div>","null","LF","learning/Slide139.JPG","This is a wug:","","",""
"html-keyboard-response","424","456512","0.0-7.0-0.59","LF","kyb3lzn0xx","1920","1080","0","1","0","5ee9cbbbdcf662000932fb78","","null","","","learningBlock2","","","","This is a dep:","null","","","","","",""
"image-keyboard-response","425","456847","0.0-7.0-1.59","LF","kyb3lzn0xx","1920","1080","0","1","0","5ee9cbbbdcf662000932fb78","","null","","","","","","","learning/Slide140.JPG","null","","","","","",""
"html-keyboard-response","426","457859","0.0-7.0-2.59","LF","kyb3lzn0xx","1920","1080","0","1","0","5ee9cbbbdcf662000932fb78","","null","","","learningBlock2","","","","<div style=""font-size:60px;""> </div>","null","LF","learning/Slide140.JPG","This is a dep:","","",""
"html-keyboard-response","427","458862","0.0-7.0-0.60","LF","kyb3lzn0xx","1920","1080","0","1","0","5ee9cbbbdcf662000932fb78","","null","","","learningBlock2","","","","This is a tob:","null","","","","","",""
"image-keyboard-response","428","459188","0.0-7.0-1.60","LF","kyb3lzn0xx","1920","1080","0","1","0","5ee9cbbbdcf662000932fb78","","null","","","","","","","learning/Slide141.JPG","null","","","","","",""
"html-keyboard-response","429","460190","0.0-7.0-2.60","LF","kyb3lzn0xx","1920","1080","0","1","0","5ee9cbbbdcf662000932fb78","","null","","","learningBlock2","","","","<div style=""font-size:60px;""> </div>","null","LF","learning/Slide141.JPG","This is a tob:","","",""
"html-keyboard-response","430","461193","0.0-7.0-0.61","LF","kyb3lzn0xx","1920","1080","0","1","0","5ee9cbbbdcf662000932fb78","","null","","","learningBlock2","","","","This is a wug:","null","","","","","",""
"image-keyboard-response","431","461531","0.0-7.0-1.61","LF","kyb3lzn0xx","1920","1080","0","1","0","5ee9cbbbdcf662000932fb78","","null","","","","","","","learning/Slide142.JPG","null","","","","","",""
"html-keyboard-response","432","462541","0.0-7.0-2.61","LF","kyb3lzn0xx","1920","1080","0","1","0","5ee9cbbbdcf662000932fb78","","null","","","learningBlock2","","","","<div style=""font-size:60px;""> </div>","null","LF","learning/Slide142.JPG","This is a wug:","","",""
"html-keyboard-response","433","463543","0.0-7.0-0.62","LF","kyb3lzn0xx","1920","1080","0","1","0","5ee9cbbbdcf662000932fb78","","null","","","learningBlock2","","","","This is a bim:","null","","","","","",""
"image-keyboard-response","434","463881","0.0-7.0-1.62","LF","kyb3lzn0xx","1920","1080","0","1","0","5ee9cbbbdcf662000932fb78","","null","","","","","","","learning/Slide143.JPG","null","","","","","",""
"html-keyboard-response","435","464890","0.0-7.0-2.62","LF","kyb3lzn0xx","1920","1080","0","1","0","5ee9cbbbdcf662000932fb78","","null","","","learningBlock2","","","","<div style=""font-size:60px;""> </div>","null","LF","learning/Slide143.JPG","This is a bim:","","",""
