"trial_type","trial_index","time_elapsed","internal_node_id","condition","subject","screen_width","screen_height","attention","distraction","conscientious","prolificID","success","rt","url","view_history","test_part","final_height_px","final_width_px","scale_factor","stimulus","key_press","learningType","presentedImage","presentedLabel","button_pressed","response","responses"
"pavlovia","0","16","0.0-0.0","LF","y20qp8dcxo","1920","1080","0","1","0","5f578563765fec223eb51594","","","","","","","","","","","","","","","",""
"fullscreen","1","35620","0.0-1.0","LF","y20qp8dcxo","1920","1080","0","1","0","5f578563765fec223eb51594","true","","","","","","","","","","","","","","",""
"external-html","2","137326","0.0-2.0-0.0","LF","y20qp8dcxo","1920","1080","0","1","0","5f578563765fec223eb51594","","101653.43000000028","text/information_english.html","","","","","","","","","","","","",""
"external-html","3","171340","0.0-2.0-1.0","LF","y20qp8dcxo","1920","1080","0","1","0","5f578563765fec223eb51594","","33970.639999999985","text/consent_english.html","","","","","","","","","","","","",""
"instructions","4","200903","0.0-3.0","LF","y20qp8dcxo","1920","1080","0","1","0","5f578563765fec223eb51594","","NA","","[{""page_index"":0,""viewing_time"":2584.400000000198},{""page_index"":1,""viewing_time"":26975.864999999874}]","instructions","","","","","","","","","","",""
"resize","5","285632","0.0-4.0","LF","y20qp8dcxo","1920","1080","0","1","0","5f578563765fec223eb51594","","","","","","","318","2.019047619047619","","","","","","","",""
"html-keyboard-response","6","286635","0.0-5.0-0.0","LF","y20qp8dcxo","1920","1080","0","1","0","5f578563765fec223eb51594","","null","","","learningBlock1","","","","This is a tob:","null","","","","","",""
"image-keyboard-response","7","286963","0.0-5.0-1.0","LF","y20qp8dcxo","1920","1080","0","1","0","5f578563765fec223eb51594","","null","","","","","","","learning/Slide1.JPG","null","","","","","",""
"html-keyboard-response","8","287966","0.0-5.0-2.0","LF","y20qp8dcxo","1920","1080","0","1","0","5f578563765fec223eb51594","","null","","","learningBlock1","","","","<div style=""font-size:60px;""> </div>","null","LF","learning/Slide1.JPG","This is a tob:","","",""
"html-keyboard-response","9","288968","0.0-5.0-0.1","LF","y20qp8dcxo","1920","1080","0","1","0","5f578563765fec223eb51594","","null","","","learningBlock1","","","","This is a wug:","null","","","","","",""
"image-keyboard-response","10","289296","0.0-5.0-1.1","LF","y20qp8dcxo","1920","1080","0","1","0","5f578563765fec223eb51594","","null","","","","","","","learning/Slide2.JPG","null","","","","","",""
"html-keyboard-response","11","290298","0.0-5.0-2.1","LF","y20qp8dcxo","1920","1080","0","1","0","5f578563765fec223eb51594","","null","","","learningBlock1","","","","<div style=""font-size:60px;""> </div>","null","LF","learning/Slide2.JPG","This is a wug:","","",""
"html-keyboard-response","12","291300","0.0-5.0-0.2","LF","y20qp8dcxo","1920","1080","0","1","0","5f578563765fec223eb51594","","null","","","learningBlock1","","","","This is a bim:","null","","","","","",""
"image-keyboard-response","13","291629","0.0-5.0-1.2","LF","y20qp8dcxo","1920","1080","0","1","0","5f578563765fec223eb51594","","null","","","","","","","learning/Slide3.JPG","null","","","","","",""
"html-keyboard-response","14","292631","0.0-5.0-2.2","LF","y20qp8dcxo","1920","1080","0","1","0","5f578563765fec223eb51594","","null","","","learningBlock1","","","","<div style=""font-size:60px;""> </div>","null","LF","learning/Slide3.JPG","This is a bim:","","",""
"html-keyboard-response","15","293633","0.0-5.0-0.3","LF","y20qp8dcxo","1920","1080","0","1","0","5f578563765fec223eb51594","","null","","","learningBlock1","","","","This is a dep:","null","","","","","",""
"image-keyboard-response","16","293961","0.0-5.0-1.3","LF","y20qp8dcxo","1920","1080","0","1","0","5f578563765fec223eb51594","","null","","","","","","","learning/Slide4.JPG","null","","","","","",""
"html-keyboard-response","17","294962","0.0-5.0-2.3","LF","y20qp8dcxo","1920","1080","0","1","0","5f578563765fec223eb51594","","null","","","learningBlock1","","","","<div style=""font-size:60px;""> </div>","null","LF","learning/Slide4.JPG","This is a dep:","","",""
"html-keyboard-response","18","295963","0.0-5.0-0.4","LF","y20qp8dcxo","1920","1080","0","1","0","5f578563765fec223eb51594","","null","","","learningBlock1","","","","This is a wug:","null","","","","","",""
"image-keyboard-response","19","296291","0.0-5.0-1.4","LF","y20qp8dcxo","1920","1080","0","1","0","5f578563765fec223eb51594","","null","","","","","","","learning/Slide5.JPG","null","","","","","",""
"html-keyboard-response","20","297292","0.0-5.0-2.4","LF","y20qp8dcxo","1920","1080","0","1","0","5f578563765fec223eb51594","","null","","","learningBlock1","","","","<div style=""font-size:60px;""> </div>","null","LF","learning/Slide5.JPG","This is a wug:","","",""
"html-keyboard-response","21","298294","0.0-5.0-0.5","LF","y20qp8dcxo","1920","1080","0","1","0","5f578563765fec223eb51594","","null","","","learningBlock1","","","","This is a dep:","null","","","","","",""
"image-keyboard-response","22","298622","0.0-5.0-1.5","LF","y20qp8dcxo","1920","1080","0","1","0","5f578563765fec223eb51594","","null","","","","","","","learning/Slide6.JPG","null","","","","","",""
"html-keyboard-response","23","299625","0.0-5.0-2.5","LF","y20qp8dcxo","1920","1080","0","1","0","5f578563765fec223eb51594","","null","","","learningBlock1","","","","<div style=""font-size:60px;""> </div>","null","LF","learning/Slide6.JPG","This is a dep:","","",""
"html-keyboard-response","24","300626","0.0-5.0-0.6","LF","y20qp8dcxo","1920","1080","0","1","0","5f578563765fec223eb51594","","null","","","learningBlock1","","","","This is a wug:","null","","","","","",""
"image-keyboard-response","25","300954","0.0-5.0-1.6","LF","y20qp8dcxo","1920","1080","0","1","0","5f578563765fec223eb51594","","null","","","","","","","learning/Slide7.JPG","null","","","","","",""
"html-keyboard-response","26","301955","0.0-5.0-2.6","LF","y20qp8dcxo","1920","1080","0","1","0","5f578563765fec223eb51594","","null","","","learningBlock1","","","","<div style=""font-size:60px;""> </div>","null","LF","learning/Slide7.JPG","This is a wug:","","",""
"html-keyboard-response","27","302957","0.0-5.0-0.7","LF","y20qp8dcxo","1920","1080","0","1","0","5f578563765fec223eb51594","","null","","","learningBlock1","","","","This is a bim:","null","","","","","",""
"image-keyboard-response","28","303284","0.0-5.0-1.7","LF","y20qp8dcxo","1920","1080","0","1","0","5f578563765fec223eb51594","","null","","","","","","","learning/Slide8.JPG","null","","","","","",""
"html-keyboard-response","29","304286","0.0-5.0-2.7","LF","y20qp8dcxo","1920","1080","0","1","0","5f578563765fec223eb51594","","null","","","learningBlock1","","","","<div style=""font-size:60px;""> </div>","null","LF","learning/Slide8.JPG","This is a bim:","","",""
"html-keyboard-response","30","305288","0.0-5.0-0.8","LF","y20qp8dcxo","1920","1080","0","1","0","5f578563765fec223eb51594","","null","","","learningBlock1","","","","This is a wug:","null","","","","","",""
"image-keyboard-response","31","305616","0.0-5.0-1.8","LF","y20qp8dcxo","1920","1080","0","1","0","5f578563765fec223eb51594","","null","","","","","","","learning/Slide9.JPG","null","","","","","",""
"html-keyboard-response","32","306618","0.0-5.0-2.8","LF","y20qp8dcxo","1920","1080","0","1","0","5f578563765fec223eb51594","","null","","","learningBlock1","","","","<div style=""font-size:60px;""> </div>","null","LF","learning/Slide9.JPG","This is a wug:","","",""
"html-keyboard-response","33","307620","0.0-5.0-0.9","LF","y20qp8dcxo","1920","1080","0","1","0","5f578563765fec223eb51594","","null","","","learningBlock1","","","","This is a dep:","null","","","","","",""
"image-keyboard-response","34","307949","0.0-5.0-1.9","LF","y20qp8dcxo","1920","1080","0","1","0","5f578563765fec223eb51594","","null","","","","","","","learning/Slide10.JPG","null","","","","","",""
"html-keyboard-response","35","308952","0.0-5.0-2.9","LF","y20qp8dcxo","1920","1080","0","1","0","5f578563765fec223eb51594","","null","","","learningBlock1","","","","<div style=""font-size:60px;""> </div>","null","LF","learning/Slide10.JPG","This is a dep:","","",""
"html-keyboard-response","36","309954","0.0-5.0-0.10","LF","y20qp8dcxo","1920","1080","0","1","0","5f578563765fec223eb51594","","null","","","learningBlock1","","","","This is a tob:","null","","","","","",""
"image-keyboard-response","37","310282","0.0-5.0-1.10","LF","y20qp8dcxo","1920","1080","0","1","0","5f578563765fec223eb51594","","null","","","","","","","learning/Slide11.JPG","null","","","","","",""
"html-keyboard-response","38","311283","0.0-5.0-2.10","LF","y20qp8dcxo","1920","1080","0","1","0","5f578563765fec223eb51594","","null","","","learningBlock1","","","","<div style=""font-size:60px;""> </div>","null","LF","learning/Slide11.JPG","This is a tob:","","",""
"html-keyboard-response","39","312284","0.0-5.0-0.11","LF","y20qp8dcxo","1920","1080","0","1","0","5f578563765fec223eb51594","","null","","","learningBlock1","","","","This is a dep:","null","","","","","",""
"image-keyboard-response","40","312613","0.0-5.0-1.11","LF","y20qp8dcxo","1920","1080","0","1","0","5f578563765fec223eb51594","","null","","","","","","","learning/Slide12.JPG","null","","","","","",""
"html-keyboard-response","41","313616","0.0-5.0-2.11","LF","y20qp8dcxo","1920","1080","0","1","0","5f578563765fec223eb51594","","null","","","learningBlock1","","","","<div style=""font-size:60px;""> </div>","null","LF","learning/Slide12.JPG","This is a dep:","","",""
"html-keyboard-response","42","314618","0.0-5.0-0.12","LF","y20qp8dcxo","1920","1080","0","1","0","5f578563765fec223eb51594","","null","","","learningBlock1","","","","This is a bim:","null","","","","","",""
"image-keyboard-response","43","314946","0.0-5.0-1.12","LF","y20qp8dcxo","1920","1080","0","1","0","5f578563765fec223eb51594","","null","","","","","","","learning/Slide13.JPG","null","","","","","",""
"html-keyboard-response","44","315948","0.0-5.0-2.12","LF","y20qp8dcxo","1920","1080","0","1","0","5f578563765fec223eb51594","","null","","","learningBlock1","","","","<div style=""font-size:60px;""> </div>","null","LF","learning/Slide13.JPG","This is a bim:","","",""
"html-keyboard-response","45","316949","0.0-5.0-0.13","LF","y20qp8dcxo","1920","1080","0","1","0","5f578563765fec223eb51594","","null","","","learningBlock1","","","","This is a wug:","null","","","","","",""
"image-keyboard-response","46","317277","0.0-5.0-1.13","LF","y20qp8dcxo","1920","1080","0","1","0","5f578563765fec223eb51594","","null","","","","","","","learning/Slide14.JPG","null","","","","","",""
"html-keyboard-response","47","318280","0.0-5.0-2.13","LF","y20qp8dcxo","1920","1080","0","1","0","5f578563765fec223eb51594","","null","","","learningBlock1","","","","<div style=""font-size:60px;""> </div>","null","LF","learning/Slide14.JPG","This is a wug:","","",""
"html-keyboard-response","48","319281","0.0-5.0-0.14","LF","y20qp8dcxo","1920","1080","0","1","0","5f578563765fec223eb51594","","null","","","learningBlock1","","","","This is a tob:","null","","","","","",""
"image-keyboard-response","49","319609","0.0-5.0-1.14","LF","y20qp8dcxo","1920","1080","0","1","0","5f578563765fec223eb51594","","null","","","","","","","learning/Slide15.JPG","null","","","","","",""
"html-keyboard-response","50","320610","0.0-5.0-2.14","LF","y20qp8dcxo","1920","1080","0","1","0","5f578563765fec223eb51594","","null","","","learningBlock1","","","","<div style=""font-size:60px;""> </div>","null","LF","learning/Slide15.JPG","This is a tob:","","",""
"html-keyboard-response","51","321613","0.0-5.0-0.15","LF","y20qp8dcxo","1920","1080","0","1","0","5f578563765fec223eb51594","","null","","","learningBlock1","","","","This is a dep:","null","","","","","",""
"image-keyboard-response","52","321941","0.0-5.0-1.15","LF","y20qp8dcxo","1920","1080","0","1","0","5f578563765fec223eb51594","","null","","","","","","","learning/Slide16.JPG","null","","","","","",""
"html-keyboard-response","53","322944","0.0-5.0-2.15","LF","y20qp8dcxo","1920","1080","0","1","0","5f578563765fec223eb51594","","null","","","learningBlock1","","","","<div style=""font-size:60px;""> </div>","null","LF","learning/Slide16.JPG","This is a dep:","","",""
"html-keyboard-response","54","323945","0.0-5.0-0.16","LF","y20qp8dcxo","1920","1080","0","1","0","5f578563765fec223eb51594","","null","","","learningBlock1","","","","This is a bim:","null","","","","","",""
"image-keyboard-response","55","324275","0.0-5.0-1.16","LF","y20qp8dcxo","1920","1080","0","1","0","5f578563765fec223eb51594","","null","","","","","","","learning/Slide17.JPG","null","","","","","",""
"html-keyboard-response","56","325277","0.0-5.0-2.16","LF","y20qp8dcxo","1920","1080","0","1","0","5f578563765fec223eb51594","","null","","","learningBlock1","","","","<div style=""font-size:60px;""> </div>","null","LF","learning/Slide17.JPG","This is a bim:","","",""
"html-keyboard-response","57","326279","0.0-5.0-0.17","LF","y20qp8dcxo","1920","1080","0","1","0","5f578563765fec223eb51594","","null","","","learningBlock1","","","","This is a tob:","null","","","","","",""
"image-keyboard-response","58","326607","0.0-5.0-1.17","LF","y20qp8dcxo","1920","1080","0","1","0","5f578563765fec223eb51594","","null","","","","","","","learning/Slide18.JPG","null","","","","","",""
"html-keyboard-response","59","327609","0.0-5.0-2.17","LF","y20qp8dcxo","1920","1080","0","1","0","5f578563765fec223eb51594","","null","","","learningBlock1","","","","<div style=""font-size:60px;""> </div>","null","LF","learning/Slide18.JPG","This is a tob:","","",""
"html-keyboard-response","60","328610","0.0-5.0-0.18","LF","y20qp8dcxo","1920","1080","0","1","0","5f578563765fec223eb51594","","null","","","learningBlock1","","","","This is a wug:","null","","","","","",""
"image-keyboard-response","61","328938","0.0-5.0-1.18","LF","y20qp8dcxo","1920","1080","0","1","0","5f578563765fec223eb51594","","null","","","","","","","learning/Slide19.JPG","null","","","","","",""
"html-keyboard-response","62","329940","0.0-5.0-2.18","LF","y20qp8dcxo","1920","1080","0","1","0","5f578563765fec223eb51594","","null","","","learningBlock1","","","","<div style=""font-size:60px;""> </div>","null","LF","learning/Slide19.JPG","This is a wug:","","",""
"html-keyboard-response","63","330942","0.0-5.0-0.19","LF","y20qp8dcxo","1920","1080","0","1","0","5f578563765fec223eb51594","","null","","","learningBlock1","","","","This is a bim:","null","","","","","",""
"image-keyboard-response","64","331269","0.0-5.0-1.19","LF","y20qp8dcxo","1920","1080","0","1","0","5f578563765fec223eb51594","","null","","","","","","","learning/Slide20.JPG","null","","","","","",""
"html-keyboard-response","65","332270","0.0-5.0-2.19","LF","y20qp8dcxo","1920","1080","0","1","0","5f578563765fec223eb51594","","null","","","learningBlock1","","","","<div style=""font-size:60px;""> </div>","null","LF","learning/Slide20.JPG","This is a bim:","","",""
"html-keyboard-response","66","333272","0.0-5.0-0.20","LF","y20qp8dcxo","1920","1080","0","1","0","5f578563765fec223eb51594","","null","","","learningBlock1","","","","This is a dep:","null","","","","","",""
"image-keyboard-response","67","333600","0.0-5.0-1.20","LF","y20qp8dcxo","1920","1080","0","1","0","5f578563765fec223eb51594","","null","","","","","","","learning/Slide21.JPG","null","","","","","",""
"html-keyboard-response","68","334602","0.0-5.0-2.20","LF","y20qp8dcxo","1920","1080","0","1","0","5f578563765fec223eb51594","","null","","","learningBlock1","","","","<div style=""font-size:60px;""> </div>","null","LF","learning/Slide21.JPG","This is a dep:","","",""
"html-keyboard-response","69","335607","0.0-5.0-0.21","LF","y20qp8dcxo","1920","1080","0","1","0","5f578563765fec223eb51594","","null","","","learningBlock1","","","","This is a bim:","null","","","","","",""
"image-keyboard-response","70","335934","0.0-5.0-1.21","LF","y20qp8dcxo","1920","1080","0","1","0","5f578563765fec223eb51594","","null","","","","","","","learning/Slide22.JPG","null","","","","","",""
"html-keyboard-response","71","336936","0.0-5.0-2.21","LF","y20qp8dcxo","1920","1080","0","1","0","5f578563765fec223eb51594","","null","","","learningBlock1","","","","<div style=""font-size:60px;""> </div>","null","LF","learning/Slide22.JPG","This is a bim:","","",""
"html-keyboard-response","72","337938","0.0-5.0-0.22","LF","y20qp8dcxo","1920","1080","0","1","0","5f578563765fec223eb51594","","null","","","learningBlock1","","","","This is a tob:","null","","","","","",""
"image-keyboard-response","73","338265","0.0-5.0-1.22","LF","y20qp8dcxo","1920","1080","0","1","0","5f578563765fec223eb51594","","null","","","","","","","learning/Slide23.JPG","null","","","","","",""
"html-keyboard-response","74","339267","0.0-5.0-2.22","LF","y20qp8dcxo","1920","1080","0","1","0","5f578563765fec223eb51594","","null","","","learningBlock1","","","","<div style=""font-size:60px;""> </div>","null","LF","learning/Slide23.JPG","This is a tob:","","",""
"html-keyboard-response","75","340268","0.0-5.0-0.23","LF","y20qp8dcxo","1920","1080","0","1","0","5f578563765fec223eb51594","","null","","","learningBlock1","","","","This is a wug:","null","","","","","",""
"image-keyboard-response","76","340596","0.0-5.0-1.23","LF","y20qp8dcxo","1920","1080","0","1","0","5f578563765fec223eb51594","","null","","","","","","","learning/Slide24.JPG","null","","","","","",""
"html-keyboard-response","77","341598","0.0-5.0-2.23","LF","y20qp8dcxo","1920","1080","0","1","0","5f578563765fec223eb51594","","null","","","learningBlock1","","","","<div style=""font-size:60px;""> </div>","null","LF","learning/Slide24.JPG","This is a wug:","","",""
"html-keyboard-response","78","342600","0.0-5.0-0.24","LF","y20qp8dcxo","1920","1080","0","1","0","5f578563765fec223eb51594","","null","","","learningBlock1","","","","This is a dep:","null","","","","","",""
"image-keyboard-response","79","342927","0.0-5.0-1.24","LF","y20qp8dcxo","1920","1080","0","1","0","5f578563765fec223eb51594","","null","","","","","","","learning/Slide25.JPG","null","","","","","",""
"html-keyboard-response","80","343928","0.0-5.0-2.24","LF","y20qp8dcxo","1920","1080","0","1","0","5f578563765fec223eb51594","","null","","","learningBlock1","","","","<div style=""font-size:60px;""> </div>","null","LF","learning/Slide25.JPG","This is a dep:","","",""
"html-keyboard-response","81","344930","0.0-5.0-0.25","LF","y20qp8dcxo","1920","1080","0","1","0","5f578563765fec223eb51594","","null","","","learningBlock1","","","","This is a wug:","null","","","","","",""
"image-keyboard-response","82","345259","0.0-5.0-1.25","LF","y20qp8dcxo","1920","1080","0","1","0","5f578563765fec223eb51594","","null","","","","","","","learning/Slide26.JPG","null","","","","","",""
"html-keyboard-response","83","346260","0.0-5.0-2.25","LF","y20qp8dcxo","1920","1080","0","1","0","5f578563765fec223eb51594","","null","","","learningBlock1","","","","<div style=""font-size:60px;""> </div>","null","LF","learning/Slide26.JPG","This is a wug:","","",""
"html-keyboard-response","84","347262","0.0-5.0-0.26","LF","y20qp8dcxo","1920","1080","0","1","0","5f578563765fec223eb51594","","null","","","learningBlock1","","","","This is a bim:","null","","","","","",""
"image-keyboard-response","85","347589","0.0-5.0-1.26","LF","y20qp8dcxo","1920","1080","0","1","0","5f578563765fec223eb51594","","null","","","","","","","learning/Slide27.JPG","null","","","","","",""
"html-keyboard-response","86","348592","0.0-5.0-2.26","LF","y20qp8dcxo","1920","1080","0","1","0","5f578563765fec223eb51594","","null","","","learningBlock1","","","","<div style=""font-size:60px;""> </div>","null","LF","learning/Slide27.JPG","This is a bim:","","",""
"html-keyboard-response","87","349593","0.0-5.0-0.27","LF","y20qp8dcxo","1920","1080","0","1","0","5f578563765fec223eb51594","","null","","","learningBlock1","","","","This is a dep:","null","","","","","",""
"image-keyboard-response","88","349922","0.0-5.0-1.27","LF","y20qp8dcxo","1920","1080","0","1","0","5f578563765fec223eb51594","","null","","","","","","","learning/Slide28.JPG","null","","","","","",""
"html-keyboard-response","89","350924","0.0-5.0-2.27","LF","y20qp8dcxo","1920","1080","0","1","0","5f578563765fec223eb51594","","null","","","learningBlock1","","","","<div style=""font-size:60px;""> </div>","null","LF","learning/Slide28.JPG","This is a dep:","","",""
"html-keyboard-response","90","351926","0.0-5.0-0.28","LF","y20qp8dcxo","1920","1080","0","1","0","5f578563765fec223eb51594","","null","","","learningBlock1","","","","This is a tob:","null","","","","","",""
"image-keyboard-response","91","352254","0.0-5.0-1.28","LF","y20qp8dcxo","1920","1080","0","1","0","5f578563765fec223eb51594","","null","","","","","","","learning/Slide29.JPG","null","","","","","",""
"html-keyboard-response","92","353256","0.0-5.0-2.28","LF","y20qp8dcxo","1920","1080","0","1","0","5f578563765fec223eb51594","","null","","","learningBlock1","","","","<div style=""font-size:60px;""> </div>","null","LF","learning/Slide29.JPG","This is a tob:","","",""
"html-keyboard-response","93","354258","0.0-5.0-0.29","LF","y20qp8dcxo","1920","1080","0","1","0","5f578563765fec223eb51594","","null","","","learningBlock1","","","","This is a dep:","null","","","","","",""
"image-keyboard-response","94","354585","0.0-5.0-1.29","LF","y20qp8dcxo","1920","1080","0","1","0","5f578563765fec223eb51594","","null","","","","","","","learning/Slide30.JPG","null","","","","","",""
"html-keyboard-response","95","355587","0.0-5.0-2.29","LF","y20qp8dcxo","1920","1080","0","1","0","5f578563765fec223eb51594","","null","","","learningBlock1","","","","<div style=""font-size:60px;""> </div>","null","LF","learning/Slide30.JPG","This is a dep:","","",""
"html-keyboard-response","96","356589","0.0-5.0-0.30","LF","y20qp8dcxo","1920","1080","0","1","0","5f578563765fec223eb51594","","null","","","learningBlock1","","","","This is a wug:","null","","","","","",""
"image-keyboard-response","97","356916","0.0-5.0-1.30","LF","y20qp8dcxo","1920","1080","0","1","0","5f578563765fec223eb51594","","null","","","","","","","learning/Slide31.JPG","null","","","","","",""
"html-keyboard-response","98","357918","0.0-5.0-2.30","LF","y20qp8dcxo","1920","1080","0","1","0","5f578563765fec223eb51594","","null","","","learningBlock1","","","","<div style=""font-size:60px;""> </div>","null","LF","learning/Slide31.JPG","This is a wug:","","",""
"html-keyboard-response","99","358920","0.0-5.0-0.31","LF","y20qp8dcxo","1920","1080","0","1","0","5f578563765fec223eb51594","","null","","","learningBlock1","","","","This is a tob:","null","","","","","",""
"image-keyboard-response","100","359248","0.0-5.0-1.31","LF","y20qp8dcxo","1920","1080","0","1","0","5f578563765fec223eb51594","","null","","","","","","","learning/Slide32.JPG","null","","","","","",""
"html-keyboard-response","101","360250","0.0-5.0-2.31","LF","y20qp8dcxo","1920","1080","0","1","0","5f578563765fec223eb51594","","null","","","learningBlock1","","","","<div style=""font-size:60px;""> </div>","null","LF","learning/Slide32.JPG","This is a tob:","","",""
"html-keyboard-response","102","361251","0.0-5.0-0.32","LF","y20qp8dcxo","1920","1080","0","1","0","5f578563765fec223eb51594","","null","","","learningBlock1","","","","This is a bim:","null","","","","","",""
"image-keyboard-response","103","361578","0.0-5.0-1.32","LF","y20qp8dcxo","1920","1080","0","1","0","5f578563765fec223eb51594","","null","","","","","","","learning/Slide33.JPG","null","","","","","",""
"html-keyboard-response","104","362581","0.0-5.0-2.32","LF","y20qp8dcxo","1920","1080","0","1","0","5f578563765fec223eb51594","","null","","","learningBlock1","","","","<div style=""font-size:60px;""> </div>","null","LF","learning/Slide33.JPG","This is a bim:","","",""
"html-keyboard-response","105","363582","0.0-5.0-0.33","LF","y20qp8dcxo","1920","1080","0","1","0","5f578563765fec223eb51594","","null","","","learningBlock1","","","","This is a tob:","null","","","","","",""
"image-keyboard-response","106","363911","0.0-5.0-1.33","LF","y20qp8dcxo","1920","1080","0","1","0","5f578563765fec223eb51594","","null","","","","","","","learning/Slide34.JPG","null","","","","","",""
"html-keyboard-response","107","364914","0.0-5.0-2.33","LF","y20qp8dcxo","1920","1080","0","1","0","5f578563765fec223eb51594","","null","","","learningBlock1","","","","<div style=""font-size:60px;""> </div>","null","LF","learning/Slide34.JPG","This is a tob:","","",""
"html-keyboard-response","108","365916","0.0-5.0-0.34","LF","y20qp8dcxo","1920","1080","0","1","0","5f578563765fec223eb51594","","null","","","learningBlock1","","","","This is a bim:","null","","","","","",""
"image-keyboard-response","109","366244","0.0-5.0-1.34","LF","y20qp8dcxo","1920","1080","0","1","0","5f578563765fec223eb51594","","null","","","","","","","learning/Slide35.JPG","null","","","","","",""
"html-keyboard-response","110","367246","0.0-5.0-2.34","LF","y20qp8dcxo","1920","1080","0","1","0","5f578563765fec223eb51594","","null","","","learningBlock1","","","","<div style=""font-size:60px;""> </div>","null","LF","learning/Slide35.JPG","This is a bim:","","",""
"html-keyboard-response","111","368248","0.0-5.0-0.35","LF","y20qp8dcxo","1920","1080","0","1","0","5f578563765fec223eb51594","","null","","","learningBlock1","","","","This is a dep:","null","","","","","",""
"image-keyboard-response","112","368575","0.0-5.0-1.35","LF","y20qp8dcxo","1920","1080","0","1","0","5f578563765fec223eb51594","","null","","","","","","","learning/Slide36.JPG","null","","","","","",""
"html-keyboard-response","113","369577","0.0-5.0-2.35","LF","y20qp8dcxo","1920","1080","0","1","0","5f578563765fec223eb51594","","null","","","learningBlock1","","","","<div style=""font-size:60px;""> </div>","null","LF","learning/Slide36.JPG","This is a dep:","","",""
"html-keyboard-response","114","370578","0.0-5.0-0.36","LF","y20qp8dcxo","1920","1080","0","1","0","5f578563765fec223eb51594","","null","","","learningBlock1","","","","This is a tob:","null","","","","","",""
"image-keyboard-response","115","370906","0.0-5.0-1.36","LF","y20qp8dcxo","1920","1080","0","1","0","5f578563765fec223eb51594","","null","","","","","","","learning/Slide37.JPG","null","","","","","",""
"html-keyboard-response","116","371908","0.0-5.0-2.36","LF","y20qp8dcxo","1920","1080","0","1","0","5f578563765fec223eb51594","","null","","","learningBlock1","","","","<div style=""font-size:60px;""> </div>","null","LF","learning/Slide37.JPG","This is a tob:","","",""
"html-keyboard-response","117","372910","0.0-5.0-0.37","LF","y20qp8dcxo","1920","1080","0","1","0","5f578563765fec223eb51594","","null","","","learningBlock1","","","","This is a wug:","null","","","","","",""
"image-keyboard-response","118","373237","0.0-5.0-1.37","LF","y20qp8dcxo","1920","1080","0","1","0","5f578563765fec223eb51594","","null","","","","","","","learning/Slide38.JPG","null","","","","","",""
"html-keyboard-response","119","374238","0.0-5.0-2.37","LF","y20qp8dcxo","1920","1080","0","1","0","5f578563765fec223eb51594","","null","","","learningBlock1","","","","<div style=""font-size:60px;""> </div>","null","LF","learning/Slide38.JPG","This is a wug:","","",""
"html-keyboard-response","120","375241","0.0-5.0-0.38","LF","y20qp8dcxo","1920","1080","0","1","0","5f578563765fec223eb51594","","null","","","learningBlock1","","","","This is a bim:","null","","","","","",""
"image-keyboard-response","121","375569","0.0-5.0-1.38","LF","y20qp8dcxo","1920","1080","0","1","0","5f578563765fec223eb51594","","null","","","","","","","learning/Slide39.JPG","null","","","","","",""
"html-keyboard-response","122","376572","0.0-5.0-2.38","LF","y20qp8dcxo","1920","1080","0","1","0","5f578563765fec223eb51594","","null","","","learningBlock1","","","","<div style=""font-size:60px;""> </div>","null","LF","learning/Slide39.JPG","This is a bim:","","",""
"html-keyboard-response","123","377574","0.0-5.0-0.39","LF","y20qp8dcxo","1920","1080","0","1","0","5f578563765fec223eb51594","","null","","","learningBlock1","","","","This is a tob:","null","","","","","",""
"image-keyboard-response","124","377902","0.0-5.0-1.39","LF","y20qp8dcxo","1920","1080","0","1","0","5f578563765fec223eb51594","","null","","","","","","","learning/Slide40.JPG","null","","","","","",""
"html-keyboard-response","125","378905","0.0-5.0-2.39","LF","y20qp8dcxo","1920","1080","0","1","0","5f578563765fec223eb51594","","null","","","learningBlock1","","","","<div style=""font-size:60px;""> </div>","null","LF","learning/Slide40.JPG","This is a tob:","","",""
"html-keyboard-response","126","379906","0.0-5.0-0.40","LF","y20qp8dcxo","1920","1080","0","1","0","5f578563765fec223eb51594","","null","","","learningBlock1","","","","This is a bim:","null","","","","","",""
"image-keyboard-response","127","380234","0.0-5.0-1.40","LF","y20qp8dcxo","1920","1080","0","1","0","5f578563765fec223eb51594","","null","","","","","","","learning/Slide41.JPG","null","","","","","",""
"html-keyboard-response","128","381236","0.0-5.0-2.40","LF","y20qp8dcxo","1920","1080","0","1","0","5f578563765fec223eb51594","","null","","","learningBlock1","","","","<div style=""font-size:60px;""> </div>","null","LF","learning/Slide41.JPG","This is a bim:","","",""
"html-keyboard-response","129","382238","0.0-5.0-0.41","LF","y20qp8dcxo","1920","1080","0","1","0","5f578563765fec223eb51594","","null","","","learningBlock1","","","","This is a dep:","null","","","","","",""
"image-keyboard-response","130","382566","0.0-5.0-1.41","LF","y20qp8dcxo","1920","1080","0","1","0","5f578563765fec223eb51594","","null","","","","","","","learning/Slide42.JPG","null","","","","","",""
"html-keyboard-response","131","383568","0.0-5.0-2.41","LF","y20qp8dcxo","1920","1080","0","1","0","5f578563765fec223eb51594","","null","","","learningBlock1","","","","<div style=""font-size:60px;""> </div>","null","LF","learning/Slide42.JPG","This is a dep:","","",""
"html-keyboard-response","132","384570","0.0-5.0-0.42","LF","y20qp8dcxo","1920","1080","0","1","0","5f578563765fec223eb51594","","null","","","learningBlock1","","","","This is a wug:","null","","","","","",""
"image-keyboard-response","133","384897","0.0-5.0-1.42","LF","y20qp8dcxo","1920","1080","0","1","0","5f578563765fec223eb51594","","null","","","","","","","learning/Slide43.JPG","null","","","","","",""
"html-keyboard-response","134","385898","0.0-5.0-2.42","LF","y20qp8dcxo","1920","1080","0","1","0","5f578563765fec223eb51594","","null","","","learningBlock1","","","","<div style=""font-size:60px;""> </div>","null","LF","learning/Slide43.JPG","This is a wug:","","",""
"html-keyboard-response","135","386900","0.0-5.0-0.43","LF","y20qp8dcxo","1920","1080","0","1","0","5f578563765fec223eb51594","","null","","","learningBlock1","","","","This is a bim:","null","","","","","",""
"image-keyboard-response","136","387229","0.0-5.0-1.43","LF","y20qp8dcxo","1920","1080","0","1","0","5f578563765fec223eb51594","","null","","","","","","","learning/Slide44.JPG","null","","","","","",""
"html-keyboard-response","137","388231","0.0-5.0-2.43","LF","y20qp8dcxo","1920","1080","0","1","0","5f578563765fec223eb51594","","null","","","learningBlock1","","","","<div style=""font-size:60px;""> </div>","null","LF","learning/Slide44.JPG","This is a bim:","","",""
"html-keyboard-response","138","389234","0.0-5.0-0.44","LF","y20qp8dcxo","1920","1080","0","1","0","5f578563765fec223eb51594","","null","","","learningBlock1","","","","This is a wug:","null","","","","","",""
"image-keyboard-response","139","389562","0.0-5.0-1.44","LF","y20qp8dcxo","1920","1080","0","1","0","5f578563765fec223eb51594","","null","","","","","","","learning/Slide45.JPG","null","","","","","",""
"html-keyboard-response","140","390564","0.0-5.0-2.44","LF","y20qp8dcxo","1920","1080","0","1","0","5f578563765fec223eb51594","","null","","","learningBlock1","","","","<div style=""font-size:60px;""> </div>","null","LF","learning/Slide45.JPG","This is a wug:","","",""
"html-keyboard-response","141","391565","0.0-5.0-0.45","LF","y20qp8dcxo","1920","1080","0","1","0","5f578563765fec223eb51594","","null","","","learningBlock1","","","","This is a dep:","null","","","","","",""
"image-keyboard-response","142","391894","0.0-5.0-1.45","LF","y20qp8dcxo","1920","1080","0","1","0","5f578563765fec223eb51594","","null","","","","","","","learning/Slide46.JPG","null","","","","","",""
"html-keyboard-response","143","392896","0.0-5.0-2.45","LF","y20qp8dcxo","1920","1080","0","1","0","5f578563765fec223eb51594","","null","","","learningBlock1","","","","<div style=""font-size:60px;""> </div>","null","LF","learning/Slide46.JPG","This is a dep:","","",""
"html-keyboard-response","144","393898","0.0-5.0-0.46","LF","y20qp8dcxo","1920","1080","0","1","0","5f578563765fec223eb51594","","null","","","learningBlock1","","","","This is a tob:","null","","","","","",""
"image-keyboard-response","145","394226","0.0-5.0-1.46","LF","y20qp8dcxo","1920","1080","0","1","0","5f578563765fec223eb51594","","null","","","","","","","learning/Slide47.JPG","null","","","","","",""
"html-keyboard-response","146","395228","0.0-5.0-2.46","LF","y20qp8dcxo","1920","1080","0","1","0","5f578563765fec223eb51594","","null","","","learningBlock1","","","","<div style=""font-size:60px;""> </div>","null","LF","learning/Slide47.JPG","This is a tob:","","",""
"html-keyboard-response","147","396230","0.0-5.0-0.47","LF","y20qp8dcxo","1920","1080","0","1","0","5f578563765fec223eb51594","","null","","","learningBlock1","","","","This is a bim:","null","","","","","",""
"image-keyboard-response","148","396559","0.0-5.0-1.47","LF","y20qp8dcxo","1920","1080","0","1","0","5f578563765fec223eb51594","","null","","","","","","","learning/Slide48.JPG","null","","","","","",""
"html-keyboard-response","149","397562","0.0-5.0-2.47","LF","y20qp8dcxo","1920","1080","0","1","0","5f578563765fec223eb51594","","null","","","learningBlock1","","","","<div style=""font-size:60px;""> </div>","null","LF","learning/Slide48.JPG","This is a bim:","","",""
"html-keyboard-response","150","398565","0.0-5.0-0.48","LF","y20qp8dcxo","1920","1080","0","1","0","5f578563765fec223eb51594","","null","","","learningBlock1","","","","This is a dep:","null","","","","","",""
"image-keyboard-response","151","398893","0.0-5.0-1.48","LF","y20qp8dcxo","1920","1080","0","1","0","5f578563765fec223eb51594","","null","","","","","","","learning/Slide49.JPG","null","","","","","",""
"html-keyboard-response","152","399895","0.0-5.0-2.48","LF","y20qp8dcxo","1920","1080","0","1","0","5f578563765fec223eb51594","","null","","","learningBlock1","","","","<div style=""font-size:60px;""> </div>","null","LF","learning/Slide49.JPG","This is a dep:","","",""
"html-keyboard-response","153","400897","0.0-5.0-0.49","LF","y20qp8dcxo","1920","1080","0","1","0","5f578563765fec223eb51594","","null","","","learningBlock1","","","","This is a tob:","null","","","","","",""
"image-keyboard-response","154","401224","0.0-5.0-1.49","LF","y20qp8dcxo","1920","1080","0","1","0","5f578563765fec223eb51594","","null","","","","","","","learning/Slide50.JPG","null","","","","","",""
"html-keyboard-response","155","402226","0.0-5.0-2.49","LF","y20qp8dcxo","1920","1080","0","1","0","5f578563765fec223eb51594","","null","","","learningBlock1","","","","<div style=""font-size:60px;""> </div>","null","LF","learning/Slide50.JPG","This is a tob:","","",""
"html-keyboard-response","156","403228","0.0-5.0-0.50","LF","y20qp8dcxo","1920","1080","0","1","0","5f578563765fec223eb51594","","null","","","learningBlock1","","","","This is a bim:","null","","","","","",""
"image-keyboard-response","157","403555","0.0-5.0-1.50","LF","y20qp8dcxo","1920","1080","0","1","0","5f578563765fec223eb51594","","null","","","","","","","learning/Slide51.JPG","null","","","","","",""
"html-keyboard-response","158","404558","0.0-5.0-2.50","LF","y20qp8dcxo","1920","1080","0","1","0","5f578563765fec223eb51594","","null","","","learningBlock1","","","","<div style=""font-size:60px;""> </div>","null","LF","learning/Slide51.JPG","This is a bim:","","",""
"html-keyboard-response","159","405559","0.0-5.0-0.51","LF","y20qp8dcxo","1920","1080","0","1","0","5f578563765fec223eb51594","","null","","","learningBlock1","","","","This is a wug:","null","","","","","",""
"image-keyboard-response","160","405887","0.0-5.0-1.51","LF","y20qp8dcxo","1920","1080","0","1","0","5f578563765fec223eb51594","","null","","","","","","","learning/Slide52.JPG","null","","","","","",""
"html-keyboard-response","161","406889","0.0-5.0-2.51","LF","y20qp8dcxo","1920","1080","0","1","0","5f578563765fec223eb51594","","null","","","learningBlock1","","","","<div style=""font-size:60px;""> </div>","null","LF","learning/Slide52.JPG","This is a wug:","","",""
"html-keyboard-response","162","407893","0.0-5.0-0.52","LF","y20qp8dcxo","1920","1080","0","1","0","5f578563765fec223eb51594","","null","","","learningBlock1","","","","This is a tob:","null","","","","","",""
"image-keyboard-response","163","408221","0.0-5.0-1.52","LF","y20qp8dcxo","1920","1080","0","1","0","5f578563765fec223eb51594","","null","","","","","","","learning/Slide53.JPG","null","","","","","",""
"html-keyboard-response","164","409224","0.0-5.0-2.52","LF","y20qp8dcxo","1920","1080","0","1","0","5f578563765fec223eb51594","","null","","","learningBlock1","","","","<div style=""font-size:60px;""> </div>","null","LF","learning/Slide53.JPG","This is a tob:","","",""
"html-keyboard-response","165","410225","0.0-5.0-0.53","LF","y20qp8dcxo","1920","1080","0","1","0","5f578563765fec223eb51594","","null","","","learningBlock1","","","","This is a dep:","null","","","","","",""
"image-keyboard-response","166","410554","0.0-5.0-1.53","LF","y20qp8dcxo","1920","1080","0","1","0","5f578563765fec223eb51594","","null","","","","","","","learning/Slide54.JPG","null","","","","","",""
"html-keyboard-response","167","411556","0.0-5.0-2.53","LF","y20qp8dcxo","1920","1080","0","1","0","5f578563765fec223eb51594","","null","","","learningBlock1","","","","<div style=""font-size:60px;""> </div>","null","LF","learning/Slide54.JPG","This is a dep:","","",""
"html-keyboard-response","168","412557","0.0-5.0-0.54","LF","y20qp8dcxo","1920","1080","0","1","0","5f578563765fec223eb51594","","null","","","learningBlock1","","","","This is a bim:","null","","","","","",""
"image-keyboard-response","169","412886","0.0-5.0-1.54","LF","y20qp8dcxo","1920","1080","0","1","0","5f578563765fec223eb51594","","null","","","","","","","learning/Slide55.JPG","null","","","","","",""
"html-keyboard-response","170","413888","0.0-5.0-2.54","LF","y20qp8dcxo","1920","1080","0","1","0","5f578563765fec223eb51594","","null","","","learningBlock1","","","","<div style=""font-size:60px;""> </div>","null","LF","learning/Slide55.JPG","This is a bim:","","",""
"html-keyboard-response","171","414890","0.0-5.0-0.55","LF","y20qp8dcxo","1920","1080","0","1","0","5f578563765fec223eb51594","","null","","","learningBlock1","","","","This is a tob:","null","","","","","",""
"image-keyboard-response","172","415218","0.0-5.0-1.55","LF","y20qp8dcxo","1920","1080","0","1","0","5f578563765fec223eb51594","","null","","","","","","","learning/Slide56.JPG","null","","","","","",""
"html-keyboard-response","173","416220","0.0-5.0-2.55","LF","y20qp8dcxo","1920","1080","0","1","0","5f578563765fec223eb51594","","null","","","learningBlock1","","","","<div style=""font-size:60px;""> </div>","null","LF","learning/Slide56.JPG","This is a tob:","","",""
"html-keyboard-response","174","417222","0.0-5.0-0.56","LF","y20qp8dcxo","1920","1080","0","1","0","5f578563765fec223eb51594","","null","","","learningBlock1","","","","This is a dep:","null","","","","","",""
"image-keyboard-response","175","417549","0.0-5.0-1.56","LF","y20qp8dcxo","1920","1080","0","1","0","5f578563765fec223eb51594","","null","","","","","","","learning/Slide57.JPG","null","","","","","",""
"html-keyboard-response","176","418551","0.0-5.0-2.56","LF","y20qp8dcxo","1920","1080","0","1","0","5f578563765fec223eb51594","","null","","","learningBlock1","","","","<div style=""font-size:60px;""> </div>","null","LF","learning/Slide57.JPG","This is a dep:","","",""
"html-keyboard-response","177","419552","0.0-5.0-0.57","LF","y20qp8dcxo","1920","1080","0","1","0","5f578563765fec223eb51594","","null","","","learningBlock1","","","","This is a wug:","null","","","","","",""
"image-keyboard-response","178","419881","0.0-5.0-1.57","LF","y20qp8dcxo","1920","1080","0","1","0","5f578563765fec223eb51594","","null","","","","","","","learning/Slide58.JPG","null","","","","","",""
"html-keyboard-response","179","420884","0.0-5.0-2.57","LF","y20qp8dcxo","1920","1080","0","1","0","5f578563765fec223eb51594","","null","","","learningBlock1","","","","<div style=""font-size:60px;""> </div>","null","LF","learning/Slide58.JPG","This is a wug:","","",""
"html-keyboard-response","180","421885","0.0-5.0-0.58","LF","y20qp8dcxo","1920","1080","0","1","0","5f578563765fec223eb51594","","null","","","learningBlock1","","","","This is a dep:","null","","","","","",""
"image-keyboard-response","181","422212","0.0-5.0-1.58","LF","y20qp8dcxo","1920","1080","0","1","0","5f578563765fec223eb51594","","null","","","","","","","learning/Slide59.JPG","null","","","","","",""
"html-keyboard-response","182","423215","0.0-5.0-2.58","LF","y20qp8dcxo","1920","1080","0","1","0","5f578563765fec223eb51594","","null","","","learningBlock1","","","","<div style=""font-size:60px;""> </div>","null","LF","learning/Slide59.JPG","This is a dep:","","",""
"html-keyboard-response","183","424217","0.0-5.0-0.59","LF","y20qp8dcxo","1920","1080","0","1","0","5f578563765fec223eb51594","","null","","","learningBlock1","","","","This is a wug:","null","","","","","",""
"image-keyboard-response","184","424545","0.0-5.0-1.59","LF","y20qp8dcxo","1920","1080","0","1","0","5f578563765fec223eb51594","","null","","","","","","","learning/Slide60.JPG","null","","","","","",""
"html-keyboard-response","185","425546","0.0-5.0-2.59","LF","y20qp8dcxo","1920","1080","0","1","0","5f578563765fec223eb51594","","null","","","learningBlock1","","","","<div style=""font-size:60px;""> </div>","null","LF","learning/Slide60.JPG","This is a wug:","","",""
"html-keyboard-response","186","426548","0.0-5.0-0.60","LF","y20qp8dcxo","1920","1080","0","1","0","5f578563765fec223eb51594","","null","","","learningBlock1","","","","This is a bim:","null","","","","","",""
"image-keyboard-response","187","426876","0.0-5.0-1.60","LF","y20qp8dcxo","1920","1080","0","1","0","5f578563765fec223eb51594","","null","","","","","","","learning/Slide61.JPG","null","","","","","",""
"html-keyboard-response","188","427878","0.0-5.0-2.60","LF","y20qp8dcxo","1920","1080","0","1","0","5f578563765fec223eb51594","","null","","","learningBlock1","","","","<div style=""font-size:60px;""> </div>","null","LF","learning/Slide61.JPG","This is a bim:","","",""
"html-keyboard-response","189","428879","0.0-5.0-0.61","LF","y20qp8dcxo","1920","1080","0","1","0","5f578563765fec223eb51594","","null","","","learningBlock1","","","","This is a dep:","null","","","","","",""
"image-keyboard-response","190","429206","0.0-5.0-1.61","LF","y20qp8dcxo","1920","1080","0","1","0","5f578563765fec223eb51594","","null","","","","","","","learning/Slide62.JPG","null","","","","","",""
"html-keyboard-response","191","430209","0.0-5.0-2.61","LF","y20qp8dcxo","1920","1080","0","1","0","5f578563765fec223eb51594","","null","","","learningBlock1","","","","<div style=""font-size:60px;""> </div>","null","LF","learning/Slide62.JPG","This is a dep:","","",""
"html-keyboard-response","192","431210","0.0-5.0-0.62","LF","y20qp8dcxo","1920","1080","0","1","0","5f578563765fec223eb51594","","null","","","learningBlock1","","","","This is a bim:","null","","","","","",""
"image-keyboard-response","193","431538","0.0-5.0-1.62","LF","y20qp8dcxo","1920","1080","0","1","0","5f578563765fec223eb51594","","null","","","","","","","learning/Slide63.JPG","null","","","","","",""
"html-keyboard-response","194","432540","0.0-5.0-2.62","LF","y20qp8dcxo","1920","1080","0","1","0","5f578563765fec223eb51594","","null","","","learningBlock1","","","","<div style=""font-size:60px;""> </div>","null","LF","learning/Slide63.JPG","This is a bim:","","",""
"html-keyboard-response","195","433541","0.0-5.0-0.63","LF","y20qp8dcxo","1920","1080","0","1","0","5f578563765fec223eb51594","","null","","","learningBlock1","","","","This is a tob:","null","","","","","",""
"image-keyboard-response","196","433868","0.0-5.0-1.63","LF","y20qp8dcxo","1920","1080","0","1","0","5f578563765fec223eb51594","","null","","","","","","","learning/Slide64.JPG","null","","","","","",""
"html-keyboard-response","197","434870","0.0-5.0-2.63","LF","y20qp8dcxo","1920","1080","0","1","0","5f578563765fec223eb51594","","null","","","learningBlock1","","","","<div style=""font-size:60px;""> </div>","null","LF","learning/Slide64.JPG","This is a tob:","","",""
"html-keyboard-response","198","435872","0.0-5.0-0.64","LF","y20qp8dcxo","1920","1080","0","1","0","5f578563765fec223eb51594","","null","","","learningBlock1","","","","This is a wug:","null","","","","","",""
"image-keyboard-response","199","436201","0.0-5.0-1.64","LF","y20qp8dcxo","1920","1080","0","1","0","5f578563765fec223eb51594","","null","","","","","","","learning/Slide65.JPG","null","","","","","",""
"html-keyboard-response","200","437202","0.0-5.0-2.64","LF","y20qp8dcxo","1920","1080","0","1","0","5f578563765fec223eb51594","","null","","","learningBlock1","","","","<div style=""font-size:60px;""> </div>","null","LF","learning/Slide65.JPG","This is a wug:","","",""
"html-keyboard-response","201","438204","0.0-5.0-0.65","LF","y20qp8dcxo","1920","1080","0","1","0","5f578563765fec223eb51594","","null","","","learningBlock1","","","","This is a dep:","null","","","","","",""
"image-keyboard-response","202","438533","0.0-5.0-1.65","LF","y20qp8dcxo","1920","1080","0","1","0","5f578563765fec223eb51594","","null","","","","","","","learning/Slide66.JPG","null","","","","","",""
"html-keyboard-response","203","439535","0.0-5.0-2.65","LF","y20qp8dcxo","1920","1080","0","1","0","5f578563765fec223eb51594","","null","","","learningBlock1","","","","<div style=""font-size:60px;""> </div>","null","LF","learning/Slide66.JPG","This is a dep:","","",""
"html-keyboard-response","204","440537","0.0-5.0-0.66","LF","y20qp8dcxo","1920","1080","0","1","0","5f578563765fec223eb51594","","null","","","learningBlock1","","","","This is a tob:","null","","","","","",""
"image-keyboard-response","205","440864","0.0-5.0-1.66","LF","y20qp8dcxo","1920","1080","0","1","0","5f578563765fec223eb51594","","null","","","","","","","learning/Slide67.JPG","null","","","","","",""
"html-keyboard-response","206","441866","0.0-5.0-2.66","LF","y20qp8dcxo","1920","1080","0","1","0","5f578563765fec223eb51594","","null","","","learningBlock1","","","","<div style=""font-size:60px;""> </div>","null","LF","learning/Slide67.JPG","This is a tob:","","",""
"html-keyboard-response","207","442868","0.0-5.0-0.67","LF","y20qp8dcxo","1920","1080","0","1","0","5f578563765fec223eb51594","","null","","","learningBlock1","","","","This is a wug:","null","","","","","",""
"image-keyboard-response","208","443195","0.0-5.0-1.67","LF","y20qp8dcxo","1920","1080","0","1","0","5f578563765fec223eb51594","","null","","","","","","","learning/Slide68.JPG","null","","","","","",""
"html-keyboard-response","209","444197","0.0-5.0-2.67","LF","y20qp8dcxo","1920","1080","0","1","0","5f578563765fec223eb51594","","null","","","learningBlock1","","","","<div style=""font-size:60px;""> </div>","null","LF","learning/Slide68.JPG","This is a wug:","","",""
"html-keyboard-response","210","445200","0.0-5.0-0.68","LF","y20qp8dcxo","1920","1080","0","1","0","5f578563765fec223eb51594","","null","","","learningBlock1","","","","This is a tob:","null","","","","","",""
"image-keyboard-response","211","445527","0.0-5.0-1.68","LF","y20qp8dcxo","1920","1080","0","1","0","5f578563765fec223eb51594","","null","","","","","","","learning/Slide69.JPG","null","","","","","",""
"html-keyboard-response","212","446529","0.0-5.0-2.68","LF","y20qp8dcxo","1920","1080","0","1","0","5f578563765fec223eb51594","","null","","","learningBlock1","","","","<div style=""font-size:60px;""> </div>","null","LF","learning/Slide69.JPG","This is a tob:","","",""
"html-keyboard-response","213","447531","0.0-5.0-0.69","LF","y20qp8dcxo","1920","1080","0","1","0","5f578563765fec223eb51594","","null","","","learningBlock1","","","","This is a dep:","null","","","","","",""
"image-keyboard-response","214","447860","0.0-5.0-1.69","LF","y20qp8dcxo","1920","1080","0","1","0","5f578563765fec223eb51594","","null","","","","","","","learning/Slide70.JPG","null","","","","","",""
"html-keyboard-response","215","448862","0.0-5.0-2.69","LF","y20qp8dcxo","1920","1080","0","1","0","5f578563765fec223eb51594","","null","","","learningBlock1","","","","<div style=""font-size:60px;""> </div>","null","LF","learning/Slide70.JPG","This is a dep:","","",""
"html-keyboard-response","216","449864","0.0-5.0-0.70","LF","y20qp8dcxo","1920","1080","0","1","0","5f578563765fec223eb51594","","null","","","learningBlock1","","","","This is a wug:","null","","","","","",""
"image-keyboard-response","217","450192","0.0-5.0-1.70","LF","y20qp8dcxo","1920","1080","0","1","0","5f578563765fec223eb51594","","null","","","","","","","learning/Slide71.JPG","null","","","","","",""
"html-keyboard-response","218","451194","0.0-5.0-2.70","LF","y20qp8dcxo","1920","1080","0","1","0","5f578563765fec223eb51594","","null","","","learningBlock1","","","","<div style=""font-size:60px;""> </div>","null","LF","learning/Slide71.JPG","This is a wug:","","",""
"html-keyboard-response","219","452196","0.0-5.0-0.71","LF","y20qp8dcxo","1920","1080","0","1","0","5f578563765fec223eb51594","","null","","","learningBlock1","","","","This is a bim:","null","","","","","",""
"image-keyboard-response","220","452524","0.0-5.0-1.71","LF","y20qp8dcxo","1920","1080","0","1","0","5f578563765fec223eb51594","","null","","","","","","","learning/Slide72.JPG","null","","","","","",""
"html-keyboard-response","221","453527","0.0-5.0-2.71","LF","y20qp8dcxo","1920","1080","0","1","0","5f578563765fec223eb51594","","null","","","learningBlock1","","","","<div style=""font-size:60px;""> </div>","null","LF","learning/Slide72.JPG","This is a bim:","","",""
"html-keyboard-response","222","454528","0.0-5.0-0.72","LF","y20qp8dcxo","1920","1080","0","1","0","5f578563765fec223eb51594","","null","","","learningBlock1","","","","This is a wug:","null","","","","","",""
"image-keyboard-response","223","454856","0.0-5.0-1.72","LF","y20qp8dcxo","1920","1080","0","1","0","5f578563765fec223eb51594","","null","","","","","","","learning/Slide73.JPG","null","","","","","",""
"html-keyboard-response","224","455858","0.0-5.0-2.72","LF","y20qp8dcxo","1920","1080","0","1","0","5f578563765fec223eb51594","","null","","","learningBlock1","","","","<div style=""font-size:60px;""> </div>","null","LF","learning/Slide73.JPG","This is a wug:","","",""
"html-keyboard-response","225","456860","0.0-5.0-0.73","LF","y20qp8dcxo","1920","1080","0","1","0","5f578563765fec223eb51594","","null","","","learningBlock1","","","","This is a dep:","null","","","","","",""
"image-keyboard-response","226","457188","0.0-5.0-1.73","LF","y20qp8dcxo","1920","1080","0","1","0","5f578563765fec223eb51594","","null","","","","","","","learning/Slide74.JPG","null","","","","","",""
"html-keyboard-response","227","458190","0.0-5.0-2.73","LF","y20qp8dcxo","1920","1080","0","1","0","5f578563765fec223eb51594","","null","","","learningBlock1","","","","<div style=""font-size:60px;""> </div>","null","LF","learning/Slide74.JPG","This is a dep:","","",""
"html-keyboard-response","228","459191","0.0-5.0-0.74","LF","y20qp8dcxo","1920","1080","0","1","0","5f578563765fec223eb51594","","null","","","learningBlock1","","","","This is a tob:","null","","","","","",""
"image-keyboard-response","229","459520","0.0-5.0-1.74","LF","y20qp8dcxo","1920","1080","0","1","0","5f578563765fec223eb51594","","null","","","","","","","learning/Slide75.JPG","null","","","","","",""
"html-keyboard-response","230","460522","0.0-5.0-2.74","LF","y20qp8dcxo","1920","1080","0","1","0","5f578563765fec223eb51594","","null","","","learningBlock1","","","","<div style=""font-size:60px;""> </div>","null","LF","learning/Slide75.JPG","This is a tob:","","",""
"html-keyboard-response","231","461524","0.0-5.0-0.75","LF","y20qp8dcxo","1920","1080","0","1","0","5f578563765fec223eb51594","","null","","","learningBlock1","","","","This is a bim:","null","","","","","",""
"image-keyboard-response","232","461851","0.0-5.0-1.75","LF","y20qp8dcxo","1920","1080","0","1","0","5f578563765fec223eb51594","","null","","","","","","","learning/Slide76.JPG","null","","","","","",""
"html-keyboard-response","233","462852","0.0-5.0-2.75","LF","y20qp8dcxo","1920","1080","0","1","0","5f578563765fec223eb51594","","null","","","learningBlock1","","","","<div style=""font-size:60px;""> </div>","null","LF","learning/Slide76.JPG","This is a bim:","","",""
"html-keyboard-response","234","463855","0.0-5.0-0.76","LF","y20qp8dcxo","1920","1080","0","1","0","5f578563765fec223eb51594","","null","","","learningBlock1","","","","This is a tob:","null","","","","","",""
"image-keyboard-response","235","464183","0.0-5.0-1.76","LF","y20qp8dcxo","1920","1080","0","1","0","5f578563765fec223eb51594","","null","","","","","","","learning/Slide77.JPG","null","","","","","",""
"html-keyboard-response","236","465184","0.0-5.0-2.76","LF","y20qp8dcxo","1920","1080","0","1","0","5f578563765fec223eb51594","","null","","","learningBlock1","","","","<div style=""font-size:60px;""> </div>","null","LF","learning/Slide77.JPG","This is a tob:","","",""
"html-keyboard-response","237","466187","0.0-5.0-0.77","LF","y20qp8dcxo","1920","1080","0","1","0","5f578563765fec223eb51594","","null","","","learningBlock1","","","","This is a wug:","null","","","","","",""
"image-keyboard-response","238","466513","0.0-5.0-1.77","LF","y20qp8dcxo","1920","1080","0","1","0","5f578563765fec223eb51594","","null","","","","","","","learning/Slide78.JPG","null","","","","","",""
"html-keyboard-response","239","467516","0.0-5.0-2.77","LF","y20qp8dcxo","1920","1080","0","1","0","5f578563765fec223eb51594","","null","","","learningBlock1","","","","<div style=""font-size:60px;""> </div>","null","LF","learning/Slide78.JPG","This is a wug:","","",""
"html-keyboard-response","240","468518","0.0-5.0-0.78","LF","y20qp8dcxo","1920","1080","0","1","0","5f578563765fec223eb51594","","null","","","learningBlock1","","","","This is a bim:","null","","","","","",""
"image-keyboard-response","241","468847","0.0-5.0-1.78","LF","y20qp8dcxo","1920","1080","0","1","0","5f578563765fec223eb51594","","null","","","","","","","learning/Slide79.JPG","null","","","","","",""
"html-keyboard-response","242","469850","0.0-5.0-2.78","LF","y20qp8dcxo","1920","1080","0","1","0","5f578563765fec223eb51594","","null","","","learningBlock1","","","","<div style=""font-size:60px;""> </div>","null","LF","learning/Slide79.JPG","This is a bim:","","",""
"html-keyboard-response","243","470851","0.0-5.0-0.79","LF","y20qp8dcxo","1920","1080","0","1","0","5f578563765fec223eb51594","","null","","","learningBlock1","","","","This is a tob:","null","","","","","",""
"image-keyboard-response","244","471180","0.0-5.0-1.79","LF","y20qp8dcxo","1920","1080","0","1","0","5f578563765fec223eb51594","","null","","","","","","","learning/Slide80.JPG","null","","","","","",""
"html-keyboard-response","245","472182","0.0-5.0-2.79","LF","y20qp8dcxo","1920","1080","0","1","0","5f578563765fec223eb51594","","null","","","learningBlock1","","","","<div style=""font-size:60px;""> </div>","null","LF","learning/Slide80.JPG","This is a tob:","","",""
"instructions","246","585593","0.0-6.0","LF","y20qp8dcxo","1920","1080","0","1","0","5f578563765fec223eb51594","","NA","","[{""page_index"":0,""viewing_time"":113409.8549999994}]","instructions","","","","","","","","","","",""
"html-keyboard-response","247","586595","0.0-7.0-0.0","LF","y20qp8dcxo","1920","1080","0","1","0","5f578563765fec223eb51594","","null","","","learningBlock2","","","","This is a wug:","null","","","","","",""
"image-keyboard-response","248","586924","0.0-7.0-1.0","LF","y20qp8dcxo","1920","1080","0","1","0","5f578563765fec223eb51594","","null","","","","","","","learning/Slide81.JPG","null","","","","","",""
"html-keyboard-response","249","587926","0.0-7.0-2.0","LF","y20qp8dcxo","1920","1080","0","1","0","5f578563765fec223eb51594","","null","","","learningBlock2","","","","<div style=""font-size:60px;""> </div>","null","LF","learning/Slide81.JPG","This is a wug:","","",""
"html-keyboard-response","250","588928","0.0-7.0-0.1","LF","y20qp8dcxo","1920","1080","0","1","0","5f578563765fec223eb51594","","null","","","learningBlock2","","","","This is a bim:","null","","","","","",""
"image-keyboard-response","251","589256","0.0-7.0-1.1","LF","y20qp8dcxo","1920","1080","0","1","0","5f578563765fec223eb51594","","null","","","","","","","learning/Slide82.JPG","null","","","","","",""
"html-keyboard-response","252","590259","0.0-7.0-2.1","LF","y20qp8dcxo","1920","1080","0","1","0","5f578563765fec223eb51594","","null","","","learningBlock2","","","","<div style=""font-size:60px;""> </div>","null","LF","learning/Slide82.JPG","This is a bim:","","",""
"html-keyboard-response","253","591260","0.0-7.0-0.2","LF","y20qp8dcxo","1920","1080","0","1","0","5f578563765fec223eb51594","","null","","","learningBlock2","","","","This is a wug:","null","","","","","",""
"image-keyboard-response","254","591588","0.0-7.0-1.2","LF","y20qp8dcxo","1920","1080","0","1","0","5f578563765fec223eb51594","","null","","","","","","","learning/Slide83.JPG","null","","","","","",""
"html-keyboard-response","255","592590","0.0-7.0-2.2","LF","y20qp8dcxo","1920","1080","0","1","0","5f578563765fec223eb51594","","null","","","learningBlock2","","","","<div style=""font-size:60px;""> </div>","null","LF","learning/Slide83.JPG","This is a wug:","","",""
"html-keyboard-response","256","593592","0.0-7.0-0.3","LF","y20qp8dcxo","1920","1080","0","1","0","5f578563765fec223eb51594","","null","","","learningBlock2","","","","This is a dep:","null","","","","","",""
"image-keyboard-response","257","593921","0.0-7.0-1.3","LF","y20qp8dcxo","1920","1080","0","1","0","5f578563765fec223eb51594","","null","","","","","","","learning/Slide84.JPG","null","","","","","",""
"html-keyboard-response","258","594924","0.0-7.0-2.3","LF","y20qp8dcxo","1920","1080","0","1","0","5f578563765fec223eb51594","","null","","","learningBlock2","","","","<div style=""font-size:60px;""> </div>","null","LF","learning/Slide84.JPG","This is a dep:","","",""
"html-keyboard-response","259","595926","0.0-7.0-0.4","LF","y20qp8dcxo","1920","1080","0","1","0","5f578563765fec223eb51594","","null","","","learningBlock2","","","","This is a bim:","null","","","","","",""
"image-keyboard-response","260","596254","0.0-7.0-1.4","LF","y20qp8dcxo","1920","1080","0","1","0","5f578563765fec223eb51594","","null","","","","","","","learning/Slide85.JPG","null","","","","","",""
"html-keyboard-response","261","597256","0.0-7.0-2.4","LF","y20qp8dcxo","1920","1080","0","1","0","5f578563765fec223eb51594","","null","","","learningBlock2","","","","<div style=""font-size:60px;""> </div>","null","LF","learning/Slide85.JPG","This is a bim:","","",""
"html-keyboard-response","262","598258","0.0-7.0-0.5","LF","y20qp8dcxo","1920","1080","0","1","0","5f578563765fec223eb51594","","null","","","learningBlock2","","","","This is a tob:","null","","","","","",""
"image-keyboard-response","263","598585","0.0-7.0-1.5","LF","y20qp8dcxo","1920","1080","0","1","0","5f578563765fec223eb51594","","null","","","","","","","learning/Slide86.JPG","null","","","","","",""
"html-keyboard-response","264","599588","0.0-7.0-2.5","LF","y20qp8dcxo","1920","1080","0","1","0","5f578563765fec223eb51594","","null","","","learningBlock2","","","","<div style=""font-size:60px;""> </div>","null","LF","learning/Slide86.JPG","This is a tob:","","",""
"html-keyboard-response","265","600590","0.0-7.0-0.6","LF","y20qp8dcxo","1920","1080","0","1","0","5f578563765fec223eb51594","","null","","","learningBlock2","","","","This is a wug:","null","","","","","",""
"image-keyboard-response","266","600919","0.0-7.0-1.6","LF","y20qp8dcxo","1920","1080","0","1","0","5f578563765fec223eb51594","","null","","","","","","","learning/Slide87.JPG","null","","","","","",""
"html-keyboard-response","267","601921","0.0-7.0-2.6","LF","y20qp8dcxo","1920","1080","0","1","0","5f578563765fec223eb51594","","null","","","learningBlock2","","","","<div style=""font-size:60px;""> </div>","null","LF","learning/Slide87.JPG","This is a wug:","","",""
"html-keyboard-response","268","602922","0.0-7.0-0.7","LF","y20qp8dcxo","1920","1080","0","1","0","5f578563765fec223eb51594","","null","","","learningBlock2","","","","This is a tob:","null","","","","","",""
"image-keyboard-response","269","603250","0.0-7.0-1.7","LF","y20qp8dcxo","1920","1080","0","1","0","5f578563765fec223eb51594","","null","","","","","","","learning/Slide88.JPG","null","","","","","",""
"html-keyboard-response","270","604252","0.0-7.0-2.7","LF","y20qp8dcxo","1920","1080","0","1","0","5f578563765fec223eb51594","","null","","","learningBlock2","","","","<div style=""font-size:60px;""> </div>","null","LF","learning/Slide88.JPG","This is a tob:","","",""
"html-keyboard-response","271","605254","0.0-7.0-0.8","LF","y20qp8dcxo","1920","1080","0","1","0","5f578563765fec223eb51594","","null","","","learningBlock2","","","","This is a bim:","null","","","","","",""
"image-keyboard-response","272","605582","0.0-7.0-1.8","LF","y20qp8dcxo","1920","1080","0","1","0","5f578563765fec223eb51594","","null","","","","","","","learning/Slide89.JPG","null","","","","","",""
"html-keyboard-response","273","606584","0.0-7.0-2.8","LF","y20qp8dcxo","1920","1080","0","1","0","5f578563765fec223eb51594","","null","","","learningBlock2","","","","<div style=""font-size:60px;""> </div>","null","LF","learning/Slide89.JPG","This is a bim:","","",""
"html-keyboard-response","274","607586","0.0-7.0-0.9","LF","y20qp8dcxo","1920","1080","0","1","0","5f578563765fec223eb51594","","null","","","learningBlock2","","","","This is a dep:","null","","","","","",""
"image-keyboard-response","275","607915","0.0-7.0-1.9","LF","y20qp8dcxo","1920","1080","0","1","0","5f578563765fec223eb51594","","null","","","","","","","learning/Slide90.JPG","null","","","","","",""
"html-keyboard-response","276","608917","0.0-7.0-2.9","LF","y20qp8dcxo","1920","1080","0","1","0","5f578563765fec223eb51594","","null","","","learningBlock2","","","","<div style=""font-size:60px;""> </div>","null","LF","learning/Slide90.JPG","This is a dep:","","",""
"html-keyboard-response","277","609919","0.0-7.0-0.10","LF","y20qp8dcxo","1920","1080","0","1","0","5f578563765fec223eb51594","","null","","","learningBlock2","","","","This is a wug:","null","","","","","",""
"image-keyboard-response","278","610247","0.0-7.0-1.10","LF","y20qp8dcxo","1920","1080","0","1","0","5f578563765fec223eb51594","","null","","","","","","","learning/Slide91.JPG","null","","","","","",""
"html-keyboard-response","279","611250","0.0-7.0-2.10","LF","y20qp8dcxo","1920","1080","0","1","0","5f578563765fec223eb51594","","null","","","learningBlock2","","","","<div style=""font-size:60px;""> </div>","null","LF","learning/Slide91.JPG","This is a wug:","","",""
"html-keyboard-response","280","612252","0.0-7.0-0.11","LF","y20qp8dcxo","1920","1080","0","1","0","5f578563765fec223eb51594","","null","","","learningBlock2","","","","This is a tob:","null","","","","","",""
"image-keyboard-response","281","612580","0.0-7.0-1.11","LF","y20qp8dcxo","1920","1080","0","1","0","5f578563765fec223eb51594","","null","","","","","","","learning/Slide92.JPG","null","","","","","",""
"html-keyboard-response","282","613582","0.0-7.0-2.11","LF","y20qp8dcxo","1920","1080","0","1","0","5f578563765fec223eb51594","","null","","","learningBlock2","","","","<div style=""font-size:60px;""> </div>","null","LF","learning/Slide92.JPG","This is a tob:","","",""
"html-keyboard-response","283","614584","0.0-7.0-0.12","LF","y20qp8dcxo","1920","1080","0","1","0","5f578563765fec223eb51594","","null","","","learningBlock2","","","","This is a bim:","null","","","","","",""
"image-keyboard-response","284","614912","0.0-7.0-1.12","LF","y20qp8dcxo","1920","1080","0","1","0","5f578563765fec223eb51594","","null","","","","","","","learning/Slide93.JPG","null","","","","","",""
"html-keyboard-response","285","615915","0.0-7.0-2.12","LF","y20qp8dcxo","1920","1080","0","1","0","5f578563765fec223eb51594","","null","","","learningBlock2","","","","<div style=""font-size:60px;""> </div>","null","LF","learning/Slide93.JPG","This is a bim:","","",""
"html-keyboard-response","286","616916","0.0-7.0-0.13","LF","y20qp8dcxo","1920","1080","0","1","0","5f578563765fec223eb51594","","null","","","learningBlock2","","","","This is a tob:","null","","","","","",""
"image-keyboard-response","287","617244","0.0-7.0-1.13","LF","y20qp8dcxo","1920","1080","0","1","0","5f578563765fec223eb51594","","null","","","","","","","learning/Slide94.JPG","null","","","","","",""
"html-keyboard-response","288","618245","0.0-7.0-2.13","LF","y20qp8dcxo","1920","1080","0","1","0","5f578563765fec223eb51594","","null","","","learningBlock2","","","","<div style=""font-size:60px;""> </div>","null","LF","learning/Slide94.JPG","This is a tob:","","",""
"html-keyboard-response","289","619246","0.0-7.0-0.14","LF","y20qp8dcxo","1920","1080","0","1","0","5f578563765fec223eb51594","","null","","","learningBlock2","","","","This is a wug:","null","","","","","",""
"image-keyboard-response","290","619575","0.0-7.0-1.14","LF","y20qp8dcxo","1920","1080","0","1","0","5f578563765fec223eb51594","","null","","","","","","","learning/Slide95.JPG","null","","","","","",""
"html-keyboard-response","291","620577","0.0-7.0-2.14","LF","y20qp8dcxo","1920","1080","0","1","0","5f578563765fec223eb51594","","null","","","learningBlock2","","","","<div style=""font-size:60px;""> </div>","null","LF","learning/Slide95.JPG","This is a wug:","","",""
"html-keyboard-response","292","621579","0.0-7.0-0.15","LF","y20qp8dcxo","1920","1080","0","1","0","5f578563765fec223eb51594","","null","","","learningBlock2","","","","This is a tob:","null","","","","","",""
"image-keyboard-response","293","621908","0.0-7.0-1.15","LF","y20qp8dcxo","1920","1080","0","1","0","5f578563765fec223eb51594","","null","","","","","","","learning/Slide96.JPG","null","","","","","",""
"html-keyboard-response","294","622910","0.0-7.0-2.15","LF","y20qp8dcxo","1920","1080","0","1","0","5f578563765fec223eb51594","","null","","","learningBlock2","","","","<div style=""font-size:60px;""> </div>","null","LF","learning/Slide96.JPG","This is a tob:","","",""
"html-keyboard-response","295","623912","0.0-7.0-0.16","LF","y20qp8dcxo","1920","1080","0","1","0","5f578563765fec223eb51594","","null","","","learningBlock2","","","","This is a dep:","null","","","","","",""
"image-keyboard-response","296","624240","0.0-7.0-1.16","LF","y20qp8dcxo","1920","1080","0","1","0","5f578563765fec223eb51594","","null","","","","","","","learning/Slide97.JPG","null","","","","","",""
"html-keyboard-response","297","625240","0.0-7.0-2.16","LF","y20qp8dcxo","1920","1080","0","1","0","5f578563765fec223eb51594","","null","","","learningBlock2","","","","<div style=""font-size:60px;""> </div>","null","LF","learning/Slide97.JPG","This is a dep:","","",""
"html-keyboard-response","298","626242","0.0-7.0-0.17","LF","y20qp8dcxo","1920","1080","0","1","0","5f578563765fec223eb51594","","null","","","learningBlock2","","","","This is a bim:","null","","","","","",""
"image-keyboard-response","299","626571","0.0-7.0-1.17","LF","y20qp8dcxo","1920","1080","0","1","0","5f578563765fec223eb51594","","null","","","","","","","learning/Slide98.JPG","null","","","","","",""
"html-keyboard-response","300","627574","0.0-7.0-2.17","LF","y20qp8dcxo","1920","1080","0","1","0","5f578563765fec223eb51594","","null","","","learningBlock2","","","","<div style=""font-size:60px;""> </div>","null","LF","learning/Slide98.JPG","This is a bim:","","",""
"html-keyboard-response","301","628575","0.0-7.0-0.18","LF","y20qp8dcxo","1920","1080","0","1","0","5f578563765fec223eb51594","","null","","","learningBlock2","","","","This is a dep:","null","","","","","",""
"image-keyboard-response","302","628904","0.0-7.0-1.18","LF","y20qp8dcxo","1920","1080","0","1","0","5f578563765fec223eb51594","","null","","","","","","","learning/Slide99.JPG","null","","","","","",""
"html-keyboard-response","303","629905","0.0-7.0-2.18","LF","y20qp8dcxo","1920","1080","0","1","0","5f578563765fec223eb51594","","null","","","learningBlock2","","","","<div style=""font-size:60px;""> </div>","null","LF","learning/Slide99.JPG","This is a dep:","","",""
"html-keyboard-response","304","630908","0.0-7.0-0.19","LF","y20qp8dcxo","1920","1080","0","1","0","5f578563765fec223eb51594","","null","","","learningBlock2","","","","This is a bim:","null","","","","","",""
"image-keyboard-response","305","631237","0.0-7.0-1.19","LF","y20qp8dcxo","1920","1080","0","1","0","5f578563765fec223eb51594","","null","","","","","","","learning/Slide100.JPG","null","","","","","",""
"html-keyboard-response","306","632239","0.0-7.0-2.19","LF","y20qp8dcxo","1920","1080","0","1","0","5f578563765fec223eb51594","","null","","","learningBlock2","","","","<div style=""font-size:60px;""> </div>","null","LF","learning/Slide100.JPG","This is a bim:","","",""
"html-keyboard-response","307","633241","0.0-7.0-0.20","LF","y20qp8dcxo","1920","1080","0","1","0","5f578563765fec223eb51594","","null","","","learningBlock2","","","","This is a tob:","null","","","","","",""
"image-keyboard-response","308","633568","0.0-7.0-1.20","LF","y20qp8dcxo","1920","1080","0","1","0","5f578563765fec223eb51594","","null","","","","","","","learning/Slide101.JPG","null","","","","","",""
"html-keyboard-response","309","634570","0.0-7.0-2.20","LF","y20qp8dcxo","1920","1080","0","1","0","5f578563765fec223eb51594","","null","","","learningBlock2","","","","<div style=""font-size:60px;""> </div>","null","LF","learning/Slide101.JPG","This is a tob:","","",""
"html-keyboard-response","310","635572","0.0-7.0-0.21","LF","y20qp8dcxo","1920","1080","0","1","0","5f578563765fec223eb51594","","null","","","learningBlock2","","","","This is a bim:","null","","","","","",""
"image-keyboard-response","311","635902","0.0-7.0-1.21","LF","y20qp8dcxo","1920","1080","0","1","0","5f578563765fec223eb51594","","null","","","","","","","learning/Slide102.JPG","null","","","","","",""
"html-keyboard-response","312","636904","0.0-7.0-2.21","LF","y20qp8dcxo","1920","1080","0","1","0","5f578563765fec223eb51594","","null","","","learningBlock2","","","","<div style=""font-size:60px;""> </div>","null","LF","learning/Slide102.JPG","This is a bim:","","",""
"html-keyboard-response","313","637908","0.0-7.0-0.22","LF","y20qp8dcxo","1920","1080","0","1","0","5f578563765fec223eb51594","","null","","","learningBlock2","","","","This is a dep:","null","","","","","",""
"image-keyboard-response","314","638236","0.0-7.0-1.22","LF","y20qp8dcxo","1920","1080","0","1","0","5f578563765fec223eb51594","","null","","","","","","","learning/Slide103.JPG","null","","","","","",""
"html-keyboard-response","315","639238","0.0-7.0-2.22","LF","y20qp8dcxo","1920","1080","0","1","0","5f578563765fec223eb51594","","null","","","learningBlock2","","","","<div style=""font-size:60px;""> </div>","null","LF","learning/Slide103.JPG","This is a dep:","","",""
"html-keyboard-response","316","640240","0.0-7.0-0.23","LF","y20qp8dcxo","1920","1080","0","1","0","5f578563765fec223eb51594","","null","","","learningBlock2","","","","This is a tob:","null","","","","","",""
"image-keyboard-response","317","640567","0.0-7.0-1.23","LF","y20qp8dcxo","1920","1080","0","1","0","5f578563765fec223eb51594","","null","","","","","","","learning/Slide104.JPG","null","","","","","",""
"html-keyboard-response","318","641569","0.0-7.0-2.23","LF","y20qp8dcxo","1920","1080","0","1","0","5f578563765fec223eb51594","","null","","","learningBlock2","","","","<div style=""font-size:60px;""> </div>","null","LF","learning/Slide104.JPG","This is a tob:","","",""
"html-keyboard-response","319","642570","0.0-7.0-0.24","LF","y20qp8dcxo","1920","1080","0","1","0","5f578563765fec223eb51594","","null","","","learningBlock2","","","","This is a dep:","null","","","","","",""
"image-keyboard-response","320","642899","0.0-7.0-1.24","LF","y20qp8dcxo","1920","1080","0","1","0","5f578563765fec223eb51594","","null","","","","","","","learning/Slide105.JPG","null","","","","","",""
"html-keyboard-response","321","643901","0.0-7.0-2.24","LF","y20qp8dcxo","1920","1080","0","1","0","5f578563765fec223eb51594","","null","","","learningBlock2","","","","<div style=""font-size:60px;""> </div>","null","LF","learning/Slide105.JPG","This is a dep:","","",""
"html-keyboard-response","322","644903","0.0-7.0-0.25","LF","y20qp8dcxo","1920","1080","0","1","0","5f578563765fec223eb51594","","null","","","learningBlock2","","","","This is a wug:","null","","","","","",""
"image-keyboard-response","323","645231","0.0-7.0-1.25","LF","y20qp8dcxo","1920","1080","0","1","0","5f578563765fec223eb51594","","null","","","","","","","learning/Slide106.JPG","null","","","","","",""
"html-keyboard-response","324","646234","0.0-7.0-2.25","LF","y20qp8dcxo","1920","1080","0","1","0","5f578563765fec223eb51594","","null","","","learningBlock2","","","","<div style=""font-size:60px;""> </div>","null","LF","learning/Slide106.JPG","This is a wug:","","",""
"html-keyboard-response","325","647235","0.0-7.0-0.26","LF","y20qp8dcxo","1920","1080","0","1","0","5f578563765fec223eb51594","","null","","","learningBlock2","","","","This is a bim:","null","","","","","",""
"image-keyboard-response","326","647564","0.0-7.0-1.26","LF","y20qp8dcxo","1920","1080","0","1","0","5f578563765fec223eb51594","","null","","","","","","","learning/Slide107.JPG","null","","","","","",""
"html-keyboard-response","327","648567","0.0-7.0-2.26","LF","y20qp8dcxo","1920","1080","0","1","0","5f578563765fec223eb51594","","null","","","learningBlock2","","","","<div style=""font-size:60px;""> </div>","null","LF","learning/Slide107.JPG","This is a bim:","","",""
"html-keyboard-response","328","649568","0.0-7.0-0.27","LF","y20qp8dcxo","1920","1080","0","1","0","5f578563765fec223eb51594","","null","","","learningBlock2","","","","This is a dep:","null","","","","","",""
"image-keyboard-response","329","649896","0.0-7.0-1.27","LF","y20qp8dcxo","1920","1080","0","1","0","5f578563765fec223eb51594","","null","","","","","","","learning/Slide108.JPG","null","","","","","",""
"html-keyboard-response","330","650899","0.0-7.0-2.27","LF","y20qp8dcxo","1920","1080","0","1","0","5f578563765fec223eb51594","","null","","","learningBlock2","","","","<div style=""font-size:60px;""> </div>","null","LF","learning/Slide108.JPG","This is a dep:","","",""
"html-keyboard-response","331","651900","0.0-7.0-0.28","LF","y20qp8dcxo","1920","1080","0","1","0","5f578563765fec223eb51594","","null","","","learningBlock2","","","","This is a wug:","null","","","","","",""
"image-keyboard-response","332","652228","0.0-7.0-1.28","LF","y20qp8dcxo","1920","1080","0","1","0","5f578563765fec223eb51594","","null","","","","","","","learning/Slide109.JPG","null","","","","","",""
"html-keyboard-response","333","653230","0.0-7.0-2.28","LF","y20qp8dcxo","1920","1080","0","1","0","5f578563765fec223eb51594","","null","","","learningBlock2","","","","<div style=""font-size:60px;""> </div>","null","LF","learning/Slide109.JPG","This is a wug:","","",""
"html-keyboard-response","334","654231","0.0-7.0-0.29","LF","y20qp8dcxo","1920","1080","0","1","0","5f578563765fec223eb51594","","null","","","learningBlock2","","","","This is a bim:","null","","","","","",""
"image-keyboard-response","335","654559","0.0-7.0-1.29","LF","y20qp8dcxo","1920","1080","0","1","0","5f578563765fec223eb51594","","null","","","","","","","learning/Slide110.JPG","null","","","","","",""
"html-keyboard-response","336","655561","0.0-7.0-2.29","LF","y20qp8dcxo","1920","1080","0","1","0","5f578563765fec223eb51594","","null","","","learningBlock2","","","","<div style=""font-size:60px;""> </div>","null","LF","learning/Slide110.JPG","This is a bim:","","",""
"html-keyboard-response","337","656562","0.0-7.0-0.30","LF","y20qp8dcxo","1920","1080","0","1","0","5f578563765fec223eb51594","","null","","","learningBlock2","","","","This is a tob:","null","","","","","",""
"image-keyboard-response","338","656890","0.0-7.0-1.30","LF","y20qp8dcxo","1920","1080","0","1","0","5f578563765fec223eb51594","","null","","","","","","","learning/Slide111.JPG","null","","","","","",""
"html-keyboard-response","339","657891","0.0-7.0-2.30","LF","y20qp8dcxo","1920","1080","0","1","0","5f578563765fec223eb51594","","null","","","learningBlock2","","","","<div style=""font-size:60px;""> </div>","null","LF","learning/Slide111.JPG","This is a tob:","","",""
"html-keyboard-response","340","658893","0.0-7.0-0.31","LF","y20qp8dcxo","1920","1080","0","1","0","5f578563765fec223eb51594","","null","","","learningBlock2","","","","This is a wug:","null","","","","","",""
"image-keyboard-response","341","659220","0.0-7.0-1.31","LF","y20qp8dcxo","1920","1080","0","1","0","5f578563765fec223eb51594","","null","","","","","","","learning/Slide112.JPG","null","","","","","",""
"html-keyboard-response","342","660222","0.0-7.0-2.31","LF","y20qp8dcxo","1920","1080","0","1","0","5f578563765fec223eb51594","","null","","","learningBlock2","","","","<div style=""font-size:60px;""> </div>","null","LF","learning/Slide112.JPG","This is a wug:","","",""
"html-keyboard-response","343","661224","0.0-7.0-0.32","LF","y20qp8dcxo","1920","1080","0","1","0","5f578563765fec223eb51594","","null","","","learningBlock2","","","","This is a tob:","null","","","","","",""
"image-keyboard-response","344","661552","0.0-7.0-1.32","LF","y20qp8dcxo","1920","1080","0","1","0","5f578563765fec223eb51594","","null","","","","","","","learning/Slide113.JPG","null","","","","","",""
"html-keyboard-response","345","662555","0.0-7.0-2.32","LF","y20qp8dcxo","1920","1080","0","1","0","5f578563765fec223eb51594","","null","","","learningBlock2","","","","<div style=""font-size:60px;""> </div>","null","LF","learning/Slide113.JPG","This is a tob:","","",""
"html-keyboard-response","346","663557","0.0-7.0-0.33","LF","y20qp8dcxo","1920","1080","0","1","0","5f578563765fec223eb51594","","null","","","learningBlock2","","","","This is a wug:","null","","","","","",""
"image-keyboard-response","347","663884","0.0-7.0-1.33","LF","y20qp8dcxo","1920","1080","0","1","0","5f578563765fec223eb51594","","null","","","","","","","learning/Slide114.JPG","null","","","","","",""
"html-keyboard-response","348","664886","0.0-7.0-2.33","LF","y20qp8dcxo","1920","1080","0","1","0","5f578563765fec223eb51594","","null","","","learningBlock2","","","","<div style=""font-size:60px;""> </div>","null","LF","learning/Slide114.JPG","This is a wug:","","",""
"html-keyboard-response","349","665888","0.0-7.0-0.34","LF","y20qp8dcxo","1920","1080","0","1","0","5f578563765fec223eb51594","","null","","","learningBlock2","","","","This is a bim:","null","","","","","",""
"image-keyboard-response","350","666215","0.0-7.0-1.34","LF","y20qp8dcxo","1920","1080","0","1","0","5f578563765fec223eb51594","","null","","","","","","","learning/Slide115.JPG","null","","","","","",""
"html-keyboard-response","351","667218","0.0-7.0-2.34","LF","y20qp8dcxo","1920","1080","0","1","0","5f578563765fec223eb51594","","null","","","learningBlock2","","","","<div style=""font-size:60px;""> </div>","null","LF","learning/Slide115.JPG","This is a bim:","","",""
"html-keyboard-response","352","668219","0.0-7.0-0.35","LF","y20qp8dcxo","1920","1080","0","1","0","5f578563765fec223eb51594","","null","","","learningBlock2","","","","This is a dep:","null","","","","","",""
"image-keyboard-response","353","668547","0.0-7.0-1.35","LF","y20qp8dcxo","1920","1080","0","1","0","5f578563765fec223eb51594","","null","","","","","","","learning/Slide116.JPG","null","","","","","",""
"html-keyboard-response","354","669549","0.0-7.0-2.35","LF","y20qp8dcxo","1920","1080","0","1","0","5f578563765fec223eb51594","","null","","","learningBlock2","","","","<div style=""font-size:60px;""> </div>","null","LF","learning/Slide116.JPG","This is a dep:","","",""
"html-keyboard-response","355","670550","0.0-7.0-0.36","LF","y20qp8dcxo","1920","1080","0","1","0","5f578563765fec223eb51594","","null","","","learningBlock2","","","","This is a tob:","null","","","","","",""
"image-keyboard-response","356","670878","0.0-7.0-1.36","LF","y20qp8dcxo","1920","1080","0","1","0","5f578563765fec223eb51594","","null","","","","","","","learning/Slide117.JPG","null","","","","","",""
"html-keyboard-response","357","671880","0.0-7.0-2.36","LF","y20qp8dcxo","1920","1080","0","1","0","5f578563765fec223eb51594","","null","","","learningBlock2","","","","<div style=""font-size:60px;""> </div>","null","LF","learning/Slide117.JPG","This is a tob:","","",""
"html-keyboard-response","358","672882","0.0-7.0-0.37","LF","y20qp8dcxo","1920","1080","0","1","0","5f578563765fec223eb51594","","null","","","learningBlock2","","","","This is a dep:","null","","","","","",""
"image-keyboard-response","359","673211","0.0-7.0-1.37","LF","y20qp8dcxo","1920","1080","0","1","0","5f578563765fec223eb51594","","null","","","","","","","learning/Slide118.JPG","null","","","","","",""
"html-keyboard-response","360","674214","0.0-7.0-2.37","LF","y20qp8dcxo","1920","1080","0","1","0","5f578563765fec223eb51594","","null","","","learningBlock2","","","","<div style=""font-size:60px;""> </div>","null","LF","learning/Slide118.JPG","This is a dep:","","",""
"html-keyboard-response","361","675215","0.0-7.0-0.38","LF","y20qp8dcxo","1920","1080","0","1","0","5f578563765fec223eb51594","","null","","","learningBlock2","","","","This is a wug:","null","","","","","",""
"image-keyboard-response","362","675544","0.0-7.0-1.38","LF","y20qp8dcxo","1920","1080","0","1","0","5f578563765fec223eb51594","","null","","","","","","","learning/Slide119.JPG","null","","","","","",""
"html-keyboard-response","363","676545","0.0-7.0-2.38","LF","y20qp8dcxo","1920","1080","0","1","0","5f578563765fec223eb51594","","null","","","learningBlock2","","","","<div style=""font-size:60px;""> </div>","null","LF","learning/Slide119.JPG","This is a wug:","","",""
"html-keyboard-response","364","677547","0.0-7.0-0.39","LF","y20qp8dcxo","1920","1080","0","1","0","5f578563765fec223eb51594","","null","","","learningBlock2","","","","This is a dep:","null","","","","","",""
"image-keyboard-response","365","677875","0.0-7.0-1.39","LF","y20qp8dcxo","1920","1080","0","1","0","5f578563765fec223eb51594","","null","","","","","","","learning/Slide120.JPG","null","","","","","",""
"html-keyboard-response","366","678878","0.0-7.0-2.39","LF","y20qp8dcxo","1920","1080","0","1","0","5f578563765fec223eb51594","","null","","","learningBlock2","","","","<div style=""font-size:60px;""> </div>","null","LF","learning/Slide120.JPG","This is a dep:","","",""
"html-keyboard-response","367","679879","0.0-7.0-0.40","LF","y20qp8dcxo","1920","1080","0","1","0","5f578563765fec223eb51594","","null","","","learningBlock2","","","","This is a bim:","null","","","","","",""
"image-keyboard-response","368","680207","0.0-7.0-1.40","LF","y20qp8dcxo","1920","1080","0","1","0","5f578563765fec223eb51594","","null","","","","","","","learning/Slide121.JPG","null","","","","","",""
"html-keyboard-response","369","681208","0.0-7.0-2.40","LF","y20qp8dcxo","1920","1080","0","1","0","5f578563765fec223eb51594","","null","","","learningBlock2","","","","<div style=""font-size:60px;""> </div>","null","LF","learning/Slide121.JPG","This is a bim:","","",""
"html-keyboard-response","370","682210","0.0-7.0-0.41","LF","y20qp8dcxo","1920","1080","0","1","0","5f578563765fec223eb51594","","null","","","learningBlock2","","","","This is a wug:","null","","","","","",""
"image-keyboard-response","371","682536","0.0-7.0-1.41","LF","y20qp8dcxo","1920","1080","0","1","0","5f578563765fec223eb51594","","null","","","","","","","learning/Slide122.JPG","null","","","","","",""
"html-keyboard-response","372","683539","0.0-7.0-2.41","LF","y20qp8dcxo","1920","1080","0","1","0","5f578563765fec223eb51594","","null","","","learningBlock2","","","","<div style=""font-size:60px;""> </div>","null","LF","learning/Slide122.JPG","This is a wug:","","",""
"html-keyboard-response","373","684541","0.0-7.0-0.42","LF","y20qp8dcxo","1920","1080","0","1","0","5f578563765fec223eb51594","","null","","","learningBlock2","","","","This is a bim:","null","","","","","",""
"image-keyboard-response","374","684872","0.0-7.0-1.42","LF","y20qp8dcxo","1920","1080","0","1","0","5f578563765fec223eb51594","","null","","","","","","","learning/Slide123.JPG","null","","","","","",""
"html-keyboard-response","375","685874","0.0-7.0-2.42","LF","y20qp8dcxo","1920","1080","0","1","0","5f578563765fec223eb51594","","null","","","learningBlock2","","","","<div style=""font-size:60px;""> </div>","null","LF","learning/Slide123.JPG","This is a bim:","","",""
"html-keyboard-response","376","686875","0.0-7.0-0.43","LF","y20qp8dcxo","1920","1080","0","1","0","5f578563765fec223eb51594","","null","","","learningBlock2","","","","This is a tob:","null","","","","","",""
"image-keyboard-response","377","687202","0.0-7.0-1.43","LF","y20qp8dcxo","1920","1080","0","1","0","5f578563765fec223eb51594","","null","","","","","","","learning/Slide124.JPG","null","","","","","",""
"html-keyboard-response","378","688205","0.0-7.0-2.43","LF","y20qp8dcxo","1920","1080","0","1","0","5f578563765fec223eb51594","","null","","","learningBlock2","","","","<div style=""font-size:60px;""> </div>","null","LF","learning/Slide124.JPG","This is a tob:","","",""
"html-keyboard-response","379","689207","0.0-7.0-0.44","LF","y20qp8dcxo","1920","1080","0","1","0","5f578563765fec223eb51594","","null","","","learningBlock2","","","","This is a bim:","null","","","","","",""
"image-keyboard-response","380","689535","0.0-7.0-1.44","LF","y20qp8dcxo","1920","1080","0","1","0","5f578563765fec223eb51594","","null","","","","","","","learning/Slide125.JPG","null","","","","","",""
"html-keyboard-response","381","690537","0.0-7.0-2.44","LF","y20qp8dcxo","1920","1080","0","1","0","5f578563765fec223eb51594","","null","","","learningBlock2","","","","<div style=""font-size:60px;""> </div>","null","LF","learning/Slide125.JPG","This is a bim:","","",""
"html-keyboard-response","382","691538","0.0-7.0-0.45","LF","y20qp8dcxo","1920","1080","0","1","0","5f578563765fec223eb51594","","null","","","learningBlock2","","","","This is a tob:","null","","","","","",""
"image-keyboard-response","383","691865","0.0-7.0-1.45","LF","y20qp8dcxo","1920","1080","0","1","0","5f578563765fec223eb51594","","null","","","","","","","learning/Slide126.JPG","null","","","","","",""
"html-keyboard-response","384","692868","0.0-7.0-2.45","LF","y20qp8dcxo","1920","1080","0","1","0","5f578563765fec223eb51594","","null","","","learningBlock2","","","","<div style=""font-size:60px;""> </div>","null","LF","learning/Slide126.JPG","This is a tob:","","",""
"html-keyboard-response","385","693870","0.0-7.0-0.46","LF","y20qp8dcxo","1920","1080","0","1","0","5f578563765fec223eb51594","","null","","","learningBlock2","","","","This is a dep:","null","","","","","",""
"image-keyboard-response","386","694197","0.0-7.0-1.46","LF","y20qp8dcxo","1920","1080","0","1","0","5f578563765fec223eb51594","","null","","","","","","","learning/Slide127.JPG","null","","","","","",""
"html-keyboard-response","387","695200","0.0-7.0-2.46","LF","y20qp8dcxo","1920","1080","0","1","0","5f578563765fec223eb51594","","null","","","learningBlock2","","","","<div style=""font-size:60px;""> </div>","null","LF","learning/Slide127.JPG","This is a dep:","","",""
"html-keyboard-response","388","696202","0.0-7.0-0.47","LF","y20qp8dcxo","1920","1080","0","1","0","5f578563765fec223eb51594","","null","","","learningBlock2","","","","This is a wug:","null","","","","","",""
"image-keyboard-response","389","696530","0.0-7.0-1.47","LF","y20qp8dcxo","1920","1080","0","1","0","5f578563765fec223eb51594","","null","","","","","","","learning/Slide128.JPG","null","","","","","",""
"html-keyboard-response","390","697533","0.0-7.0-2.47","LF","y20qp8dcxo","1920","1080","0","1","0","5f578563765fec223eb51594","","null","","","learningBlock2","","","","<div style=""font-size:60px;""> </div>","null","LF","learning/Slide128.JPG","This is a wug:","","",""
"html-keyboard-response","391","698534","0.0-7.0-0.48","LF","y20qp8dcxo","1920","1080","0","1","0","5f578563765fec223eb51594","","null","","","learningBlock2","","","","This is a tob:","null","","","","","",""
"image-keyboard-response","392","698861","0.0-7.0-1.48","LF","y20qp8dcxo","1920","1080","0","1","0","5f578563765fec223eb51594","","null","","","","","","","learning/Slide129.JPG","null","","","","","",""
"html-keyboard-response","393","699863","0.0-7.0-2.48","LF","y20qp8dcxo","1920","1080","0","1","0","5f578563765fec223eb51594","","null","","","learningBlock2","","","","<div style=""font-size:60px;""> </div>","null","LF","learning/Slide129.JPG","This is a tob:","","",""
"html-keyboard-response","394","700864","0.0-7.0-0.49","LF","y20qp8dcxo","1920","1080","0","1","0","5f578563765fec223eb51594","","null","","","learningBlock2","","","","This is a wug:","null","","","","","",""
"image-keyboard-response","395","701192","0.0-7.0-1.49","LF","y20qp8dcxo","1920","1080","0","1","0","5f578563765fec223eb51594","","null","","","","","","","learning/Slide130.JPG","null","","","","","",""
"html-keyboard-response","396","702195","0.0-7.0-2.49","LF","y20qp8dcxo","1920","1080","0","1","0","5f578563765fec223eb51594","","null","","","learningBlock2","","","","<div style=""font-size:60px;""> </div>","null","LF","learning/Slide130.JPG","This is a wug:","","",""
"html-keyboard-response","397","703197","0.0-7.0-0.50","LF","y20qp8dcxo","1920","1080","0","1","0","5f578563765fec223eb51594","","null","","","learningBlock2","","","","This is a bim:","null","","","","","",""
"image-keyboard-response","398","703526","0.0-7.0-1.50","LF","y20qp8dcxo","1920","1080","0","1","0","5f578563765fec223eb51594","","null","","","","","","","learning/Slide131.JPG","null","","","","","",""
"html-keyboard-response","399","704528","0.0-7.0-2.50","LF","y20qp8dcxo","1920","1080","0","1","0","5f578563765fec223eb51594","","null","","","learningBlock2","","","","<div style=""font-size:60px;""> </div>","null","LF","learning/Slide131.JPG","This is a bim:","","",""
"html-keyboard-response","400","705529","0.0-7.0-0.51","LF","y20qp8dcxo","1920","1080","0","1","0","5f578563765fec223eb51594","","null","","","learningBlock2","","","","This is a dep:","null","","","","","",""
"image-keyboard-response","401","705859","0.0-7.0-1.51","LF","y20qp8dcxo","1920","1080","0","1","0","5f578563765fec223eb51594","","null","","","","","","","learning/Slide132.JPG","null","","","","","",""
"html-keyboard-response","402","706861","0.0-7.0-2.51","LF","y20qp8dcxo","1920","1080","0","1","0","5f578563765fec223eb51594","","null","","","learningBlock2","","","","<div style=""font-size:60px;""> </div>","null","LF","learning/Slide132.JPG","This is a dep:","","",""
"html-keyboard-response","403","707862","0.0-7.0-0.52","LF","y20qp8dcxo","1920","1080","0","1","0","5f578563765fec223eb51594","","null","","","learningBlock2","","","","This is a tob:","null","","","","","",""
"image-keyboard-response","404","708194","0.0-7.0-1.52","LF","y20qp8dcxo","1920","1080","0","1","0","5f578563765fec223eb51594","","null","","","","","","","learning/Slide133.JPG","null","","","","","",""
"html-keyboard-response","405","709196","0.0-7.0-2.52","LF","y20qp8dcxo","1920","1080","0","1","0","5f578563765fec223eb51594","","null","","","learningBlock2","","","","<div style=""font-size:60px;""> </div>","null","LF","learning/Slide133.JPG","This is a tob:","","",""
"html-keyboard-response","406","710197","0.0-7.0-0.53","LF","y20qp8dcxo","1920","1080","0","1","0","5f578563765fec223eb51594","","null","","","learningBlock2","","","","This is a dep:","null","","","","","",""
"image-keyboard-response","407","710524","0.0-7.0-1.53","LF","y20qp8dcxo","1920","1080","0","1","0","5f578563765fec223eb51594","","null","","","","","","","learning/Slide134.JPG","null","","","","","",""
"html-keyboard-response","408","711526","0.0-7.0-2.53","LF","y20qp8dcxo","1920","1080","0","1","0","5f578563765fec223eb51594","","null","","","learningBlock2","","","","<div style=""font-size:60px;""> </div>","null","LF","learning/Slide134.JPG","This is a dep:","","",""
"html-keyboard-response","409","712528","0.0-7.0-0.54","LF","y20qp8dcxo","1920","1080","0","1","0","5f578563765fec223eb51594","","null","","","learningBlock2","","","","This is a tob:","null","","","","","",""
"image-keyboard-response","410","712856","0.0-7.0-1.54","LF","y20qp8dcxo","1920","1080","0","1","0","5f578563765fec223eb51594","","null","","","","","","","learning/Slide135.JPG","null","","","","","",""
"html-keyboard-response","411","713858","0.0-7.0-2.54","LF","y20qp8dcxo","1920","1080","0","1","0","5f578563765fec223eb51594","","null","","","learningBlock2","","","","<div style=""font-size:60px;""> </div>","null","LF","learning/Slide135.JPG","This is a tob:","","",""
"html-keyboard-response","412","714861","0.0-7.0-0.55","LF","y20qp8dcxo","1920","1080","0","1","0","5f578563765fec223eb51594","","null","","","learningBlock2","","","","This is a wug:","null","","","","","",""
"image-keyboard-response","413","715188","0.0-7.0-1.55","LF","y20qp8dcxo","1920","1080","0","1","0","5f578563765fec223eb51594","","null","","","","","","","learning/Slide136.JPG","null","","","","","",""
"html-keyboard-response","414","716191","0.0-7.0-2.55","LF","y20qp8dcxo","1920","1080","0","1","0","5f578563765fec223eb51594","","null","","","learningBlock2","","","","<div style=""font-size:60px;""> </div>","null","LF","learning/Slide136.JPG","This is a wug:","","",""
"html-keyboard-response","415","717193","0.0-7.0-0.56","LF","y20qp8dcxo","1920","1080","0","1","0","5f578563765fec223eb51594","","null","","","learningBlock2","","","","This is a tob:","null","","","","","",""
"image-keyboard-response","416","717520","0.0-7.0-1.56","LF","y20qp8dcxo","1920","1080","0","1","0","5f578563765fec223eb51594","","null","","","","","","","learning/Slide137.JPG","null","","","","","",""
"html-keyboard-response","417","718523","0.0-7.0-2.56","LF","y20qp8dcxo","1920","1080","0","1","0","5f578563765fec223eb51594","","null","","","learningBlock2","","","","<div style=""font-size:60px;""> </div>","null","LF","learning/Slide137.JPG","This is a tob:","","",""
"html-keyboard-response","418","719525","0.0-7.0-0.57","LF","y20qp8dcxo","1920","1080","0","1","0","5f578563765fec223eb51594","","null","","","learningBlock2","","","","This is a bim:","null","","","","","",""
"image-keyboard-response","419","719854","0.0-7.0-1.57","LF","y20qp8dcxo","1920","1080","0","1","0","5f578563765fec223eb51594","","null","","","","","","","learning/Slide138.JPG","null","","","","","",""
"html-keyboard-response","420","720855","0.0-7.0-2.57","LF","y20qp8dcxo","1920","1080","0","1","0","5f578563765fec223eb51594","","null","","","learningBlock2","","","","<div style=""font-size:60px;""> </div>","null","LF","learning/Slide138.JPG","This is a bim:","","",""
"html-keyboard-response","421","721858","0.0-7.0-0.58","LF","y20qp8dcxo","1920","1080","0","1","0","5f578563765fec223eb51594","","null","","","learningBlock2","","","","This is a wug:","null","","","","","",""
"image-keyboard-response","422","722185","0.0-7.0-1.58","LF","y20qp8dcxo","1920","1080","0","1","0","5f578563765fec223eb51594","","null","","","","","","","learning/Slide139.JPG","null","","","","","",""
"html-keyboard-response","423","723186","0.0-7.0-2.58","LF","y20qp8dcxo","1920","1080","0","1","0","5f578563765fec223eb51594","","null","","","learningBlock2","","","","<div style=""font-size:60px;""> </div>","null","LF","learning/Slide139.JPG","This is a wug:","","",""
"html-keyboard-response","424","724188","0.0-7.0-0.59","LF","y20qp8dcxo","1920","1080","0","1","0","5f578563765fec223eb51594","","null","","","learningBlock2","","","","This is a dep:","null","","","","","",""
"image-keyboard-response","425","724517","0.0-7.0-1.59","LF","y20qp8dcxo","1920","1080","0","1","0","5f578563765fec223eb51594","","null","","","","","","","learning/Slide140.JPG","null","","","","","",""
"html-keyboard-response","426","725519","0.0-7.0-2.59","LF","y20qp8dcxo","1920","1080","0","1","0","5f578563765fec223eb51594","","null","","","learningBlock2","","","","<div style=""font-size:60px;""> </div>","null","LF","learning/Slide140.JPG","This is a dep:","","",""
"html-keyboard-response","427","726521","0.0-7.0-0.60","LF","y20qp8dcxo","1920","1080","0","1","0","5f578563765fec223eb51594","","null","","","learningBlock2","","","","This is a tob:","null","","","","","",""
"image-keyboard-response","428","726849","0.0-7.0-1.60","LF","y20qp8dcxo","1920","1080","0","1","0","5f578563765fec223eb51594","","null","","","","","","","learning/Slide141.JPG","null","","","","","",""
"html-keyboard-response","429","727852","0.0-7.0-2.60","LF","y20qp8dcxo","1920","1080","0","1","0","5f578563765fec223eb51594","","null","","","learningBlock2","","","","<div style=""font-size:60px;""> </div>","null","LF","learning/Slide141.JPG","This is a tob:","","",""
"html-keyboard-response","430","728855","0.0-7.0-0.61","LF","y20qp8dcxo","1920","1080","0","1","0","5f578563765fec223eb51594","","null","","","learningBlock2","","","","This is a wug:","null","","","","","",""
"image-keyboard-response","431","729182","0.0-7.0-1.61","LF","y20qp8dcxo","1920","1080","0","1","0","5f578563765fec223eb51594","","null","","","","","","","learning/Slide142.JPG","null","","","","","",""
"html-keyboard-response","432","730184","0.0-7.0-2.61","LF","y20qp8dcxo","1920","1080","0","1","0","5f578563765fec223eb51594","","null","","","learningBlock2","","","","<div style=""font-size:60px;""> </div>","null","LF","learning/Slide142.JPG","This is a wug:","","",""
"html-keyboard-response","433","731186","0.0-7.0-0.62","LF","y20qp8dcxo","1920","1080","0","1","0","5f578563765fec223eb51594","","null","","","learningBlock2","","","","This is a bim:","null","","","","","",""
"image-keyboard-response","434","731514","0.0-7.0-1.62","LF","y20qp8dcxo","1920","1080","0","1","0","5f578563765fec223eb51594","","null","","","","","","","learning/Slide143.JPG","null","","","","","",""
"html-keyboard-response","435","732516","0.0-7.0-2.62","LF","y20qp8dcxo","1920","1080","0","1","0","5f578563765fec223eb51594","","null","","","learningBlock2","","","","<div style=""font-size:60px;""> </div>","null","LF","learning/Slide143.JPG","This is a bim:","","",""
