"trial_type","trial_index","time_elapsed","internal_node_id","condition","subject","screen_width","screen_height","attention","distraction","conscientious","prolificID","success","rt","url","view_history","test_part","final_height_px","final_width_px","scale_factor","stimulus","key_press","learningType","presentedImage","presentedLabel","button_pressed","response","responses"
"pavlovia","0","26","0.0-0.0","LF","d1snyw7jw6","1920","1080","0","1","0","5fc13b486833fb13fef1720b","","","","","","","","","","","","","","","",""
"fullscreen","1","86562","0.0-1.0","LF","d1snyw7jw6","1920","1080","0","1","0","5fc13b486833fb13fef1720b","true","","","","","","","","","","","","","","",""
"external-html","2","129112","0.0-2.0-0.0","LF","d1snyw7jw6","1920","1080","0","1","0","5fc13b486833fb13fef1720b","","42511.644999991404","text/information_english.html","","","","","","","","","","","","",""
"external-html","3","133391","0.0-2.0-1.0","LF","d1snyw7jw6","1920","1080","0","1","0","5fc13b486833fb13fef1720b","","4238.084999989951","text/consent_english.html","","","","","","","","","","","","",""
"instructions","4","170423","0.0-3.0","LF","d1snyw7jw6","1920","1080","0","1","0","5fc13b486833fb13fef1720b","","NA","","[{""page_index"":0,""viewing_time"":5134.084999997867},{""page_index"":1,""viewing_time"":31895.695000013802}]","instructions","","","","","","","","","","",""
"resize","5","242791","0.0-4.0","LF","d1snyw7jw6","1920","1080","0","1","0","5fc13b486833fb13fef1720b","","","","","","","346","2.196825396825397","","","","","","","",""
"html-keyboard-response","6","243794","0.0-5.0-0.0","LF","d1snyw7jw6","1920","1080","0","1","0","5fc13b486833fb13fef1720b","","null","","","learningBlock1","","","","This is a tob:","null","","","","","",""
"image-keyboard-response","7","244121","0.0-5.0-1.0","LF","d1snyw7jw6","1920","1080","0","1","0","5fc13b486833fb13fef1720b","","null","","","","","","","learning/Slide1.JPG","null","","","","","",""
"html-keyboard-response","8","245123","0.0-5.0-2.0","LF","d1snyw7jw6","1920","1080","0","1","0","5fc13b486833fb13fef1720b","","null","","","learningBlock1","","","","<div style=""font-size:60px;""> </div>","null","LF","learning/Slide1.JPG","This is a tob:","","",""
"html-keyboard-response","9","246124","0.0-5.0-0.1","LF","d1snyw7jw6","1920","1080","0","1","0","5fc13b486833fb13fef1720b","","null","","","learningBlock1","","","","This is a wug:","null","","","","","",""
"image-keyboard-response","10","246451","0.0-5.0-1.1","LF","d1snyw7jw6","1920","1080","0","1","0","5fc13b486833fb13fef1720b","","null","","","","","","","learning/Slide2.JPG","null","","","","","",""
"html-keyboard-response","11","247453","0.0-5.0-2.1","LF","d1snyw7jw6","1920","1080","0","1","0","5fc13b486833fb13fef1720b","","null","","","learningBlock1","","","","<div style=""font-size:60px;""> </div>","null","LF","learning/Slide2.JPG","This is a wug:","","",""
"html-keyboard-response","12","248454","0.0-5.0-0.2","LF","d1snyw7jw6","1920","1080","0","1","0","5fc13b486833fb13fef1720b","","null","","","learningBlock1","","","","This is a bim:","null","","","","","",""
"image-keyboard-response","13","248781","0.0-5.0-1.2","LF","d1snyw7jw6","1920","1080","0","1","0","5fc13b486833fb13fef1720b","","null","","","","","","","learning/Slide3.JPG","null","","","","","",""
"html-keyboard-response","14","249782","0.0-5.0-2.2","LF","d1snyw7jw6","1920","1080","0","1","0","5fc13b486833fb13fef1720b","","null","","","learningBlock1","","","","<div style=""font-size:60px;""> </div>","null","LF","learning/Slide3.JPG","This is a bim:","","",""
"html-keyboard-response","15","250784","0.0-5.0-0.3","LF","d1snyw7jw6","1920","1080","0","1","0","5fc13b486833fb13fef1720b","","null","","","learningBlock1","","","","This is a dep:","null","","","","","",""
"image-keyboard-response","16","251111","0.0-5.0-1.3","LF","d1snyw7jw6","1920","1080","0","1","0","5fc13b486833fb13fef1720b","","null","","","","","","","learning/Slide4.JPG","null","","","","","",""
"html-keyboard-response","17","252113","0.0-5.0-2.3","LF","d1snyw7jw6","1920","1080","0","1","0","5fc13b486833fb13fef1720b","","null","","","learningBlock1","","","","<div style=""font-size:60px;""> </div>","null","LF","learning/Slide4.JPG","This is a dep:","","",""
"html-keyboard-response","18","253114","0.0-5.0-0.4","LF","d1snyw7jw6","1920","1080","0","1","0","5fc13b486833fb13fef1720b","","null","","","learningBlock1","","","","This is a wug:","null","","","","","",""
"image-keyboard-response","19","253441","0.0-5.0-1.4","LF","d1snyw7jw6","1920","1080","0","1","0","5fc13b486833fb13fef1720b","","null","","","","","","","learning/Slide5.JPG","null","","","","","",""
"html-keyboard-response","20","254442","0.0-5.0-2.4","LF","d1snyw7jw6","1920","1080","0","1","0","5fc13b486833fb13fef1720b","","null","","","learningBlock1","","","","<div style=""font-size:60px;""> </div>","null","LF","learning/Slide5.JPG","This is a wug:","","",""
"html-keyboard-response","21","255443","0.0-5.0-0.5","LF","d1snyw7jw6","1920","1080","0","1","0","5fc13b486833fb13fef1720b","","null","","","learningBlock1","","","","This is a dep:","null","","","","","",""
"image-keyboard-response","22","255769","0.0-5.0-1.5","LF","d1snyw7jw6","1920","1080","0","1","0","5fc13b486833fb13fef1720b","","null","","","","","","","learning/Slide6.JPG","null","","","","","",""
"html-keyboard-response","23","256771","0.0-5.0-2.5","LF","d1snyw7jw6","1920","1080","0","1","0","5fc13b486833fb13fef1720b","","null","","","learningBlock1","","","","<div style=""font-size:60px;""> </div>","null","LF","learning/Slide6.JPG","This is a dep:","","",""
"html-keyboard-response","24","257772","0.0-5.0-0.6","LF","d1snyw7jw6","1920","1080","0","1","0","5fc13b486833fb13fef1720b","","null","","","learningBlock1","","","","This is a wug:","null","","","","","",""
"image-keyboard-response","25","258099","0.0-5.0-1.6","LF","d1snyw7jw6","1920","1080","0","1","0","5fc13b486833fb13fef1720b","","null","","","","","","","learning/Slide7.JPG","null","","","","","",""
"html-keyboard-response","26","259101","0.0-5.0-2.6","LF","d1snyw7jw6","1920","1080","0","1","0","5fc13b486833fb13fef1720b","","null","","","learningBlock1","","","","<div style=""font-size:60px;""> </div>","null","LF","learning/Slide7.JPG","This is a wug:","","",""
"html-keyboard-response","27","260102","0.0-5.0-0.7","LF","d1snyw7jw6","1920","1080","0","1","0","5fc13b486833fb13fef1720b","","null","","","learningBlock1","","","","This is a bim:","null","","","","","",""
"image-keyboard-response","28","260429","0.0-5.0-1.7","LF","d1snyw7jw6","1920","1080","0","1","0","5fc13b486833fb13fef1720b","","null","","","","","","","learning/Slide8.JPG","null","","","","","",""
"html-keyboard-response","29","261431","0.0-5.0-2.7","LF","d1snyw7jw6","1920","1080","0","1","0","5fc13b486833fb13fef1720b","","null","","","learningBlock1","","","","<div style=""font-size:60px;""> </div>","null","LF","learning/Slide8.JPG","This is a bim:","","",""
"html-keyboard-response","30","262433","0.0-5.0-0.8","LF","d1snyw7jw6","1920","1080","0","1","0","5fc13b486833fb13fef1720b","","null","","","learningBlock1","","","","This is a wug:","null","","","","","",""
"image-keyboard-response","31","262761","0.0-5.0-1.8","LF","d1snyw7jw6","1920","1080","0","1","0","5fc13b486833fb13fef1720b","","null","","","","","","","learning/Slide9.JPG","null","","","","","",""
"html-keyboard-response","32","263762","0.0-5.0-2.8","LF","d1snyw7jw6","1920","1080","0","1","0","5fc13b486833fb13fef1720b","","null","","","learningBlock1","","","","<div style=""font-size:60px;""> </div>","null","LF","learning/Slide9.JPG","This is a wug:","","",""
"html-keyboard-response","33","264763","0.0-5.0-0.9","LF","d1snyw7jw6","1920","1080","0","1","0","5fc13b486833fb13fef1720b","","null","","","learningBlock1","","","","This is a dep:","null","","","","","",""
"image-keyboard-response","34","265091","0.0-5.0-1.9","LF","d1snyw7jw6","1920","1080","0","1","0","5fc13b486833fb13fef1720b","","null","","","","","","","learning/Slide10.JPG","null","","","","","",""
"html-keyboard-response","35","266092","0.0-5.0-2.9","LF","d1snyw7jw6","1920","1080","0","1","0","5fc13b486833fb13fef1720b","","null","","","learningBlock1","","","","<div style=""font-size:60px;""> </div>","null","LF","learning/Slide10.JPG","This is a dep:","","",""
"html-keyboard-response","36","267093","0.0-5.0-0.10","LF","d1snyw7jw6","1920","1080","0","1","0","5fc13b486833fb13fef1720b","","null","","","learningBlock1","","","","This is a tob:","null","","","","","",""
"image-keyboard-response","37","267421","0.0-5.0-1.10","LF","d1snyw7jw6","1920","1080","0","1","0","5fc13b486833fb13fef1720b","","null","","","","","","","learning/Slide11.JPG","null","","","","","",""
"html-keyboard-response","38","268422","0.0-5.0-2.10","LF","d1snyw7jw6","1920","1080","0","1","0","5fc13b486833fb13fef1720b","","null","","","learningBlock1","","","","<div style=""font-size:60px;""> </div>","null","LF","learning/Slide11.JPG","This is a tob:","","",""
"html-keyboard-response","39","269425","0.0-5.0-0.11","LF","d1snyw7jw6","1920","1080","0","1","0","5fc13b486833fb13fef1720b","","null","","","learningBlock1","","","","This is a dep:","null","","","","","",""
"image-keyboard-response","40","269751","0.0-5.0-1.11","LF","d1snyw7jw6","1920","1080","0","1","0","5fc13b486833fb13fef1720b","","null","","","","","","","learning/Slide12.JPG","null","","","","","",""
"html-keyboard-response","41","270752","0.0-5.0-2.11","LF","d1snyw7jw6","1920","1080","0","1","0","5fc13b486833fb13fef1720b","","null","","","learningBlock1","","","","<div style=""font-size:60px;""> </div>","null","LF","learning/Slide12.JPG","This is a dep:","","",""
"html-keyboard-response","42","271754","0.0-5.0-0.12","LF","d1snyw7jw6","1920","1080","0","1","0","5fc13b486833fb13fef1720b","","null","","","learningBlock1","","","","This is a bim:","null","","","","","",""
"image-keyboard-response","43","272082","0.0-5.0-1.12","LF","d1snyw7jw6","1920","1080","0","1","0","5fc13b486833fb13fef1720b","","null","","","","","","","learning/Slide13.JPG","null","","","","","",""
"html-keyboard-response","44","273083","0.0-5.0-2.12","LF","d1snyw7jw6","1920","1080","0","1","0","5fc13b486833fb13fef1720b","","null","","","learningBlock1","","","","<div style=""font-size:60px;""> </div>","null","LF","learning/Slide13.JPG","This is a bim:","","",""
"html-keyboard-response","45","274084","0.0-5.0-0.13","LF","d1snyw7jw6","1920","1080","0","1","0","5fc13b486833fb13fef1720b","","null","","","learningBlock1","","","","This is a wug:","null","","","","","",""
"image-keyboard-response","46","274411","0.0-5.0-1.13","LF","d1snyw7jw6","1920","1080","0","1","0","5fc13b486833fb13fef1720b","","null","","","","","","","learning/Slide14.JPG","null","","","","","",""
"html-keyboard-response","47","275412","0.0-5.0-2.13","LF","d1snyw7jw6","1920","1080","0","1","0","5fc13b486833fb13fef1720b","","null","","","learningBlock1","","","","<div style=""font-size:60px;""> </div>","null","LF","learning/Slide14.JPG","This is a wug:","","",""
"html-keyboard-response","48","276413","0.0-5.0-0.14","LF","d1snyw7jw6","1920","1080","0","1","0","5fc13b486833fb13fef1720b","","null","","","learningBlock1","","","","This is a tob:","null","","","","","",""
"image-keyboard-response","49","276740","0.0-5.0-1.14","LF","d1snyw7jw6","1920","1080","0","1","0","5fc13b486833fb13fef1720b","","null","","","","","","","learning/Slide15.JPG","null","","","","","",""
"html-keyboard-response","50","277742","0.0-5.0-2.14","LF","d1snyw7jw6","1920","1080","0","1","0","5fc13b486833fb13fef1720b","","null","","","learningBlock1","","","","<div style=""font-size:60px;""> </div>","null","LF","learning/Slide15.JPG","This is a tob:","","",""
"html-keyboard-response","51","278743","0.0-5.0-0.15","LF","d1snyw7jw6","1920","1080","0","1","0","5fc13b486833fb13fef1720b","","null","","","learningBlock1","","","","This is a dep:","null","","","","","",""
"image-keyboard-response","52","279069","0.0-5.0-1.15","LF","d1snyw7jw6","1920","1080","0","1","0","5fc13b486833fb13fef1720b","","null","","","","","","","learning/Slide16.JPG","null","","","","","",""
"html-keyboard-response","53","280070","0.0-5.0-2.15","LF","d1snyw7jw6","1920","1080","0","1","0","5fc13b486833fb13fef1720b","","null","","","learningBlock1","","","","<div style=""font-size:60px;""> </div>","null","LF","learning/Slide16.JPG","This is a dep:","","",""
"html-keyboard-response","54","281072","0.0-5.0-0.16","LF","d1snyw7jw6","1920","1080","0","1","0","5fc13b486833fb13fef1720b","","null","","","learningBlock1","","","","This is a bim:","null","","","","","",""
"image-keyboard-response","55","281399","0.0-5.0-1.16","LF","d1snyw7jw6","1920","1080","0","1","0","5fc13b486833fb13fef1720b","","null","","","","","","","learning/Slide17.JPG","null","","","","","",""
"html-keyboard-response","56","282400","0.0-5.0-2.16","LF","d1snyw7jw6","1920","1080","0","1","0","5fc13b486833fb13fef1720b","","null","","","learningBlock1","","","","<div style=""font-size:60px;""> </div>","null","LF","learning/Slide17.JPG","This is a bim:","","",""
"html-keyboard-response","57","283402","0.0-5.0-0.17","LF","d1snyw7jw6","1920","1080","0","1","0","5fc13b486833fb13fef1720b","","null","","","learningBlock1","","","","This is a tob:","null","","","","","",""
"image-keyboard-response","58","283729","0.0-5.0-1.17","LF","d1snyw7jw6","1920","1080","0","1","0","5fc13b486833fb13fef1720b","","null","","","","","","","learning/Slide18.JPG","null","","","","","",""
"html-keyboard-response","59","284730","0.0-5.0-2.17","LF","d1snyw7jw6","1920","1080","0","1","0","5fc13b486833fb13fef1720b","","null","","","learningBlock1","","","","<div style=""font-size:60px;""> </div>","null","LF","learning/Slide18.JPG","This is a tob:","","",""
"html-keyboard-response","60","285731","0.0-5.0-0.18","LF","d1snyw7jw6","1920","1080","0","1","0","5fc13b486833fb13fef1720b","","null","","","learningBlock1","","","","This is a wug:","null","","","","","",""
"image-keyboard-response","61","286058","0.0-5.0-1.18","LF","d1snyw7jw6","1920","1080","0","1","0","5fc13b486833fb13fef1720b","","null","","","","","","","learning/Slide19.JPG","null","","","","","",""
"html-keyboard-response","62","287060","0.0-5.0-2.18","LF","d1snyw7jw6","1920","1080","0","1","0","5fc13b486833fb13fef1720b","","null","","","learningBlock1","","","","<div style=""font-size:60px;""> </div>","null","LF","learning/Slide19.JPG","This is a wug:","","",""
"html-keyboard-response","63","288061","0.0-5.0-0.19","LF","d1snyw7jw6","1920","1080","0","1","0","5fc13b486833fb13fef1720b","","null","","","learningBlock1","","","","This is a bim:","null","","","","","",""
"image-keyboard-response","64","288388","0.0-5.0-1.19","LF","d1snyw7jw6","1920","1080","0","1","0","5fc13b486833fb13fef1720b","","null","","","","","","","learning/Slide20.JPG","null","","","","","",""
"html-keyboard-response","65","289390","0.0-5.0-2.19","LF","d1snyw7jw6","1920","1080","0","1","0","5fc13b486833fb13fef1720b","","null","","","learningBlock1","","","","<div style=""font-size:60px;""> </div>","null","LF","learning/Slide20.JPG","This is a bim:","","",""
"html-keyboard-response","66","290391","0.0-5.0-0.20","LF","d1snyw7jw6","1920","1080","0","1","0","5fc13b486833fb13fef1720b","","null","","","learningBlock1","","","","This is a dep:","null","","","","","",""
"image-keyboard-response","67","290719","0.0-5.0-1.20","LF","d1snyw7jw6","1920","1080","0","1","0","5fc13b486833fb13fef1720b","","null","","","","","","","learning/Slide21.JPG","null","","","","","",""
"html-keyboard-response","68","291721","0.0-5.0-2.20","LF","d1snyw7jw6","1920","1080","0","1","0","5fc13b486833fb13fef1720b","","null","","","learningBlock1","","","","<div style=""font-size:60px;""> </div>","null","LF","learning/Slide21.JPG","This is a dep:","","",""
"html-keyboard-response","69","292724","0.0-5.0-0.21","LF","d1snyw7jw6","1920","1080","0","1","0","5fc13b486833fb13fef1720b","","null","","","learningBlock1","","","","This is a bim:","null","","","","","",""
"image-keyboard-response","70","293051","0.0-5.0-1.21","LF","d1snyw7jw6","1920","1080","0","1","0","5fc13b486833fb13fef1720b","","null","","","","","","","learning/Slide22.JPG","null","","","","","",""
"html-keyboard-response","71","294053","0.0-5.0-2.21","LF","d1snyw7jw6","1920","1080","0","1","0","5fc13b486833fb13fef1720b","","null","","","learningBlock1","","","","<div style=""font-size:60px;""> </div>","null","LF","learning/Slide22.JPG","This is a bim:","","",""
"html-keyboard-response","72","295054","0.0-5.0-0.22","LF","d1snyw7jw6","1920","1080","0","1","0","5fc13b486833fb13fef1720b","","null","","","learningBlock1","","","","This is a tob:","null","","","","","",""
"image-keyboard-response","73","295381","0.0-5.0-1.22","LF","d1snyw7jw6","1920","1080","0","1","0","5fc13b486833fb13fef1720b","","null","","","","","","","learning/Slide23.JPG","null","","","","","",""
"html-keyboard-response","74","296383","0.0-5.0-2.22","LF","d1snyw7jw6","1920","1080","0","1","0","5fc13b486833fb13fef1720b","","null","","","learningBlock1","","","","<div style=""font-size:60px;""> </div>","null","LF","learning/Slide23.JPG","This is a tob:","","",""
"html-keyboard-response","75","297385","0.0-5.0-0.23","LF","d1snyw7jw6","1920","1080","0","1","0","5fc13b486833fb13fef1720b","","null","","","learningBlock1","","","","This is a wug:","null","","","","","",""
"image-keyboard-response","76","297712","0.0-5.0-1.23","LF","d1snyw7jw6","1920","1080","0","1","0","5fc13b486833fb13fef1720b","","null","","","","","","","learning/Slide24.JPG","null","","","","","",""
"html-keyboard-response","77","298714","0.0-5.0-2.23","LF","d1snyw7jw6","1920","1080","0","1","0","5fc13b486833fb13fef1720b","","null","","","learningBlock1","","","","<div style=""font-size:60px;""> </div>","null","LF","learning/Slide24.JPG","This is a wug:","","",""
"html-keyboard-response","78","299715","0.0-5.0-0.24","LF","d1snyw7jw6","1920","1080","0","1","0","5fc13b486833fb13fef1720b","","null","","","learningBlock1","","","","This is a dep:","null","","","","","",""
"image-keyboard-response","79","300042","0.0-5.0-1.24","LF","d1snyw7jw6","1920","1080","0","1","0","5fc13b486833fb13fef1720b","","null","","","","","","","learning/Slide25.JPG","null","","","","","",""
"html-keyboard-response","80","301044","0.0-5.0-2.24","LF","d1snyw7jw6","1920","1080","0","1","0","5fc13b486833fb13fef1720b","","null","","","learningBlock1","","","","<div style=""font-size:60px;""> </div>","null","LF","learning/Slide25.JPG","This is a dep:","","",""
"html-keyboard-response","81","302045","0.0-5.0-0.25","LF","d1snyw7jw6","1920","1080","0","1","0","5fc13b486833fb13fef1720b","","null","","","learningBlock1","","","","This is a wug:","null","","","","","",""
"image-keyboard-response","82","302372","0.0-5.0-1.25","LF","d1snyw7jw6","1920","1080","0","1","0","5fc13b486833fb13fef1720b","","null","","","","","","","learning/Slide26.JPG","null","","","","","",""
"html-keyboard-response","83","303374","0.0-5.0-2.25","LF","d1snyw7jw6","1920","1080","0","1","0","5fc13b486833fb13fef1720b","","null","","","learningBlock1","","","","<div style=""font-size:60px;""> </div>","null","LF","learning/Slide26.JPG","This is a wug:","","",""
"html-keyboard-response","84","304375","0.0-5.0-0.26","LF","d1snyw7jw6","1920","1080","0","1","0","5fc13b486833fb13fef1720b","","null","","","learningBlock1","","","","This is a bim:","null","","","","","",""
"image-keyboard-response","85","304702","0.0-5.0-1.26","LF","d1snyw7jw6","1920","1080","0","1","0","5fc13b486833fb13fef1720b","","null","","","","","","","learning/Slide27.JPG","null","","","","","",""
"html-keyboard-response","86","305704","0.0-5.0-2.26","LF","d1snyw7jw6","1920","1080","0","1","0","5fc13b486833fb13fef1720b","","null","","","learningBlock1","","","","<div style=""font-size:60px;""> </div>","null","LF","learning/Slide27.JPG","This is a bim:","","",""
"html-keyboard-response","87","306706","0.0-5.0-0.27","LF","d1snyw7jw6","1920","1080","0","1","0","5fc13b486833fb13fef1720b","","null","","","learningBlock1","","","","This is a dep:","null","","","","","",""
"image-keyboard-response","88","307033","0.0-5.0-1.27","LF","d1snyw7jw6","1920","1080","0","1","0","5fc13b486833fb13fef1720b","","null","","","","","","","learning/Slide28.JPG","null","","","","","",""
"html-keyboard-response","89","308035","0.0-5.0-2.27","LF","d1snyw7jw6","1920","1080","0","1","0","5fc13b486833fb13fef1720b","","null","","","learningBlock1","","","","<div style=""font-size:60px;""> </div>","null","LF","learning/Slide28.JPG","This is a dep:","","",""
"html-keyboard-response","90","309037","0.0-5.0-0.28","LF","d1snyw7jw6","1920","1080","0","1","0","5fc13b486833fb13fef1720b","","null","","","learningBlock1","","","","This is a tob:","null","","","","","",""
"image-keyboard-response","91","309365","0.0-5.0-1.28","LF","d1snyw7jw6","1920","1080","0","1","0","5fc13b486833fb13fef1720b","","null","","","","","","","learning/Slide29.JPG","null","","","","","",""
"html-keyboard-response","92","310367","0.0-5.0-2.28","LF","d1snyw7jw6","1920","1080","0","1","0","5fc13b486833fb13fef1720b","","null","","","learningBlock1","","","","<div style=""font-size:60px;""> </div>","null","LF","learning/Slide29.JPG","This is a tob:","","",""
"html-keyboard-response","93","311369","0.0-5.0-0.29","LF","d1snyw7jw6","1920","1080","0","1","0","5fc13b486833fb13fef1720b","","null","","","learningBlock1","","","","This is a dep:","null","","","","","",""
"image-keyboard-response","94","311697","0.0-5.0-1.29","LF","d1snyw7jw6","1920","1080","0","1","0","5fc13b486833fb13fef1720b","","null","","","","","","","learning/Slide30.JPG","null","","","","","",""
"html-keyboard-response","95","312699","0.0-5.0-2.29","LF","d1snyw7jw6","1920","1080","0","1","0","5fc13b486833fb13fef1720b","","null","","","learningBlock1","","","","<div style=""font-size:60px;""> </div>","null","LF","learning/Slide30.JPG","This is a dep:","","",""
"html-keyboard-response","96","313701","0.0-5.0-0.30","LF","d1snyw7jw6","1920","1080","0","1","0","5fc13b486833fb13fef1720b","","null","","","learningBlock1","","","","This is a wug:","null","","","","","",""
"image-keyboard-response","97","314028","0.0-5.0-1.30","LF","d1snyw7jw6","1920","1080","0","1","0","5fc13b486833fb13fef1720b","","null","","","","","","","learning/Slide31.JPG","null","","","","","",""
"html-keyboard-response","98","315029","0.0-5.0-2.30","LF","d1snyw7jw6","1920","1080","0","1","0","5fc13b486833fb13fef1720b","","null","","","learningBlock1","","","","<div style=""font-size:60px;""> </div>","null","LF","learning/Slide31.JPG","This is a wug:","","",""
"html-keyboard-response","99","316031","0.0-5.0-0.31","LF","d1snyw7jw6","1920","1080","0","1","0","5fc13b486833fb13fef1720b","","null","","","learningBlock1","","","","This is a tob:","null","","","","","",""
"image-keyboard-response","100","316359","0.0-5.0-1.31","LF","d1snyw7jw6","1920","1080","0","1","0","5fc13b486833fb13fef1720b","","null","","","","","","","learning/Slide32.JPG","null","","","","","",""
"html-keyboard-response","101","317360","0.0-5.0-2.31","LF","d1snyw7jw6","1920","1080","0","1","0","5fc13b486833fb13fef1720b","","null","","","learningBlock1","","","","<div style=""font-size:60px;""> </div>","null","LF","learning/Slide32.JPG","This is a tob:","","",""
"html-keyboard-response","102","318362","0.0-5.0-0.32","LF","d1snyw7jw6","1920","1080","0","1","0","5fc13b486833fb13fef1720b","","null","","","learningBlock1","","","","This is a bim:","null","","","","","",""
"image-keyboard-response","103","318690","0.0-5.0-1.32","LF","d1snyw7jw6","1920","1080","0","1","0","5fc13b486833fb13fef1720b","","null","","","","","","","learning/Slide33.JPG","null","","","","","",""
"html-keyboard-response","104","319691","0.0-5.0-2.32","LF","d1snyw7jw6","1920","1080","0","1","0","5fc13b486833fb13fef1720b","","null","","","learningBlock1","","","","<div style=""font-size:60px;""> </div>","null","LF","learning/Slide33.JPG","This is a bim:","","",""
"html-keyboard-response","105","320692","0.0-5.0-0.33","LF","d1snyw7jw6","1920","1080","0","1","0","5fc13b486833fb13fef1720b","","null","","","learningBlock1","","","","This is a tob:","null","","","","","",""
"image-keyboard-response","106","321020","0.0-5.0-1.33","LF","d1snyw7jw6","1920","1080","0","1","0","5fc13b486833fb13fef1720b","","null","","","","","","","learning/Slide34.JPG","null","","","","","",""
"html-keyboard-response","107","322022","0.0-5.0-2.33","LF","d1snyw7jw6","1920","1080","0","1","0","5fc13b486833fb13fef1720b","","null","","","learningBlock1","","","","<div style=""font-size:60px;""> </div>","null","LF","learning/Slide34.JPG","This is a tob:","","",""
"html-keyboard-response","108","323023","0.0-5.0-0.34","LF","d1snyw7jw6","1920","1080","0","1","0","5fc13b486833fb13fef1720b","","null","","","learningBlock1","","","","This is a bim:","null","","","","","",""
"image-keyboard-response","109","323350","0.0-5.0-1.34","LF","d1snyw7jw6","1920","1080","0","1","0","5fc13b486833fb13fef1720b","","null","","","","","","","learning/Slide35.JPG","null","","","","","",""
"html-keyboard-response","110","324352","0.0-5.0-2.34","LF","d1snyw7jw6","1920","1080","0","1","0","5fc13b486833fb13fef1720b","","null","","","learningBlock1","","","","<div style=""font-size:60px;""> </div>","null","LF","learning/Slide35.JPG","This is a bim:","","",""
"html-keyboard-response","111","325353","0.0-5.0-0.35","LF","d1snyw7jw6","1920","1080","0","1","0","5fc13b486833fb13fef1720b","","null","","","learningBlock1","","","","This is a dep:","null","","","","","",""
"image-keyboard-response","112","325679","0.0-5.0-1.35","LF","d1snyw7jw6","1920","1080","0","1","0","5fc13b486833fb13fef1720b","","null","","","","","","","learning/Slide36.JPG","null","","","","","",""
"html-keyboard-response","113","326681","0.0-5.0-2.35","LF","d1snyw7jw6","1920","1080","0","1","0","5fc13b486833fb13fef1720b","","null","","","learningBlock1","","","","<div style=""font-size:60px;""> </div>","null","LF","learning/Slide36.JPG","This is a dep:","","",""
"html-keyboard-response","114","327682","0.0-5.0-0.36","LF","d1snyw7jw6","1920","1080","0","1","0","5fc13b486833fb13fef1720b","","null","","","learningBlock1","","","","This is a tob:","null","","","","","",""
"image-keyboard-response","115","328009","0.0-5.0-1.36","LF","d1snyw7jw6","1920","1080","0","1","0","5fc13b486833fb13fef1720b","","null","","","","","","","learning/Slide37.JPG","null","","","","","",""
"html-keyboard-response","116","329011","0.0-5.0-2.36","LF","d1snyw7jw6","1920","1080","0","1","0","5fc13b486833fb13fef1720b","","null","","","learningBlock1","","","","<div style=""font-size:60px;""> </div>","null","LF","learning/Slide37.JPG","This is a tob:","","",""
"html-keyboard-response","117","330012","0.0-5.0-0.37","LF","d1snyw7jw6","1920","1080","0","1","0","5fc13b486833fb13fef1720b","","null","","","learningBlock1","","","","This is a wug:","null","","","","","",""
"image-keyboard-response","118","330340","0.0-5.0-1.37","LF","d1snyw7jw6","1920","1080","0","1","0","5fc13b486833fb13fef1720b","","null","","","","","","","learning/Slide38.JPG","null","","","","","",""
"html-keyboard-response","119","331341","0.0-5.0-2.37","LF","d1snyw7jw6","1920","1080","0","1","0","5fc13b486833fb13fef1720b","","null","","","learningBlock1","","","","<div style=""font-size:60px;""> </div>","null","LF","learning/Slide38.JPG","This is a wug:","","",""
"html-keyboard-response","120","332343","0.0-5.0-0.38","LF","d1snyw7jw6","1920","1080","0","1","0","5fc13b486833fb13fef1720b","","null","","","learningBlock1","","","","This is a bim:","null","","","","","",""
"image-keyboard-response","121","332669","0.0-5.0-1.38","LF","d1snyw7jw6","1920","1080","0","1","0","5fc13b486833fb13fef1720b","","null","","","","","","","learning/Slide39.JPG","null","","","","","",""
"html-keyboard-response","122","333671","0.0-5.0-2.38","LF","d1snyw7jw6","1920","1080","0","1","0","5fc13b486833fb13fef1720b","","null","","","learningBlock1","","","","<div style=""font-size:60px;""> </div>","null","LF","learning/Slide39.JPG","This is a bim:","","",""
"html-keyboard-response","123","334673","0.0-5.0-0.39","LF","d1snyw7jw6","1920","1080","0","1","0","5fc13b486833fb13fef1720b","","null","","","learningBlock1","","","","This is a tob:","null","","","","","",""
"image-keyboard-response","124","335002","0.0-5.0-1.39","LF","d1snyw7jw6","1920","1080","0","1","0","5fc13b486833fb13fef1720b","","null","","","","","","","learning/Slide40.JPG","null","","","","","",""
"html-keyboard-response","125","336003","0.0-5.0-2.39","LF","d1snyw7jw6","1920","1080","0","1","0","5fc13b486833fb13fef1720b","","null","","","learningBlock1","","","","<div style=""font-size:60px;""> </div>","null","LF","learning/Slide40.JPG","This is a tob:","","",""
"html-keyboard-response","126","337005","0.0-5.0-0.40","LF","d1snyw7jw6","1920","1080","0","1","0","5fc13b486833fb13fef1720b","","null","","","learningBlock1","","","","This is a bim:","null","","","","","",""
"image-keyboard-response","127","337332","0.0-5.0-1.40","LF","d1snyw7jw6","1920","1080","0","1","0","5fc13b486833fb13fef1720b","","null","","","","","","","learning/Slide41.JPG","null","","","","","",""
"html-keyboard-response","128","338333","0.0-5.0-2.40","LF","d1snyw7jw6","1920","1080","0","1","0","5fc13b486833fb13fef1720b","","null","","","learningBlock1","","","","<div style=""font-size:60px;""> </div>","null","LF","learning/Slide41.JPG","This is a bim:","","",""
"html-keyboard-response","129","339335","0.0-5.0-0.41","LF","d1snyw7jw6","1920","1080","0","1","0","5fc13b486833fb13fef1720b","","null","","","learningBlock1","","","","This is a dep:","null","","","","","",""
"image-keyboard-response","130","339663","0.0-5.0-1.41","LF","d1snyw7jw6","1920","1080","0","1","0","5fc13b486833fb13fef1720b","","null","","","","","","","learning/Slide42.JPG","null","","","","","",""
"html-keyboard-response","131","340665","0.0-5.0-2.41","LF","d1snyw7jw6","1920","1080","0","1","0","5fc13b486833fb13fef1720b","","null","","","learningBlock1","","","","<div style=""font-size:60px;""> </div>","null","LF","learning/Slide42.JPG","This is a dep:","","",""
"html-keyboard-response","132","341666","0.0-5.0-0.42","LF","d1snyw7jw6","1920","1080","0","1","0","5fc13b486833fb13fef1720b","","null","","","learningBlock1","","","","This is a wug:","null","","","","","",""
"image-keyboard-response","133","341993","0.0-5.0-1.42","LF","d1snyw7jw6","1920","1080","0","1","0","5fc13b486833fb13fef1720b","","null","","","","","","","learning/Slide43.JPG","null","","","","","",""
"html-keyboard-response","134","342994","0.0-5.0-2.42","LF","d1snyw7jw6","1920","1080","0","1","0","5fc13b486833fb13fef1720b","","null","","","learningBlock1","","","","<div style=""font-size:60px;""> </div>","null","LF","learning/Slide43.JPG","This is a wug:","","",""
"html-keyboard-response","135","343996","0.0-5.0-0.43","LF","d1snyw7jw6","1920","1080","0","1","0","5fc13b486833fb13fef1720b","","null","","","learningBlock1","","","","This is a bim:","null","","","","","",""
"image-keyboard-response","136","344322","0.0-5.0-1.43","LF","d1snyw7jw6","1920","1080","0","1","0","5fc13b486833fb13fef1720b","","null","","","","","","","learning/Slide44.JPG","null","","","","","",""
"html-keyboard-response","137","345324","0.0-5.0-2.43","LF","d1snyw7jw6","1920","1080","0","1","0","5fc13b486833fb13fef1720b","","null","","","learningBlock1","","","","<div style=""font-size:60px;""> </div>","null","LF","learning/Slide44.JPG","This is a bim:","","",""
"html-keyboard-response","138","346325","0.0-5.0-0.44","LF","d1snyw7jw6","1920","1080","0","1","0","5fc13b486833fb13fef1720b","","null","","","learningBlock1","","","","This is a wug:","null","","","","","",""
"image-keyboard-response","139","346653","0.0-5.0-1.44","LF","d1snyw7jw6","1920","1080","0","1","0","5fc13b486833fb13fef1720b","","null","","","","","","","learning/Slide45.JPG","null","","","","","",""
"html-keyboard-response","140","347654","0.0-5.0-2.44","LF","d1snyw7jw6","1920","1080","0","1","0","5fc13b486833fb13fef1720b","","null","","","learningBlock1","","","","<div style=""font-size:60px;""> </div>","null","LF","learning/Slide45.JPG","This is a wug:","","",""
"html-keyboard-response","141","348656","0.0-5.0-0.45","LF","d1snyw7jw6","1920","1080","0","1","0","5fc13b486833fb13fef1720b","","null","","","learningBlock1","","","","This is a dep:","null","","","","","",""
"image-keyboard-response","142","348983","0.0-5.0-1.45","LF","d1snyw7jw6","1920","1080","0","1","0","5fc13b486833fb13fef1720b","","null","","","","","","","learning/Slide46.JPG","null","","","","","",""
"html-keyboard-response","143","349985","0.0-5.0-2.45","LF","d1snyw7jw6","1920","1080","0","1","0","5fc13b486833fb13fef1720b","","null","","","learningBlock1","","","","<div style=""font-size:60px;""> </div>","null","LF","learning/Slide46.JPG","This is a dep:","","",""
"html-keyboard-response","144","350987","0.0-5.0-0.46","LF","d1snyw7jw6","1920","1080","0","1","0","5fc13b486833fb13fef1720b","","null","","","learningBlock1","","","","This is a tob:","null","","","","","",""
"image-keyboard-response","145","351315","0.0-5.0-1.46","LF","d1snyw7jw6","1920","1080","0","1","0","5fc13b486833fb13fef1720b","","null","","","","","","","learning/Slide47.JPG","null","","","","","",""
"html-keyboard-response","146","352316","0.0-5.0-2.46","LF","d1snyw7jw6","1920","1080","0","1","0","5fc13b486833fb13fef1720b","","null","","","learningBlock1","","","","<div style=""font-size:60px;""> </div>","null","LF","learning/Slide47.JPG","This is a tob:","","",""
"html-keyboard-response","147","353318","0.0-5.0-0.47","LF","d1snyw7jw6","1920","1080","0","1","0","5fc13b486833fb13fef1720b","","null","","","learningBlock1","","","","This is a bim:","null","","","","","",""
"image-keyboard-response","148","353646","0.0-5.0-1.47","LF","d1snyw7jw6","1920","1080","0","1","0","5fc13b486833fb13fef1720b","","null","","","","","","","learning/Slide48.JPG","null","","","","","",""
"html-keyboard-response","149","354647","0.0-5.0-2.47","LF","d1snyw7jw6","1920","1080","0","1","0","5fc13b486833fb13fef1720b","","null","","","learningBlock1","","","","<div style=""font-size:60px;""> </div>","null","LF","learning/Slide48.JPG","This is a bim:","","",""
"html-keyboard-response","150","355648","0.0-5.0-0.48","LF","d1snyw7jw6","1920","1080","0","1","0","5fc13b486833fb13fef1720b","","null","","","learningBlock1","","","","This is a dep:","null","","","","","",""
"image-keyboard-response","151","355977","0.0-5.0-1.48","LF","d1snyw7jw6","1920","1080","0","1","0","5fc13b486833fb13fef1720b","","null","","","","","","","learning/Slide49.JPG","null","","","","","",""
"html-keyboard-response","152","356979","0.0-5.0-2.48","LF","d1snyw7jw6","1920","1080","0","1","0","5fc13b486833fb13fef1720b","","null","","","learningBlock1","","","","<div style=""font-size:60px;""> </div>","null","LF","learning/Slide49.JPG","This is a dep:","","",""
"html-keyboard-response","153","357980","0.0-5.0-0.49","LF","d1snyw7jw6","1920","1080","0","1","0","5fc13b486833fb13fef1720b","","null","","","learningBlock1","","","","This is a tob:","null","","","","","",""
"image-keyboard-response","154","358306","0.0-5.0-1.49","LF","d1snyw7jw6","1920","1080","0","1","0","5fc13b486833fb13fef1720b","","null","","","","","","","learning/Slide50.JPG","null","","","","","",""
"html-keyboard-response","155","359309","0.0-5.0-2.49","LF","d1snyw7jw6","1920","1080","0","1","0","5fc13b486833fb13fef1720b","","null","","","learningBlock1","","","","<div style=""font-size:60px;""> </div>","null","LF","learning/Slide50.JPG","This is a tob:","","",""
"html-keyboard-response","156","360310","0.0-5.0-0.50","LF","d1snyw7jw6","1920","1080","0","1","0","5fc13b486833fb13fef1720b","","null","","","learningBlock1","","","","This is a bim:","null","","","","","",""
"image-keyboard-response","157","360637","0.0-5.0-1.50","LF","d1snyw7jw6","1920","1080","0","1","0","5fc13b486833fb13fef1720b","","null","","","","","","","learning/Slide51.JPG","null","","","","","",""
"html-keyboard-response","158","361638","0.0-5.0-2.50","LF","d1snyw7jw6","1920","1080","0","1","0","5fc13b486833fb13fef1720b","","null","","","learningBlock1","","","","<div style=""font-size:60px;""> </div>","null","LF","learning/Slide51.JPG","This is a bim:","","",""
"html-keyboard-response","159","362640","0.0-5.0-0.51","LF","d1snyw7jw6","1920","1080","0","1","0","5fc13b486833fb13fef1720b","","null","","","learningBlock1","","","","This is a wug:","null","","","","","",""
"image-keyboard-response","160","362967","0.0-5.0-1.51","LF","d1snyw7jw6","1920","1080","0","1","0","5fc13b486833fb13fef1720b","","null","","","","","","","learning/Slide52.JPG","null","","","","","",""
"html-keyboard-response","161","363969","0.0-5.0-2.51","LF","d1snyw7jw6","1920","1080","0","1","0","5fc13b486833fb13fef1720b","","null","","","learningBlock1","","","","<div style=""font-size:60px;""> </div>","null","LF","learning/Slide52.JPG","This is a wug:","","",""
"html-keyboard-response","162","364971","0.0-5.0-0.52","LF","d1snyw7jw6","1920","1080","0","1","0","5fc13b486833fb13fef1720b","","null","","","learningBlock1","","","","This is a tob:","null","","","","","",""
"image-keyboard-response","163","365299","0.0-5.0-1.52","LF","d1snyw7jw6","1920","1080","0","1","0","5fc13b486833fb13fef1720b","","null","","","","","","","learning/Slide53.JPG","null","","","","","",""
"html-keyboard-response","164","366301","0.0-5.0-2.52","LF","d1snyw7jw6","1920","1080","0","1","0","5fc13b486833fb13fef1720b","","null","","","learningBlock1","","","","<div style=""font-size:60px;""> </div>","null","LF","learning/Slide53.JPG","This is a tob:","","",""
"html-keyboard-response","165","367303","0.0-5.0-0.53","LF","d1snyw7jw6","1920","1080","0","1","0","5fc13b486833fb13fef1720b","","null","","","learningBlock1","","","","This is a dep:","null","","","","","",""
"image-keyboard-response","166","367630","0.0-5.0-1.53","LF","d1snyw7jw6","1920","1080","0","1","0","5fc13b486833fb13fef1720b","","null","","","","","","","learning/Slide54.JPG","null","","","","","",""
"html-keyboard-response","167","368632","0.0-5.0-2.53","LF","d1snyw7jw6","1920","1080","0","1","0","5fc13b486833fb13fef1720b","","null","","","learningBlock1","","","","<div style=""font-size:60px;""> </div>","null","LF","learning/Slide54.JPG","This is a dep:","","",""
"html-keyboard-response","168","369633","0.0-5.0-0.54","LF","d1snyw7jw6","1920","1080","0","1","0","5fc13b486833fb13fef1720b","","null","","","learningBlock1","","","","This is a bim:","null","","","","","",""
"image-keyboard-response","169","369960","0.0-5.0-1.54","LF","d1snyw7jw6","1920","1080","0","1","0","5fc13b486833fb13fef1720b","","null","","","","","","","learning/Slide55.JPG","null","","","","","",""
"html-keyboard-response","170","370962","0.0-5.0-2.54","LF","d1snyw7jw6","1920","1080","0","1","0","5fc13b486833fb13fef1720b","","null","","","learningBlock1","","","","<div style=""font-size:60px;""> </div>","null","LF","learning/Slide55.JPG","This is a bim:","","",""
"html-keyboard-response","171","371963","0.0-5.0-0.55","LF","d1snyw7jw6","1920","1080","0","1","0","5fc13b486833fb13fef1720b","","null","","","learningBlock1","","","","This is a tob:","null","","","","","",""
"image-keyboard-response","172","372290","0.0-5.0-1.55","LF","d1snyw7jw6","1920","1080","0","1","0","5fc13b486833fb13fef1720b","","null","","","","","","","learning/Slide56.JPG","null","","","","","",""
"html-keyboard-response","173","373292","0.0-5.0-2.55","LF","d1snyw7jw6","1920","1080","0","1","0","5fc13b486833fb13fef1720b","","null","","","learningBlock1","","","","<div style=""font-size:60px;""> </div>","null","LF","learning/Slide56.JPG","This is a tob:","","",""
"html-keyboard-response","174","374294","0.0-5.0-0.56","LF","d1snyw7jw6","1920","1080","0","1","0","5fc13b486833fb13fef1720b","","null","","","learningBlock1","","","","This is a dep:","null","","","","","",""
"image-keyboard-response","175","374622","0.0-5.0-1.56","LF","d1snyw7jw6","1920","1080","0","1","0","5fc13b486833fb13fef1720b","","null","","","","","","","learning/Slide57.JPG","null","","","","","",""
"html-keyboard-response","176","375623","0.0-5.0-2.56","LF","d1snyw7jw6","1920","1080","0","1","0","5fc13b486833fb13fef1720b","","null","","","learningBlock1","","","","<div style=""font-size:60px;""> </div>","null","LF","learning/Slide57.JPG","This is a dep:","","",""
"html-keyboard-response","177","376625","0.0-5.0-0.57","LF","d1snyw7jw6","1920","1080","0","1","0","5fc13b486833fb13fef1720b","","null","","","learningBlock1","","","","This is a wug:","null","","","","","",""
"image-keyboard-response","178","376953","0.0-5.0-1.57","LF","d1snyw7jw6","1920","1080","0","1","0","5fc13b486833fb13fef1720b","","null","","","","","","","learning/Slide58.JPG","null","","","","","",""
"html-keyboard-response","179","377954","0.0-5.0-2.57","LF","d1snyw7jw6","1920","1080","0","1","0","5fc13b486833fb13fef1720b","","null","","","learningBlock1","","","","<div style=""font-size:60px;""> </div>","null","LF","learning/Slide58.JPG","This is a wug:","","",""
"html-keyboard-response","180","378955","0.0-5.0-0.58","LF","d1snyw7jw6","1920","1080","0","1","0","5fc13b486833fb13fef1720b","","null","","","learningBlock1","","","","This is a dep:","null","","","","","",""
"image-keyboard-response","181","379284","0.0-5.0-1.58","LF","d1snyw7jw6","1920","1080","0","1","0","5fc13b486833fb13fef1720b","","null","","","","","","","learning/Slide59.JPG","null","","","","","",""
"html-keyboard-response","182","380285","0.0-5.0-2.58","LF","d1snyw7jw6","1920","1080","0","1","0","5fc13b486833fb13fef1720b","","null","","","learningBlock1","","","","<div style=""font-size:60px;""> </div>","null","LF","learning/Slide59.JPG","This is a dep:","","",""
"html-keyboard-response","183","381286","0.0-5.0-0.59","LF","d1snyw7jw6","1920","1080","0","1","0","5fc13b486833fb13fef1720b","","null","","","learningBlock1","","","","This is a wug:","null","","","","","",""
"image-keyboard-response","184","381614","0.0-5.0-1.59","LF","d1snyw7jw6","1920","1080","0","1","0","5fc13b486833fb13fef1720b","","null","","","","","","","learning/Slide60.JPG","null","","","","","",""
"html-keyboard-response","185","382616","0.0-5.0-2.59","LF","d1snyw7jw6","1920","1080","0","1","0","5fc13b486833fb13fef1720b","","null","","","learningBlock1","","","","<div style=""font-size:60px;""> </div>","null","LF","learning/Slide60.JPG","This is a wug:","","",""
"html-keyboard-response","186","383617","0.0-5.0-0.60","LF","d1snyw7jw6","1920","1080","0","1","0","5fc13b486833fb13fef1720b","","null","","","learningBlock1","","","","This is a bim:","null","","","","","",""
"image-keyboard-response","187","383944","0.0-5.0-1.60","LF","d1snyw7jw6","1920","1080","0","1","0","5fc13b486833fb13fef1720b","","null","","","","","","","learning/Slide61.JPG","null","","","","","",""
"html-keyboard-response","188","384945","0.0-5.0-2.60","LF","d1snyw7jw6","1920","1080","0","1","0","5fc13b486833fb13fef1720b","","null","","","learningBlock1","","","","<div style=""font-size:60px;""> </div>","null","LF","learning/Slide61.JPG","This is a bim:","","",""
"html-keyboard-response","189","385946","0.0-5.0-0.61","LF","d1snyw7jw6","1920","1080","0","1","0","5fc13b486833fb13fef1720b","","null","","","learningBlock1","","","","This is a dep:","null","","","","","",""
"image-keyboard-response","190","386274","0.0-5.0-1.61","LF","d1snyw7jw6","1920","1080","0","1","0","5fc13b486833fb13fef1720b","","null","","","","","","","learning/Slide62.JPG","null","","","","","",""
"html-keyboard-response","191","387275","0.0-5.0-2.61","LF","d1snyw7jw6","1920","1080","0","1","0","5fc13b486833fb13fef1720b","","null","","","learningBlock1","","","","<div style=""font-size:60px;""> </div>","null","LF","learning/Slide62.JPG","This is a dep:","","",""
"html-keyboard-response","192","388276","0.0-5.0-0.62","LF","d1snyw7jw6","1920","1080","0","1","0","5fc13b486833fb13fef1720b","","null","","","learningBlock1","","","","This is a bim:","null","","","","","",""
"image-keyboard-response","193","388603","0.0-5.0-1.62","LF","d1snyw7jw6","1920","1080","0","1","0","5fc13b486833fb13fef1720b","","null","","","","","","","learning/Slide63.JPG","null","","","","","",""
"html-keyboard-response","194","389605","0.0-5.0-2.62","LF","d1snyw7jw6","1920","1080","0","1","0","5fc13b486833fb13fef1720b","","null","","","learningBlock1","","","","<div style=""font-size:60px;""> </div>","null","LF","learning/Slide63.JPG","This is a bim:","","",""
"html-keyboard-response","195","390607","0.0-5.0-0.63","LF","d1snyw7jw6","1920","1080","0","1","0","5fc13b486833fb13fef1720b","","null","","","learningBlock1","","","","This is a tob:","null","","","","","",""
"image-keyboard-response","196","390934","0.0-5.0-1.63","LF","d1snyw7jw6","1920","1080","0","1","0","5fc13b486833fb13fef1720b","","null","","","","","","","learning/Slide64.JPG","null","","","","","",""
"html-keyboard-response","197","391935","0.0-5.0-2.63","LF","d1snyw7jw6","1920","1080","0","1","0","5fc13b486833fb13fef1720b","","null","","","learningBlock1","","","","<div style=""font-size:60px;""> </div>","null","LF","learning/Slide64.JPG","This is a tob:","","",""
"html-keyboard-response","198","392936","0.0-5.0-0.64","LF","d1snyw7jw6","1920","1080","0","1","0","5fc13b486833fb13fef1720b","","null","","","learningBlock1","","","","This is a wug:","null","","","","","",""
"image-keyboard-response","199","393263","0.0-5.0-1.64","LF","d1snyw7jw6","1920","1080","0","1","0","5fc13b486833fb13fef1720b","","null","","","","","","","learning/Slide65.JPG","null","","","","","",""
"html-keyboard-response","200","394264","0.0-5.0-2.64","LF","d1snyw7jw6","1920","1080","0","1","0","5fc13b486833fb13fef1720b","","null","","","learningBlock1","","","","<div style=""font-size:60px;""> </div>","null","LF","learning/Slide65.JPG","This is a wug:","","",""
"html-keyboard-response","201","395265","0.0-5.0-0.65","LF","d1snyw7jw6","1920","1080","0","1","0","5fc13b486833fb13fef1720b","","null","","","learningBlock1","","","","This is a dep:","null","","","","","",""
"image-keyboard-response","202","395593","0.0-5.0-1.65","LF","d1snyw7jw6","1920","1080","0","1","0","5fc13b486833fb13fef1720b","","null","","","","","","","learning/Slide66.JPG","null","","","","","",""
"html-keyboard-response","203","396594","0.0-5.0-2.65","LF","d1snyw7jw6","1920","1080","0","1","0","5fc13b486833fb13fef1720b","","null","","","learningBlock1","","","","<div style=""font-size:60px;""> </div>","null","LF","learning/Slide66.JPG","This is a dep:","","",""
"html-keyboard-response","204","397596","0.0-5.0-0.66","LF","d1snyw7jw6","1920","1080","0","1","0","5fc13b486833fb13fef1720b","","null","","","learningBlock1","","","","This is a tob:","null","","","","","",""
"image-keyboard-response","205","397923","0.0-5.0-1.66","LF","d1snyw7jw6","1920","1080","0","1","0","5fc13b486833fb13fef1720b","","null","","","","","","","learning/Slide67.JPG","null","","","","","",""
"html-keyboard-response","206","398924","0.0-5.0-2.66","LF","d1snyw7jw6","1920","1080","0","1","0","5fc13b486833fb13fef1720b","","null","","","learningBlock1","","","","<div style=""font-size:60px;""> </div>","null","LF","learning/Slide67.JPG","This is a tob:","","",""
"html-keyboard-response","207","399926","0.0-5.0-0.67","LF","d1snyw7jw6","1920","1080","0","1","0","5fc13b486833fb13fef1720b","","null","","","learningBlock1","","","","This is a wug:","null","","","","","",""
"image-keyboard-response","208","400253","0.0-5.0-1.67","LF","d1snyw7jw6","1920","1080","0","1","0","5fc13b486833fb13fef1720b","","null","","","","","","","learning/Slide68.JPG","null","","","","","",""
"html-keyboard-response","209","401255","0.0-5.0-2.67","LF","d1snyw7jw6","1920","1080","0","1","0","5fc13b486833fb13fef1720b","","null","","","learningBlock1","","","","<div style=""font-size:60px;""> </div>","null","LF","learning/Slide68.JPG","This is a wug:","","",""
"html-keyboard-response","210","402256","0.0-5.0-0.68","LF","d1snyw7jw6","1920","1080","0","1","0","5fc13b486833fb13fef1720b","","null","","","learningBlock1","","","","This is a tob:","null","","","","","",""
"image-keyboard-response","211","402585","0.0-5.0-1.68","LF","d1snyw7jw6","1920","1080","0","1","0","5fc13b486833fb13fef1720b","","null","","","","","","","learning/Slide69.JPG","null","","","","","",""
"html-keyboard-response","212","403585","0.0-5.0-2.68","LF","d1snyw7jw6","1920","1080","0","1","0","5fc13b486833fb13fef1720b","","null","","","learningBlock1","","","","<div style=""font-size:60px;""> </div>","null","LF","learning/Slide69.JPG","This is a tob:","","",""
"html-keyboard-response","213","404587","0.0-5.0-0.69","LF","d1snyw7jw6","1920","1080","0","1","0","5fc13b486833fb13fef1720b","","null","","","learningBlock1","","","","This is a dep:","null","","","","","",""
"image-keyboard-response","214","404913","0.0-5.0-1.69","LF","d1snyw7jw6","1920","1080","0","1","0","5fc13b486833fb13fef1720b","","null","","","","","","","learning/Slide70.JPG","null","","","","","",""
"html-keyboard-response","215","405915","0.0-5.0-2.69","LF","d1snyw7jw6","1920","1080","0","1","0","5fc13b486833fb13fef1720b","","null","","","learningBlock1","","","","<div style=""font-size:60px;""> </div>","null","LF","learning/Slide70.JPG","This is a dep:","","",""
"html-keyboard-response","216","406916","0.0-5.0-0.70","LF","d1snyw7jw6","1920","1080","0","1","0","5fc13b486833fb13fef1720b","","null","","","learningBlock1","","","","This is a wug:","null","","","","","",""
"image-keyboard-response","217","407243","0.0-5.0-1.70","LF","d1snyw7jw6","1920","1080","0","1","0","5fc13b486833fb13fef1720b","","null","","","","","","","learning/Slide71.JPG","null","","","","","",""
"html-keyboard-response","218","408245","0.0-5.0-2.70","LF","d1snyw7jw6","1920","1080","0","1","0","5fc13b486833fb13fef1720b","","null","","","learningBlock1","","","","<div style=""font-size:60px;""> </div>","null","LF","learning/Slide71.JPG","This is a wug:","","",""
"html-keyboard-response","219","409247","0.0-5.0-0.71","LF","d1snyw7jw6","1920","1080","0","1","0","5fc13b486833fb13fef1720b","","null","","","learningBlock1","","","","This is a bim:","null","","","","","",""
"image-keyboard-response","220","409575","0.0-5.0-1.71","LF","d1snyw7jw6","1920","1080","0","1","0","5fc13b486833fb13fef1720b","","null","","","","","","","learning/Slide72.JPG","null","","","","","",""
"html-keyboard-response","221","410576","0.0-5.0-2.71","LF","d1snyw7jw6","1920","1080","0","1","0","5fc13b486833fb13fef1720b","","null","","","learningBlock1","","","","<div style=""font-size:60px;""> </div>","null","LF","learning/Slide72.JPG","This is a bim:","","",""
"html-keyboard-response","222","411578","0.0-5.0-0.72","LF","d1snyw7jw6","1920","1080","0","1","0","5fc13b486833fb13fef1720b","","null","","","learningBlock1","","","","This is a wug:","null","","","","","",""
"image-keyboard-response","223","411905","0.0-5.0-1.72","LF","d1snyw7jw6","1920","1080","0","1","0","5fc13b486833fb13fef1720b","","null","","","","","","","learning/Slide73.JPG","null","","","","","",""
"html-keyboard-response","224","412907","0.0-5.0-2.72","LF","d1snyw7jw6","1920","1080","0","1","0","5fc13b486833fb13fef1720b","","null","","","learningBlock1","","","","<div style=""font-size:60px;""> </div>","null","LF","learning/Slide73.JPG","This is a wug:","","",""
"html-keyboard-response","225","413908","0.0-5.0-0.73","LF","d1snyw7jw6","1920","1080","0","1","0","5fc13b486833fb13fef1720b","","null","","","learningBlock1","","","","This is a dep:","null","","","","","",""
"image-keyboard-response","226","414235","0.0-5.0-1.73","LF","d1snyw7jw6","1920","1080","0","1","0","5fc13b486833fb13fef1720b","","null","","","","","","","learning/Slide74.JPG","null","","","","","",""
"html-keyboard-response","227","415237","0.0-5.0-2.73","LF","d1snyw7jw6","1920","1080","0","1","0","5fc13b486833fb13fef1720b","","null","","","learningBlock1","","","","<div style=""font-size:60px;""> </div>","null","LF","learning/Slide74.JPG","This is a dep:","","",""
"html-keyboard-response","228","416238","0.0-5.0-0.74","LF","d1snyw7jw6","1920","1080","0","1","0","5fc13b486833fb13fef1720b","","null","","","learningBlock1","","","","This is a tob:","null","","","","","",""
"image-keyboard-response","229","416566","0.0-5.0-1.74","LF","d1snyw7jw6","1920","1080","0","1","0","5fc13b486833fb13fef1720b","","null","","","","","","","learning/Slide75.JPG","null","","","","","",""
"html-keyboard-response","230","417568","0.0-5.0-2.74","LF","d1snyw7jw6","1920","1080","0","1","0","5fc13b486833fb13fef1720b","","null","","","learningBlock1","","","","<div style=""font-size:60px;""> </div>","null","LF","learning/Slide75.JPG","This is a tob:","","",""
"html-keyboard-response","231","418569","0.0-5.0-0.75","LF","d1snyw7jw6","1920","1080","0","1","0","5fc13b486833fb13fef1720b","","null","","","learningBlock1","","","","This is a bim:","null","","","","","",""
"image-keyboard-response","232","418896","0.0-5.0-1.75","LF","d1snyw7jw6","1920","1080","0","1","0","5fc13b486833fb13fef1720b","","null","","","","","","","learning/Slide76.JPG","null","","","","","",""
"html-keyboard-response","233","419898","0.0-5.0-2.75","LF","d1snyw7jw6","1920","1080","0","1","0","5fc13b486833fb13fef1720b","","null","","","learningBlock1","","","","<div style=""font-size:60px;""> </div>","null","LF","learning/Slide76.JPG","This is a bim:","","",""
"html-keyboard-response","234","420899","0.0-5.0-0.76","LF","d1snyw7jw6","1920","1080","0","1","0","5fc13b486833fb13fef1720b","","null","","","learningBlock1","","","","This is a tob:","null","","","","","",""
"image-keyboard-response","235","421225","0.0-5.0-1.76","LF","d1snyw7jw6","1920","1080","0","1","0","5fc13b486833fb13fef1720b","","null","","","","","","","learning/Slide77.JPG","null","","","","","",""
"html-keyboard-response","236","422227","0.0-5.0-2.76","LF","d1snyw7jw6","1920","1080","0","1","0","5fc13b486833fb13fef1720b","","null","","","learningBlock1","","","","<div style=""font-size:60px;""> </div>","null","LF","learning/Slide77.JPG","This is a tob:","","",""
"html-keyboard-response","237","423229","0.0-5.0-0.77","LF","d1snyw7jw6","1920","1080","0","1","0","5fc13b486833fb13fef1720b","","null","","","learningBlock1","","","","This is a wug:","null","","","","","",""
"image-keyboard-response","238","423555","0.0-5.0-1.77","LF","d1snyw7jw6","1920","1080","0","1","0","5fc13b486833fb13fef1720b","","null","","","","","","","learning/Slide78.JPG","null","","","","","",""
"html-keyboard-response","239","424557","0.0-5.0-2.77","LF","d1snyw7jw6","1920","1080","0","1","0","5fc13b486833fb13fef1720b","","null","","","learningBlock1","","","","<div style=""font-size:60px;""> </div>","null","LF","learning/Slide78.JPG","This is a wug:","","",""
"html-keyboard-response","240","425558","0.0-5.0-0.78","LF","d1snyw7jw6","1920","1080","0","1","0","5fc13b486833fb13fef1720b","","null","","","learningBlock1","","","","This is a bim:","null","","","","","",""
"image-keyboard-response","241","425885","0.0-5.0-1.78","LF","d1snyw7jw6","1920","1080","0","1","0","5fc13b486833fb13fef1720b","","null","","","","","","","learning/Slide79.JPG","null","","","","","",""
"html-keyboard-response","242","426886","0.0-5.0-2.78","LF","d1snyw7jw6","1920","1080","0","1","0","5fc13b486833fb13fef1720b","","null","","","learningBlock1","","","","<div style=""font-size:60px;""> </div>","null","LF","learning/Slide79.JPG","This is a bim:","","",""
"html-keyboard-response","243","427888","0.0-5.0-0.79","LF","d1snyw7jw6","1920","1080","0","1","0","5fc13b486833fb13fef1720b","","null","","","learningBlock1","","","","This is a tob:","null","","","","","",""
"image-keyboard-response","244","428217","0.0-5.0-1.79","LF","d1snyw7jw6","1920","1080","0","1","0","5fc13b486833fb13fef1720b","","null","","","","","","","learning/Slide80.JPG","null","","","","","",""
"html-keyboard-response","245","429218","0.0-5.0-2.79","LF","d1snyw7jw6","1920","1080","0","1","0","5fc13b486833fb13fef1720b","","null","","","learningBlock1","","","","<div style=""font-size:60px;""> </div>","null","LF","learning/Slide80.JPG","This is a tob:","","",""
"instructions","246","484910","0.0-6.0","LF","d1snyw7jw6","1920","1080","0","1","0","5fc13b486833fb13fef1720b","","NA","","[{""page_index"":0,""viewing_time"":55691.72000000253}]","instructions","","","","","","","","","","",""
"html-keyboard-response","247","485911","0.0-7.0-0.0","LF","d1snyw7jw6","1920","1080","0","1","0","5fc13b486833fb13fef1720b","","null","","","learningBlock2","","","","This is a wug:","null","","","","","",""
"image-keyboard-response","248","486239","0.0-7.0-1.0","LF","d1snyw7jw6","1920","1080","0","1","0","5fc13b486833fb13fef1720b","","null","","","","","","","learning/Slide81.JPG","null","","","","","",""
"html-keyboard-response","249","487241","0.0-7.0-2.0","LF","d1snyw7jw6","1920","1080","0","1","0","5fc13b486833fb13fef1720b","","null","","","learningBlock2","","","","<div style=""font-size:60px;""> </div>","null","LF","learning/Slide81.JPG","This is a wug:","","",""
"html-keyboard-response","250","488242","0.0-7.0-0.1","LF","d1snyw7jw6","1920","1080","0","1","0","5fc13b486833fb13fef1720b","","null","","","learningBlock2","","","","This is a bim:","null","","","","","",""
"image-keyboard-response","251","488572","0.0-7.0-1.1","LF","d1snyw7jw6","1920","1080","0","1","0","5fc13b486833fb13fef1720b","","null","","","","","","","learning/Slide82.JPG","null","","","","","",""
"html-keyboard-response","252","489574","0.0-7.0-2.1","LF","d1snyw7jw6","1920","1080","0","1","0","5fc13b486833fb13fef1720b","","null","","","learningBlock2","","","","<div style=""font-size:60px;""> </div>","null","LF","learning/Slide82.JPG","This is a bim:","","",""
"html-keyboard-response","253","490575","0.0-7.0-0.2","LF","d1snyw7jw6","1920","1080","0","1","0","5fc13b486833fb13fef1720b","","null","","","learningBlock2","","","","This is a wug:","null","","","","","",""
"image-keyboard-response","254","490904","0.0-7.0-1.2","LF","d1snyw7jw6","1920","1080","0","1","0","5fc13b486833fb13fef1720b","","null","","","","","","","learning/Slide83.JPG","null","","","","","",""
"html-keyboard-response","255","491906","0.0-7.0-2.2","LF","d1snyw7jw6","1920","1080","0","1","0","5fc13b486833fb13fef1720b","","null","","","learningBlock2","","","","<div style=""font-size:60px;""> </div>","null","LF","learning/Slide83.JPG","This is a wug:","","",""
"html-keyboard-response","256","492907","0.0-7.0-0.3","LF","d1snyw7jw6","1920","1080","0","1","0","5fc13b486833fb13fef1720b","","null","","","learningBlock2","","","","This is a dep:","null","","","","","",""
"image-keyboard-response","257","493235","0.0-7.0-1.3","LF","d1snyw7jw6","1920","1080","0","1","0","5fc13b486833fb13fef1720b","","null","","","","","","","learning/Slide84.JPG","null","","","","","",""
"html-keyboard-response","258","494237","0.0-7.0-2.3","LF","d1snyw7jw6","1920","1080","0","1","0","5fc13b486833fb13fef1720b","","null","","","learningBlock2","","","","<div style=""font-size:60px;""> </div>","null","LF","learning/Slide84.JPG","This is a dep:","","",""
"html-keyboard-response","259","495239","0.0-7.0-0.4","LF","d1snyw7jw6","1920","1080","0","1","0","5fc13b486833fb13fef1720b","","null","","","learningBlock2","","","","This is a bim:","null","","","","","",""
"image-keyboard-response","260","495565","0.0-7.0-1.4","LF","d1snyw7jw6","1920","1080","0","1","0","5fc13b486833fb13fef1720b","","null","","","","","","","learning/Slide85.JPG","null","","","","","",""
"html-keyboard-response","261","496567","0.0-7.0-2.4","LF","d1snyw7jw6","1920","1080","0","1","0","5fc13b486833fb13fef1720b","","null","","","learningBlock2","","","","<div style=""font-size:60px;""> </div>","null","LF","learning/Slide85.JPG","This is a bim:","","",""
"html-keyboard-response","262","497569","0.0-7.0-0.5","LF","d1snyw7jw6","1920","1080","0","1","0","5fc13b486833fb13fef1720b","","null","","","learningBlock2","","","","This is a tob:","null","","","","","",""
"image-keyboard-response","263","497898","0.0-7.0-1.5","LF","d1snyw7jw6","1920","1080","0","1","0","5fc13b486833fb13fef1720b","","null","","","","","","","learning/Slide86.JPG","null","","","","","",""
"html-keyboard-response","264","498898","0.0-7.0-2.5","LF","d1snyw7jw6","1920","1080","0","1","0","5fc13b486833fb13fef1720b","","null","","","learningBlock2","","","","<div style=""font-size:60px;""> </div>","null","LF","learning/Slide86.JPG","This is a tob:","","",""
"html-keyboard-response","265","499900","0.0-7.0-0.6","LF","d1snyw7jw6","1920","1080","0","1","0","5fc13b486833fb13fef1720b","","null","","","learningBlock2","","","","This is a wug:","null","","","","","",""
"image-keyboard-response","266","500229","0.0-7.0-1.6","LF","d1snyw7jw6","1920","1080","0","1","0","5fc13b486833fb13fef1720b","","null","","","","","","","learning/Slide87.JPG","null","","","","","",""
"html-keyboard-response","267","501231","0.0-7.0-2.6","LF","d1snyw7jw6","1920","1080","0","1","0","5fc13b486833fb13fef1720b","","null","","","learningBlock2","","","","<div style=""font-size:60px;""> </div>","null","LF","learning/Slide87.JPG","This is a wug:","","",""
"html-keyboard-response","268","502232","0.0-7.0-0.7","LF","d1snyw7jw6","1920","1080","0","1","0","5fc13b486833fb13fef1720b","","null","","","learningBlock2","","","","This is a tob:","null","","","","","",""
"image-keyboard-response","269","502558","0.0-7.0-1.7","LF","d1snyw7jw6","1920","1080","0","1","0","5fc13b486833fb13fef1720b","","null","","","","","","","learning/Slide88.JPG","null","","","","","",""
"html-keyboard-response","270","503559","0.0-7.0-2.7","LF","d1snyw7jw6","1920","1080","0","1","0","5fc13b486833fb13fef1720b","","null","","","learningBlock2","","","","<div style=""font-size:60px;""> </div>","null","LF","learning/Slide88.JPG","This is a tob:","","",""
"html-keyboard-response","271","504560","0.0-7.0-0.8","LF","d1snyw7jw6","1920","1080","0","1","0","5fc13b486833fb13fef1720b","","null","","","learningBlock2","","","","This is a bim:","null","","","","","",""
"image-keyboard-response","272","504888","0.0-7.0-1.8","LF","d1snyw7jw6","1920","1080","0","1","0","5fc13b486833fb13fef1720b","","null","","","","","","","learning/Slide89.JPG","null","","","","","",""
"html-keyboard-response","273","505889","0.0-7.0-2.8","LF","d1snyw7jw6","1920","1080","0","1","0","5fc13b486833fb13fef1720b","","null","","","learningBlock2","","","","<div style=""font-size:60px;""> </div>","null","LF","learning/Slide89.JPG","This is a bim:","","",""
"html-keyboard-response","274","506891","0.0-7.0-0.9","LF","d1snyw7jw6","1920","1080","0","1","0","5fc13b486833fb13fef1720b","","null","","","learningBlock2","","","","This is a dep:","null","","","","","",""
"image-keyboard-response","275","507219","0.0-7.0-1.9","LF","d1snyw7jw6","1920","1080","0","1","0","5fc13b486833fb13fef1720b","","null","","","","","","","learning/Slide90.JPG","null","","","","","",""
"html-keyboard-response","276","508221","0.0-7.0-2.9","LF","d1snyw7jw6","1920","1080","0","1","0","5fc13b486833fb13fef1720b","","null","","","learningBlock2","","","","<div style=""font-size:60px;""> </div>","null","LF","learning/Slide90.JPG","This is a dep:","","",""
"html-keyboard-response","277","509223","0.0-7.0-0.10","LF","d1snyw7jw6","1920","1080","0","1","0","5fc13b486833fb13fef1720b","","null","","","learningBlock2","","","","This is a wug:","null","","","","","",""
"image-keyboard-response","278","509550","0.0-7.0-1.10","LF","d1snyw7jw6","1920","1080","0","1","0","5fc13b486833fb13fef1720b","","null","","","","","","","learning/Slide91.JPG","null","","","","","",""
"html-keyboard-response","279","510553","0.0-7.0-2.10","LF","d1snyw7jw6","1920","1080","0","1","0","5fc13b486833fb13fef1720b","","null","","","learningBlock2","","","","<div style=""font-size:60px;""> </div>","null","LF","learning/Slide91.JPG","This is a wug:","","",""
"html-keyboard-response","280","511554","0.0-7.0-0.11","LF","d1snyw7jw6","1920","1080","0","1","0","5fc13b486833fb13fef1720b","","null","","","learningBlock2","","","","This is a tob:","null","","","","","",""
"image-keyboard-response","281","511881","0.0-7.0-1.11","LF","d1snyw7jw6","1920","1080","0","1","0","5fc13b486833fb13fef1720b","","null","","","","","","","learning/Slide92.JPG","null","","","","","",""
"html-keyboard-response","282","512883","0.0-7.0-2.11","LF","d1snyw7jw6","1920","1080","0","1","0","5fc13b486833fb13fef1720b","","null","","","learningBlock2","","","","<div style=""font-size:60px;""> </div>","null","LF","learning/Slide92.JPG","This is a tob:","","",""
"html-keyboard-response","283","513885","0.0-7.0-0.12","LF","d1snyw7jw6","1920","1080","0","1","0","5fc13b486833fb13fef1720b","","null","","","learningBlock2","","","","This is a bim:","null","","","","","",""
"image-keyboard-response","284","514212","0.0-7.0-1.12","LF","d1snyw7jw6","1920","1080","0","1","0","5fc13b486833fb13fef1720b","","null","","","","","","","learning/Slide93.JPG","null","","","","","",""
"html-keyboard-response","285","515214","0.0-7.0-2.12","LF","d1snyw7jw6","1920","1080","0","1","0","5fc13b486833fb13fef1720b","","null","","","learningBlock2","","","","<div style=""font-size:60px;""> </div>","null","LF","learning/Slide93.JPG","This is a bim:","","",""
"html-keyboard-response","286","516215","0.0-7.0-0.13","LF","d1snyw7jw6","1920","1080","0","1","0","5fc13b486833fb13fef1720b","","null","","","learningBlock2","","","","This is a tob:","null","","","","","",""
"image-keyboard-response","287","516543","0.0-7.0-1.13","LF","d1snyw7jw6","1920","1080","0","1","0","5fc13b486833fb13fef1720b","","null","","","","","","","learning/Slide94.JPG","null","","","","","",""
"html-keyboard-response","288","517544","0.0-7.0-2.13","LF","d1snyw7jw6","1920","1080","0","1","0","5fc13b486833fb13fef1720b","","null","","","learningBlock2","","","","<div style=""font-size:60px;""> </div>","null","LF","learning/Slide94.JPG","This is a tob:","","",""
"html-keyboard-response","289","518545","0.0-7.0-0.14","LF","d1snyw7jw6","1920","1080","0","1","0","5fc13b486833fb13fef1720b","","null","","","learningBlock2","","","","This is a wug:","null","","","","","",""
"image-keyboard-response","290","518872","0.0-7.0-1.14","LF","d1snyw7jw6","1920","1080","0","1","0","5fc13b486833fb13fef1720b","","null","","","","","","","learning/Slide95.JPG","null","","","","","",""
"html-keyboard-response","291","519873","0.0-7.0-2.14","LF","d1snyw7jw6","1920","1080","0","1","0","5fc13b486833fb13fef1720b","","null","","","learningBlock2","","","","<div style=""font-size:60px;""> </div>","null","LF","learning/Slide95.JPG","This is a wug:","","",""
"html-keyboard-response","292","520876","0.0-7.0-0.15","LF","d1snyw7jw6","1920","1080","0","1","0","5fc13b486833fb13fef1720b","","null","","","learningBlock2","","","","This is a tob:","null","","","","","",""
"image-keyboard-response","293","521204","0.0-7.0-1.15","LF","d1snyw7jw6","1920","1080","0","1","0","5fc13b486833fb13fef1720b","","null","","","","","","","learning/Slide96.JPG","null","","","","","",""
"html-keyboard-response","294","522205","0.0-7.0-2.15","LF","d1snyw7jw6","1920","1080","0","1","0","5fc13b486833fb13fef1720b","","null","","","learningBlock2","","","","<div style=""font-size:60px;""> </div>","null","LF","learning/Slide96.JPG","This is a tob:","","",""
"html-keyboard-response","295","523207","0.0-7.0-0.16","LF","d1snyw7jw6","1920","1080","0","1","0","5fc13b486833fb13fef1720b","","null","","","learningBlock2","","","","This is a dep:","null","","","","","",""
"image-keyboard-response","296","523534","0.0-7.0-1.16","LF","d1snyw7jw6","1920","1080","0","1","0","5fc13b486833fb13fef1720b","","null","","","","","","","learning/Slide97.JPG","null","","","","","",""
"html-keyboard-response","297","524535","0.0-7.0-2.16","LF","d1snyw7jw6","1920","1080","0","1","0","5fc13b486833fb13fef1720b","","null","","","learningBlock2","","","","<div style=""font-size:60px;""> </div>","null","LF","learning/Slide97.JPG","This is a dep:","","",""
"html-keyboard-response","298","525536","0.0-7.0-0.17","LF","d1snyw7jw6","1920","1080","0","1","0","5fc13b486833fb13fef1720b","","null","","","learningBlock2","","","","This is a bim:","null","","","","","",""
"image-keyboard-response","299","525863","0.0-7.0-1.17","LF","d1snyw7jw6","1920","1080","0","1","0","5fc13b486833fb13fef1720b","","null","","","","","","","learning/Slide98.JPG","null","","","","","",""
"html-keyboard-response","300","526864","0.0-7.0-2.17","LF","d1snyw7jw6","1920","1080","0","1","0","5fc13b486833fb13fef1720b","","null","","","learningBlock2","","","","<div style=""font-size:60px;""> </div>","null","LF","learning/Slide98.JPG","This is a bim:","","",""
"html-keyboard-response","301","527865","0.0-7.0-0.18","LF","d1snyw7jw6","1920","1080","0","1","0","5fc13b486833fb13fef1720b","","null","","","learningBlock2","","","","This is a dep:","null","","","","","",""
"image-keyboard-response","302","528192","0.0-7.0-1.18","LF","d1snyw7jw6","1920","1080","0","1","0","5fc13b486833fb13fef1720b","","null","","","","","","","learning/Slide99.JPG","null","","","","","",""
"html-keyboard-response","303","529193","0.0-7.0-2.18","LF","d1snyw7jw6","1920","1080","0","1","0","5fc13b486833fb13fef1720b","","null","","","learningBlock2","","","","<div style=""font-size:60px;""> </div>","null","LF","learning/Slide99.JPG","This is a dep:","","",""
"html-keyboard-response","304","530195","0.0-7.0-0.19","LF","d1snyw7jw6","1920","1080","0","1","0","5fc13b486833fb13fef1720b","","null","","","learningBlock2","","","","This is a bim:","null","","","","","",""
"image-keyboard-response","305","530523","0.0-7.0-1.19","LF","d1snyw7jw6","1920","1080","0","1","0","5fc13b486833fb13fef1720b","","null","","","","","","","learning/Slide100.JPG","null","","","","","",""
"html-keyboard-response","306","531525","0.0-7.0-2.19","LF","d1snyw7jw6","1920","1080","0","1","0","5fc13b486833fb13fef1720b","","null","","","learningBlock2","","","","<div style=""font-size:60px;""> </div>","null","LF","learning/Slide100.JPG","This is a bim:","","",""
"html-keyboard-response","307","532526","0.0-7.0-0.20","LF","d1snyw7jw6","1920","1080","0","1","0","5fc13b486833fb13fef1720b","","null","","","learningBlock2","","","","This is a tob:","null","","","","","",""
"image-keyboard-response","308","532853","0.0-7.0-1.20","LF","d1snyw7jw6","1920","1080","0","1","0","5fc13b486833fb13fef1720b","","null","","","","","","","learning/Slide101.JPG","null","","","","","",""
"html-keyboard-response","309","533854","0.0-7.0-2.20","LF","d1snyw7jw6","1920","1080","0","1","0","5fc13b486833fb13fef1720b","","null","","","learningBlock2","","","","<div style=""font-size:60px;""> </div>","null","LF","learning/Slide101.JPG","This is a tob:","","",""
"html-keyboard-response","310","534855","0.0-7.0-0.21","LF","d1snyw7jw6","1920","1080","0","1","0","5fc13b486833fb13fef1720b","","null","","","learningBlock2","","","","This is a bim:","null","","","","","",""
"image-keyboard-response","311","535183","0.0-7.0-1.21","LF","d1snyw7jw6","1920","1080","0","1","0","5fc13b486833fb13fef1720b","","null","","","","","","","learning/Slide102.JPG","null","","","","","",""
"html-keyboard-response","312","536185","0.0-7.0-2.21","LF","d1snyw7jw6","1920","1080","0","1","0","5fc13b486833fb13fef1720b","","null","","","learningBlock2","","","","<div style=""font-size:60px;""> </div>","null","LF","learning/Slide102.JPG","This is a bim:","","",""
"html-keyboard-response","313","537187","0.0-7.0-0.22","LF","d1snyw7jw6","1920","1080","0","1","0","5fc13b486833fb13fef1720b","","null","","","learningBlock2","","","","This is a dep:","null","","","","","",""
"image-keyboard-response","314","537513","0.0-7.0-1.22","LF","d1snyw7jw6","1920","1080","0","1","0","5fc13b486833fb13fef1720b","","null","","","","","","","learning/Slide103.JPG","null","","","","","",""
"html-keyboard-response","315","538514","0.0-7.0-2.22","LF","d1snyw7jw6","1920","1080","0","1","0","5fc13b486833fb13fef1720b","","null","","","learningBlock2","","","","<div style=""font-size:60px;""> </div>","null","LF","learning/Slide103.JPG","This is a dep:","","",""
"html-keyboard-response","316","539515","0.0-7.0-0.23","LF","d1snyw7jw6","1920","1080","0","1","0","5fc13b486833fb13fef1720b","","null","","","learningBlock2","","","","This is a tob:","null","","","","","",""
"image-keyboard-response","317","539843","0.0-7.0-1.23","LF","d1snyw7jw6","1920","1080","0","1","0","5fc13b486833fb13fef1720b","","null","","","","","","","learning/Slide104.JPG","null","","","","","",""
"html-keyboard-response","318","540846","0.0-7.0-2.23","LF","d1snyw7jw6","1920","1080","0","1","0","5fc13b486833fb13fef1720b","","null","","","learningBlock2","","","","<div style=""font-size:60px;""> </div>","null","LF","learning/Slide104.JPG","This is a tob:","","",""
"html-keyboard-response","319","541848","0.0-7.0-0.24","LF","d1snyw7jw6","1920","1080","0","1","0","5fc13b486833fb13fef1720b","","null","","","learningBlock2","","","","This is a dep:","null","","","","","",""
"image-keyboard-response","320","542175","0.0-7.0-1.24","LF","d1snyw7jw6","1920","1080","0","1","0","5fc13b486833fb13fef1720b","","null","","","","","","","learning/Slide105.JPG","null","","","","","",""
"html-keyboard-response","321","543176","0.0-7.0-2.24","LF","d1snyw7jw6","1920","1080","0","1","0","5fc13b486833fb13fef1720b","","null","","","learningBlock2","","","","<div style=""font-size:60px;""> </div>","null","LF","learning/Slide105.JPG","This is a dep:","","",""
"html-keyboard-response","322","544178","0.0-7.0-0.25","LF","d1snyw7jw6","1920","1080","0","1","0","5fc13b486833fb13fef1720b","","null","","","learningBlock2","","","","This is a wug:","null","","","","","",""
"image-keyboard-response","323","544504","0.0-7.0-1.25","LF","d1snyw7jw6","1920","1080","0","1","0","5fc13b486833fb13fef1720b","","null","","","","","","","learning/Slide106.JPG","null","","","","","",""
"html-keyboard-response","324","545506","0.0-7.0-2.25","LF","d1snyw7jw6","1920","1080","0","1","0","5fc13b486833fb13fef1720b","","null","","","learningBlock2","","","","<div style=""font-size:60px;""> </div>","null","LF","learning/Slide106.JPG","This is a wug:","","",""
"html-keyboard-response","325","546508","0.0-7.0-0.26","LF","d1snyw7jw6","1920","1080","0","1","0","5fc13b486833fb13fef1720b","","null","","","learningBlock2","","","","This is a bim:","null","","","","","",""
"image-keyboard-response","326","546835","0.0-7.0-1.26","LF","d1snyw7jw6","1920","1080","0","1","0","5fc13b486833fb13fef1720b","","null","","","","","","","learning/Slide107.JPG","null","","","","","",""
"html-keyboard-response","327","547836","0.0-7.0-2.26","LF","d1snyw7jw6","1920","1080","0","1","0","5fc13b486833fb13fef1720b","","null","","","learningBlock2","","","","<div style=""font-size:60px;""> </div>","null","LF","learning/Slide107.JPG","This is a bim:","","",""
"html-keyboard-response","328","548837","0.0-7.0-0.27","LF","d1snyw7jw6","1920","1080","0","1","0","5fc13b486833fb13fef1720b","","null","","","learningBlock2","","","","This is a dep:","null","","","","","",""
"image-keyboard-response","329","549165","0.0-7.0-1.27","LF","d1snyw7jw6","1920","1080","0","1","0","5fc13b486833fb13fef1720b","","null","","","","","","","learning/Slide108.JPG","null","","","","","",""
"html-keyboard-response","330","550166","0.0-7.0-2.27","LF","d1snyw7jw6","1920","1080","0","1","0","5fc13b486833fb13fef1720b","","null","","","learningBlock2","","","","<div style=""font-size:60px;""> </div>","null","LF","learning/Slide108.JPG","This is a dep:","","",""
"html-keyboard-response","331","551169","0.0-7.0-0.28","LF","d1snyw7jw6","1920","1080","0","1","0","5fc13b486833fb13fef1720b","","null","","","learningBlock2","","","","This is a wug:","null","","","","","",""
"image-keyboard-response","332","551497","0.0-7.0-1.28","LF","d1snyw7jw6","1920","1080","0","1","0","5fc13b486833fb13fef1720b","","null","","","","","","","learning/Slide109.JPG","null","","","","","",""
"html-keyboard-response","333","552499","0.0-7.0-2.28","LF","d1snyw7jw6","1920","1080","0","1","0","5fc13b486833fb13fef1720b","","null","","","learningBlock2","","","","<div style=""font-size:60px;""> </div>","null","LF","learning/Slide109.JPG","This is a wug:","","",""
"html-keyboard-response","334","553501","0.0-7.0-0.29","LF","d1snyw7jw6","1920","1080","0","1","0","5fc13b486833fb13fef1720b","","null","","","learningBlock2","","","","This is a bim:","null","","","","","",""
"image-keyboard-response","335","553828","0.0-7.0-1.29","LF","d1snyw7jw6","1920","1080","0","1","0","5fc13b486833fb13fef1720b","","null","","","","","","","learning/Slide110.JPG","null","","","","","",""
"html-keyboard-response","336","554830","0.0-7.0-2.29","LF","d1snyw7jw6","1920","1080","0","1","0","5fc13b486833fb13fef1720b","","null","","","learningBlock2","","","","<div style=""font-size:60px;""> </div>","null","LF","learning/Slide110.JPG","This is a bim:","","",""
"html-keyboard-response","337","555832","0.0-7.0-0.30","LF","d1snyw7jw6","1920","1080","0","1","0","5fc13b486833fb13fef1720b","","null","","","learningBlock2","","","","This is a tob:","null","","","","","",""
"image-keyboard-response","338","556159","0.0-7.0-1.30","LF","d1snyw7jw6","1920","1080","0","1","0","5fc13b486833fb13fef1720b","","null","","","","","","","learning/Slide111.JPG","null","","","","","",""
"html-keyboard-response","339","557161","0.0-7.0-2.30","LF","d1snyw7jw6","1920","1080","0","1","0","5fc13b486833fb13fef1720b","","null","","","learningBlock2","","","","<div style=""font-size:60px;""> </div>","null","LF","learning/Slide111.JPG","This is a tob:","","",""
"html-keyboard-response","340","558161","0.0-7.0-0.31","LF","d1snyw7jw6","1920","1080","0","1","0","5fc13b486833fb13fef1720b","","null","","","learningBlock2","","","","This is a wug:","null","","","","","",""
"image-keyboard-response","341","558488","0.0-7.0-1.31","LF","d1snyw7jw6","1920","1080","0","1","0","5fc13b486833fb13fef1720b","","null","","","","","","","learning/Slide112.JPG","null","","","","","",""
"html-keyboard-response","342","559490","0.0-7.0-2.31","LF","d1snyw7jw6","1920","1080","0","1","0","5fc13b486833fb13fef1720b","","null","","","learningBlock2","","","","<div style=""font-size:60px;""> </div>","null","LF","learning/Slide112.JPG","This is a wug:","","",""
"html-keyboard-response","343","560491","0.0-7.0-0.32","LF","d1snyw7jw6","1920","1080","0","1","0","5fc13b486833fb13fef1720b","","null","","","learningBlock2","","","","This is a tob:","null","","","","","",""
"image-keyboard-response","344","560818","0.0-7.0-1.32","LF","d1snyw7jw6","1920","1080","0","1","0","5fc13b486833fb13fef1720b","","null","","","","","","","learning/Slide113.JPG","null","","","","","",""
"html-keyboard-response","345","561821","0.0-7.0-2.32","LF","d1snyw7jw6","1920","1080","0","1","0","5fc13b486833fb13fef1720b","","null","","","learningBlock2","","","","<div style=""font-size:60px;""> </div>","null","LF","learning/Slide113.JPG","This is a tob:","","",""
"html-keyboard-response","346","562823","0.0-7.0-0.33","LF","d1snyw7jw6","1920","1080","0","1","0","5fc13b486833fb13fef1720b","","null","","","learningBlock2","","","","This is a wug:","null","","","","","",""
"image-keyboard-response","347","563150","0.0-7.0-1.33","LF","d1snyw7jw6","1920","1080","0","1","0","5fc13b486833fb13fef1720b","","null","","","","","","","learning/Slide114.JPG","null","","","","","",""
"html-keyboard-response","348","564151","0.0-7.0-2.33","LF","d1snyw7jw6","1920","1080","0","1","0","5fc13b486833fb13fef1720b","","null","","","learningBlock2","","","","<div style=""font-size:60px;""> </div>","null","LF","learning/Slide114.JPG","This is a wug:","","",""
"html-keyboard-response","349","565153","0.0-7.0-0.34","LF","d1snyw7jw6","1920","1080","0","1","0","5fc13b486833fb13fef1720b","","null","","","learningBlock2","","","","This is a bim:","null","","","","","",""
"image-keyboard-response","350","565479","0.0-7.0-1.34","LF","d1snyw7jw6","1920","1080","0","1","0","5fc13b486833fb13fef1720b","","null","","","","","","","learning/Slide115.JPG","null","","","","","",""
"html-keyboard-response","351","566480","0.0-7.0-2.34","LF","d1snyw7jw6","1920","1080","0","1","0","5fc13b486833fb13fef1720b","","null","","","learningBlock2","","","","<div style=""font-size:60px;""> </div>","null","LF","learning/Slide115.JPG","This is a bim:","","",""
"html-keyboard-response","352","567482","0.0-7.0-0.35","LF","d1snyw7jw6","1920","1080","0","1","0","5fc13b486833fb13fef1720b","","null","","","learningBlock2","","","","This is a dep:","null","","","","","",""
"image-keyboard-response","353","567810","0.0-7.0-1.35","LF","d1snyw7jw6","1920","1080","0","1","0","5fc13b486833fb13fef1720b","","null","","","","","","","learning/Slide116.JPG","null","","","","","",""
"html-keyboard-response","354","568812","0.0-7.0-2.35","LF","d1snyw7jw6","1920","1080","0","1","0","5fc13b486833fb13fef1720b","","null","","","learningBlock2","","","","<div style=""font-size:60px;""> </div>","null","LF","learning/Slide116.JPG","This is a dep:","","",""
"html-keyboard-response","355","569814","0.0-7.0-0.36","LF","d1snyw7jw6","1920","1080","0","1","0","5fc13b486833fb13fef1720b","","null","","","learningBlock2","","","","This is a tob:","null","","","","","",""
"image-keyboard-response","356","570142","0.0-7.0-1.36","LF","d1snyw7jw6","1920","1080","0","1","0","5fc13b486833fb13fef1720b","","null","","","","","","","learning/Slide117.JPG","null","","","","","",""
"html-keyboard-response","357","571144","0.0-7.0-2.36","LF","d1snyw7jw6","1920","1080","0","1","0","5fc13b486833fb13fef1720b","","null","","","learningBlock2","","","","<div style=""font-size:60px;""> </div>","null","LF","learning/Slide117.JPG","This is a tob:","","",""
"html-keyboard-response","358","572146","0.0-7.0-0.37","LF","d1snyw7jw6","1920","1080","0","1","0","5fc13b486833fb13fef1720b","","null","","","learningBlock2","","","","This is a dep:","null","","","","","",""
"image-keyboard-response","359","572473","0.0-7.0-1.37","LF","d1snyw7jw6","1920","1080","0","1","0","5fc13b486833fb13fef1720b","","null","","","","","","","learning/Slide118.JPG","null","","","","","",""
"html-keyboard-response","360","573475","0.0-7.0-2.37","LF","d1snyw7jw6","1920","1080","0","1","0","5fc13b486833fb13fef1720b","","null","","","learningBlock2","","","","<div style=""font-size:60px;""> </div>","null","LF","learning/Slide118.JPG","This is a dep:","","",""
"html-keyboard-response","361","574477","0.0-7.0-0.38","LF","d1snyw7jw6","1920","1080","0","1","0","5fc13b486833fb13fef1720b","","null","","","learningBlock2","","","","This is a wug:","null","","","","","",""
"image-keyboard-response","362","574803","0.0-7.0-1.38","LF","d1snyw7jw6","1920","1080","0","1","0","5fc13b486833fb13fef1720b","","null","","","","","","","learning/Slide119.JPG","null","","","","","",""
"html-keyboard-response","363","575805","0.0-7.0-2.38","LF","d1snyw7jw6","1920","1080","0","1","0","5fc13b486833fb13fef1720b","","null","","","learningBlock2","","","","<div style=""font-size:60px;""> </div>","null","LF","learning/Slide119.JPG","This is a wug:","","",""
"html-keyboard-response","364","576805","0.0-7.0-0.39","LF","d1snyw7jw6","1920","1080","0","1","0","5fc13b486833fb13fef1720b","","null","","","learningBlock2","","","","This is a dep:","null","","","","","",""
"image-keyboard-response","365","577133","0.0-7.0-1.39","LF","d1snyw7jw6","1920","1080","0","1","0","5fc13b486833fb13fef1720b","","null","","","","","","","learning/Slide120.JPG","null","","","","","",""
"html-keyboard-response","366","578134","0.0-7.0-2.39","LF","d1snyw7jw6","1920","1080","0","1","0","5fc13b486833fb13fef1720b","","null","","","learningBlock2","","","","<div style=""font-size:60px;""> </div>","null","LF","learning/Slide120.JPG","This is a dep:","","",""
"html-keyboard-response","367","579135","0.0-7.0-0.40","LF","d1snyw7jw6","1920","1080","0","1","0","5fc13b486833fb13fef1720b","","null","","","learningBlock2","","","","This is a bim:","null","","","","","",""
"image-keyboard-response","368","579462","0.0-7.0-1.40","LF","d1snyw7jw6","1920","1080","0","1","0","5fc13b486833fb13fef1720b","","null","","","","","","","learning/Slide121.JPG","null","","","","","",""
"html-keyboard-response","369","580464","0.0-7.0-2.40","LF","d1snyw7jw6","1920","1080","0","1","0","5fc13b486833fb13fef1720b","","null","","","learningBlock2","","","","<div style=""font-size:60px;""> </div>","null","LF","learning/Slide121.JPG","This is a bim:","","",""
"html-keyboard-response","370","581465","0.0-7.0-0.41","LF","d1snyw7jw6","1920","1080","0","1","0","5fc13b486833fb13fef1720b","","null","","","learningBlock2","","","","This is a wug:","null","","","","","",""
"image-keyboard-response","371","581793","0.0-7.0-1.41","LF","d1snyw7jw6","1920","1080","0","1","0","5fc13b486833fb13fef1720b","","null","","","","","","","learning/Slide122.JPG","null","","","","","",""
"html-keyboard-response","372","582794","0.0-7.0-2.41","LF","d1snyw7jw6","1920","1080","0","1","0","5fc13b486833fb13fef1720b","","null","","","learningBlock2","","","","<div style=""font-size:60px;""> </div>","null","LF","learning/Slide122.JPG","This is a wug:","","",""
"html-keyboard-response","373","583795","0.0-7.0-0.42","LF","d1snyw7jw6","1920","1080","0","1","0","5fc13b486833fb13fef1720b","","null","","","learningBlock2","","","","This is a bim:","null","","","","","",""
"image-keyboard-response","374","584123","0.0-7.0-1.42","LF","d1snyw7jw6","1920","1080","0","1","0","5fc13b486833fb13fef1720b","","null","","","","","","","learning/Slide123.JPG","null","","","","","",""
"html-keyboard-response","375","585124","0.0-7.0-2.42","LF","d1snyw7jw6","1920","1080","0","1","0","5fc13b486833fb13fef1720b","","null","","","learningBlock2","","","","<div style=""font-size:60px;""> </div>","null","LF","learning/Slide123.JPG","This is a bim:","","",""
"html-keyboard-response","376","586126","0.0-7.0-0.43","LF","d1snyw7jw6","1920","1080","0","1","0","5fc13b486833fb13fef1720b","","null","","","learningBlock2","","","","This is a tob:","null","","","","","",""
"image-keyboard-response","377","586452","0.0-7.0-1.43","LF","d1snyw7jw6","1920","1080","0","1","0","5fc13b486833fb13fef1720b","","null","","","","","","","learning/Slide124.JPG","null","","","","","",""
"html-keyboard-response","378","587454","0.0-7.0-2.43","LF","d1snyw7jw6","1920","1080","0","1","0","5fc13b486833fb13fef1720b","","null","","","learningBlock2","","","","<div style=""font-size:60px;""> </div>","null","LF","learning/Slide124.JPG","This is a tob:","","",""
"html-keyboard-response","379","588455","0.0-7.0-0.44","LF","d1snyw7jw6","1920","1080","0","1","0","5fc13b486833fb13fef1720b","","null","","","learningBlock2","","","","This is a bim:","null","","","","","",""
"image-keyboard-response","380","588784","0.0-7.0-1.44","LF","d1snyw7jw6","1920","1080","0","1","0","5fc13b486833fb13fef1720b","","null","","","","","","","learning/Slide125.JPG","null","","","","","",""
"html-keyboard-response","381","589786","0.0-7.0-2.44","LF","d1snyw7jw6","1920","1080","0","1","0","5fc13b486833fb13fef1720b","","null","","","learningBlock2","","","","<div style=""font-size:60px;""> </div>","null","LF","learning/Slide125.JPG","This is a bim:","","",""
"html-keyboard-response","382","590787","0.0-7.0-0.45","LF","d1snyw7jw6","1920","1080","0","1","0","5fc13b486833fb13fef1720b","","null","","","learningBlock2","","","","This is a tob:","null","","","","","",""
"image-keyboard-response","383","591115","0.0-7.0-1.45","LF","d1snyw7jw6","1920","1080","0","1","0","5fc13b486833fb13fef1720b","","null","","","","","","","learning/Slide126.JPG","null","","","","","",""
"html-keyboard-response","384","592116","0.0-7.0-2.45","LF","d1snyw7jw6","1920","1080","0","1","0","5fc13b486833fb13fef1720b","","null","","","learningBlock2","","","","<div style=""font-size:60px;""> </div>","null","LF","learning/Slide126.JPG","This is a tob:","","",""
"html-keyboard-response","385","593117","0.0-7.0-0.46","LF","d1snyw7jw6","1920","1080","0","1","0","5fc13b486833fb13fef1720b","","null","","","learningBlock2","","","","This is a dep:","null","","","","","",""
"image-keyboard-response","386","593445","0.0-7.0-1.46","LF","d1snyw7jw6","1920","1080","0","1","0","5fc13b486833fb13fef1720b","","null","","","","","","","learning/Slide127.JPG","null","","","","","",""
"html-keyboard-response","387","594446","0.0-7.0-2.46","LF","d1snyw7jw6","1920","1080","0","1","0","5fc13b486833fb13fef1720b","","null","","","learningBlock2","","","","<div style=""font-size:60px;""> </div>","null","LF","learning/Slide127.JPG","This is a dep:","","",""
"html-keyboard-response","388","595447","0.0-7.0-0.47","LF","d1snyw7jw6","1920","1080","0","1","0","5fc13b486833fb13fef1720b","","null","","","learningBlock2","","","","This is a wug:","null","","","","","",""
"image-keyboard-response","389","595773","0.0-7.0-1.47","LF","d1snyw7jw6","1920","1080","0","1","0","5fc13b486833fb13fef1720b","","null","","","","","","","learning/Slide128.JPG","null","","","","","",""
"html-keyboard-response","390","596775","0.0-7.0-2.47","LF","d1snyw7jw6","1920","1080","0","1","0","5fc13b486833fb13fef1720b","","null","","","learningBlock2","","","","<div style=""font-size:60px;""> </div>","null","LF","learning/Slide128.JPG","This is a wug:","","",""
"html-keyboard-response","391","597776","0.0-7.0-0.48","LF","d1snyw7jw6","1920","1080","0","1","0","5fc13b486833fb13fef1720b","","null","","","learningBlock2","","","","This is a tob:","null","","","","","",""
"image-keyboard-response","392","598103","0.0-7.0-1.48","LF","d1snyw7jw6","1920","1080","0","1","0","5fc13b486833fb13fef1720b","","null","","","","","","","learning/Slide129.JPG","null","","","","","",""
"html-keyboard-response","393","599105","0.0-7.0-2.48","LF","d1snyw7jw6","1920","1080","0","1","0","5fc13b486833fb13fef1720b","","null","","","learningBlock2","","","","<div style=""font-size:60px;""> </div>","null","LF","learning/Slide129.JPG","This is a tob:","","",""
"html-keyboard-response","394","600106","0.0-7.0-0.49","LF","d1snyw7jw6","1920","1080","0","1","0","5fc13b486833fb13fef1720b","","null","","","learningBlock2","","","","This is a wug:","null","","","","","",""
"image-keyboard-response","395","600434","0.0-7.0-1.49","LF","d1snyw7jw6","1920","1080","0","1","0","5fc13b486833fb13fef1720b","","null","","","","","","","learning/Slide130.JPG","null","","","","","",""
"html-keyboard-response","396","601436","0.0-7.0-2.49","LF","d1snyw7jw6","1920","1080","0","1","0","5fc13b486833fb13fef1720b","","null","","","learningBlock2","","","","<div style=""font-size:60px;""> </div>","null","LF","learning/Slide130.JPG","This is a wug:","","",""
"html-keyboard-response","397","602438","0.0-7.0-0.50","LF","d1snyw7jw6","1920","1080","0","1","0","5fc13b486833fb13fef1720b","","null","","","learningBlock2","","","","This is a bim:","null","","","","","",""
"image-keyboard-response","398","602766","0.0-7.0-1.50","LF","d1snyw7jw6","1920","1080","0","1","0","5fc13b486833fb13fef1720b","","null","","","","","","","learning/Slide131.JPG","null","","","","","",""
"html-keyboard-response","399","603767","0.0-7.0-2.50","LF","d1snyw7jw6","1920","1080","0","1","0","5fc13b486833fb13fef1720b","","null","","","learningBlock2","","","","<div style=""font-size:60px;""> </div>","null","LF","learning/Slide131.JPG","This is a bim:","","",""
"html-keyboard-response","400","604769","0.0-7.0-0.51","LF","d1snyw7jw6","1920","1080","0","1","0","5fc13b486833fb13fef1720b","","null","","","learningBlock2","","","","This is a dep:","null","","","","","",""
"image-keyboard-response","401","605096","0.0-7.0-1.51","LF","d1snyw7jw6","1920","1080","0","1","0","5fc13b486833fb13fef1720b","","null","","","","","","","learning/Slide132.JPG","null","","","","","",""
"html-keyboard-response","402","606098","0.0-7.0-2.51","LF","d1snyw7jw6","1920","1080","0","1","0","5fc13b486833fb13fef1720b","","null","","","learningBlock2","","","","<div style=""font-size:60px;""> </div>","null","LF","learning/Slide132.JPG","This is a dep:","","",""
"html-keyboard-response","403","607100","0.0-7.0-0.52","LF","d1snyw7jw6","1920","1080","0","1","0","5fc13b486833fb13fef1720b","","null","","","learningBlock2","","","","This is a tob:","null","","","","","",""
"image-keyboard-response","404","607428","0.0-7.0-1.52","LF","d1snyw7jw6","1920","1080","0","1","0","5fc13b486833fb13fef1720b","","null","","","","","","","learning/Slide133.JPG","null","","","","","",""
"html-keyboard-response","405","608430","0.0-7.0-2.52","LF","d1snyw7jw6","1920","1080","0","1","0","5fc13b486833fb13fef1720b","","null","","","learningBlock2","","","","<div style=""font-size:60px;""> </div>","null","LF","learning/Slide133.JPG","This is a tob:","","",""
"html-keyboard-response","406","609432","0.0-7.0-0.53","LF","d1snyw7jw6","1920","1080","0","1","0","5fc13b486833fb13fef1720b","","null","","","learningBlock2","","","","This is a dep:","null","","","","","",""
"image-keyboard-response","407","609758","0.0-7.0-1.53","LF","d1snyw7jw6","1920","1080","0","1","0","5fc13b486833fb13fef1720b","","null","","","","","","","learning/Slide134.JPG","null","","","","","",""
"html-keyboard-response","408","610759","0.0-7.0-2.53","LF","d1snyw7jw6","1920","1080","0","1","0","5fc13b486833fb13fef1720b","","null","","","learningBlock2","","","","<div style=""font-size:60px;""> </div>","null","LF","learning/Slide134.JPG","This is a dep:","","",""
"html-keyboard-response","409","611760","0.0-7.0-0.54","LF","d1snyw7jw6","1920","1080","0","1","0","5fc13b486833fb13fef1720b","","null","","","learningBlock2","","","","This is a tob:","null","","","","","",""
"image-keyboard-response","410","612088","0.0-7.0-1.54","LF","d1snyw7jw6","1920","1080","0","1","0","5fc13b486833fb13fef1720b","","null","","","","","","","learning/Slide135.JPG","null","","","","","",""
"html-keyboard-response","411","613089","0.0-7.0-2.54","LF","d1snyw7jw6","1920","1080","0","1","0","5fc13b486833fb13fef1720b","","null","","","learningBlock2","","","","<div style=""font-size:60px;""> </div>","null","LF","learning/Slide135.JPG","This is a tob:","","",""
"html-keyboard-response","412","614090","0.0-7.0-0.55","LF","d1snyw7jw6","1920","1080","0","1","0","5fc13b486833fb13fef1720b","","null","","","learningBlock2","","","","This is a wug:","null","","","","","",""
"image-keyboard-response","413","614417","0.0-7.0-1.55","LF","d1snyw7jw6","1920","1080","0","1","0","5fc13b486833fb13fef1720b","","null","","","","","","","learning/Slide136.JPG","null","","","","","",""
"html-keyboard-response","414","615419","0.0-7.0-2.55","LF","d1snyw7jw6","1920","1080","0","1","0","5fc13b486833fb13fef1720b","","null","","","learningBlock2","","","","<div style=""font-size:60px;""> </div>","null","LF","learning/Slide136.JPG","This is a wug:","","",""
"html-keyboard-response","415","616420","0.0-7.0-0.56","LF","d1snyw7jw6","1920","1080","0","1","0","5fc13b486833fb13fef1720b","","null","","","learningBlock2","","","","This is a tob:","null","","","","","",""
"image-keyboard-response","416","616747","0.0-7.0-1.56","LF","d1snyw7jw6","1920","1080","0","1","0","5fc13b486833fb13fef1720b","","null","","","","","","","learning/Slide137.JPG","null","","","","","",""
"html-keyboard-response","417","617749","0.0-7.0-2.56","LF","d1snyw7jw6","1920","1080","0","1","0","5fc13b486833fb13fef1720b","","null","","","learningBlock2","","","","<div style=""font-size:60px;""> </div>","null","LF","learning/Slide137.JPG","This is a tob:","","",""
"html-keyboard-response","418","618750","0.0-7.0-0.57","LF","d1snyw7jw6","1920","1080","0","1","0","5fc13b486833fb13fef1720b","","null","","","learningBlock2","","","","This is a bim:","null","","","","","",""
"image-keyboard-response","419","619077","0.0-7.0-1.57","LF","d1snyw7jw6","1920","1080","0","1","0","5fc13b486833fb13fef1720b","","null","","","","","","","learning/Slide138.JPG","null","","","","","",""
"html-keyboard-response","420","620080","0.0-7.0-2.57","LF","d1snyw7jw6","1920","1080","0","1","0","5fc13b486833fb13fef1720b","","null","","","learningBlock2","","","","<div style=""font-size:60px;""> </div>","null","LF","learning/Slide138.JPG","This is a bim:","","",""
"html-keyboard-response","421","621081","0.0-7.0-0.58","LF","d1snyw7jw6","1920","1080","0","1","0","5fc13b486833fb13fef1720b","","null","","","learningBlock2","","","","This is a wug:","null","","","","","",""
"image-keyboard-response","422","621408","0.0-7.0-1.58","LF","d1snyw7jw6","1920","1080","0","1","0","5fc13b486833fb13fef1720b","","null","","","","","","","learning/Slide139.JPG","null","","","","","",""
"html-keyboard-response","423","622410","0.0-7.0-2.58","LF","d1snyw7jw6","1920","1080","0","1","0","5fc13b486833fb13fef1720b","","null","","","learningBlock2","","","","<div style=""font-size:60px;""> </div>","null","LF","learning/Slide139.JPG","This is a wug:","","",""
"html-keyboard-response","424","623411","0.0-7.0-0.59","LF","d1snyw7jw6","1920","1080","0","1","0","5fc13b486833fb13fef1720b","","null","","","learningBlock2","","","","This is a dep:","null","","","","","",""
"image-keyboard-response","425","623739","0.0-7.0-1.59","LF","d1snyw7jw6","1920","1080","0","1","0","5fc13b486833fb13fef1720b","","null","","","","","","","learning/Slide140.JPG","null","","","","","",""
"html-keyboard-response","426","624741","0.0-7.0-2.59","LF","d1snyw7jw6","1920","1080","0","1","0","5fc13b486833fb13fef1720b","","null","","","learningBlock2","","","","<div style=""font-size:60px;""> </div>","null","LF","learning/Slide140.JPG","This is a dep:","","",""
"html-keyboard-response","427","625742","0.0-7.0-0.60","LF","d1snyw7jw6","1920","1080","0","1","0","5fc13b486833fb13fef1720b","","null","","","learningBlock2","","","","This is a tob:","null","","","","","",""
"image-keyboard-response","428","626069","0.0-7.0-1.60","LF","d1snyw7jw6","1920","1080","0","1","0","5fc13b486833fb13fef1720b","","null","","","","","","","learning/Slide141.JPG","null","","","","","",""
"html-keyboard-response","429","627070","0.0-7.0-2.60","LF","d1snyw7jw6","1920","1080","0","1","0","5fc13b486833fb13fef1720b","","null","","","learningBlock2","","","","<div style=""font-size:60px;""> </div>","null","LF","learning/Slide141.JPG","This is a tob:","","",""
"html-keyboard-response","430","628072","0.0-7.0-0.61","LF","d1snyw7jw6","1920","1080","0","1","0","5fc13b486833fb13fef1720b","","null","","","learningBlock2","","","","This is a wug:","null","","","","","",""
"image-keyboard-response","431","628399","0.0-7.0-1.61","LF","d1snyw7jw6","1920","1080","0","1","0","5fc13b486833fb13fef1720b","","null","","","","","","","learning/Slide142.JPG","null","","","","","",""
"html-keyboard-response","432","629401","0.0-7.0-2.61","LF","d1snyw7jw6","1920","1080","0","1","0","5fc13b486833fb13fef1720b","","null","","","learningBlock2","","","","<div style=""font-size:60px;""> </div>","null","LF","learning/Slide142.JPG","This is a wug:","","",""
"html-keyboard-response","433","630403","0.0-7.0-0.62","LF","d1snyw7jw6","1920","1080","0","1","0","5fc13b486833fb13fef1720b","","null","","","learningBlock2","","","","This is a bim:","null","","","","","",""
"image-keyboard-response","434","630730","0.0-7.0-1.62","LF","d1snyw7jw6","1920","1080","0","1","0","5fc13b486833fb13fef1720b","","null","","","","","","","learning/Slide143.JPG","null","","","","","",""
"html-keyboard-response","435","631732","0.0-7.0-2.62","LF","d1snyw7jw6","1920","1080","0","1","0","5fc13b486833fb13fef1720b","","null","","","learningBlock2","","","","<div style=""font-size:60px;""> </div>","null","LF","learning/Slide143.JPG","This is a bim:","","",""
