"trial_type","trial_index","time_elapsed","internal_node_id","condition","subject","screen_width","screen_height","attention","distraction","conscientious","prolificID","success","rt","url","view_history","test_part","final_height_px","final_width_px","scale_factor","stimulus","key_press","learningType","presentedImage","presentedLabel","button_pressed","response","responses"
"pavlovia","0","21","0.0-0.0","FL","9q76krfydn","1920","1080","0","1","0","5f3d9a9f10a5f219cfe0b404","","","","","","","","","","","","","","","",""
"fullscreen","1","2292","0.0-1.0","FL","9q76krfydn","1920","1080","0","1","0","5f3d9a9f10a5f219cfe0b404","true","","","","","","","","","","","","","","",""
"external-html","2","5689","0.0-2.0-0.0","FL","9q76krfydn","1920","1080","0","1","0","5f3d9a9f10a5f219cfe0b404","","3343.3400000012625","text/information_english.html","","","","","","","","","","","","",""
"external-html","3","9059","0.0-2.0-1.0","FL","9q76krfydn","1920","1080","0","1","0","5f3d9a9f10a5f219cfe0b404","","3309.385000000475","text/consent_english.html","","","","","","","","","","","","",""
"instructions","4","17721","0.0-3.0","FL","9q76krfydn","1920","1080","0","1","0","5f3d9a9f10a5f219cfe0b404","","NA","","[{""page_index"":0,""viewing_time"":2958.5600000009435},{""page_index"":1,""viewing_time"":5699.570000000676}]","instructions","","","","","","","","","","",""
"resize","5","25321","0.0-4.0","FL","9q76krfydn","1920","1080","0","1","0","5f3d9a9f10a5f219cfe0b404","","","","","","","100","0.634920634920635","","","","","","","",""
"image-keyboard-response","6","25508","0.0-5.0-0.0","FL","9q76krfydn","1920","1080","0","1","0","5f3d9a9f10a5f219cfe0b404","","null","","","","","","","learning/Slide1.JPG","null","","","","","",""
"html-keyboard-response","7","26661","0.0-5.0-1.0","FL","9q76krfydn","1920","1080","0","1","0","5f3d9a9f10a5f219cfe0b404","","null","","","learningBlock1","","","","That was a tob.","null","","","","","",""
"html-keyboard-response","8","27677","0.0-5.0-2.0","FL","9q76krfydn","1920","1080","0","1","0","5f3d9a9f10a5f219cfe0b404","","null","","","learningBlock1","","","","<div style=""font-size:60px;""> </div>","null","FL","learning/Slide1.JPG","That was a tob.","","",""
"image-keyboard-response","9","27866","0.0-5.0-0.1","FL","9q76krfydn","1920","1080","0","1","0","5f3d9a9f10a5f219cfe0b404","","null","","","","","","","learning/Slide2.JPG","null","","","","","",""
"html-keyboard-response","10","29037","0.0-5.0-1.1","FL","9q76krfydn","1920","1080","0","1","0","5f3d9a9f10a5f219cfe0b404","","null","","","learningBlock1","","","","That was a wug.","null","","","","","",""
"html-keyboard-response","11","30052","0.0-5.0-2.1","FL","9q76krfydn","1920","1080","0","1","0","5f3d9a9f10a5f219cfe0b404","","null","","","learningBlock1","","","","<div style=""font-size:60px;""> </div>","null","FL","learning/Slide2.JPG","That was a wug.","","",""
"image-keyboard-response","12","30229","0.0-5.0-0.2","FL","9q76krfydn","1920","1080","0","1","0","5f3d9a9f10a5f219cfe0b404","","null","","","","","","","learning/Slide3.JPG","null","","","","","",""
"html-keyboard-response","13","31396","0.0-5.0-1.2","FL","9q76krfydn","1920","1080","0","1","0","5f3d9a9f10a5f219cfe0b404","","null","","","learningBlock1","","","","That was a bim.","null","","","","","",""
"html-keyboard-response","14","32407","0.0-5.0-2.2","FL","9q76krfydn","1920","1080","0","1","0","5f3d9a9f10a5f219cfe0b404","","null","","","learningBlock1","","","","<div style=""font-size:60px;""> </div>","null","FL","learning/Slide3.JPG","That was a bim.","","",""
"image-keyboard-response","15","32584","0.0-5.0-0.3","FL","9q76krfydn","1920","1080","0","1","0","5f3d9a9f10a5f219cfe0b404","","null","","","","","","","learning/Slide4.JPG","null","","","","","",""
"html-keyboard-response","16","33738","0.0-5.0-1.3","FL","9q76krfydn","1920","1080","0","1","0","5f3d9a9f10a5f219cfe0b404","","null","","","learningBlock1","","","","That was a dep.","null","","","","","",""
"html-keyboard-response","17","34739","0.0-5.0-2.3","FL","9q76krfydn","1920","1080","0","1","0","5f3d9a9f10a5f219cfe0b404","","null","","","learningBlock1","","","","<div style=""font-size:60px;""> </div>","null","FL","learning/Slide4.JPG","That was a dep.","","",""
"image-keyboard-response","18","34916","0.0-5.0-0.4","FL","9q76krfydn","1920","1080","0","1","0","5f3d9a9f10a5f219cfe0b404","","null","","","","","","","learning/Slide5.JPG","null","","","","","",""
"html-keyboard-response","19","36075","0.0-5.0-1.4","FL","9q76krfydn","1920","1080","0","1","0","5f3d9a9f10a5f219cfe0b404","","null","","","learningBlock1","","","","That was a wug.","null","","","","","",""
"html-keyboard-response","20","37083","0.0-5.0-2.4","FL","9q76krfydn","1920","1080","0","1","0","5f3d9a9f10a5f219cfe0b404","","null","","","learningBlock1","","","","<div style=""font-size:60px;""> </div>","null","FL","learning/Slide5.JPG","That was a wug.","","",""
"image-keyboard-response","21","37273","0.0-5.0-0.5","FL","9q76krfydn","1920","1080","0","1","0","5f3d9a9f10a5f219cfe0b404","","null","","","","","","","learning/Slide6.JPG","null","","","","","",""
"html-keyboard-response","22","38436","0.0-5.0-1.5","FL","9q76krfydn","1920","1080","0","1","0","5f3d9a9f10a5f219cfe0b404","","null","","","learningBlock1","","","","That was a dep.","null","","","","","",""
"html-keyboard-response","23","39440","0.0-5.0-2.5","FL","9q76krfydn","1920","1080","0","1","0","5f3d9a9f10a5f219cfe0b404","","null","","","learningBlock1","","","","<div style=""font-size:60px;""> </div>","null","FL","learning/Slide6.JPG","That was a dep.","","",""
"image-keyboard-response","24","39617","0.0-5.0-0.6","FL","9q76krfydn","1920","1080","0","1","0","5f3d9a9f10a5f219cfe0b404","","null","","","","","","","learning/Slide7.JPG","null","","","","","",""
"html-keyboard-response","25","40772","0.0-5.0-1.6","FL","9q76krfydn","1920","1080","0","1","0","5f3d9a9f10a5f219cfe0b404","","null","","","learningBlock1","","","","That was a wug.","null","","","","","",""
"html-keyboard-response","26","41785","0.0-5.0-2.6","FL","9q76krfydn","1920","1080","0","1","0","5f3d9a9f10a5f219cfe0b404","","null","","","learningBlock1","","","","<div style=""font-size:60px;""> </div>","null","FL","learning/Slide7.JPG","That was a wug.","","",""
"image-keyboard-response","27","41976","0.0-5.0-0.7","FL","9q76krfydn","1920","1080","0","1","0","5f3d9a9f10a5f219cfe0b404","","null","","","","","","","learning/Slide8.JPG","null","","","","","",""
"html-keyboard-response","28","43135","0.0-5.0-1.7","FL","9q76krfydn","1920","1080","0","1","0","5f3d9a9f10a5f219cfe0b404","","null","","","learningBlock1","","","","That was a bim.","null","","","","","",""
"html-keyboard-response","29","44144","0.0-5.0-2.7","FL","9q76krfydn","1920","1080","0","1","0","5f3d9a9f10a5f219cfe0b404","","null","","","learningBlock1","","","","<div style=""font-size:60px;""> </div>","null","FL","learning/Slide8.JPG","That was a bim.","","",""
"image-keyboard-response","30","44335","0.0-5.0-0.8","FL","9q76krfydn","1920","1080","0","1","0","5f3d9a9f10a5f219cfe0b404","","null","","","","","","","learning/Slide9.JPG","null","","","","","",""
"html-keyboard-response","31","45505","0.0-5.0-1.8","FL","9q76krfydn","1920","1080","0","1","0","5f3d9a9f10a5f219cfe0b404","","null","","","learningBlock1","","","","That was a wug.","null","","","","","",""
"html-keyboard-response","32","46510","0.0-5.0-2.8","FL","9q76krfydn","1920","1080","0","1","0","5f3d9a9f10a5f219cfe0b404","","null","","","learningBlock1","","","","<div style=""font-size:60px;""> </div>","null","FL","learning/Slide9.JPG","That was a wug.","","",""
"image-keyboard-response","33","46688","0.0-5.0-0.9","FL","9q76krfydn","1920","1080","0","1","0","5f3d9a9f10a5f219cfe0b404","","null","","","","","","","learning/Slide10.JPG","null","","","","","",""
"html-keyboard-response","34","47852","0.0-5.0-1.9","FL","9q76krfydn","1920","1080","0","1","0","5f3d9a9f10a5f219cfe0b404","","null","","","learningBlock1","","","","That was a dep.","null","","","","","",""
"html-keyboard-response","35","48852","0.0-5.0-2.9","FL","9q76krfydn","1920","1080","0","1","0","5f3d9a9f10a5f219cfe0b404","","null","","","learningBlock1","","","","<div style=""font-size:60px;""> </div>","null","FL","learning/Slide10.JPG","That was a dep.","","",""
"image-keyboard-response","36","49029","0.0-5.0-0.10","FL","9q76krfydn","1920","1080","0","1","0","5f3d9a9f10a5f219cfe0b404","","null","","","","","","","learning/Slide11.JPG","null","","","","","",""
"html-keyboard-response","37","50195","0.0-5.0-1.10","FL","9q76krfydn","1920","1080","0","1","0","5f3d9a9f10a5f219cfe0b404","","null","","","learningBlock1","","","","That was a tob.","null","","","","","",""
"html-keyboard-response","38","51209","0.0-5.0-2.10","FL","9q76krfydn","1920","1080","0","1","0","5f3d9a9f10a5f219cfe0b404","","null","","","learningBlock1","","","","<div style=""font-size:60px;""> </div>","null","FL","learning/Slide11.JPG","That was a tob.","","",""
"image-keyboard-response","39","51386","0.0-5.0-0.11","FL","9q76krfydn","1920","1080","0","1","0","5f3d9a9f10a5f219cfe0b404","","null","","","","","","","learning/Slide12.JPG","null","","","","","",""
"html-keyboard-response","40","52551","0.0-5.0-1.11","FL","9q76krfydn","1920","1080","0","1","0","5f3d9a9f10a5f219cfe0b404","","null","","","learningBlock1","","","","That was a dep.","null","","","","","",""
"html-keyboard-response","41","53554","0.0-5.0-2.11","FL","9q76krfydn","1920","1080","0","1","0","5f3d9a9f10a5f219cfe0b404","","null","","","learningBlock1","","","","<div style=""font-size:60px;""> </div>","null","FL","learning/Slide12.JPG","That was a dep.","","",""
"image-keyboard-response","42","53739","0.0-5.0-0.12","FL","9q76krfydn","1920","1080","0","1","0","5f3d9a9f10a5f219cfe0b404","","null","","","","","","","learning/Slide13.JPG","null","","","","","",""
"html-keyboard-response","43","54897","0.0-5.0-1.12","FL","9q76krfydn","1920","1080","0","1","0","5f3d9a9f10a5f219cfe0b404","","null","","","learningBlock1","","","","That was a bim.","null","","","","","",""
"html-keyboard-response","44","55911","0.0-5.0-2.12","FL","9q76krfydn","1920","1080","0","1","0","5f3d9a9f10a5f219cfe0b404","","null","","","learningBlock1","","","","<div style=""font-size:60px;""> </div>","null","FL","learning/Slide13.JPG","That was a bim.","","",""
"image-keyboard-response","45","56100","0.0-5.0-0.13","FL","9q76krfydn","1920","1080","0","1","0","5f3d9a9f10a5f219cfe0b404","","null","","","","","","","learning/Slide14.JPG","null","","","","","",""
"html-keyboard-response","46","57271","0.0-5.0-1.13","FL","9q76krfydn","1920","1080","0","1","0","5f3d9a9f10a5f219cfe0b404","","null","","","learningBlock1","","","","That was a wug.","null","","","","","",""
"html-keyboard-response","47","58287","0.0-5.0-2.13","FL","9q76krfydn","1920","1080","0","1","0","5f3d9a9f10a5f219cfe0b404","","null","","","learningBlock1","","","","<div style=""font-size:60px;""> </div>","null","FL","learning/Slide14.JPG","That was a wug.","","",""
"image-keyboard-response","48","58464","0.0-5.0-0.14","FL","9q76krfydn","1920","1080","0","1","0","5f3d9a9f10a5f219cfe0b404","","null","","","","","","","learning/Slide15.JPG","null","","","","","",""
"html-keyboard-response","49","59616","0.0-5.0-1.14","FL","9q76krfydn","1920","1080","0","1","0","5f3d9a9f10a5f219cfe0b404","","null","","","learningBlock1","","","","That was a tob.","null","","","","","",""
"html-keyboard-response","50","60632","0.0-5.0-2.14","FL","9q76krfydn","1920","1080","0","1","0","5f3d9a9f10a5f219cfe0b404","","null","","","learningBlock1","","","","<div style=""font-size:60px;""> </div>","null","FL","learning/Slide15.JPG","That was a tob.","","",""
"image-keyboard-response","51","60817","0.0-5.0-0.15","FL","9q76krfydn","1920","1080","0","1","0","5f3d9a9f10a5f219cfe0b404","","null","","","","","","","learning/Slide16.JPG","null","","","","","",""
"html-keyboard-response","52","61988","0.0-5.0-1.15","FL","9q76krfydn","1920","1080","0","1","0","5f3d9a9f10a5f219cfe0b404","","null","","","learningBlock1","","","","That was a dep.","null","","","","","",""
"html-keyboard-response","53","62995","0.0-5.0-2.15","FL","9q76krfydn","1920","1080","0","1","0","5f3d9a9f10a5f219cfe0b404","","null","","","learningBlock1","","","","<div style=""font-size:60px;""> </div>","null","FL","learning/Slide16.JPG","That was a dep.","","",""
"image-keyboard-response","54","63172","0.0-5.0-0.16","FL","9q76krfydn","1920","1080","0","1","0","5f3d9a9f10a5f219cfe0b404","","null","","","","","","","learning/Slide17.JPG","null","","","","","",""
"html-keyboard-response","55","64332","0.0-5.0-1.16","FL","9q76krfydn","1920","1080","0","1","0","5f3d9a9f10a5f219cfe0b404","","null","","","learningBlock1","","","","That was a bim.","null","","","","","",""
"html-keyboard-response","56","65346","0.0-5.0-2.16","FL","9q76krfydn","1920","1080","0","1","0","5f3d9a9f10a5f219cfe0b404","","null","","","learningBlock1","","","","<div style=""font-size:60px;""> </div>","null","FL","learning/Slide17.JPG","That was a bim.","","",""
"image-keyboard-response","57","65533","0.0-5.0-0.17","FL","9q76krfydn","1920","1080","0","1","0","5f3d9a9f10a5f219cfe0b404","","null","","","","","","","learning/Slide18.JPG","null","","","","","",""
"html-keyboard-response","58","66693","0.0-5.0-1.17","FL","9q76krfydn","1920","1080","0","1","0","5f3d9a9f10a5f219cfe0b404","","null","","","learningBlock1","","","","That was a tob.","null","","","","","",""
"html-keyboard-response","59","67696","0.0-5.0-2.17","FL","9q76krfydn","1920","1080","0","1","0","5f3d9a9f10a5f219cfe0b404","","null","","","learningBlock1","","","","<div style=""font-size:60px;""> </div>","null","FL","learning/Slide18.JPG","That was a tob.","","",""
"image-keyboard-response","60","67885","0.0-5.0-0.18","FL","9q76krfydn","1920","1080","0","1","0","5f3d9a9f10a5f219cfe0b404","","null","","","","","","","learning/Slide19.JPG","null","","","","","",""
"html-keyboard-response","61","69053","0.0-5.0-1.18","FL","9q76krfydn","1920","1080","0","1","0","5f3d9a9f10a5f219cfe0b404","","null","","","learningBlock1","","","","That was a wug.","null","","","","","",""
"html-keyboard-response","62","70069","0.0-5.0-2.18","FL","9q76krfydn","1920","1080","0","1","0","5f3d9a9f10a5f219cfe0b404","","null","","","learningBlock1","","","","<div style=""font-size:60px;""> </div>","null","FL","learning/Slide19.JPG","That was a wug.","","",""
"image-keyboard-response","63","70258","0.0-5.0-0.19","FL","9q76krfydn","1920","1080","0","1","0","5f3d9a9f10a5f219cfe0b404","","null","","","","","","","learning/Slide20.JPG","null","","","","","",""
"html-keyboard-response","64","71412","0.0-5.0-1.19","FL","9q76krfydn","1920","1080","0","1","0","5f3d9a9f10a5f219cfe0b404","","null","","","learningBlock1","","","","That was a bim.","null","","","","","",""
"html-keyboard-response","65","72428","0.0-5.0-2.19","FL","9q76krfydn","1920","1080","0","1","0","5f3d9a9f10a5f219cfe0b404","","null","","","learningBlock1","","","","<div style=""font-size:60px;""> </div>","null","FL","learning/Slide20.JPG","That was a bim.","","",""
"image-keyboard-response","66","72617","0.0-5.0-0.20","FL","9q76krfydn","1920","1080","0","1","0","5f3d9a9f10a5f219cfe0b404","","null","","","","","","","learning/Slide21.JPG","null","","","","","",""
"html-keyboard-response","67","73775","0.0-5.0-1.20","FL","9q76krfydn","1920","1080","0","1","0","5f3d9a9f10a5f219cfe0b404","","null","","","learningBlock1","","","","That was a dep.","null","","","","","",""
"html-keyboard-response","68","74787","0.0-5.0-2.20","FL","9q76krfydn","1920","1080","0","1","0","5f3d9a9f10a5f219cfe0b404","","null","","","learningBlock1","","","","<div style=""font-size:60px;""> </div>","null","FL","learning/Slide21.JPG","That was a dep.","","",""
"image-keyboard-response","69","74965","0.0-5.0-0.21","FL","9q76krfydn","1920","1080","0","1","0","5f3d9a9f10a5f219cfe0b404","","null","","","","","","","learning/Slide22.JPG","null","","","","","",""
"html-keyboard-response","70","76131","0.0-5.0-1.21","FL","9q76krfydn","1920","1080","0","1","0","5f3d9a9f10a5f219cfe0b404","","null","","","learningBlock1","","","","That was a bim.","null","","","","","",""
"html-keyboard-response","71","77146","0.0-5.0-2.21","FL","9q76krfydn","1920","1080","0","1","0","5f3d9a9f10a5f219cfe0b404","","null","","","learningBlock1","","","","<div style=""font-size:60px;""> </div>","null","FL","learning/Slide22.JPG","That was a bim.","","",""
"image-keyboard-response","72","77335","0.0-5.0-0.22","FL","9q76krfydn","1920","1080","0","1","0","5f3d9a9f10a5f219cfe0b404","","null","","","","","","","learning/Slide23.JPG","null","","","","","",""
"html-keyboard-response","73","78500","0.0-5.0-1.22","FL","9q76krfydn","1920","1080","0","1","0","5f3d9a9f10a5f219cfe0b404","","null","","","learningBlock1","","","","That was a tob.","null","","","","","",""
"html-keyboard-response","74","79507","0.0-5.0-2.22","FL","9q76krfydn","1920","1080","0","1","0","5f3d9a9f10a5f219cfe0b404","","null","","","learningBlock1","","","","<div style=""font-size:60px;""> </div>","null","FL","learning/Slide23.JPG","That was a tob.","","",""
"image-keyboard-response","75","79684","0.0-5.0-0.23","FL","9q76krfydn","1920","1080","0","1","0","5f3d9a9f10a5f219cfe0b404","","null","","","","","","","learning/Slide24.JPG","null","","","","","",""
"html-keyboard-response","76","80852","0.0-5.0-1.23","FL","9q76krfydn","1920","1080","0","1","0","5f3d9a9f10a5f219cfe0b404","","null","","","learningBlock1","","","","That was a wug.","null","","","","","",""
"html-keyboard-response","77","81866","0.0-5.0-2.23","FL","9q76krfydn","1920","1080","0","1","0","5f3d9a9f10a5f219cfe0b404","","null","","","learningBlock1","","","","<div style=""font-size:60px;""> </div>","null","FL","learning/Slide24.JPG","That was a wug.","","",""
"image-keyboard-response","78","82054","0.0-5.0-0.24","FL","9q76krfydn","1920","1080","0","1","0","5f3d9a9f10a5f219cfe0b404","","null","","","","","","","learning/Slide25.JPG","null","","","","","",""
"html-keyboard-response","79","83226","0.0-5.0-1.24","FL","9q76krfydn","1920","1080","0","1","0","5f3d9a9f10a5f219cfe0b404","","null","","","learningBlock1","","","","That was a dep.","null","","","","","",""
"html-keyboard-response","80","84240","0.0-5.0-2.24","FL","9q76krfydn","1920","1080","0","1","0","5f3d9a9f10a5f219cfe0b404","","null","","","learningBlock1","","","","<div style=""font-size:60px;""> </div>","null","FL","learning/Slide25.JPG","That was a dep.","","",""
"image-keyboard-response","81","84416","0.0-5.0-0.25","FL","9q76krfydn","1920","1080","0","1","0","5f3d9a9f10a5f219cfe0b404","","null","","","","","","","learning/Slide26.JPG","null","","","","","",""
"html-keyboard-response","82","85583","0.0-5.0-1.25","FL","9q76krfydn","1920","1080","0","1","0","5f3d9a9f10a5f219cfe0b404","","null","","","learningBlock1","","","","That was a wug.","null","","","","","",""
"html-keyboard-response","83","86597","0.0-5.0-2.25","FL","9q76krfydn","1920","1080","0","1","0","5f3d9a9f10a5f219cfe0b404","","null","","","learningBlock1","","","","<div style=""font-size:60px;""> </div>","null","FL","learning/Slide26.JPG","That was a wug.","","",""
"image-keyboard-response","84","86787","0.0-5.0-0.26","FL","9q76krfydn","1920","1080","0","1","0","5f3d9a9f10a5f219cfe0b404","","null","","","","","","","learning/Slide27.JPG","null","","","","","",""
"html-keyboard-response","85","87944","0.0-5.0-1.26","FL","9q76krfydn","1920","1080","0","1","0","5f3d9a9f10a5f219cfe0b404","","null","","","learningBlock1","","","","That was a bim.","null","","","","","",""
"html-keyboard-response","86","88959","0.0-5.0-2.26","FL","9q76krfydn","1920","1080","0","1","0","5f3d9a9f10a5f219cfe0b404","","null","","","learningBlock1","","","","<div style=""font-size:60px;""> </div>","null","FL","learning/Slide27.JPG","That was a bim.","","",""
"image-keyboard-response","87","89136","0.0-5.0-0.27","FL","9q76krfydn","1920","1080","0","1","0","5f3d9a9f10a5f219cfe0b404","","null","","","","","","","learning/Slide28.JPG","null","","","","","",""
"html-keyboard-response","88","90301","0.0-5.0-1.27","FL","9q76krfydn","1920","1080","0","1","0","5f3d9a9f10a5f219cfe0b404","","null","","","learningBlock1","","","","That was a dep.","null","","","","","",""
"html-keyboard-response","89","91317","0.0-5.0-2.27","FL","9q76krfydn","1920","1080","0","1","0","5f3d9a9f10a5f219cfe0b404","","null","","","learningBlock1","","","","<div style=""font-size:60px;""> </div>","null","FL","learning/Slide28.JPG","That was a dep.","","",""
"image-keyboard-response","90","91494","0.0-5.0-0.28","FL","9q76krfydn","1920","1080","0","1","0","5f3d9a9f10a5f219cfe0b404","","null","","","","","","","learning/Slide29.JPG","null","","","","","",""
"html-keyboard-response","91","92661","0.0-5.0-1.28","FL","9q76krfydn","1920","1080","0","1","0","5f3d9a9f10a5f219cfe0b404","","null","","","learningBlock1","","","","That was a tob.","null","","","","","",""
"html-keyboard-response","92","93678","0.0-5.0-2.28","FL","9q76krfydn","1920","1080","0","1","0","5f3d9a9f10a5f219cfe0b404","","null","","","learningBlock1","","","","<div style=""font-size:60px;""> </div>","null","FL","learning/Slide29.JPG","That was a tob.","","",""
"image-keyboard-response","93","93855","0.0-5.0-0.29","FL","9q76krfydn","1920","1080","0","1","0","5f3d9a9f10a5f219cfe0b404","","null","","","","","","","learning/Slide30.JPG","null","","","","","",""
"html-keyboard-response","94","95009","0.0-5.0-1.29","FL","9q76krfydn","1920","1080","0","1","0","5f3d9a9f10a5f219cfe0b404","","null","","","learningBlock1","","","","That was a dep.","null","","","","","",""
"html-keyboard-response","95","96020","0.0-5.0-2.29","FL","9q76krfydn","1920","1080","0","1","0","5f3d9a9f10a5f219cfe0b404","","null","","","learningBlock1","","","","<div style=""font-size:60px;""> </div>","null","FL","learning/Slide30.JPG","That was a dep.","","",""
"image-keyboard-response","96","96196","0.0-5.0-0.30","FL","9q76krfydn","1920","1080","0","1","0","5f3d9a9f10a5f219cfe0b404","","null","","","","","","","learning/Slide31.JPG","null","","","","","",""
"html-keyboard-response","97","97352","0.0-5.0-1.30","FL","9q76krfydn","1920","1080","0","1","0","5f3d9a9f10a5f219cfe0b404","","null","","","learningBlock1","","","","That was a wug.","null","","","","","",""
"html-keyboard-response","98","98363","0.0-5.0-2.30","FL","9q76krfydn","1920","1080","0","1","0","5f3d9a9f10a5f219cfe0b404","","null","","","learningBlock1","","","","<div style=""font-size:60px;""> </div>","null","FL","learning/Slide31.JPG","That was a wug.","","",""
"image-keyboard-response","99","98552","0.0-5.0-0.31","FL","9q76krfydn","1920","1080","0","1","0","5f3d9a9f10a5f219cfe0b404","","null","","","","","","","learning/Slide32.JPG","null","","","","","",""
"html-keyboard-response","100","99710","0.0-5.0-1.31","FL","9q76krfydn","1920","1080","0","1","0","5f3d9a9f10a5f219cfe0b404","","null","","","learningBlock1","","","","That was a tob.","null","","","","","",""
"html-keyboard-response","101","100724","0.0-5.0-2.31","FL","9q76krfydn","1920","1080","0","1","0","5f3d9a9f10a5f219cfe0b404","","null","","","learningBlock1","","","","<div style=""font-size:60px;""> </div>","null","FL","learning/Slide32.JPG","That was a tob.","","",""
"image-keyboard-response","102","100913","0.0-5.0-0.32","FL","9q76krfydn","1920","1080","0","1","0","5f3d9a9f10a5f219cfe0b404","","null","","","","","","","learning/Slide33.JPG","null","","","","","",""
"html-keyboard-response","103","102067","0.0-5.0-1.32","FL","9q76krfydn","1920","1080","0","1","0","5f3d9a9f10a5f219cfe0b404","","null","","","learningBlock1","","","","That was a bim.","null","","","","","",""
"html-keyboard-response","104","103070","0.0-5.0-2.32","FL","9q76krfydn","1920","1080","0","1","0","5f3d9a9f10a5f219cfe0b404","","null","","","learningBlock1","","","","<div style=""font-size:60px;""> </div>","null","FL","learning/Slide33.JPG","That was a bim.","","",""
"image-keyboard-response","105","103246","0.0-5.0-0.33","FL","9q76krfydn","1920","1080","0","1","0","5f3d9a9f10a5f219cfe0b404","","null","","","","","","","learning/Slide34.JPG","null","","","","","",""
"html-keyboard-response","106","104410","0.0-5.0-1.33","FL","9q76krfydn","1920","1080","0","1","0","5f3d9a9f10a5f219cfe0b404","","null","","","learningBlock1","","","","That was a tob.","null","","","","","",""
"html-keyboard-response","107","105424","0.0-5.0-2.33","FL","9q76krfydn","1920","1080","0","1","0","5f3d9a9f10a5f219cfe0b404","","null","","","learningBlock1","","","","<div style=""font-size:60px;""> </div>","null","FL","learning/Slide34.JPG","That was a tob.","","",""
"image-keyboard-response","108","105601","0.0-5.0-0.34","FL","9q76krfydn","1920","1080","0","1","0","5f3d9a9f10a5f219cfe0b404","","null","","","","","","","learning/Slide35.JPG","null","","","","","",""
"html-keyboard-response","109","106755","0.0-5.0-1.34","FL","9q76krfydn","1920","1080","0","1","0","5f3d9a9f10a5f219cfe0b404","","null","","","learningBlock1","","","","That was a bim.","null","","","","","",""
"html-keyboard-response","110","107770","0.0-5.0-2.34","FL","9q76krfydn","1920","1080","0","1","0","5f3d9a9f10a5f219cfe0b404","","null","","","learningBlock1","","","","<div style=""font-size:60px;""> </div>","null","FL","learning/Slide35.JPG","That was a bim.","","",""
"image-keyboard-response","111","107960","0.0-5.0-0.35","FL","9q76krfydn","1920","1080","0","1","0","5f3d9a9f10a5f219cfe0b404","","null","","","","","","","learning/Slide36.JPG","null","","","","","",""
"html-keyboard-response","112","109130","0.0-5.0-1.35","FL","9q76krfydn","1920","1080","0","1","0","5f3d9a9f10a5f219cfe0b404","","null","","","learningBlock1","","","","That was a dep.","null","","","","","",""
"html-keyboard-response","113","110146","0.0-5.0-2.35","FL","9q76krfydn","1920","1080","0","1","0","5f3d9a9f10a5f219cfe0b404","","null","","","learningBlock1","","","","<div style=""font-size:60px;""> </div>","null","FL","learning/Slide36.JPG","That was a dep.","","",""
"image-keyboard-response","114","110333","0.0-5.0-0.36","FL","9q76krfydn","1920","1080","0","1","0","5f3d9a9f10a5f219cfe0b404","","null","","","","","","","learning/Slide37.JPG","null","","","","","",""
"html-keyboard-response","115","111487","0.0-5.0-1.36","FL","9q76krfydn","1920","1080","0","1","0","5f3d9a9f10a5f219cfe0b404","","null","","","learningBlock1","","","","That was a tob.","null","","","","","",""
"html-keyboard-response","116","112499","0.0-5.0-2.36","FL","9q76krfydn","1920","1080","0","1","0","5f3d9a9f10a5f219cfe0b404","","null","","","learningBlock1","","","","<div style=""font-size:60px;""> </div>","null","FL","learning/Slide37.JPG","That was a tob.","","",""
"image-keyboard-response","117","112687","0.0-5.0-0.37","FL","9q76krfydn","1920","1080","0","1","0","5f3d9a9f10a5f219cfe0b404","","null","","","","","","","learning/Slide38.JPG","null","","","","","",""
"html-keyboard-response","118","113850","0.0-5.0-1.37","FL","9q76krfydn","1920","1080","0","1","0","5f3d9a9f10a5f219cfe0b404","","null","","","learningBlock1","","","","That was a wug.","null","","","","","",""
"html-keyboard-response","119","114853","0.0-5.0-2.37","FL","9q76krfydn","1920","1080","0","1","0","5f3d9a9f10a5f219cfe0b404","","null","","","learningBlock1","","","","<div style=""font-size:60px;""> </div>","null","FL","learning/Slide38.JPG","That was a wug.","","",""
"image-keyboard-response","120","115030","0.0-5.0-0.38","FL","9q76krfydn","1920","1080","0","1","0","5f3d9a9f10a5f219cfe0b404","","null","","","","","","","learning/Slide39.JPG","null","","","","","",""
"html-keyboard-response","121","116194","0.0-5.0-1.38","FL","9q76krfydn","1920","1080","0","1","0","5f3d9a9f10a5f219cfe0b404","","null","","","learningBlock1","","","","That was a bim.","null","","","","","",""
"html-keyboard-response","122","117209","0.0-5.0-2.38","FL","9q76krfydn","1920","1080","0","1","0","5f3d9a9f10a5f219cfe0b404","","null","","","learningBlock1","","","","<div style=""font-size:60px;""> </div>","null","FL","learning/Slide39.JPG","That was a bim.","","",""
"image-keyboard-response","123","117397","0.0-5.0-0.39","FL","9q76krfydn","1920","1080","0","1","0","5f3d9a9f10a5f219cfe0b404","","null","","","","","","","learning/Slide40.JPG","null","","","","","",""
"html-keyboard-response","124","118556","0.0-5.0-1.39","FL","9q76krfydn","1920","1080","0","1","0","5f3d9a9f10a5f219cfe0b404","","null","","","learningBlock1","","","","That was a tob.","null","","","","","",""
"html-keyboard-response","125","119570","0.0-5.0-2.39","FL","9q76krfydn","1920","1080","0","1","0","5f3d9a9f10a5f219cfe0b404","","null","","","learningBlock1","","","","<div style=""font-size:60px;""> </div>","null","FL","learning/Slide40.JPG","That was a tob.","","",""
"image-keyboard-response","126","119747","0.0-5.0-0.40","FL","9q76krfydn","1920","1080","0","1","0","5f3d9a9f10a5f219cfe0b404","","null","","","","","","","learning/Slide41.JPG","null","","","","","",""
"html-keyboard-response","127","120911","0.0-5.0-1.40","FL","9q76krfydn","1920","1080","0","1","0","5f3d9a9f10a5f219cfe0b404","","null","","","learningBlock1","","","","That was a bim.","null","","","","","",""
"html-keyboard-response","128","121927","0.0-5.0-2.40","FL","9q76krfydn","1920","1080","0","1","0","5f3d9a9f10a5f219cfe0b404","","null","","","learningBlock1","","","","<div style=""font-size:60px;""> </div>","null","FL","learning/Slide41.JPG","That was a bim.","","",""
"image-keyboard-response","129","122114","0.0-5.0-0.41","FL","9q76krfydn","1920","1080","0","1","0","5f3d9a9f10a5f219cfe0b404","","null","","","","","","","learning/Slide42.JPG","null","","","","","",""
"html-keyboard-response","130","123273","0.0-5.0-1.41","FL","9q76krfydn","1920","1080","0","1","0","5f3d9a9f10a5f219cfe0b404","","null","","","learningBlock1","","","","That was a dep.","null","","","","","",""
"html-keyboard-response","131","124275","0.0-5.0-2.41","FL","9q76krfydn","1920","1080","0","1","0","5f3d9a9f10a5f219cfe0b404","","null","","","learningBlock1","","","","<div style=""font-size:60px;""> </div>","null","FL","learning/Slide42.JPG","That was a dep.","","",""
"image-keyboard-response","132","124452","0.0-5.0-0.42","FL","9q76krfydn","1920","1080","0","1","0","5f3d9a9f10a5f219cfe0b404","","null","","","","","","","learning/Slide43.JPG","null","","","","","",""
"html-keyboard-response","133","125612","0.0-5.0-1.42","FL","9q76krfydn","1920","1080","0","1","0","5f3d9a9f10a5f219cfe0b404","","null","","","learningBlock1","","","","That was a wug.","null","","","","","",""
"html-keyboard-response","134","126613","0.0-5.0-2.42","FL","9q76krfydn","1920","1080","0","1","0","5f3d9a9f10a5f219cfe0b404","","null","","","learningBlock1","","","","<div style=""font-size:60px;""> </div>","null","FL","learning/Slide43.JPG","That was a wug.","","",""
"image-keyboard-response","135","126801","0.0-5.0-0.43","FL","9q76krfydn","1920","1080","0","1","0","5f3d9a9f10a5f219cfe0b404","","null","","","","","","","learning/Slide44.JPG","null","","","","","",""
"html-keyboard-response","136","127961","0.0-5.0-1.43","FL","9q76krfydn","1920","1080","0","1","0","5f3d9a9f10a5f219cfe0b404","","null","","","learningBlock1","","","","That was a bim.","null","","","","","",""
"html-keyboard-response","137","128973","0.0-5.0-2.43","FL","9q76krfydn","1920","1080","0","1","0","5f3d9a9f10a5f219cfe0b404","","null","","","learningBlock1","","","","<div style=""font-size:60px;""> </div>","null","FL","learning/Slide44.JPG","That was a bim.","","",""
"image-keyboard-response","138","129150","0.0-5.0-0.44","FL","9q76krfydn","1920","1080","0","1","0","5f3d9a9f10a5f219cfe0b404","","null","","","","","","","learning/Slide45.JPG","null","","","","","",""
"html-keyboard-response","139","130330","0.0-5.0-1.44","FL","9q76krfydn","1920","1080","0","1","0","5f3d9a9f10a5f219cfe0b404","","null","","","learningBlock1","","","","That was a wug.","null","","","","","",""
"html-keyboard-response","140","131344","0.0-5.0-2.44","FL","9q76krfydn","1920","1080","0","1","0","5f3d9a9f10a5f219cfe0b404","","null","","","learningBlock1","","","","<div style=""font-size:60px;""> </div>","null","FL","learning/Slide45.JPG","That was a wug.","","",""
"image-keyboard-response","141","131521","0.0-5.0-0.45","FL","9q76krfydn","1920","1080","0","1","0","5f3d9a9f10a5f219cfe0b404","","null","","","","","","","learning/Slide46.JPG","null","","","","","",""
"html-keyboard-response","142","132679","0.0-5.0-1.45","FL","9q76krfydn","1920","1080","0","1","0","5f3d9a9f10a5f219cfe0b404","","null","","","learningBlock1","","","","That was a dep.","null","","","","","",""
"html-keyboard-response","143","133694","0.0-5.0-2.45","FL","9q76krfydn","1920","1080","0","1","0","5f3d9a9f10a5f219cfe0b404","","null","","","learningBlock1","","","","<div style=""font-size:60px;""> </div>","null","FL","learning/Slide46.JPG","That was a dep.","","",""
"image-keyboard-response","144","133871","0.0-5.0-0.46","FL","9q76krfydn","1920","1080","0","1","0","5f3d9a9f10a5f219cfe0b404","","null","","","","","","","learning/Slide47.JPG","null","","","","","",""
"html-keyboard-response","145","135037","0.0-5.0-1.46","FL","9q76krfydn","1920","1080","0","1","0","5f3d9a9f10a5f219cfe0b404","","null","","","learningBlock1","","","","That was a tob.","null","","","","","",""
"html-keyboard-response","146","136053","0.0-5.0-2.46","FL","9q76krfydn","1920","1080","0","1","0","5f3d9a9f10a5f219cfe0b404","","null","","","learningBlock1","","","","<div style=""font-size:60px;""> </div>","null","FL","learning/Slide47.JPG","That was a tob.","","",""
"image-keyboard-response","147","136241","0.0-5.0-0.47","FL","9q76krfydn","1920","1080","0","1","0","5f3d9a9f10a5f219cfe0b404","","null","","","","","","","learning/Slide48.JPG","null","","","","","",""
"html-keyboard-response","148","137397","0.0-5.0-1.47","FL","9q76krfydn","1920","1080","0","1","0","5f3d9a9f10a5f219cfe0b404","","null","","","learningBlock1","","","","That was a bim.","null","","","","","",""
"html-keyboard-response","149","138412","0.0-5.0-2.47","FL","9q76krfydn","1920","1080","0","1","0","5f3d9a9f10a5f219cfe0b404","","null","","","learningBlock1","","","","<div style=""font-size:60px;""> </div>","null","FL","learning/Slide48.JPG","That was a bim.","","",""
"image-keyboard-response","150","138589","0.0-5.0-0.48","FL","9q76krfydn","1920","1080","0","1","0","5f3d9a9f10a5f219cfe0b404","","null","","","","","","","learning/Slide49.JPG","null","","","","","",""
"html-keyboard-response","151","139751","0.0-5.0-1.48","FL","9q76krfydn","1920","1080","0","1","0","5f3d9a9f10a5f219cfe0b404","","null","","","learningBlock1","","","","That was a dep.","null","","","","","",""
"html-keyboard-response","152","140758","0.0-5.0-2.48","FL","9q76krfydn","1920","1080","0","1","0","5f3d9a9f10a5f219cfe0b404","","null","","","learningBlock1","","","","<div style=""font-size:60px;""> </div>","null","FL","learning/Slide49.JPG","That was a dep.","","",""
"image-keyboard-response","153","140934","0.0-5.0-0.49","FL","9q76krfydn","1920","1080","0","1","0","5f3d9a9f10a5f219cfe0b404","","null","","","","","","","learning/Slide50.JPG","null","","","","","",""
"html-keyboard-response","154","142102","0.0-5.0-1.49","FL","9q76krfydn","1920","1080","0","1","0","5f3d9a9f10a5f219cfe0b404","","null","","","learningBlock1","","","","That was a tob.","null","","","","","",""
"html-keyboard-response","155","143112","0.0-5.0-2.49","FL","9q76krfydn","1920","1080","0","1","0","5f3d9a9f10a5f219cfe0b404","","null","","","learningBlock1","","","","<div style=""font-size:60px;""> </div>","null","FL","learning/Slide50.JPG","That was a tob.","","",""
"image-keyboard-response","156","143289","0.0-5.0-0.50","FL","9q76krfydn","1920","1080","0","1","0","5f3d9a9f10a5f219cfe0b404","","null","","","","","","","learning/Slide51.JPG","null","","","","","",""
"html-keyboard-response","157","144457","0.0-5.0-1.50","FL","9q76krfydn","1920","1080","0","1","0","5f3d9a9f10a5f219cfe0b404","","null","","","learningBlock1","","","","That was a bim.","null","","","","","",""
"html-keyboard-response","158","145460","0.0-5.0-2.50","FL","9q76krfydn","1920","1080","0","1","0","5f3d9a9f10a5f219cfe0b404","","null","","","learningBlock1","","","","<div style=""font-size:60px;""> </div>","null","FL","learning/Slide51.JPG","That was a bim.","","",""
"image-keyboard-response","159","145637","0.0-5.0-0.51","FL","9q76krfydn","1920","1080","0","1","0","5f3d9a9f10a5f219cfe0b404","","null","","","","","","","learning/Slide52.JPG","null","","","","","",""
"html-keyboard-response","160","146804","0.0-5.0-1.51","FL","9q76krfydn","1920","1080","0","1","0","5f3d9a9f10a5f219cfe0b404","","null","","","learningBlock1","","","","That was a wug.","null","","","","","",""
"html-keyboard-response","161","147820","0.0-5.0-2.51","FL","9q76krfydn","1920","1080","0","1","0","5f3d9a9f10a5f219cfe0b404","","null","","","learningBlock1","","","","<div style=""font-size:60px;""> </div>","null","FL","learning/Slide52.JPG","That was a wug.","","",""
"image-keyboard-response","162","147997","0.0-5.0-0.52","FL","9q76krfydn","1920","1080","0","1","0","5f3d9a9f10a5f219cfe0b404","","null","","","","","","","learning/Slide53.JPG","null","","","","","",""
"html-keyboard-response","163","149165","0.0-5.0-1.52","FL","9q76krfydn","1920","1080","0","1","0","5f3d9a9f10a5f219cfe0b404","","null","","","learningBlock1","","","","That was a tob.","null","","","","","",""
"html-keyboard-response","164","150182","0.0-5.0-2.52","FL","9q76krfydn","1920","1080","0","1","0","5f3d9a9f10a5f219cfe0b404","","null","","","learningBlock1","","","","<div style=""font-size:60px;""> </div>","null","FL","learning/Slide53.JPG","That was a tob.","","",""
"image-keyboard-response","165","150366","0.0-5.0-0.53","FL","9q76krfydn","1920","1080","0","1","0","5f3d9a9f10a5f219cfe0b404","","null","","","","","","","learning/Slide54.JPG","null","","","","","",""
"html-keyboard-response","166","151524","0.0-5.0-1.53","FL","9q76krfydn","1920","1080","0","1","0","5f3d9a9f10a5f219cfe0b404","","null","","","learningBlock1","","","","That was a dep.","null","","","","","",""
"html-keyboard-response","167","152529","0.0-5.0-2.53","FL","9q76krfydn","1920","1080","0","1","0","5f3d9a9f10a5f219cfe0b404","","null","","","learningBlock1","","","","<div style=""font-size:60px;""> </div>","null","FL","learning/Slide54.JPG","That was a dep.","","",""
"image-keyboard-response","168","152720","0.0-5.0-0.54","FL","9q76krfydn","1920","1080","0","1","0","5f3d9a9f10a5f219cfe0b404","","null","","","","","","","learning/Slide55.JPG","null","","","","","",""
"html-keyboard-response","169","153882","0.0-5.0-1.54","FL","9q76krfydn","1920","1080","0","1","0","5f3d9a9f10a5f219cfe0b404","","null","","","learningBlock1","","","","That was a bim.","null","","","","","",""
"html-keyboard-response","170","154896","0.0-5.0-2.54","FL","9q76krfydn","1920","1080","0","1","0","5f3d9a9f10a5f219cfe0b404","","null","","","learningBlock1","","","","<div style=""font-size:60px;""> </div>","null","FL","learning/Slide55.JPG","That was a bim.","","",""
"image-keyboard-response","171","155073","0.0-5.0-0.55","FL","9q76krfydn","1920","1080","0","1","0","5f3d9a9f10a5f219cfe0b404","","null","","","","","","","learning/Slide56.JPG","null","","","","","",""
"html-keyboard-response","172","156227","0.0-5.0-1.55","FL","9q76krfydn","1920","1080","0","1","0","5f3d9a9f10a5f219cfe0b404","","null","","","learningBlock1","","","","That was a tob.","null","","","","","",""
"html-keyboard-response","173","157241","0.0-5.0-2.55","FL","9q76krfydn","1920","1080","0","1","0","5f3d9a9f10a5f219cfe0b404","","null","","","learningBlock1","","","","<div style=""font-size:60px;""> </div>","null","FL","learning/Slide56.JPG","That was a tob.","","",""
"image-keyboard-response","174","157417","0.0-5.0-0.56","FL","9q76krfydn","1920","1080","0","1","0","5f3d9a9f10a5f219cfe0b404","","null","","","","","","","learning/Slide57.JPG","null","","","","","",""
"html-keyboard-response","175","158571","0.0-5.0-1.56","FL","9q76krfydn","1920","1080","0","1","0","5f3d9a9f10a5f219cfe0b404","","null","","","learningBlock1","","","","That was a dep.","null","","","","","",""
"html-keyboard-response","176","159584","0.0-5.0-2.56","FL","9q76krfydn","1920","1080","0","1","0","5f3d9a9f10a5f219cfe0b404","","null","","","learningBlock1","","","","<div style=""font-size:60px;""> </div>","null","FL","learning/Slide57.JPG","That was a dep.","","",""
"image-keyboard-response","177","159760","0.0-5.0-0.57","FL","9q76krfydn","1920","1080","0","1","0","5f3d9a9f10a5f219cfe0b404","","null","","","","","","","learning/Slide58.JPG","null","","","","","",""
"html-keyboard-response","178","160912","0.0-5.0-1.57","FL","9q76krfydn","1920","1080","0","1","0","5f3d9a9f10a5f219cfe0b404","","null","","","learningBlock1","","","","That was a wug.","null","","","","","",""
"html-keyboard-response","179","161914","0.0-5.0-2.57","FL","9q76krfydn","1920","1080","0","1","0","5f3d9a9f10a5f219cfe0b404","","null","","","learningBlock1","","","","<div style=""font-size:60px;""> </div>","null","FL","learning/Slide58.JPG","That was a wug.","","",""
"image-keyboard-response","180","162100","0.0-5.0-0.58","FL","9q76krfydn","1920","1080","0","1","0","5f3d9a9f10a5f219cfe0b404","","null","","","","","","","learning/Slide59.JPG","null","","","","","",""
"html-keyboard-response","181","163272","0.0-5.0-1.58","FL","9q76krfydn","1920","1080","0","1","0","5f3d9a9f10a5f219cfe0b404","","null","","","learningBlock1","","","","That was a dep.","null","","","","","",""
"html-keyboard-response","182","164286","0.0-5.0-2.58","FL","9q76krfydn","1920","1080","0","1","0","5f3d9a9f10a5f219cfe0b404","","null","","","learningBlock1","","","","<div style=""font-size:60px;""> </div>","null","FL","learning/Slide59.JPG","That was a dep.","","",""
"image-keyboard-response","183","164463","0.0-5.0-0.59","FL","9q76krfydn","1920","1080","0","1","0","5f3d9a9f10a5f219cfe0b404","","null","","","","","","","learning/Slide60.JPG","null","","","","","",""
"html-keyboard-response","184","165628","0.0-5.0-1.59","FL","9q76krfydn","1920","1080","0","1","0","5f3d9a9f10a5f219cfe0b404","","null","","","learningBlock1","","","","That was a wug.","null","","","","","",""
"html-keyboard-response","185","166632","0.0-5.0-2.59","FL","9q76krfydn","1920","1080","0","1","0","5f3d9a9f10a5f219cfe0b404","","null","","","learningBlock1","","","","<div style=""font-size:60px;""> </div>","null","FL","learning/Slide60.JPG","That was a wug.","","",""
"image-keyboard-response","186","166821","0.0-5.0-0.60","FL","9q76krfydn","1920","1080","0","1","0","5f3d9a9f10a5f219cfe0b404","","null","","","","","","","learning/Slide61.JPG","null","","","","","",""
"html-keyboard-response","187","167976","0.0-5.0-1.60","FL","9q76krfydn","1920","1080","0","1","0","5f3d9a9f10a5f219cfe0b404","","null","","","learningBlock1","","","","That was a bim.","null","","","","","",""
"html-keyboard-response","188","168991","0.0-5.0-2.60","FL","9q76krfydn","1920","1080","0","1","0","5f3d9a9f10a5f219cfe0b404","","null","","","learningBlock1","","","","<div style=""font-size:60px;""> </div>","null","FL","learning/Slide61.JPG","That was a bim.","","",""
"image-keyboard-response","189","169168","0.0-5.0-0.61","FL","9q76krfydn","1920","1080","0","1","0","5f3d9a9f10a5f219cfe0b404","","null","","","","","","","learning/Slide62.JPG","null","","","","","",""
"html-keyboard-response","190","170333","0.0-5.0-1.61","FL","9q76krfydn","1920","1080","0","1","0","5f3d9a9f10a5f219cfe0b404","","null","","","learningBlock1","","","","That was a dep.","null","","","","","",""
"html-keyboard-response","191","171348","0.0-5.0-2.61","FL","9q76krfydn","1920","1080","0","1","0","5f3d9a9f10a5f219cfe0b404","","null","","","learningBlock1","","","","<div style=""font-size:60px;""> </div>","null","FL","learning/Slide62.JPG","That was a dep.","","",""
"image-keyboard-response","192","171537","0.0-5.0-0.62","FL","9q76krfydn","1920","1080","0","1","0","5f3d9a9f10a5f219cfe0b404","","null","","","","","","","learning/Slide63.JPG","null","","","","","",""
"html-keyboard-response","193","172689","0.0-5.0-1.62","FL","9q76krfydn","1920","1080","0","1","0","5f3d9a9f10a5f219cfe0b404","","null","","","learningBlock1","","","","That was a bim.","null","","","","","",""
"html-keyboard-response","194","173694","0.0-5.0-2.62","FL","9q76krfydn","1920","1080","0","1","0","5f3d9a9f10a5f219cfe0b404","","null","","","learningBlock1","","","","<div style=""font-size:60px;""> </div>","null","FL","learning/Slide63.JPG","That was a bim.","","",""
"image-keyboard-response","195","173871","0.0-5.0-0.63","FL","9q76krfydn","1920","1080","0","1","0","5f3d9a9f10a5f219cfe0b404","","null","","","","","","","learning/Slide64.JPG","null","","","","","",""
"html-keyboard-response","196","175037","0.0-5.0-1.63","FL","9q76krfydn","1920","1080","0","1","0","5f3d9a9f10a5f219cfe0b404","","null","","","learningBlock1","","","","That was a tob.","null","","","","","",""
"html-keyboard-response","197","176052","0.0-5.0-2.63","FL","9q76krfydn","1920","1080","0","1","0","5f3d9a9f10a5f219cfe0b404","","null","","","learningBlock1","","","","<div style=""font-size:60px;""> </div>","null","FL","learning/Slide64.JPG","That was a tob.","","",""
"image-keyboard-response","198","176239","0.0-5.0-0.64","FL","9q76krfydn","1920","1080","0","1","0","5f3d9a9f10a5f219cfe0b404","","null","","","","","","","learning/Slide65.JPG","null","","","","","",""
"html-keyboard-response","199","177403","0.0-5.0-1.64","FL","9q76krfydn","1920","1080","0","1","0","5f3d9a9f10a5f219cfe0b404","","null","","","learningBlock1","","","","That was a wug.","null","","","","","",""
"html-keyboard-response","200","178406","0.0-5.0-2.64","FL","9q76krfydn","1920","1080","0","1","0","5f3d9a9f10a5f219cfe0b404","","null","","","learningBlock1","","","","<div style=""font-size:60px;""> </div>","null","FL","learning/Slide65.JPG","That was a wug.","","",""
"image-keyboard-response","201","178582","0.0-5.0-0.65","FL","9q76krfydn","1920","1080","0","1","0","5f3d9a9f10a5f219cfe0b404","","null","","","","","","","learning/Slide66.JPG","null","","","","","",""
"html-keyboard-response","202","179741","0.0-5.0-1.65","FL","9q76krfydn","1920","1080","0","1","0","5f3d9a9f10a5f219cfe0b404","","null","","","learningBlock1","","","","That was a dep.","null","","","","","",""
"html-keyboard-response","203","180743","0.0-5.0-2.65","FL","9q76krfydn","1920","1080","0","1","0","5f3d9a9f10a5f219cfe0b404","","null","","","learningBlock1","","","","<div style=""font-size:60px;""> </div>","null","FL","learning/Slide66.JPG","That was a dep.","","",""
"image-keyboard-response","204","180919","0.0-5.0-0.66","FL","9q76krfydn","1920","1080","0","1","0","5f3d9a9f10a5f219cfe0b404","","null","","","","","","","learning/Slide67.JPG","null","","","","","",""
"html-keyboard-response","205","182092","0.0-5.0-1.66","FL","9q76krfydn","1920","1080","0","1","0","5f3d9a9f10a5f219cfe0b404","","null","","","learningBlock1","","","","That was a tob.","null","","","","","",""
"html-keyboard-response","206","183102","0.0-5.0-2.66","FL","9q76krfydn","1920","1080","0","1","0","5f3d9a9f10a5f219cfe0b404","","null","","","learningBlock1","","","","<div style=""font-size:60px;""> </div>","null","FL","learning/Slide67.JPG","That was a tob.","","",""
"image-keyboard-response","207","183278","0.0-5.0-0.67","FL","9q76krfydn","1920","1080","0","1","0","5f3d9a9f10a5f219cfe0b404","","null","","","","","","","learning/Slide68.JPG","null","","","","","",""
"html-keyboard-response","208","184447","0.0-5.0-1.67","FL","9q76krfydn","1920","1080","0","1","0","5f3d9a9f10a5f219cfe0b404","","null","","","learningBlock1","","","","That was a wug.","null","","","","","",""
"html-keyboard-response","209","185457","0.0-5.0-2.67","FL","9q76krfydn","1920","1080","0","1","0","5f3d9a9f10a5f219cfe0b404","","null","","","learningBlock1","","","","<div style=""font-size:60px;""> </div>","null","FL","learning/Slide68.JPG","That was a wug.","","",""
"image-keyboard-response","210","185634","0.0-5.0-0.68","FL","9q76krfydn","1920","1080","0","1","0","5f3d9a9f10a5f219cfe0b404","","null","","","","","","","learning/Slide69.JPG","null","","","","","",""
"html-keyboard-response","211","186791","0.0-5.0-1.68","FL","9q76krfydn","1920","1080","0","1","0","5f3d9a9f10a5f219cfe0b404","","null","","","learningBlock1","","","","That was a tob.","null","","","","","",""
"html-keyboard-response","212","187805","0.0-5.0-2.68","FL","9q76krfydn","1920","1080","0","1","0","5f3d9a9f10a5f219cfe0b404","","null","","","learningBlock1","","","","<div style=""font-size:60px;""> </div>","null","FL","learning/Slide69.JPG","That was a tob.","","",""
"image-keyboard-response","213","187981","0.0-5.0-0.69","FL","9q76krfydn","1920","1080","0","1","0","5f3d9a9f10a5f219cfe0b404","","null","","","","","","","learning/Slide70.JPG","null","","","","","",""
"html-keyboard-response","214","189147","0.0-5.0-1.69","FL","9q76krfydn","1920","1080","0","1","0","5f3d9a9f10a5f219cfe0b404","","null","","","learningBlock1","","","","That was a dep.","null","","","","","",""
"html-keyboard-response","215","190162","0.0-5.0-2.69","FL","9q76krfydn","1920","1080","0","1","0","5f3d9a9f10a5f219cfe0b404","","null","","","learningBlock1","","","","<div style=""font-size:60px;""> </div>","null","FL","learning/Slide70.JPG","That was a dep.","","",""
"image-keyboard-response","216","190353","0.0-5.0-0.70","FL","9q76krfydn","1920","1080","0","1","0","5f3d9a9f10a5f219cfe0b404","","null","","","","","","","learning/Slide71.JPG","null","","","","","",""
"html-keyboard-response","217","191505","0.0-5.0-1.70","FL","9q76krfydn","1920","1080","0","1","0","5f3d9a9f10a5f219cfe0b404","","null","","","learningBlock1","","","","That was a wug.","null","","","","","",""
"html-keyboard-response","218","192511","0.0-5.0-2.70","FL","9q76krfydn","1920","1080","0","1","0","5f3d9a9f10a5f219cfe0b404","","null","","","learningBlock1","","","","<div style=""font-size:60px;""> </div>","null","FL","learning/Slide71.JPG","That was a wug.","","",""
"image-keyboard-response","219","192701","0.0-5.0-0.71","FL","9q76krfydn","1920","1080","0","1","0","5f3d9a9f10a5f219cfe0b404","","null","","","","","","","learning/Slide72.JPG","null","","","","","",""
"html-keyboard-response","220","193866","0.0-5.0-1.71","FL","9q76krfydn","1920","1080","0","1","0","5f3d9a9f10a5f219cfe0b404","","null","","","learningBlock1","","","","That was a bim.","null","","","","","",""
"html-keyboard-response","221","194869","0.0-5.0-2.71","FL","9q76krfydn","1920","1080","0","1","0","5f3d9a9f10a5f219cfe0b404","","null","","","learningBlock1","","","","<div style=""font-size:60px;""> </div>","null","FL","learning/Slide72.JPG","That was a bim.","","",""
"image-keyboard-response","222","195045","0.0-5.0-0.72","FL","9q76krfydn","1920","1080","0","1","0","5f3d9a9f10a5f219cfe0b404","","null","","","","","","","learning/Slide73.JPG","null","","","","","",""
"html-keyboard-response","223","196209","0.0-5.0-1.72","FL","9q76krfydn","1920","1080","0","1","0","5f3d9a9f10a5f219cfe0b404","","null","","","learningBlock1","","","","That was a wug.","null","","","","","",""
"html-keyboard-response","224","197211","0.0-5.0-2.72","FL","9q76krfydn","1920","1080","0","1","0","5f3d9a9f10a5f219cfe0b404","","null","","","learningBlock1","","","","<div style=""font-size:60px;""> </div>","null","FL","learning/Slide73.JPG","That was a wug.","","",""
"image-keyboard-response","225","197400","0.0-5.0-0.73","FL","9q76krfydn","1920","1080","0","1","0","5f3d9a9f10a5f219cfe0b404","","null","","","","","","","learning/Slide74.JPG","null","","","","","",""
"html-keyboard-response","226","198570","0.0-5.0-1.73","FL","9q76krfydn","1920","1080","0","1","0","5f3d9a9f10a5f219cfe0b404","","null","","","learningBlock1","","","","That was a dep.","null","","","","","",""
"html-keyboard-response","227","199571","0.0-5.0-2.73","FL","9q76krfydn","1920","1080","0","1","0","5f3d9a9f10a5f219cfe0b404","","null","","","learningBlock1","","","","<div style=""font-size:60px;""> </div>","null","FL","learning/Slide74.JPG","That was a dep.","","",""
"image-keyboard-response","228","199747","0.0-5.0-0.74","FL","9q76krfydn","1920","1080","0","1","0","5f3d9a9f10a5f219cfe0b404","","null","","","","","","","learning/Slide75.JPG","null","","","","","",""
"html-keyboard-response","229","200912","0.0-5.0-1.74","FL","9q76krfydn","1920","1080","0","1","0","5f3d9a9f10a5f219cfe0b404","","null","","","learningBlock1","","","","That was a tob.","null","","","","","",""
"html-keyboard-response","230","201913","0.0-5.0-2.74","FL","9q76krfydn","1920","1080","0","1","0","5f3d9a9f10a5f219cfe0b404","","null","","","learningBlock1","","","","<div style=""font-size:60px;""> </div>","null","FL","learning/Slide75.JPG","That was a tob.","","",""
"image-keyboard-response","231","202099","0.0-5.0-0.75","FL","9q76krfydn","1920","1080","0","1","0","5f3d9a9f10a5f219cfe0b404","","null","","","","","","","learning/Slide76.JPG","null","","","","","",""
"html-keyboard-response","232","203271","0.0-5.0-1.75","FL","9q76krfydn","1920","1080","0","1","0","5f3d9a9f10a5f219cfe0b404","","null","","","learningBlock1","","","","That was a bim.","null","","","","","",""
"html-keyboard-response","233","204277","0.0-5.0-2.75","FL","9q76krfydn","1920","1080","0","1","0","5f3d9a9f10a5f219cfe0b404","","null","","","learningBlock1","","","","<div style=""font-size:60px;""> </div>","null","FL","learning/Slide76.JPG","That was a bim.","","",""
"image-keyboard-response","234","204461","0.0-5.0-0.76","FL","9q76krfydn","1920","1080","0","1","0","5f3d9a9f10a5f219cfe0b404","","null","","","","","","","learning/Slide77.JPG","null","","","","","",""
"html-keyboard-response","235","205615","0.0-5.0-1.76","FL","9q76krfydn","1920","1080","0","1","0","5f3d9a9f10a5f219cfe0b404","","null","","","learningBlock1","","","","That was a tob.","null","","","","","",""
"html-keyboard-response","236","206631","0.0-5.0-2.76","FL","9q76krfydn","1920","1080","0","1","0","5f3d9a9f10a5f219cfe0b404","","null","","","learningBlock1","","","","<div style=""font-size:60px;""> </div>","null","FL","learning/Slide77.JPG","That was a tob.","","",""
"image-keyboard-response","237","206821","0.0-5.0-0.77","FL","9q76krfydn","1920","1080","0","1","0","5f3d9a9f10a5f219cfe0b404","","null","","","","","","","learning/Slide78.JPG","null","","","","","",""
"html-keyboard-response","238","207974","0.0-5.0-1.77","FL","9q76krfydn","1920","1080","0","1","0","5f3d9a9f10a5f219cfe0b404","","null","","","learningBlock1","","","","That was a wug.","null","","","","","",""
"html-keyboard-response","239","208977","0.0-5.0-2.77","FL","9q76krfydn","1920","1080","0","1","0","5f3d9a9f10a5f219cfe0b404","","null","","","learningBlock1","","","","<div style=""font-size:60px;""> </div>","null","FL","learning/Slide78.JPG","That was a wug.","","",""
"image-keyboard-response","240","209164","0.0-5.0-0.78","FL","9q76krfydn","1920","1080","0","1","0","5f3d9a9f10a5f219cfe0b404","","null","","","","","","","learning/Slide79.JPG","null","","","","","",""
"html-keyboard-response","241","210319","0.0-5.0-1.78","FL","9q76krfydn","1920","1080","0","1","0","5f3d9a9f10a5f219cfe0b404","","null","","","learningBlock1","","","","That was a bim.","null","","","","","",""
"html-keyboard-response","242","211334","0.0-5.0-2.78","FL","9q76krfydn","1920","1080","0","1","0","5f3d9a9f10a5f219cfe0b404","","null","","","learningBlock1","","","","<div style=""font-size:60px;""> </div>","null","FL","learning/Slide79.JPG","That was a bim.","","",""
"image-keyboard-response","243","211511","0.0-5.0-0.79","FL","9q76krfydn","1920","1080","0","1","0","5f3d9a9f10a5f219cfe0b404","","null","","","","","","","learning/Slide80.JPG","null","","","","","",""
"html-keyboard-response","244","212678","0.0-5.0-1.79","FL","9q76krfydn","1920","1080","0","1","0","5f3d9a9f10a5f219cfe0b404","","null","","","learningBlock1","","","","That was a tob.","null","","","","","",""
"html-keyboard-response","245","213694","0.0-5.0-2.79","FL","9q76krfydn","1920","1080","0","1","0","5f3d9a9f10a5f219cfe0b404","","null","","","learningBlock1","","","","<div style=""font-size:60px;""> </div>","null","FL","learning/Slide80.JPG","That was a tob.","","",""
"instructions","246","221849","0.0-6.0","FL","9q76krfydn","1920","1080","0","1","0","5f3d9a9f10a5f219cfe0b404","","NA","","[{""page_index"":0,""viewing_time"":8154.625000001019}]","instructions","","","","","","","","","","",""
"image-keyboard-response","247","222026","0.0-7.0-0.0","FL","9q76krfydn","1920","1080","0","1","0","5f3d9a9f10a5f219cfe0b404","","null","","","","","","","learning/Slide81.JPG","null","","","","","",""
"html-keyboard-response","248","223193","0.0-7.0-1.0","FL","9q76krfydn","1920","1080","0","1","0","5f3d9a9f10a5f219cfe0b404","","null","","","learningBlock2","","","","That was a wug.","null","","","","","",""
"html-keyboard-response","249","224208","0.0-7.0-2.0","FL","9q76krfydn","1920","1080","0","1","0","5f3d9a9f10a5f219cfe0b404","","null","","","learningBlock2","","","","<div style=""font-size:60px;""> </div>","null","FL","learning/Slide81.JPG","That was a wug.","","",""
"image-keyboard-response","250","224385","0.0-7.0-0.1","FL","9q76krfydn","1920","1080","0","1","0","5f3d9a9f10a5f219cfe0b404","","null","","","","","","","learning/Slide82.JPG","null","","","","","",""
"html-keyboard-response","251","225553","0.0-7.0-1.1","FL","9q76krfydn","1920","1080","0","1","0","5f3d9a9f10a5f219cfe0b404","","null","","","learningBlock2","","","","That was a bim.","null","","","","","",""
"html-keyboard-response","252","226569","0.0-7.0-2.1","FL","9q76krfydn","1920","1080","0","1","0","5f3d9a9f10a5f219cfe0b404","","null","","","learningBlock2","","","","<div style=""font-size:60px;""> </div>","null","FL","learning/Slide82.JPG","That was a bim.","","",""
"image-keyboard-response","253","226745","0.0-7.0-0.2","FL","9q76krfydn","1920","1080","0","1","0","5f3d9a9f10a5f219cfe0b404","","null","","","","","","","learning/Slide83.JPG","null","","","","","",""
"html-keyboard-response","254","227911","0.0-7.0-1.2","FL","9q76krfydn","1920","1080","0","1","0","5f3d9a9f10a5f219cfe0b404","","null","","","learningBlock2","","","","That was a wug.","null","","","","","",""
"html-keyboard-response","255","228913","0.0-7.0-2.2","FL","9q76krfydn","1920","1080","0","1","0","5f3d9a9f10a5f219cfe0b404","","null","","","learningBlock2","","","","<div style=""font-size:60px;""> </div>","null","FL","learning/Slide83.JPG","That was a wug.","","",""
"image-keyboard-response","256","229103","0.0-7.0-0.3","FL","9q76krfydn","1920","1080","0","1","0","5f3d9a9f10a5f219cfe0b404","","null","","","","","","","learning/Slide84.JPG","null","","","","","",""
"html-keyboard-response","257","230271","0.0-7.0-1.3","FL","9q76krfydn","1920","1080","0","1","0","5f3d9a9f10a5f219cfe0b404","","null","","","learningBlock2","","","","That was a dep.","null","","","","","",""
"html-keyboard-response","258","231285","0.0-7.0-2.3","FL","9q76krfydn","1920","1080","0","1","0","5f3d9a9f10a5f219cfe0b404","","null","","","learningBlock2","","","","<div style=""font-size:60px;""> </div>","null","FL","learning/Slide84.JPG","That was a dep.","","",""
"image-keyboard-response","259","231462","0.0-7.0-0.4","FL","9q76krfydn","1920","1080","0","1","0","5f3d9a9f10a5f219cfe0b404","","null","","","","","","","learning/Slide85.JPG","null","","","","","",""
"html-keyboard-response","260","232629","0.0-7.0-1.4","FL","9q76krfydn","1920","1080","0","1","0","5f3d9a9f10a5f219cfe0b404","","null","","","learningBlock2","","","","That was a bim.","null","","","","","",""
"html-keyboard-response","261","233642","0.0-7.0-2.4","FL","9q76krfydn","1920","1080","0","1","0","5f3d9a9f10a5f219cfe0b404","","null","","","learningBlock2","","","","<div style=""font-size:60px;""> </div>","null","FL","learning/Slide85.JPG","That was a bim.","","",""
"image-keyboard-response","262","233819","0.0-7.0-0.5","FL","9q76krfydn","1920","1080","0","1","0","5f3d9a9f10a5f219cfe0b404","","null","","","","","","","learning/Slide86.JPG","null","","","","","",""
"html-keyboard-response","263","234976","0.0-7.0-1.5","FL","9q76krfydn","1920","1080","0","1","0","5f3d9a9f10a5f219cfe0b404","","null","","","learningBlock2","","","","That was a tob.","null","","","","","",""
"html-keyboard-response","264","235992","0.0-7.0-2.5","FL","9q76krfydn","1920","1080","0","1","0","5f3d9a9f10a5f219cfe0b404","","null","","","learningBlock2","","","","<div style=""font-size:60px;""> </div>","null","FL","learning/Slide86.JPG","That was a tob.","","",""
"image-keyboard-response","265","236168","0.0-7.0-0.6","FL","9q76krfydn","1920","1080","0","1","0","5f3d9a9f10a5f219cfe0b404","","null","","","","","","","learning/Slide87.JPG","null","","","","","",""
"html-keyboard-response","266","237335","0.0-7.0-1.6","FL","9q76krfydn","1920","1080","0","1","0","5f3d9a9f10a5f219cfe0b404","","null","","","learningBlock2","","","","That was a wug.","null","","","","","",""
"html-keyboard-response","267","238338","0.0-7.0-2.6","FL","9q76krfydn","1920","1080","0","1","0","5f3d9a9f10a5f219cfe0b404","","null","","","learningBlock2","","","","<div style=""font-size:60px;""> </div>","null","FL","learning/Slide87.JPG","That was a wug.","","",""
"image-keyboard-response","268","238515","0.0-7.0-0.7","FL","9q76krfydn","1920","1080","0","1","0","5f3d9a9f10a5f219cfe0b404","","null","","","","","","","learning/Slide88.JPG","null","","","","","",""
"html-keyboard-response","269","239680","0.0-7.0-1.7","FL","9q76krfydn","1920","1080","0","1","0","5f3d9a9f10a5f219cfe0b404","","null","","","learningBlock2","","","","That was a tob.","null","","","","","",""
"html-keyboard-response","270","240694","0.0-7.0-2.7","FL","9q76krfydn","1920","1080","0","1","0","5f3d9a9f10a5f219cfe0b404","","null","","","learningBlock2","","","","<div style=""font-size:60px;""> </div>","null","FL","learning/Slide88.JPG","That was a tob.","","",""
"image-keyboard-response","271","240871","0.0-7.0-0.8","FL","9q76krfydn","1920","1080","0","1","0","5f3d9a9f10a5f219cfe0b404","","null","","","","","","","learning/Slide89.JPG","null","","","","","",""
"html-keyboard-response","272","242037","0.0-7.0-1.8","FL","9q76krfydn","1920","1080","0","1","0","5f3d9a9f10a5f219cfe0b404","","null","","","learningBlock2","","","","That was a bim.","null","","","","","",""
"html-keyboard-response","273","243053","0.0-7.0-2.8","FL","9q76krfydn","1920","1080","0","1","0","5f3d9a9f10a5f219cfe0b404","","null","","","learningBlock2","","","","<div style=""font-size:60px;""> </div>","null","FL","learning/Slide89.JPG","That was a bim.","","",""
"image-keyboard-response","274","243231","0.0-7.0-0.9","FL","9q76krfydn","1920","1080","0","1","0","5f3d9a9f10a5f219cfe0b404","","null","","","","","","","learning/Slide90.JPG","null","","","","","",""
"html-keyboard-response","275","244396","0.0-7.0-1.9","FL","9q76krfydn","1920","1080","0","1","0","5f3d9a9f10a5f219cfe0b404","","null","","","learningBlock2","","","","That was a dep.","null","","","","","",""
"html-keyboard-response","276","245411","0.0-7.0-2.9","FL","9q76krfydn","1920","1080","0","1","0","5f3d9a9f10a5f219cfe0b404","","null","","","learningBlock2","","","","<div style=""font-size:60px;""> </div>","null","FL","learning/Slide90.JPG","That was a dep.","","",""
"image-keyboard-response","277","245599","0.0-7.0-0.10","FL","9q76krfydn","1920","1080","0","1","0","5f3d9a9f10a5f219cfe0b404","","null","","","","","","","learning/Slide91.JPG","null","","","","","",""
"html-keyboard-response","278","246761","0.0-7.0-1.10","FL","9q76krfydn","1920","1080","0","1","0","5f3d9a9f10a5f219cfe0b404","","null","","","learningBlock2","","","","That was a wug.","null","","","","","",""
"html-keyboard-response","279","247773","0.0-7.0-2.10","FL","9q76krfydn","1920","1080","0","1","0","5f3d9a9f10a5f219cfe0b404","","null","","","learningBlock2","","","","<div style=""font-size:60px;""> </div>","null","FL","learning/Slide91.JPG","That was a wug.","","",""
"image-keyboard-response","280","247961","0.0-7.0-0.11","FL","9q76krfydn","1920","1080","0","1","0","5f3d9a9f10a5f219cfe0b404","","null","","","","","","","learning/Slide92.JPG","null","","","","","",""
"html-keyboard-response","281","249128","0.0-7.0-1.11","FL","9q76krfydn","1920","1080","0","1","0","5f3d9a9f10a5f219cfe0b404","","null","","","learningBlock2","","","","That was a tob.","null","","","","","",""
"html-keyboard-response","282","250132","0.0-7.0-2.11","FL","9q76krfydn","1920","1080","0","1","0","5f3d9a9f10a5f219cfe0b404","","null","","","learningBlock2","","","","<div style=""font-size:60px;""> </div>","null","FL","learning/Slide92.JPG","That was a tob.","","",""
"image-keyboard-response","283","250309","0.0-7.0-0.12","FL","9q76krfydn","1920","1080","0","1","0","5f3d9a9f10a5f219cfe0b404","","null","","","","","","","learning/Slide93.JPG","null","","","","","",""
"html-keyboard-response","284","251464","0.0-7.0-1.12","FL","9q76krfydn","1920","1080","0","1","0","5f3d9a9f10a5f219cfe0b404","","null","","","learningBlock2","","","","That was a bim.","null","","","","","",""
"html-keyboard-response","285","252473","0.0-7.0-2.12","FL","9q76krfydn","1920","1080","0","1","0","5f3d9a9f10a5f219cfe0b404","","null","","","learningBlock2","","","","<div style=""font-size:60px;""> </div>","null","FL","learning/Slide93.JPG","That was a bim.","","",""
"image-keyboard-response","286","252650","0.0-7.0-0.13","FL","9q76krfydn","1920","1080","0","1","0","5f3d9a9f10a5f219cfe0b404","","null","","","","","","","learning/Slide94.JPG","null","","","","","",""
"html-keyboard-response","287","253803","0.0-7.0-1.13","FL","9q76krfydn","1920","1080","0","1","0","5f3d9a9f10a5f219cfe0b404","","null","","","learningBlock2","","","","That was a tob.","null","","","","","",""
"html-keyboard-response","288","254805","0.0-7.0-2.13","FL","9q76krfydn","1920","1080","0","1","0","5f3d9a9f10a5f219cfe0b404","","null","","","learningBlock2","","","","<div style=""font-size:60px;""> </div>","null","FL","learning/Slide94.JPG","That was a tob.","","",""
"image-keyboard-response","289","254982","0.0-7.0-0.14","FL","9q76krfydn","1920","1080","0","1","0","5f3d9a9f10a5f219cfe0b404","","null","","","","","","","learning/Slide95.JPG","null","","","","","",""
"html-keyboard-response","290","256161","0.0-7.0-1.14","FL","9q76krfydn","1920","1080","0","1","0","5f3d9a9f10a5f219cfe0b404","","null","","","learningBlock2","","","","That was a wug.","null","","","","","",""
"html-keyboard-response","291","257165","0.0-7.0-2.14","FL","9q76krfydn","1920","1080","0","1","0","5f3d9a9f10a5f219cfe0b404","","null","","","learningBlock2","","","","<div style=""font-size:60px;""> </div>","null","FL","learning/Slide95.JPG","That was a wug.","","",""
"image-keyboard-response","292","257342","0.0-7.0-0.15","FL","9q76krfydn","1920","1080","0","1","0","5f3d9a9f10a5f219cfe0b404","","null","","","","","","","learning/Slide96.JPG","null","","","","","",""
"html-keyboard-response","293","258512","0.0-7.0-1.15","FL","9q76krfydn","1920","1080","0","1","0","5f3d9a9f10a5f219cfe0b404","","null","","","learningBlock2","","","","That was a tob.","null","","","","","",""
"html-keyboard-response","294","259520","0.0-7.0-2.15","FL","9q76krfydn","1920","1080","0","1","0","5f3d9a9f10a5f219cfe0b404","","null","","","learningBlock2","","","","<div style=""font-size:60px;""> </div>","null","FL","learning/Slide96.JPG","That was a tob.","","",""
"image-keyboard-response","295","259697","0.0-7.0-0.16","FL","9q76krfydn","1920","1080","0","1","0","5f3d9a9f10a5f219cfe0b404","","null","","","","","","","learning/Slide97.JPG","null","","","","","",""
"html-keyboard-response","296","260865","0.0-7.0-1.16","FL","9q76krfydn","1920","1080","0","1","0","5f3d9a9f10a5f219cfe0b404","","null","","","learningBlock2","","","","That was a dep.","null","","","","","",""
"html-keyboard-response","297","261880","0.0-7.0-2.16","FL","9q76krfydn","1920","1080","0","1","0","5f3d9a9f10a5f219cfe0b404","","null","","","learningBlock2","","","","<div style=""font-size:60px;""> </div>","null","FL","learning/Slide97.JPG","That was a dep.","","",""
"image-keyboard-response","298","262068","0.0-7.0-0.17","FL","9q76krfydn","1920","1080","0","1","0","5f3d9a9f10a5f219cfe0b404","","null","","","","","","","learning/Slide98.JPG","null","","","","","",""
"html-keyboard-response","299","263231","0.0-7.0-1.17","FL","9q76krfydn","1920","1080","0","1","0","5f3d9a9f10a5f219cfe0b404","","null","","","learningBlock2","","","","That was a bim.","null","","","","","",""
"html-keyboard-response","300","264241","0.0-7.0-2.17","FL","9q76krfydn","1920","1080","0","1","0","5f3d9a9f10a5f219cfe0b404","","null","","","learningBlock2","","","","<div style=""font-size:60px;""> </div>","null","FL","learning/Slide98.JPG","That was a bim.","","",""
"image-keyboard-response","301","264417","0.0-7.0-0.18","FL","9q76krfydn","1920","1080","0","1","0","5f3d9a9f10a5f219cfe0b404","","null","","","","","","","learning/Slide99.JPG","null","","","","","",""
"html-keyboard-response","302","265587","0.0-7.0-1.18","FL","9q76krfydn","1920","1080","0","1","0","5f3d9a9f10a5f219cfe0b404","","null","","","learningBlock2","","","","That was a dep.","null","","","","","",""
"html-keyboard-response","303","266598","0.0-7.0-2.18","FL","9q76krfydn","1920","1080","0","1","0","5f3d9a9f10a5f219cfe0b404","","null","","","learningBlock2","","","","<div style=""font-size:60px;""> </div>","null","FL","learning/Slide99.JPG","That was a dep.","","",""
"image-keyboard-response","304","266785","0.0-7.0-0.19","FL","9q76krfydn","1920","1080","0","1","0","5f3d9a9f10a5f219cfe0b404","","null","","","","","","","learning/Slide100.JPG","null","","","","","",""
"html-keyboard-response","305","267951","0.0-7.0-1.19","FL","9q76krfydn","1920","1080","0","1","0","5f3d9a9f10a5f219cfe0b404","","null","","","learningBlock2","","","","That was a bim.","null","","","","","",""
"html-keyboard-response","306","268961","0.0-7.0-2.19","FL","9q76krfydn","1920","1080","0","1","0","5f3d9a9f10a5f219cfe0b404","","null","","","learningBlock2","","","","<div style=""font-size:60px;""> </div>","null","FL","learning/Slide100.JPG","That was a bim.","","",""
"image-keyboard-response","307","269149","0.0-7.0-0.20","FL","9q76krfydn","1920","1080","0","1","0","5f3d9a9f10a5f219cfe0b404","","null","","","","","","","learning/Slide101.JPG","null","","","","","",""
"html-keyboard-response","308","270321","0.0-7.0-1.20","FL","9q76krfydn","1920","1080","0","1","0","5f3d9a9f10a5f219cfe0b404","","null","","","learningBlock2","","","","That was a tob.","null","","","","","",""
"html-keyboard-response","309","271323","0.0-7.0-2.20","FL","9q76krfydn","1920","1080","0","1","0","5f3d9a9f10a5f219cfe0b404","","null","","","learningBlock2","","","","<div style=""font-size:60px;""> </div>","null","FL","learning/Slide101.JPG","That was a tob.","","",""
"image-keyboard-response","310","271499","0.0-7.0-0.21","FL","9q76krfydn","1920","1080","0","1","0","5f3d9a9f10a5f219cfe0b404","","null","","","","","","","learning/Slide102.JPG","null","","","","","",""
"html-keyboard-response","311","272666","0.0-7.0-1.21","FL","9q76krfydn","1920","1080","0","1","0","5f3d9a9f10a5f219cfe0b404","","null","","","learningBlock2","","","","That was a bim.","null","","","","","",""
"html-keyboard-response","312","273670","0.0-7.0-2.21","FL","9q76krfydn","1920","1080","0","1","0","5f3d9a9f10a5f219cfe0b404","","null","","","learningBlock2","","","","<div style=""font-size:60px;""> </div>","null","FL","learning/Slide102.JPG","That was a bim.","","",""
"image-keyboard-response","313","273857","0.0-7.0-0.22","FL","9q76krfydn","1920","1080","0","1","0","5f3d9a9f10a5f219cfe0b404","","null","","","","","","","learning/Slide103.JPG","null","","","","","",""
"html-keyboard-response","314","275022","0.0-7.0-1.22","FL","9q76krfydn","1920","1080","0","1","0","5f3d9a9f10a5f219cfe0b404","","null","","","learningBlock2","","","","That was a dep.","null","","","","","",""
"html-keyboard-response","315","276037","0.0-7.0-2.22","FL","9q76krfydn","1920","1080","0","1","0","5f3d9a9f10a5f219cfe0b404","","null","","","learningBlock2","","","","<div style=""font-size:60px;""> </div>","null","FL","learning/Slide103.JPG","That was a dep.","","",""
"image-keyboard-response","316","276214","0.0-7.0-0.23","FL","9q76krfydn","1920","1080","0","1","0","5f3d9a9f10a5f219cfe0b404","","null","","","","","","","learning/Slide104.JPG","null","","","","","",""
"html-keyboard-response","317","277381","0.0-7.0-1.23","FL","9q76krfydn","1920","1080","0","1","0","5f3d9a9f10a5f219cfe0b404","","null","","","learningBlock2","","","","That was a tob.","null","","","","","",""
"html-keyboard-response","318","278384","0.0-7.0-2.23","FL","9q76krfydn","1920","1080","0","1","0","5f3d9a9f10a5f219cfe0b404","","null","","","learningBlock2","","","","<div style=""font-size:60px;""> </div>","null","FL","learning/Slide104.JPG","That was a tob.","","",""
"image-keyboard-response","319","278561","0.0-7.0-0.24","FL","9q76krfydn","1920","1080","0","1","0","5f3d9a9f10a5f219cfe0b404","","null","","","","","","","learning/Slide105.JPG","null","","","","","",""
"html-keyboard-response","320","279727","0.0-7.0-1.24","FL","9q76krfydn","1920","1080","0","1","0","5f3d9a9f10a5f219cfe0b404","","null","","","learningBlock2","","","","That was a dep.","null","","","","","",""
"html-keyboard-response","321","280737","0.0-7.0-2.24","FL","9q76krfydn","1920","1080","0","1","0","5f3d9a9f10a5f219cfe0b404","","null","","","learningBlock2","","","","<div style=""font-size:60px;""> </div>","null","FL","learning/Slide105.JPG","That was a dep.","","",""
"image-keyboard-response","322","280913","0.0-7.0-0.25","FL","9q76krfydn","1920","1080","0","1","0","5f3d9a9f10a5f219cfe0b404","","null","","","","","","","learning/Slide106.JPG","null","","","","","",""
"html-keyboard-response","323","282081","0.0-7.0-1.25","FL","9q76krfydn","1920","1080","0","1","0","5f3d9a9f10a5f219cfe0b404","","null","","","learningBlock2","","","","That was a wug.","null","","","","","",""
"html-keyboard-response","324","283082","0.0-7.0-2.25","FL","9q76krfydn","1920","1080","0","1","0","5f3d9a9f10a5f219cfe0b404","","null","","","learningBlock2","","","","<div style=""font-size:60px;""> </div>","null","FL","learning/Slide106.JPG","That was a wug.","","",""
"image-keyboard-response","325","283259","0.0-7.0-0.26","FL","9q76krfydn","1920","1080","0","1","0","5f3d9a9f10a5f219cfe0b404","","null","","","","","","","learning/Slide107.JPG","null","","","","","",""
"html-keyboard-response","326","284416","0.0-7.0-1.26","FL","9q76krfydn","1920","1080","0","1","0","5f3d9a9f10a5f219cfe0b404","","null","","","learningBlock2","","","","That was a bim.","null","","","","","",""
"html-keyboard-response","327","285431","0.0-7.0-2.26","FL","9q76krfydn","1920","1080","0","1","0","5f3d9a9f10a5f219cfe0b404","","null","","","learningBlock2","","","","<div style=""font-size:60px;""> </div>","null","FL","learning/Slide107.JPG","That was a bim.","","",""
"image-keyboard-response","328","285621","0.0-7.0-0.27","FL","9q76krfydn","1920","1080","0","1","0","5f3d9a9f10a5f219cfe0b404","","null","","","","","","","learning/Slide108.JPG","null","","","","","",""
"html-keyboard-response","329","286776","0.0-7.0-1.27","FL","9q76krfydn","1920","1080","0","1","0","5f3d9a9f10a5f219cfe0b404","","null","","","learningBlock2","","","","That was a dep.","null","","","","","",""
"html-keyboard-response","330","287783","0.0-7.0-2.27","FL","9q76krfydn","1920","1080","0","1","0","5f3d9a9f10a5f219cfe0b404","","null","","","learningBlock2","","","","<div style=""font-size:60px;""> </div>","null","FL","learning/Slide108.JPG","That was a dep.","","",""
"image-keyboard-response","331","287974","0.0-7.0-0.28","FL","9q76krfydn","1920","1080","0","1","0","5f3d9a9f10a5f219cfe0b404","","null","","","","","","","learning/Slide109.JPG","null","","","","","",""
"html-keyboard-response","332","289146","0.0-7.0-1.28","FL","9q76krfydn","1920","1080","0","1","0","5f3d9a9f10a5f219cfe0b404","","null","","","learningBlock2","","","","That was a wug.","null","","","","","",""
"html-keyboard-response","333","290161","0.0-7.0-2.28","FL","9q76krfydn","1920","1080","0","1","0","5f3d9a9f10a5f219cfe0b404","","null","","","learningBlock2","","","","<div style=""font-size:60px;""> </div>","null","FL","learning/Slide109.JPG","That was a wug.","","",""
"image-keyboard-response","334","290349","0.0-7.0-0.29","FL","9q76krfydn","1920","1080","0","1","0","5f3d9a9f10a5f219cfe0b404","","null","","","","","","","learning/Slide110.JPG","null","","","","","",""
"html-keyboard-response","335","291521","0.0-7.0-1.29","FL","9q76krfydn","1920","1080","0","1","0","5f3d9a9f10a5f219cfe0b404","","null","","","learningBlock2","","","","That was a bim.","null","","","","","",""
"html-keyboard-response","336","292536","0.0-7.0-2.29","FL","9q76krfydn","1920","1080","0","1","0","5f3d9a9f10a5f219cfe0b404","","null","","","learningBlock2","","","","<div style=""font-size:60px;""> </div>","null","FL","learning/Slide110.JPG","That was a bim.","","",""
"image-keyboard-response","337","292726","0.0-7.0-0.30","FL","9q76krfydn","1920","1080","0","1","0","5f3d9a9f10a5f219cfe0b404","","null","","","","","","","learning/Slide111.JPG","null","","","","","",""
"html-keyboard-response","338","293892","0.0-7.0-1.30","FL","9q76krfydn","1920","1080","0","1","0","5f3d9a9f10a5f219cfe0b404","","null","","","learningBlock2","","","","That was a tob.","null","","","","","",""
"html-keyboard-response","339","294906","0.0-7.0-2.30","FL","9q76krfydn","1920","1080","0","1","0","5f3d9a9f10a5f219cfe0b404","","null","","","learningBlock2","","","","<div style=""font-size:60px;""> </div>","null","FL","learning/Slide111.JPG","That was a tob.","","",""
"image-keyboard-response","340","295082","0.0-7.0-0.31","FL","9q76krfydn","1920","1080","0","1","0","5f3d9a9f10a5f219cfe0b404","","null","","","","","","","learning/Slide112.JPG","null","","","","","",""
"html-keyboard-response","341","296243","0.0-7.0-1.31","FL","9q76krfydn","1920","1080","0","1","0","5f3d9a9f10a5f219cfe0b404","","null","","","learningBlock2","","","","That was a wug.","null","","","","","",""
"html-keyboard-response","342","297253","0.0-7.0-2.31","FL","9q76krfydn","1920","1080","0","1","0","5f3d9a9f10a5f219cfe0b404","","null","","","learningBlock2","","","","<div style=""font-size:60px;""> </div>","null","FL","learning/Slide112.JPG","That was a wug.","","",""
"image-keyboard-response","343","297429","0.0-7.0-0.32","FL","9q76krfydn","1920","1080","0","1","0","5f3d9a9f10a5f219cfe0b404","","null","","","","","","","learning/Slide113.JPG","null","","","","","",""
"html-keyboard-response","344","298590","0.0-7.0-1.32","FL","9q76krfydn","1920","1080","0","1","0","5f3d9a9f10a5f219cfe0b404","","null","","","learningBlock2","","","","That was a tob.","null","","","","","",""
"html-keyboard-response","345","299603","0.0-7.0-2.32","FL","9q76krfydn","1920","1080","0","1","0","5f3d9a9f10a5f219cfe0b404","","null","","","learningBlock2","","","","<div style=""font-size:60px;""> </div>","null","FL","learning/Slide113.JPG","That was a tob.","","",""
"image-keyboard-response","346","299780","0.0-7.0-0.33","FL","9q76krfydn","1920","1080","0","1","0","5f3d9a9f10a5f219cfe0b404","","null","","","","","","","learning/Slide114.JPG","null","","","","","",""
"html-keyboard-response","347","300942","0.0-7.0-1.33","FL","9q76krfydn","1920","1080","0","1","0","5f3d9a9f10a5f219cfe0b404","","null","","","learningBlock2","","","","That was a wug.","null","","","","","",""
"html-keyboard-response","348","301955","0.0-7.0-2.33","FL","9q76krfydn","1920","1080","0","1","0","5f3d9a9f10a5f219cfe0b404","","null","","","learningBlock2","","","","<div style=""font-size:60px;""> </div>","null","FL","learning/Slide114.JPG","That was a wug.","","",""
"image-keyboard-response","349","302145","0.0-7.0-0.34","FL","9q76krfydn","1920","1080","0","1","0","5f3d9a9f10a5f219cfe0b404","","null","","","","","","","learning/Slide115.JPG","null","","","","","",""
"html-keyboard-response","350","303309","0.0-7.0-1.34","FL","9q76krfydn","1920","1080","0","1","0","5f3d9a9f10a5f219cfe0b404","","null","","","learningBlock2","","","","That was a bim.","null","","","","","",""
"html-keyboard-response","351","304322","0.0-7.0-2.34","FL","9q76krfydn","1920","1080","0","1","0","5f3d9a9f10a5f219cfe0b404","","null","","","learningBlock2","","","","<div style=""font-size:60px;""> </div>","null","FL","learning/Slide115.JPG","That was a bim.","","",""
"image-keyboard-response","352","304498","0.0-7.0-0.35","FL","9q76krfydn","1920","1080","0","1","0","5f3d9a9f10a5f219cfe0b404","","null","","","","","","","learning/Slide116.JPG","null","","","","","",""
"html-keyboard-response","353","305660","0.0-7.0-1.35","FL","9q76krfydn","1920","1080","0","1","0","5f3d9a9f10a5f219cfe0b404","","null","","","learningBlock2","","","","That was a dep.","null","","","","","",""
"html-keyboard-response","354","306662","0.0-7.0-2.35","FL","9q76krfydn","1920","1080","0","1","0","5f3d9a9f10a5f219cfe0b404","","null","","","learningBlock2","","","","<div style=""font-size:60px;""> </div>","null","FL","learning/Slide116.JPG","That was a dep.","","",""
"image-keyboard-response","355","306851","0.0-7.0-0.36","FL","9q76krfydn","1920","1080","0","1","0","5f3d9a9f10a5f219cfe0b404","","null","","","","","","","learning/Slide117.JPG","null","","","","","",""
"html-keyboard-response","356","308011","0.0-7.0-1.36","FL","9q76krfydn","1920","1080","0","1","0","5f3d9a9f10a5f219cfe0b404","","null","","","learningBlock2","","","","That was a tob.","null","","","","","",""
"html-keyboard-response","357","309025","0.0-7.0-2.36","FL","9q76krfydn","1920","1080","0","1","0","5f3d9a9f10a5f219cfe0b404","","null","","","learningBlock2","","","","<div style=""font-size:60px;""> </div>","null","FL","learning/Slide117.JPG","That was a tob.","","",""
"image-keyboard-response","358","309201","0.0-7.0-0.37","FL","9q76krfydn","1920","1080","0","1","0","5f3d9a9f10a5f219cfe0b404","","null","","","","","","","learning/Slide118.JPG","null","","","","","",""
"html-keyboard-response","359","310360","0.0-7.0-1.37","FL","9q76krfydn","1920","1080","0","1","0","5f3d9a9f10a5f219cfe0b404","","null","","","learningBlock2","","","","That was a dep.","null","","","","","",""
"html-keyboard-response","360","311366","0.0-7.0-2.37","FL","9q76krfydn","1920","1080","0","1","0","5f3d9a9f10a5f219cfe0b404","","null","","","learningBlock2","","","","<div style=""font-size:60px;""> </div>","null","FL","learning/Slide118.JPG","That was a dep.","","",""
"image-keyboard-response","361","311543","0.0-7.0-0.38","FL","9q76krfydn","1920","1080","0","1","0","5f3d9a9f10a5f219cfe0b404","","null","","","","","","","learning/Slide119.JPG","null","","","","","",""
"html-keyboard-response","362","312695","0.0-7.0-1.38","FL","9q76krfydn","1920","1080","0","1","0","5f3d9a9f10a5f219cfe0b404","","null","","","learningBlock2","","","","That was a wug.","null","","","","","",""
"html-keyboard-response","363","313705","0.0-7.0-2.38","FL","9q76krfydn","1920","1080","0","1","0","5f3d9a9f10a5f219cfe0b404","","null","","","learningBlock2","","","","<div style=""font-size:60px;""> </div>","null","FL","learning/Slide119.JPG","That was a wug.","","",""
"image-keyboard-response","364","313882","0.0-7.0-0.39","FL","9q76krfydn","1920","1080","0","1","0","5f3d9a9f10a5f219cfe0b404","","null","","","","","","","learning/Slide120.JPG","null","","","","","",""
"html-keyboard-response","365","315045","0.0-7.0-1.39","FL","9q76krfydn","1920","1080","0","1","0","5f3d9a9f10a5f219cfe0b404","","null","","","learningBlock2","","","","That was a dep.","null","","","","","",""
"html-keyboard-response","366","316054","0.0-7.0-2.39","FL","9q76krfydn","1920","1080","0","1","0","5f3d9a9f10a5f219cfe0b404","","null","","","learningBlock2","","","","<div style=""font-size:60px;""> </div>","null","FL","learning/Slide120.JPG","That was a dep.","","",""
"image-keyboard-response","367","316240","0.0-7.0-0.40","FL","9q76krfydn","1920","1080","0","1","0","5f3d9a9f10a5f219cfe0b404","","null","","","","","","","learning/Slide121.JPG","null","","","","","",""
"html-keyboard-response","368","317396","0.0-7.0-1.40","FL","9q76krfydn","1920","1080","0","1","0","5f3d9a9f10a5f219cfe0b404","","null","","","learningBlock2","","","","That was a bim.","null","","","","","",""
"html-keyboard-response","369","318398","0.0-7.0-2.40","FL","9q76krfydn","1920","1080","0","1","0","5f3d9a9f10a5f219cfe0b404","","null","","","learningBlock2","","","","<div style=""font-size:60px;""> </div>","null","FL","learning/Slide121.JPG","That was a bim.","","",""
"image-keyboard-response","370","318575","0.0-7.0-0.41","FL","9q76krfydn","1920","1080","0","1","0","5f3d9a9f10a5f219cfe0b404","","null","","","","","","","learning/Slide122.JPG","null","","","","","",""
"html-keyboard-response","371","319756","0.0-7.0-1.41","FL","9q76krfydn","1920","1080","0","1","0","5f3d9a9f10a5f219cfe0b404","","null","","","learningBlock2","","","","That was a wug.","null","","","","","",""
"html-keyboard-response","372","320768","0.0-7.0-2.41","FL","9q76krfydn","1920","1080","0","1","0","5f3d9a9f10a5f219cfe0b404","","null","","","learningBlock2","","","","<div style=""font-size:60px;""> </div>","null","FL","learning/Slide122.JPG","That was a wug.","","",""
"image-keyboard-response","373","320957","0.0-7.0-0.42","FL","9q76krfydn","1920","1080","0","1","0","5f3d9a9f10a5f219cfe0b404","","null","","","","","","","learning/Slide123.JPG","null","","","","","",""
"html-keyboard-response","374","322110","0.0-7.0-1.42","FL","9q76krfydn","1920","1080","0","1","0","5f3d9a9f10a5f219cfe0b404","","null","","","learningBlock2","","","","That was a bim.","null","","","","","",""
"html-keyboard-response","375","323114","0.0-7.0-2.42","FL","9q76krfydn","1920","1080","0","1","0","5f3d9a9f10a5f219cfe0b404","","null","","","learningBlock2","","","","<div style=""font-size:60px;""> </div>","null","FL","learning/Slide123.JPG","That was a bim.","","",""
"image-keyboard-response","376","323291","0.0-7.0-0.43","FL","9q76krfydn","1920","1080","0","1","0","5f3d9a9f10a5f219cfe0b404","","null","","","","","","","learning/Slide124.JPG","null","","","","","",""
"html-keyboard-response","377","324444","0.0-7.0-1.43","FL","9q76krfydn","1920","1080","0","1","0","5f3d9a9f10a5f219cfe0b404","","null","","","learningBlock2","","","","That was a tob.","null","","","","","",""
"html-keyboard-response","378","325446","0.0-7.0-2.43","FL","9q76krfydn","1920","1080","0","1","0","5f3d9a9f10a5f219cfe0b404","","null","","","learningBlock2","","","","<div style=""font-size:60px;""> </div>","null","FL","learning/Slide124.JPG","That was a tob.","","",""
"image-keyboard-response","379","325631","0.0-7.0-0.44","FL","9q76krfydn","1920","1080","0","1","0","5f3d9a9f10a5f219cfe0b404","","null","","","","","","","learning/Slide125.JPG","null","","","","","",""
"html-keyboard-response","380","326804","0.0-7.0-1.44","FL","9q76krfydn","1920","1080","0","1","0","5f3d9a9f10a5f219cfe0b404","","null","","","learningBlock2","","","","That was a bim.","null","","","","","",""
"html-keyboard-response","381","327807","0.0-7.0-2.44","FL","9q76krfydn","1920","1080","0","1","0","5f3d9a9f10a5f219cfe0b404","","null","","","learningBlock2","","","","<div style=""font-size:60px;""> </div>","null","FL","learning/Slide125.JPG","That was a bim.","","",""
"image-keyboard-response","382","327983","0.0-7.0-0.45","FL","9q76krfydn","1920","1080","0","1","0","5f3d9a9f10a5f219cfe0b404","","null","","","","","","","learning/Slide126.JPG","null","","","","","",""
"html-keyboard-response","383","329156","0.0-7.0-1.45","FL","9q76krfydn","1920","1080","0","1","0","5f3d9a9f10a5f219cfe0b404","","null","","","learningBlock2","","","","That was a tob.","null","","","","","",""
"html-keyboard-response","384","330165","0.0-7.0-2.45","FL","9q76krfydn","1920","1080","0","1","0","5f3d9a9f10a5f219cfe0b404","","null","","","learningBlock2","","","","<div style=""font-size:60px;""> </div>","null","FL","learning/Slide126.JPG","That was a tob.","","",""
"image-keyboard-response","385","330353","0.0-7.0-0.46","FL","9q76krfydn","1920","1080","0","1","0","5f3d9a9f10a5f219cfe0b404","","null","","","","","","","learning/Slide127.JPG","null","","","","","",""
"html-keyboard-response","386","331521","0.0-7.0-1.46","FL","9q76krfydn","1920","1080","0","1","0","5f3d9a9f10a5f219cfe0b404","","null","","","learningBlock2","","","","That was a dep.","null","","","","","",""
"html-keyboard-response","387","332536","0.0-7.0-2.46","FL","9q76krfydn","1920","1080","0","1","0","5f3d9a9f10a5f219cfe0b404","","null","","","learningBlock2","","","","<div style=""font-size:60px;""> </div>","null","FL","learning/Slide127.JPG","That was a dep.","","",""
"image-keyboard-response","388","332713","0.0-7.0-0.47","FL","9q76krfydn","1920","1080","0","1","0","5f3d9a9f10a5f219cfe0b404","","null","","","","","","","learning/Slide128.JPG","null","","","","","",""
"html-keyboard-response","389","333866","0.0-7.0-1.47","FL","9q76krfydn","1920","1080","0","1","0","5f3d9a9f10a5f219cfe0b404","","null","","","learningBlock2","","","","That was a wug.","null","","","","","",""
"html-keyboard-response","390","334869","0.0-7.0-2.47","FL","9q76krfydn","1920","1080","0","1","0","5f3d9a9f10a5f219cfe0b404","","null","","","learningBlock2","","","","<div style=""font-size:60px;""> </div>","null","FL","learning/Slide128.JPG","That was a wug.","","",""
"image-keyboard-response","391","335045","0.0-7.0-0.48","FL","9q76krfydn","1920","1080","0","1","0","5f3d9a9f10a5f219cfe0b404","","null","","","","","","","learning/Slide129.JPG","null","","","","","",""
"html-keyboard-response","392","336223","0.0-7.0-1.48","FL","9q76krfydn","1920","1080","0","1","0","5f3d9a9f10a5f219cfe0b404","","null","","","learningBlock2","","","","That was a tob.","null","","","","","",""
"html-keyboard-response","393","337235","0.0-7.0-2.48","FL","9q76krfydn","1920","1080","0","1","0","5f3d9a9f10a5f219cfe0b404","","null","","","learningBlock2","","","","<div style=""font-size:60px;""> </div>","null","FL","learning/Slide129.JPG","That was a tob.","","",""
"image-keyboard-response","394","337411","0.0-7.0-0.49","FL","9q76krfydn","1920","1080","0","1","0","5f3d9a9f10a5f219cfe0b404","","null","","","","","","","learning/Slide130.JPG","null","","","","","",""
"html-keyboard-response","395","338570","0.0-7.0-1.49","FL","9q76krfydn","1920","1080","0","1","0","5f3d9a9f10a5f219cfe0b404","","null","","","learningBlock2","","","","That was a wug.","null","","","","","",""
"html-keyboard-response","396","339583","0.0-7.0-2.49","FL","9q76krfydn","1920","1080","0","1","0","5f3d9a9f10a5f219cfe0b404","","null","","","learningBlock2","","","","<div style=""font-size:60px;""> </div>","null","FL","learning/Slide130.JPG","That was a wug.","","",""
"image-keyboard-response","397","339773","0.0-7.0-0.50","FL","9q76krfydn","1920","1080","0","1","0","5f3d9a9f10a5f219cfe0b404","","null","","","","","","","learning/Slide131.JPG","null","","","","","",""
"html-keyboard-response","398","340943","0.0-7.0-1.50","FL","9q76krfydn","1920","1080","0","1","0","5f3d9a9f10a5f219cfe0b404","","null","","","learningBlock2","","","","That was a bim.","null","","","","","",""
"html-keyboard-response","399","341945","0.0-7.0-2.50","FL","9q76krfydn","1920","1080","0","1","0","5f3d9a9f10a5f219cfe0b404","","null","","","learningBlock2","","","","<div style=""font-size:60px;""> </div>","null","FL","learning/Slide131.JPG","That was a bim.","","",""
"image-keyboard-response","400","342130","0.0-7.0-0.51","FL","9q76krfydn","1920","1080","0","1","0","5f3d9a9f10a5f219cfe0b404","","null","","","","","","","learning/Slide132.JPG","null","","","","","",""
"html-keyboard-response","401","343301","0.0-7.0-1.51","FL","9q76krfydn","1920","1080","0","1","0","5f3d9a9f10a5f219cfe0b404","","null","","","learningBlock2","","","","That was a dep.","null","","","","","",""
"html-keyboard-response","402","344306","0.0-7.0-2.51","FL","9q76krfydn","1920","1080","0","1","0","5f3d9a9f10a5f219cfe0b404","","null","","","learningBlock2","","","","<div style=""font-size:60px;""> </div>","null","FL","learning/Slide132.JPG","That was a dep.","","",""
"image-keyboard-response","403","344482","0.0-7.0-0.52","FL","9q76krfydn","1920","1080","0","1","0","5f3d9a9f10a5f219cfe0b404","","null","","","","","","","learning/Slide133.JPG","null","","","","","",""
"html-keyboard-response","404","345647","0.0-7.0-1.52","FL","9q76krfydn","1920","1080","0","1","0","5f3d9a9f10a5f219cfe0b404","","null","","","learningBlock2","","","","That was a tob.","null","","","","","",""
"html-keyboard-response","405","346649","0.0-7.0-2.52","FL","9q76krfydn","1920","1080","0","1","0","5f3d9a9f10a5f219cfe0b404","","null","","","learningBlock2","","","","<div style=""font-size:60px;""> </div>","null","FL","learning/Slide133.JPG","That was a tob.","","",""
"image-keyboard-response","406","346837","0.0-7.0-0.53","FL","9q76krfydn","1920","1080","0","1","0","5f3d9a9f10a5f219cfe0b404","","null","","","","","","","learning/Slide134.JPG","null","","","","","",""
"html-keyboard-response","407","347994","0.0-7.0-1.53","FL","9q76krfydn","1920","1080","0","1","0","5f3d9a9f10a5f219cfe0b404","","null","","","learningBlock2","","","","That was a dep.","null","","","","","",""
"html-keyboard-response","408","349009","0.0-7.0-2.53","FL","9q76krfydn","1920","1080","0","1","0","5f3d9a9f10a5f219cfe0b404","","null","","","learningBlock2","","","","<div style=""font-size:60px;""> </div>","null","FL","learning/Slide134.JPG","That was a dep.","","",""
"image-keyboard-response","409","349198","0.0-7.0-0.54","FL","9q76krfydn","1920","1080","0","1","0","5f3d9a9f10a5f219cfe0b404","","null","","","","","","","learning/Slide135.JPG","null","","","","","",""
"html-keyboard-response","410","350365","0.0-7.0-1.54","FL","9q76krfydn","1920","1080","0","1","0","5f3d9a9f10a5f219cfe0b404","","null","","","learningBlock2","","","","That was a tob.","null","","","","","",""
"html-keyboard-response","411","351369","0.0-7.0-2.54","FL","9q76krfydn","1920","1080","0","1","0","5f3d9a9f10a5f219cfe0b404","","null","","","learningBlock2","","","","<div style=""font-size:60px;""> </div>","null","FL","learning/Slide135.JPG","That was a tob.","","",""
"image-keyboard-response","412","351546","0.0-7.0-0.55","FL","9q76krfydn","1920","1080","0","1","0","5f3d9a9f10a5f219cfe0b404","","null","","","","","","","learning/Slide136.JPG","null","","","","","",""
"html-keyboard-response","413","352701","0.0-7.0-1.55","FL","9q76krfydn","1920","1080","0","1","0","5f3d9a9f10a5f219cfe0b404","","null","","","learningBlock2","","","","That was a wug.","null","","","","","",""
"html-keyboard-response","414","353712","0.0-7.0-2.55","FL","9q76krfydn","1920","1080","0","1","0","5f3d9a9f10a5f219cfe0b404","","null","","","learningBlock2","","","","<div style=""font-size:60px;""> </div>","null","FL","learning/Slide136.JPG","That was a wug.","","",""
"image-keyboard-response","415","353902","0.0-7.0-0.56","FL","9q76krfydn","1920","1080","0","1","0","5f3d9a9f10a5f219cfe0b404","","null","","","","","","","learning/Slide137.JPG","null","","","","","",""
"html-keyboard-response","416","355071","0.0-7.0-1.56","FL","9q76krfydn","1920","1080","0","1","0","5f3d9a9f10a5f219cfe0b404","","null","","","learningBlock2","","","","That was a tob.","null","","","","","",""
"html-keyboard-response","417","356073","0.0-7.0-2.56","FL","9q76krfydn","1920","1080","0","1","0","5f3d9a9f10a5f219cfe0b404","","null","","","learningBlock2","","","","<div style=""font-size:60px;""> </div>","null","FL","learning/Slide137.JPG","That was a tob.","","",""
"image-keyboard-response","418","356263","0.0-7.0-0.57","FL","9q76krfydn","1920","1080","0","1","0","5f3d9a9f10a5f219cfe0b404","","null","","","","","","","learning/Slide138.JPG","null","","","","","",""
"html-keyboard-response","419","357425","0.0-7.0-1.57","FL","9q76krfydn","1920","1080","0","1","0","5f3d9a9f10a5f219cfe0b404","","null","","","learningBlock2","","","","That was a bim.","null","","","","","",""
"html-keyboard-response","420","358430","0.0-7.0-2.57","FL","9q76krfydn","1920","1080","0","1","0","5f3d9a9f10a5f219cfe0b404","","null","","","learningBlock2","","","","<div style=""font-size:60px;""> </div>","null","FL","learning/Slide138.JPG","That was a bim.","","",""
"image-keyboard-response","421","358619","0.0-7.0-0.58","FL","9q76krfydn","1920","1080","0","1","0","5f3d9a9f10a5f219cfe0b404","","null","","","","","","","learning/Slide139.JPG","null","","","","","",""
"html-keyboard-response","422","359789","0.0-7.0-1.58","FL","9q76krfydn","1920","1080","0","1","0","5f3d9a9f10a5f219cfe0b404","","null","","","learningBlock2","","","","That was a wug.","null","","","","","",""
"html-keyboard-response","423","360797","0.0-7.0-2.58","FL","9q76krfydn","1920","1080","0","1","0","5f3d9a9f10a5f219cfe0b404","","null","","","learningBlock2","","","","<div style=""font-size:60px;""> </div>","null","FL","learning/Slide139.JPG","That was a wug.","","",""
"image-keyboard-response","424","360985","0.0-7.0-0.59","FL","9q76krfydn","1920","1080","0","1","0","5f3d9a9f10a5f219cfe0b404","","null","","","","","","","learning/Slide140.JPG","null","","","","","",""
"html-keyboard-response","425","362150","0.0-7.0-1.59","FL","9q76krfydn","1920","1080","0","1","0","5f3d9a9f10a5f219cfe0b404","","null","","","learningBlock2","","","","That was a dep.","null","","","","","",""
"html-keyboard-response","426","363162","0.0-7.0-2.59","FL","9q76krfydn","1920","1080","0","1","0","5f3d9a9f10a5f219cfe0b404","","null","","","learningBlock2","","","","<div style=""font-size:60px;""> </div>","null","FL","learning/Slide140.JPG","That was a dep.","","",""
"image-keyboard-response","427","363353","0.0-7.0-0.60","FL","9q76krfydn","1920","1080","0","1","0","5f3d9a9f10a5f219cfe0b404","","null","","","","","","","learning/Slide141.JPG","null","","","","","",""
"html-keyboard-response","428","364508","0.0-7.0-1.60","FL","9q76krfydn","1920","1080","0","1","0","5f3d9a9f10a5f219cfe0b404","","null","","","learningBlock2","","","","That was a tob.","null","","","","","",""
"html-keyboard-response","429","365517","0.0-7.0-2.60","FL","9q76krfydn","1920","1080","0","1","0","5f3d9a9f10a5f219cfe0b404","","null","","","learningBlock2","","","","<div style=""font-size:60px;""> </div>","null","FL","learning/Slide141.JPG","That was a tob.","","",""
"image-keyboard-response","430","365694","0.0-7.0-0.61","FL","9q76krfydn","1920","1080","0","1","0","5f3d9a9f10a5f219cfe0b404","","null","","","","","","","learning/Slide142.JPG","null","","","","","",""
"html-keyboard-response","431","366854","0.0-7.0-1.61","FL","9q76krfydn","1920","1080","0","1","0","5f3d9a9f10a5f219cfe0b404","","null","","","learningBlock2","","","","That was a wug.","null","","","","","",""
"html-keyboard-response","432","367865","0.0-7.0-2.61","FL","9q76krfydn","1920","1080","0","1","0","5f3d9a9f10a5f219cfe0b404","","null","","","learningBlock2","","","","<div style=""font-size:60px;""> </div>","null","FL","learning/Slide142.JPG","That was a wug.","","",""
"image-keyboard-response","433","368053","0.0-7.0-0.62","FL","9q76krfydn","1920","1080","0","1","0","5f3d9a9f10a5f219cfe0b404","","null","","","","","","","learning/Slide143.JPG","null","","","","","",""
"html-keyboard-response","434","369225","0.0-7.0-1.62","FL","9q76krfydn","1920","1080","0","1","0","5f3d9a9f10a5f219cfe0b404","","null","","","learningBlock2","","","","That was a bim.","null","","","","","",""
"html-keyboard-response","435","370240","0.0-7.0-2.62","FL","9q76krfydn","1920","1080","0","1","0","5f3d9a9f10a5f219cfe0b404","","null","","","learningBlock2","","","","<div style=""font-size:60px;""> </div>","null","FL","learning/Slide143.JPG","That was a bim.","","",""
