"trial_type","trial_index","time_elapsed","internal_node_id","condition","subject","screen_width","screen_height","attention","distraction","conscientious","prolificID","success","rt","url","view_history","test_part","final_height_px","final_width_px","scale_factor","stimulus","key_press","learningType","presentedImage","presentedLabel","button_pressed","response","responses"
"pavlovia","0","179","0.0-0.0","FL","38cgqt2jvy","1600","900","0","1","0","5f83138efa73fa44e23c5237","","","","","","","","","","","","","","","",""
"fullscreen","1","27202","0.0-1.0","FL","38cgqt2jvy","1600","900","0","1","0","5f83138efa73fa44e23c5237","true","","","","","","","","","","","","","","",""
"external-html","2","90418","0.0-2.0-0.0","FL","38cgqt2jvy","1600","900","0","1","0","5f83138efa73fa44e23c5237","","61814.55500004813","text/information_english.html","","","","","","","","","","","","",""
"external-html","3","126314","0.0-2.0-1.0","FL","38cgqt2jvy","1600","900","0","1","0","5f83138efa73fa44e23c5237","","34588.28000002541","text/consent_english.html","","","","","","","","","","","","",""
"instructions","4","195402","0.0-3.0","FL","38cgqt2jvy","1600","900","0","1","0","5f83138efa73fa44e23c5237","","NA","","[{""page_index"":0,""viewing_time"":4728.015000000596},{""page_index"":1,""viewing_time"":64357.25000000093}]","instructions","","","","","","","","","","",""
"resize","5","214273","0.0-4.0","FL","38cgqt2jvy","1600","900","0","1","0","5f83138efa73fa44e23c5237","","","","","","","100","0.634920634920635","","","","","","","",""
"image-keyboard-response","6","214456","0.0-5.0-0.0","FL","38cgqt2jvy","1600","900","0","1","0","5f83138efa73fa44e23c5237","","null","","","","","","","learning/Slide1.JPG","null","","","","","",""
"html-keyboard-response","7","215615","0.0-5.0-1.0","FL","38cgqt2jvy","1600","900","0","1","0","5f83138efa73fa44e23c5237","","null","","","learningBlock1","","","","That was a tob.","null","","","","","",""
"html-keyboard-response","8","216623","0.0-5.0-2.0","FL","38cgqt2jvy","1600","900","0","1","0","5f83138efa73fa44e23c5237","","null","","","learningBlock1","","","","<div style=""font-size:60px;""> </div>","null","FL","learning/Slide1.JPG","That was a tob.","","",""
"image-keyboard-response","9","216807","0.0-5.0-0.1","FL","38cgqt2jvy","1600","900","0","1","0","5f83138efa73fa44e23c5237","","null","","","","","","","learning/Slide2.JPG","null","","","","","",""
"html-keyboard-response","10","217966","0.0-5.0-1.1","FL","38cgqt2jvy","1600","900","0","1","0","5f83138efa73fa44e23c5237","","null","","","learningBlock1","","","","That was a wug.","null","","","","","",""
"html-keyboard-response","11","218974","0.0-5.0-2.1","FL","38cgqt2jvy","1600","900","0","1","0","5f83138efa73fa44e23c5237","","null","","","learningBlock1","","","","<div style=""font-size:60px;""> </div>","null","FL","learning/Slide2.JPG","That was a wug.","","",""
"image-keyboard-response","12","219158","0.0-5.0-0.2","FL","38cgqt2jvy","1600","900","0","1","0","5f83138efa73fa44e23c5237","","null","","","","","","","learning/Slide3.JPG","null","","","","","",""
"html-keyboard-response","13","220318","0.0-5.0-1.2","FL","38cgqt2jvy","1600","900","0","1","0","5f83138efa73fa44e23c5237","","null","","","learningBlock1","","","","That was a bim.","null","","","","","",""
"html-keyboard-response","14","221326","0.0-5.0-2.2","FL","38cgqt2jvy","1600","900","0","1","0","5f83138efa73fa44e23c5237","","null","","","learningBlock1","","","","<div style=""font-size:60px;""> </div>","null","FL","learning/Slide3.JPG","That was a bim.","","",""
"image-keyboard-response","15","221510","0.0-5.0-0.3","FL","38cgqt2jvy","1600","900","0","1","0","5f83138efa73fa44e23c5237","","null","","","","","","","learning/Slide4.JPG","null","","","","","",""
"html-keyboard-response","16","222670","0.0-5.0-1.3","FL","38cgqt2jvy","1600","900","0","1","0","5f83138efa73fa44e23c5237","","null","","","learningBlock1","","","","That was a dep.","null","","","","","",""
"html-keyboard-response","17","223678","0.0-5.0-2.3","FL","38cgqt2jvy","1600","900","0","1","0","5f83138efa73fa44e23c5237","","null","","","learningBlock1","","","","<div style=""font-size:60px;""> </div>","null","FL","learning/Slide4.JPG","That was a dep.","","",""
"image-keyboard-response","18","223862","0.0-5.0-0.4","FL","38cgqt2jvy","1600","900","0","1","0","5f83138efa73fa44e23c5237","","null","","","","","","","learning/Slide5.JPG","null","","","","","",""
"html-keyboard-response","19","225022","0.0-5.0-1.4","FL","38cgqt2jvy","1600","900","0","1","0","5f83138efa73fa44e23c5237","","null","","","learningBlock1","","","","That was a wug.","null","","","","","",""
"html-keyboard-response","20","226029","0.0-5.0-2.4","FL","38cgqt2jvy","1600","900","0","1","0","5f83138efa73fa44e23c5237","","null","","","learningBlock1","","","","<div style=""font-size:60px;""> </div>","null","FL","learning/Slide5.JPG","That was a wug.","","",""
"image-keyboard-response","21","226213","0.0-5.0-0.5","FL","38cgqt2jvy","1600","900","0","1","0","5f83138efa73fa44e23c5237","","null","","","","","","","learning/Slide6.JPG","null","","","","","",""
"html-keyboard-response","22","227373","0.0-5.0-1.5","FL","38cgqt2jvy","1600","900","0","1","0","5f83138efa73fa44e23c5237","","null","","","learningBlock1","","","","That was a dep.","null","","","","","",""
"html-keyboard-response","23","228381","0.0-5.0-2.5","FL","38cgqt2jvy","1600","900","0","1","0","5f83138efa73fa44e23c5237","","null","","","learningBlock1","","","","<div style=""font-size:60px;""> </div>","null","FL","learning/Slide6.JPG","That was a dep.","","",""
"image-keyboard-response","24","228568","0.0-5.0-0.6","FL","38cgqt2jvy","1600","900","0","1","0","5f83138efa73fa44e23c5237","","null","","","","","","","learning/Slide7.JPG","null","","","","","",""
"html-keyboard-response","25","229728","0.0-5.0-1.6","FL","38cgqt2jvy","1600","900","0","1","0","5f83138efa73fa44e23c5237","","null","","","learningBlock1","","","","That was a wug.","null","","","","","",""
"html-keyboard-response","26","230736","0.0-5.0-2.6","FL","38cgqt2jvy","1600","900","0","1","0","5f83138efa73fa44e23c5237","","null","","","learningBlock1","","","","<div style=""font-size:60px;""> </div>","null","FL","learning/Slide7.JPG","That was a wug.","","",""
"image-keyboard-response","27","230920","0.0-5.0-0.7","FL","38cgqt2jvy","1600","900","0","1","0","5f83138efa73fa44e23c5237","","null","","","","","","","learning/Slide8.JPG","null","","","","","",""
"html-keyboard-response","28","232079","0.0-5.0-1.7","FL","38cgqt2jvy","1600","900","0","1","0","5f83138efa73fa44e23c5237","","null","","","learningBlock1","","","","That was a bim.","null","","","","","",""
"html-keyboard-response","29","233087","0.0-5.0-2.7","FL","38cgqt2jvy","1600","900","0","1","0","5f83138efa73fa44e23c5237","","null","","","learningBlock1","","","","<div style=""font-size:60px;""> </div>","null","FL","learning/Slide8.JPG","That was a bim.","","",""
"image-keyboard-response","30","233271","0.0-5.0-0.8","FL","38cgqt2jvy","1600","900","0","1","0","5f83138efa73fa44e23c5237","","null","","","","","","","learning/Slide9.JPG","null","","","","","",""
"html-keyboard-response","31","234431","0.0-5.0-1.8","FL","38cgqt2jvy","1600","900","0","1","0","5f83138efa73fa44e23c5237","","null","","","learningBlock1","","","","That was a wug.","null","","","","","",""
"html-keyboard-response","32","235439","0.0-5.0-2.8","FL","38cgqt2jvy","1600","900","0","1","0","5f83138efa73fa44e23c5237","","null","","","learningBlock1","","","","<div style=""font-size:60px;""> </div>","null","FL","learning/Slide9.JPG","That was a wug.","","",""
"image-keyboard-response","33","235623","0.0-5.0-0.9","FL","38cgqt2jvy","1600","900","0","1","0","5f83138efa73fa44e23c5237","","null","","","","","","","learning/Slide10.JPG","null","","","","","",""
"html-keyboard-response","34","236783","0.0-5.0-1.9","FL","38cgqt2jvy","1600","900","0","1","0","5f83138efa73fa44e23c5237","","null","","","learningBlock1","","","","That was a dep.","null","","","","","",""
"html-keyboard-response","35","237791","0.0-5.0-2.9","FL","38cgqt2jvy","1600","900","0","1","0","5f83138efa73fa44e23c5237","","null","","","learningBlock1","","","","<div style=""font-size:60px;""> </div>","null","FL","learning/Slide10.JPG","That was a dep.","","",""
"image-keyboard-response","36","237975","0.0-5.0-0.10","FL","38cgqt2jvy","1600","900","0","1","0","5f83138efa73fa44e23c5237","","null","","","","","","","learning/Slide11.JPG","null","","","","","",""
"html-keyboard-response","37","239134","0.0-5.0-1.10","FL","38cgqt2jvy","1600","900","0","1","0","5f83138efa73fa44e23c5237","","null","","","learningBlock1","","","","That was a tob.","null","","","","","",""
"html-keyboard-response","38","240142","0.0-5.0-2.10","FL","38cgqt2jvy","1600","900","0","1","0","5f83138efa73fa44e23c5237","","null","","","learningBlock1","","","","<div style=""font-size:60px;""> </div>","null","FL","learning/Slide11.JPG","That was a tob.","","",""
"image-keyboard-response","39","240326","0.0-5.0-0.11","FL","38cgqt2jvy","1600","900","0","1","0","5f83138efa73fa44e23c5237","","null","","","","","","","learning/Slide12.JPG","null","","","","","",""
"html-keyboard-response","40","241488","0.0-5.0-1.11","FL","38cgqt2jvy","1600","900","0","1","0","5f83138efa73fa44e23c5237","","null","","","learningBlock1","","","","That was a dep.","null","","","","","",""
"html-keyboard-response","41","242494","0.0-5.0-2.11","FL","38cgqt2jvy","1600","900","0","1","0","5f83138efa73fa44e23c5237","","null","","","learningBlock1","","","","<div style=""font-size:60px;""> </div>","null","FL","learning/Slide12.JPG","That was a dep.","","",""
"image-keyboard-response","42","242678","0.0-5.0-0.12","FL","38cgqt2jvy","1600","900","0","1","0","5f83138efa73fa44e23c5237","","null","","","","","","","learning/Slide13.JPG","null","","","","","",""
"html-keyboard-response","43","243838","0.0-5.0-1.12","FL","38cgqt2jvy","1600","900","0","1","0","5f83138efa73fa44e23c5237","","null","","","learningBlock1","","","","That was a bim.","null","","","","","",""
"html-keyboard-response","44","244846","0.0-5.0-2.12","FL","38cgqt2jvy","1600","900","0","1","0","5f83138efa73fa44e23c5237","","null","","","learningBlock1","","","","<div style=""font-size:60px;""> </div>","null","FL","learning/Slide13.JPG","That was a bim.","","",""
"image-keyboard-response","45","245030","0.0-5.0-0.13","FL","38cgqt2jvy","1600","900","0","1","0","5f83138efa73fa44e23c5237","","null","","","","","","","learning/Slide14.JPG","null","","","","","",""
"html-keyboard-response","46","246189","0.0-5.0-1.13","FL","38cgqt2jvy","1600","900","0","1","0","5f83138efa73fa44e23c5237","","null","","","learningBlock1","","","","That was a wug.","null","","","","","",""
"html-keyboard-response","47","247197","0.0-5.0-2.13","FL","38cgqt2jvy","1600","900","0","1","0","5f83138efa73fa44e23c5237","","null","","","learningBlock1","","","","<div style=""font-size:60px;""> </div>","null","FL","learning/Slide14.JPG","That was a wug.","","",""
"image-keyboard-response","48","247381","0.0-5.0-0.14","FL","38cgqt2jvy","1600","900","0","1","0","5f83138efa73fa44e23c5237","","null","","","","","","","learning/Slide15.JPG","null","","","","","",""
"html-keyboard-response","49","248541","0.0-5.0-1.14","FL","38cgqt2jvy","1600","900","0","1","0","5f83138efa73fa44e23c5237","","null","","","learningBlock1","","","","That was a tob.","null","","","","","",""
"html-keyboard-response","50","249549","0.0-5.0-2.14","FL","38cgqt2jvy","1600","900","0","1","0","5f83138efa73fa44e23c5237","","null","","","learningBlock1","","","","<div style=""font-size:60px;""> </div>","null","FL","learning/Slide15.JPG","That was a tob.","","",""
"image-keyboard-response","51","249733","0.0-5.0-0.15","FL","38cgqt2jvy","1600","900","0","1","0","5f83138efa73fa44e23c5237","","null","","","","","","","learning/Slide16.JPG","null","","","","","",""
"html-keyboard-response","52","250893","0.0-5.0-1.15","FL","38cgqt2jvy","1600","900","0","1","0","5f83138efa73fa44e23c5237","","null","","","learningBlock1","","","","That was a dep.","null","","","","","",""
"html-keyboard-response","53","251901","0.0-5.0-2.15","FL","38cgqt2jvy","1600","900","0","1","0","5f83138efa73fa44e23c5237","","null","","","learningBlock1","","","","<div style=""font-size:60px;""> </div>","null","FL","learning/Slide16.JPG","That was a dep.","","",""
"image-keyboard-response","54","252085","0.0-5.0-0.16","FL","38cgqt2jvy","1600","900","0","1","0","5f83138efa73fa44e23c5237","","null","","","","","","","learning/Slide17.JPG","null","","","","","",""
"html-keyboard-response","55","253245","0.0-5.0-1.16","FL","38cgqt2jvy","1600","900","0","1","0","5f83138efa73fa44e23c5237","","null","","","learningBlock1","","","","That was a bim.","null","","","","","",""
"html-keyboard-response","56","254254","0.0-5.0-2.16","FL","38cgqt2jvy","1600","900","0","1","0","5f83138efa73fa44e23c5237","","null","","","learningBlock1","","","","<div style=""font-size:60px;""> </div>","null","FL","learning/Slide17.JPG","That was a bim.","","",""
"image-keyboard-response","57","254438","0.0-5.0-0.17","FL","38cgqt2jvy","1600","900","0","1","0","5f83138efa73fa44e23c5237","","null","","","","","","","learning/Slide18.JPG","null","","","","","",""
"html-keyboard-response","58","255598","0.0-5.0-1.17","FL","38cgqt2jvy","1600","900","0","1","0","5f83138efa73fa44e23c5237","","null","","","learningBlock1","","","","That was a tob.","null","","","","","",""
"html-keyboard-response","59","256606","0.0-5.0-2.17","FL","38cgqt2jvy","1600","900","0","1","0","5f83138efa73fa44e23c5237","","null","","","learningBlock1","","","","<div style=""font-size:60px;""> </div>","null","FL","learning/Slide18.JPG","That was a tob.","","",""
"image-keyboard-response","60","256790","0.0-5.0-0.18","FL","38cgqt2jvy","1600","900","0","1","0","5f83138efa73fa44e23c5237","","null","","","","","","","learning/Slide19.JPG","null","","","","","",""
"html-keyboard-response","61","257949","0.0-5.0-1.18","FL","38cgqt2jvy","1600","900","0","1","0","5f83138efa73fa44e23c5237","","null","","","learningBlock1","","","","That was a wug.","null","","","","","",""
"html-keyboard-response","62","258957","0.0-5.0-2.18","FL","38cgqt2jvy","1600","900","0","1","0","5f83138efa73fa44e23c5237","","null","","","learningBlock1","","","","<div style=""font-size:60px;""> </div>","null","FL","learning/Slide19.JPG","That was a wug.","","",""
"image-keyboard-response","63","259141","0.0-5.0-0.19","FL","38cgqt2jvy","1600","900","0","1","0","5f83138efa73fa44e23c5237","","null","","","","","","","learning/Slide20.JPG","null","","","","","",""
"html-keyboard-response","64","260301","0.0-5.0-1.19","FL","38cgqt2jvy","1600","900","0","1","0","5f83138efa73fa44e23c5237","","null","","","learningBlock1","","","","That was a bim.","null","","","","","",""
"html-keyboard-response","65","261309","0.0-5.0-2.19","FL","38cgqt2jvy","1600","900","0","1","0","5f83138efa73fa44e23c5237","","null","","","learningBlock1","","","","<div style=""font-size:60px;""> </div>","null","FL","learning/Slide20.JPG","That was a bim.","","",""
"image-keyboard-response","66","261493","0.0-5.0-0.20","FL","38cgqt2jvy","1600","900","0","1","0","5f83138efa73fa44e23c5237","","null","","","","","","","learning/Slide21.JPG","null","","","","","",""
"html-keyboard-response","67","262653","0.0-5.0-1.20","FL","38cgqt2jvy","1600","900","0","1","0","5f83138efa73fa44e23c5237","","null","","","learningBlock1","","","","That was a dep.","null","","","","","",""
"html-keyboard-response","68","263661","0.0-5.0-2.20","FL","38cgqt2jvy","1600","900","0","1","0","5f83138efa73fa44e23c5237","","null","","","learningBlock1","","","","<div style=""font-size:60px;""> </div>","null","FL","learning/Slide21.JPG","That was a dep.","","",""
"image-keyboard-response","69","263845","0.0-5.0-0.21","FL","38cgqt2jvy","1600","900","0","1","0","5f83138efa73fa44e23c5237","","null","","","","","","","learning/Slide22.JPG","null","","","","","",""
"html-keyboard-response","70","265000","0.0-5.0-1.21","FL","38cgqt2jvy","1600","900","0","1","0","5f83138efa73fa44e23c5237","","null","","","learningBlock1","","","","That was a bim.","null","","","","","",""
"html-keyboard-response","71","266009","0.0-5.0-2.21","FL","38cgqt2jvy","1600","900","0","1","0","5f83138efa73fa44e23c5237","","null","","","learningBlock1","","","","<div style=""font-size:60px;""> </div>","null","FL","learning/Slide22.JPG","That was a bim.","","",""
"image-keyboard-response","72","266193","0.0-5.0-0.22","FL","38cgqt2jvy","1600","900","0","1","0","5f83138efa73fa44e23c5237","","null","","","","","","","learning/Slide23.JPG","null","","","","","",""
"html-keyboard-response","73","267353","0.0-5.0-1.22","FL","38cgqt2jvy","1600","900","0","1","0","5f83138efa73fa44e23c5237","","null","","","learningBlock1","","","","That was a tob.","null","","","","","",""
"html-keyboard-response","74","268361","0.0-5.0-2.22","FL","38cgqt2jvy","1600","900","0","1","0","5f83138efa73fa44e23c5237","","null","","","learningBlock1","","","","<div style=""font-size:60px;""> </div>","null","FL","learning/Slide23.JPG","That was a tob.","","",""
"image-keyboard-response","75","268545","0.0-5.0-0.23","FL","38cgqt2jvy","1600","900","0","1","0","5f83138efa73fa44e23c5237","","null","","","","","","","learning/Slide24.JPG","null","","","","","",""
"html-keyboard-response","76","269705","0.0-5.0-1.23","FL","38cgqt2jvy","1600","900","0","1","0","5f83138efa73fa44e23c5237","","null","","","learningBlock1","","","","That was a wug.","null","","","","","",""
"html-keyboard-response","77","270713","0.0-5.0-2.23","FL","38cgqt2jvy","1600","900","0","1","0","5f83138efa73fa44e23c5237","","null","","","learningBlock1","","","","<div style=""font-size:60px;""> </div>","null","FL","learning/Slide24.JPG","That was a wug.","","",""
"image-keyboard-response","78","270896","0.0-5.0-0.24","FL","38cgqt2jvy","1600","900","0","1","0","5f83138efa73fa44e23c5237","","null","","","","","","","learning/Slide25.JPG","null","","","","","",""
"html-keyboard-response","79","272056","0.0-5.0-1.24","FL","38cgqt2jvy","1600","900","0","1","0","5f83138efa73fa44e23c5237","","null","","","learningBlock1","","","","That was a dep.","null","","","","","",""
"html-keyboard-response","80","273065","0.0-5.0-2.24","FL","38cgqt2jvy","1600","900","0","1","0","5f83138efa73fa44e23c5237","","null","","","learningBlock1","","","","<div style=""font-size:60px;""> </div>","null","FL","learning/Slide25.JPG","That was a dep.","","",""
"image-keyboard-response","81","273248","0.0-5.0-0.25","FL","38cgqt2jvy","1600","900","0","1","0","5f83138efa73fa44e23c5237","","null","","","","","","","learning/Slide26.JPG","null","","","","","",""
"html-keyboard-response","82","274408","0.0-5.0-1.25","FL","38cgqt2jvy","1600","900","0","1","0","5f83138efa73fa44e23c5237","","null","","","learningBlock1","","","","That was a wug.","null","","","","","",""
"html-keyboard-response","83","275416","0.0-5.0-2.25","FL","38cgqt2jvy","1600","900","0","1","0","5f83138efa73fa44e23c5237","","null","","","learningBlock1","","","","<div style=""font-size:60px;""> </div>","null","FL","learning/Slide26.JPG","That was a wug.","","",""
"image-keyboard-response","84","275600","0.0-5.0-0.26","FL","38cgqt2jvy","1600","900","0","1","0","5f83138efa73fa44e23c5237","","null","","","","","","","learning/Slide27.JPG","null","","","","","",""
"html-keyboard-response","85","276753","0.0-5.0-1.26","FL","38cgqt2jvy","1600","900","0","1","0","5f83138efa73fa44e23c5237","","null","","","learningBlock1","","","","That was a bim.","null","","","","","",""
"html-keyboard-response","86","277760","0.0-5.0-2.26","FL","38cgqt2jvy","1600","900","0","1","0","5f83138efa73fa44e23c5237","","null","","","learningBlock1","","","","<div style=""font-size:60px;""> </div>","null","FL","learning/Slide27.JPG","That was a bim.","","",""
"image-keyboard-response","87","277944","0.0-5.0-0.27","FL","38cgqt2jvy","1600","900","0","1","0","5f83138efa73fa44e23c5237","","null","","","","","","","learning/Slide28.JPG","null","","","","","",""
"html-keyboard-response","88","279104","0.0-5.0-1.27","FL","38cgqt2jvy","1600","900","0","1","0","5f83138efa73fa44e23c5237","","null","","","learningBlock1","","","","That was a dep.","null","","","","","",""
"html-keyboard-response","89","280111","0.0-5.0-2.27","FL","38cgqt2jvy","1600","900","0","1","0","5f83138efa73fa44e23c5237","","null","","","learningBlock1","","","","<div style=""font-size:60px;""> </div>","null","FL","learning/Slide28.JPG","That was a dep.","","",""
"image-keyboard-response","90","280295","0.0-5.0-0.28","FL","38cgqt2jvy","1600","900","0","1","0","5f83138efa73fa44e23c5237","","null","","","","","","","learning/Slide29.JPG","null","","","","","",""
"html-keyboard-response","91","281455","0.0-5.0-1.28","FL","38cgqt2jvy","1600","900","0","1","0","5f83138efa73fa44e23c5237","","null","","","learningBlock1","","","","That was a tob.","null","","","","","",""
"html-keyboard-response","92","282463","0.0-5.0-2.28","FL","38cgqt2jvy","1600","900","0","1","0","5f83138efa73fa44e23c5237","","null","","","learningBlock1","","","","<div style=""font-size:60px;""> </div>","null","FL","learning/Slide29.JPG","That was a tob.","","",""
"image-keyboard-response","93","282647","0.0-5.0-0.29","FL","38cgqt2jvy","1600","900","0","1","0","5f83138efa73fa44e23c5237","","null","","","","","","","learning/Slide30.JPG","null","","","","","",""
"html-keyboard-response","94","283807","0.0-5.0-1.29","FL","38cgqt2jvy","1600","900","0","1","0","5f83138efa73fa44e23c5237","","null","","","learningBlock1","","","","That was a dep.","null","","","","","",""
"html-keyboard-response","95","284815","0.0-5.0-2.29","FL","38cgqt2jvy","1600","900","0","1","0","5f83138efa73fa44e23c5237","","null","","","learningBlock1","","","","<div style=""font-size:60px;""> </div>","null","FL","learning/Slide30.JPG","That was a dep.","","",""
"image-keyboard-response","96","284998","0.0-5.0-0.30","FL","38cgqt2jvy","1600","900","0","1","0","5f83138efa73fa44e23c5237","","null","","","","","","","learning/Slide31.JPG","null","","","","","",""
"html-keyboard-response","97","286159","0.0-5.0-1.30","FL","38cgqt2jvy","1600","900","0","1","0","5f83138efa73fa44e23c5237","","null","","","learningBlock1","","","","That was a wug.","null","","","","","",""
"html-keyboard-response","98","287166","0.0-5.0-2.30","FL","38cgqt2jvy","1600","900","0","1","0","5f83138efa73fa44e23c5237","","null","","","learningBlock1","","","","<div style=""font-size:60px;""> </div>","null","FL","learning/Slide31.JPG","That was a wug.","","",""
"image-keyboard-response","99","287350","0.0-5.0-0.31","FL","38cgqt2jvy","1600","900","0","1","0","5f83138efa73fa44e23c5237","","null","","","","","","","learning/Slide32.JPG","null","","","","","",""
"html-keyboard-response","100","288510","0.0-5.0-1.31","FL","38cgqt2jvy","1600","900","0","1","0","5f83138efa73fa44e23c5237","","null","","","learningBlock1","","","","That was a tob.","null","","","","","",""
"html-keyboard-response","101","289518","0.0-5.0-2.31","FL","38cgqt2jvy","1600","900","0","1","0","5f83138efa73fa44e23c5237","","null","","","learningBlock1","","","","<div style=""font-size:60px;""> </div>","null","FL","learning/Slide32.JPG","That was a tob.","","",""
"image-keyboard-response","102","289702","0.0-5.0-0.32","FL","38cgqt2jvy","1600","900","0","1","0","5f83138efa73fa44e23c5237","","null","","","","","","","learning/Slide33.JPG","null","","","","","",""
"html-keyboard-response","103","290862","0.0-5.0-1.32","FL","38cgqt2jvy","1600","900","0","1","0","5f83138efa73fa44e23c5237","","null","","","learningBlock1","","","","That was a bim.","null","","","","","",""
"html-keyboard-response","104","291870","0.0-5.0-2.32","FL","38cgqt2jvy","1600","900","0","1","0","5f83138efa73fa44e23c5237","","null","","","learningBlock1","","","","<div style=""font-size:60px;""> </div>","null","FL","learning/Slide33.JPG","That was a bim.","","",""
"image-keyboard-response","105","292054","0.0-5.0-0.33","FL","38cgqt2jvy","1600","900","0","1","0","5f83138efa73fa44e23c5237","","null","","","","","","","learning/Slide34.JPG","null","","","","","",""
"html-keyboard-response","106","293214","0.0-5.0-1.33","FL","38cgqt2jvy","1600","900","0","1","0","5f83138efa73fa44e23c5237","","null","","","learningBlock1","","","","That was a tob.","null","","","","","",""
"html-keyboard-response","107","294222","0.0-5.0-2.33","FL","38cgqt2jvy","1600","900","0","1","0","5f83138efa73fa44e23c5237","","null","","","learningBlock1","","","","<div style=""font-size:60px;""> </div>","null","FL","learning/Slide34.JPG","That was a tob.","","",""
"image-keyboard-response","108","294405","0.0-5.0-0.34","FL","38cgqt2jvy","1600","900","0","1","0","5f83138efa73fa44e23c5237","","null","","","","","","","learning/Slide35.JPG","null","","","","","",""
"html-keyboard-response","109","295565","0.0-5.0-1.34","FL","38cgqt2jvy","1600","900","0","1","0","5f83138efa73fa44e23c5237","","null","","","learningBlock1","","","","That was a bim.","null","","","","","",""
"html-keyboard-response","110","296573","0.0-5.0-2.34","FL","38cgqt2jvy","1600","900","0","1","0","5f83138efa73fa44e23c5237","","null","","","learningBlock1","","","","<div style=""font-size:60px;""> </div>","null","FL","learning/Slide35.JPG","That was a bim.","","",""
"image-keyboard-response","111","296757","0.0-5.0-0.35","FL","38cgqt2jvy","1600","900","0","1","0","5f83138efa73fa44e23c5237","","null","","","","","","","learning/Slide36.JPG","null","","","","","",""
"html-keyboard-response","112","297917","0.0-5.0-1.35","FL","38cgqt2jvy","1600","900","0","1","0","5f83138efa73fa44e23c5237","","null","","","learningBlock1","","","","That was a dep.","null","","","","","",""
"html-keyboard-response","113","298925","0.0-5.0-2.35","FL","38cgqt2jvy","1600","900","0","1","0","5f83138efa73fa44e23c5237","","null","","","learningBlock1","","","","<div style=""font-size:60px;""> </div>","null","FL","learning/Slide36.JPG","That was a dep.","","",""
"image-keyboard-response","114","299109","0.0-5.0-0.36","FL","38cgqt2jvy","1600","900","0","1","0","5f83138efa73fa44e23c5237","","null","","","","","","","learning/Slide37.JPG","null","","","","","",""
"html-keyboard-response","115","300269","0.0-5.0-1.36","FL","38cgqt2jvy","1600","900","0","1","0","5f83138efa73fa44e23c5237","","null","","","learningBlock1","","","","That was a tob.","null","","","","","",""
"html-keyboard-response","116","301277","0.0-5.0-2.36","FL","38cgqt2jvy","1600","900","0","1","0","5f83138efa73fa44e23c5237","","null","","","learningBlock1","","","","<div style=""font-size:60px;""> </div>","null","FL","learning/Slide37.JPG","That was a tob.","","",""
"image-keyboard-response","117","301461","0.0-5.0-0.37","FL","38cgqt2jvy","1600","900","0","1","0","5f83138efa73fa44e23c5237","","null","","","","","","","learning/Slide38.JPG","null","","","","","",""
"html-keyboard-response","118","302620","0.0-5.0-1.37","FL","38cgqt2jvy","1600","900","0","1","0","5f83138efa73fa44e23c5237","","null","","","learningBlock1","","","","That was a wug.","null","","","","","",""
"html-keyboard-response","119","303628","0.0-5.0-2.37","FL","38cgqt2jvy","1600","900","0","1","0","5f83138efa73fa44e23c5237","","null","","","learningBlock1","","","","<div style=""font-size:60px;""> </div>","null","FL","learning/Slide38.JPG","That was a wug.","","",""
"image-keyboard-response","120","303812","0.0-5.0-0.38","FL","38cgqt2jvy","1600","900","0","1","0","5f83138efa73fa44e23c5237","","null","","","","","","","learning/Slide39.JPG","null","","","","","",""
"html-keyboard-response","121","304972","0.0-5.0-1.38","FL","38cgqt2jvy","1600","900","0","1","0","5f83138efa73fa44e23c5237","","null","","","learningBlock1","","","","That was a bim.","null","","","","","",""
"html-keyboard-response","122","305980","0.0-5.0-2.38","FL","38cgqt2jvy","1600","900","0","1","0","5f83138efa73fa44e23c5237","","null","","","learningBlock1","","","","<div style=""font-size:60px;""> </div>","null","FL","learning/Slide39.JPG","That was a bim.","","",""
"image-keyboard-response","123","306164","0.0-5.0-0.39","FL","38cgqt2jvy","1600","900","0","1","0","5f83138efa73fa44e23c5237","","null","","","","","","","learning/Slide40.JPG","null","","","","","",""
"html-keyboard-response","124","307324","0.0-5.0-1.39","FL","38cgqt2jvy","1600","900","0","1","0","5f83138efa73fa44e23c5237","","null","","","learningBlock1","","","","That was a tob.","null","","","","","",""
"html-keyboard-response","125","308332","0.0-5.0-2.39","FL","38cgqt2jvy","1600","900","0","1","0","5f83138efa73fa44e23c5237","","null","","","learningBlock1","","","","<div style=""font-size:60px;""> </div>","null","FL","learning/Slide40.JPG","That was a tob.","","",""
"image-keyboard-response","126","308516","0.0-5.0-0.40","FL","38cgqt2jvy","1600","900","0","1","0","5f83138efa73fa44e23c5237","","null","","","","","","","learning/Slide41.JPG","null","","","","","",""
"html-keyboard-response","127","309675","0.0-5.0-1.40","FL","38cgqt2jvy","1600","900","0","1","0","5f83138efa73fa44e23c5237","","null","","","learningBlock1","","","","That was a bim.","null","","","","","",""
"html-keyboard-response","128","310683","0.0-5.0-2.40","FL","38cgqt2jvy","1600","900","0","1","0","5f83138efa73fa44e23c5237","","null","","","learningBlock1","","","","<div style=""font-size:60px;""> </div>","null","FL","learning/Slide41.JPG","That was a bim.","","",""
"image-keyboard-response","129","310867","0.0-5.0-0.41","FL","38cgqt2jvy","1600","900","0","1","0","5f83138efa73fa44e23c5237","","null","","","","","","","learning/Slide42.JPG","null","","","","","",""
"html-keyboard-response","130","312027","0.0-5.0-1.41","FL","38cgqt2jvy","1600","900","0","1","0","5f83138efa73fa44e23c5237","","null","","","learningBlock1","","","","That was a dep.","null","","","","","",""
"html-keyboard-response","131","313035","0.0-5.0-2.41","FL","38cgqt2jvy","1600","900","0","1","0","5f83138efa73fa44e23c5237","","null","","","learningBlock1","","","","<div style=""font-size:60px;""> </div>","null","FL","learning/Slide42.JPG","That was a dep.","","",""
"image-keyboard-response","132","313219","0.0-5.0-0.42","FL","38cgqt2jvy","1600","900","0","1","0","5f83138efa73fa44e23c5237","","null","","","","","","","learning/Slide43.JPG","null","","","","","",""
"html-keyboard-response","133","314380","0.0-5.0-1.42","FL","38cgqt2jvy","1600","900","0","1","0","5f83138efa73fa44e23c5237","","null","","","learningBlock1","","","","That was a wug.","null","","","","","",""
"html-keyboard-response","134","315388","0.0-5.0-2.42","FL","38cgqt2jvy","1600","900","0","1","0","5f83138efa73fa44e23c5237","","null","","","learningBlock1","","","","<div style=""font-size:60px;""> </div>","null","FL","learning/Slide43.JPG","That was a wug.","","",""
"image-keyboard-response","135","315572","0.0-5.0-0.43","FL","38cgqt2jvy","1600","900","0","1","0","5f83138efa73fa44e23c5237","","null","","","","","","","learning/Slide44.JPG","null","","","","","",""
"html-keyboard-response","136","316732","0.0-5.0-1.43","FL","38cgqt2jvy","1600","900","0","1","0","5f83138efa73fa44e23c5237","","null","","","learningBlock1","","","","That was a bim.","null","","","","","",""
"html-keyboard-response","137","317740","0.0-5.0-2.43","FL","38cgqt2jvy","1600","900","0","1","0","5f83138efa73fa44e23c5237","","null","","","learningBlock1","","","","<div style=""font-size:60px;""> </div>","null","FL","learning/Slide44.JPG","That was a bim.","","",""
"image-keyboard-response","138","317924","0.0-5.0-0.44","FL","38cgqt2jvy","1600","900","0","1","0","5f83138efa73fa44e23c5237","","null","","","","","","","learning/Slide45.JPG","null","","","","","",""
"html-keyboard-response","139","319084","0.0-5.0-1.44","FL","38cgqt2jvy","1600","900","0","1","0","5f83138efa73fa44e23c5237","","null","","","learningBlock1","","","","That was a wug.","null","","","","","",""
"html-keyboard-response","140","320091","0.0-5.0-2.44","FL","38cgqt2jvy","1600","900","0","1","0","5f83138efa73fa44e23c5237","","null","","","learningBlock1","","","","<div style=""font-size:60px;""> </div>","null","FL","learning/Slide45.JPG","That was a wug.","","",""
"image-keyboard-response","141","320275","0.0-5.0-0.45","FL","38cgqt2jvy","1600","900","0","1","0","5f83138efa73fa44e23c5237","","null","","","","","","","learning/Slide46.JPG","null","","","","","",""
"html-keyboard-response","142","321435","0.0-5.0-1.45","FL","38cgqt2jvy","1600","900","0","1","0","5f83138efa73fa44e23c5237","","null","","","learningBlock1","","","","That was a dep.","null","","","","","",""
"html-keyboard-response","143","322443","0.0-5.0-2.45","FL","38cgqt2jvy","1600","900","0","1","0","5f83138efa73fa44e23c5237","","null","","","learningBlock1","","","","<div style=""font-size:60px;""> </div>","null","FL","learning/Slide46.JPG","That was a dep.","","",""
"image-keyboard-response","144","322627","0.0-5.0-0.46","FL","38cgqt2jvy","1600","900","0","1","0","5f83138efa73fa44e23c5237","","null","","","","","","","learning/Slide47.JPG","null","","","","","",""
"html-keyboard-response","145","323787","0.0-5.0-1.46","FL","38cgqt2jvy","1600","900","0","1","0","5f83138efa73fa44e23c5237","","null","","","learningBlock1","","","","That was a tob.","null","","","","","",""
"html-keyboard-response","146","324795","0.0-5.0-2.46","FL","38cgqt2jvy","1600","900","0","1","0","5f83138efa73fa44e23c5237","","null","","","learningBlock1","","","","<div style=""font-size:60px;""> </div>","null","FL","learning/Slide47.JPG","That was a tob.","","",""
"image-keyboard-response","147","324979","0.0-5.0-0.47","FL","38cgqt2jvy","1600","900","0","1","0","5f83138efa73fa44e23c5237","","null","","","","","","","learning/Slide48.JPG","null","","","","","",""
"html-keyboard-response","148","326139","0.0-5.0-1.47","FL","38cgqt2jvy","1600","900","0","1","0","5f83138efa73fa44e23c5237","","null","","","learningBlock1","","","","That was a bim.","null","","","","","",""
"html-keyboard-response","149","327147","0.0-5.0-2.47","FL","38cgqt2jvy","1600","900","0","1","0","5f83138efa73fa44e23c5237","","null","","","learningBlock1","","","","<div style=""font-size:60px;""> </div>","null","FL","learning/Slide48.JPG","That was a bim.","","",""
"image-keyboard-response","150","327331","0.0-5.0-0.48","FL","38cgqt2jvy","1600","900","0","1","0","5f83138efa73fa44e23c5237","","null","","","","","","","learning/Slide49.JPG","null","","","","","",""
"html-keyboard-response","151","328490","0.0-5.0-1.48","FL","38cgqt2jvy","1600","900","0","1","0","5f83138efa73fa44e23c5237","","null","","","learningBlock1","","","","That was a dep.","null","","","","","",""
"html-keyboard-response","152","329498","0.0-5.0-2.48","FL","38cgqt2jvy","1600","900","0","1","0","5f83138efa73fa44e23c5237","","null","","","learningBlock1","","","","<div style=""font-size:60px;""> </div>","null","FL","learning/Slide49.JPG","That was a dep.","","",""
"image-keyboard-response","153","329682","0.0-5.0-0.49","FL","38cgqt2jvy","1600","900","0","1","0","5f83138efa73fa44e23c5237","","null","","","","","","","learning/Slide50.JPG","null","","","","","",""
"html-keyboard-response","154","330842","0.0-5.0-1.49","FL","38cgqt2jvy","1600","900","0","1","0","5f83138efa73fa44e23c5237","","null","","","learningBlock1","","","","That was a tob.","null","","","","","",""
"html-keyboard-response","155","331850","0.0-5.0-2.49","FL","38cgqt2jvy","1600","900","0","1","0","5f83138efa73fa44e23c5237","","null","","","learningBlock1","","","","<div style=""font-size:60px;""> </div>","null","FL","learning/Slide50.JPG","That was a tob.","","",""
"image-keyboard-response","156","332034","0.0-5.0-0.50","FL","38cgqt2jvy","1600","900","0","1","0","5f83138efa73fa44e23c5237","","null","","","","","","","learning/Slide51.JPG","null","","","","","",""
"html-keyboard-response","157","333194","0.0-5.0-1.50","FL","38cgqt2jvy","1600","900","0","1","0","5f83138efa73fa44e23c5237","","null","","","learningBlock1","","","","That was a bim.","null","","","","","",""
"html-keyboard-response","158","334202","0.0-5.0-2.50","FL","38cgqt2jvy","1600","900","0","1","0","5f83138efa73fa44e23c5237","","null","","","learningBlock1","","","","<div style=""font-size:60px;""> </div>","null","FL","learning/Slide51.JPG","That was a bim.","","",""
"image-keyboard-response","159","334386","0.0-5.0-0.51","FL","38cgqt2jvy","1600","900","0","1","0","5f83138efa73fa44e23c5237","","null","","","","","","","learning/Slide52.JPG","null","","","","","",""
"html-keyboard-response","160","335545","0.0-5.0-1.51","FL","38cgqt2jvy","1600","900","0","1","0","5f83138efa73fa44e23c5237","","null","","","learningBlock1","","","","That was a wug.","null","","","","","",""
"html-keyboard-response","161","336553","0.0-5.0-2.51","FL","38cgqt2jvy","1600","900","0","1","0","5f83138efa73fa44e23c5237","","null","","","learningBlock1","","","","<div style=""font-size:60px;""> </div>","null","FL","learning/Slide52.JPG","That was a wug.","","",""
"image-keyboard-response","162","336740","0.0-5.0-0.52","FL","38cgqt2jvy","1600","900","0","1","0","5f83138efa73fa44e23c5237","","null","","","","","","","learning/Slide53.JPG","null","","","","","",""
"html-keyboard-response","163","337905","0.0-5.0-1.52","FL","38cgqt2jvy","1600","900","0","1","0","5f83138efa73fa44e23c5237","","null","","","learningBlock1","","","","That was a tob.","null","","","","","",""
"html-keyboard-response","164","338913","0.0-5.0-2.52","FL","38cgqt2jvy","1600","900","0","1","0","5f83138efa73fa44e23c5237","","null","","","learningBlock1","","","","<div style=""font-size:60px;""> </div>","null","FL","learning/Slide53.JPG","That was a tob.","","",""
"image-keyboard-response","165","339097","0.0-5.0-0.53","FL","38cgqt2jvy","1600","900","0","1","0","5f83138efa73fa44e23c5237","","null","","","","","","","learning/Slide54.JPG","null","","","","","",""
"html-keyboard-response","166","340257","0.0-5.0-1.53","FL","38cgqt2jvy","1600","900","0","1","0","5f83138efa73fa44e23c5237","","null","","","learningBlock1","","","","That was a dep.","null","","","","","",""
"html-keyboard-response","167","341265","0.0-5.0-2.53","FL","38cgqt2jvy","1600","900","0","1","0","5f83138efa73fa44e23c5237","","null","","","learningBlock1","","","","<div style=""font-size:60px;""> </div>","null","FL","learning/Slide54.JPG","That was a dep.","","",""
"image-keyboard-response","168","341449","0.0-5.0-0.54","FL","38cgqt2jvy","1600","900","0","1","0","5f83138efa73fa44e23c5237","","null","","","","","","","learning/Slide55.JPG","null","","","","","",""
"html-keyboard-response","169","342609","0.0-5.0-1.54","FL","38cgqt2jvy","1600","900","0","1","0","5f83138efa73fa44e23c5237","","null","","","learningBlock1","","","","That was a bim.","null","","","","","",""
"html-keyboard-response","170","343616","0.0-5.0-2.54","FL","38cgqt2jvy","1600","900","0","1","0","5f83138efa73fa44e23c5237","","null","","","learningBlock1","","","","<div style=""font-size:60px;""> </div>","null","FL","learning/Slide55.JPG","That was a bim.","","",""
"image-keyboard-response","171","343800","0.0-5.0-0.55","FL","38cgqt2jvy","1600","900","0","1","0","5f83138efa73fa44e23c5237","","null","","","","","","","learning/Slide56.JPG","null","","","","","",""
"html-keyboard-response","172","344960","0.0-5.0-1.55","FL","38cgqt2jvy","1600","900","0","1","0","5f83138efa73fa44e23c5237","","null","","","learningBlock1","","","","That was a tob.","null","","","","","",""
"html-keyboard-response","173","345968","0.0-5.0-2.55","FL","38cgqt2jvy","1600","900","0","1","0","5f83138efa73fa44e23c5237","","null","","","learningBlock1","","","","<div style=""font-size:60px;""> </div>","null","FL","learning/Slide56.JPG","That was a tob.","","",""
"image-keyboard-response","174","346152","0.0-5.0-0.56","FL","38cgqt2jvy","1600","900","0","1","0","5f83138efa73fa44e23c5237","","null","","","","","","","learning/Slide57.JPG","null","","","","","",""
"html-keyboard-response","175","347312","0.0-5.0-1.56","FL","38cgqt2jvy","1600","900","0","1","0","5f83138efa73fa44e23c5237","","null","","","learningBlock1","","","","That was a dep.","null","","","","","",""
"html-keyboard-response","176","348320","0.0-5.0-2.56","FL","38cgqt2jvy","1600","900","0","1","0","5f83138efa73fa44e23c5237","","null","","","learningBlock1","","","","<div style=""font-size:60px;""> </div>","null","FL","learning/Slide57.JPG","That was a dep.","","",""
"image-keyboard-response","177","348504","0.0-5.0-0.57","FL","38cgqt2jvy","1600","900","0","1","0","5f83138efa73fa44e23c5237","","null","","","","","","","learning/Slide58.JPG","null","","","","","",""
"html-keyboard-response","178","349672","0.0-5.0-1.57","FL","38cgqt2jvy","1600","900","0","1","0","5f83138efa73fa44e23c5237","","null","","","learningBlock1","","","","That was a wug.","null","","","","","",""
"html-keyboard-response","179","350680","0.0-5.0-2.57","FL","38cgqt2jvy","1600","900","0","1","0","5f83138efa73fa44e23c5237","","null","","","learningBlock1","","","","<div style=""font-size:60px;""> </div>","null","FL","learning/Slide58.JPG","That was a wug.","","",""
"image-keyboard-response","180","350864","0.0-5.0-0.58","FL","38cgqt2jvy","1600","900","0","1","0","5f83138efa73fa44e23c5237","","null","","","","","","","learning/Slide59.JPG","null","","","","","",""
"html-keyboard-response","181","352023","0.0-5.0-1.58","FL","38cgqt2jvy","1600","900","0","1","0","5f83138efa73fa44e23c5237","","null","","","learningBlock1","","","","That was a dep.","null","","","","","",""
"html-keyboard-response","182","353031","0.0-5.0-2.58","FL","38cgqt2jvy","1600","900","0","1","0","5f83138efa73fa44e23c5237","","null","","","learningBlock1","","","","<div style=""font-size:60px;""> </div>","null","FL","learning/Slide59.JPG","That was a dep.","","",""
"image-keyboard-response","183","353215","0.0-5.0-0.59","FL","38cgqt2jvy","1600","900","0","1","0","5f83138efa73fa44e23c5237","","null","","","","","","","learning/Slide60.JPG","null","","","","","",""
"html-keyboard-response","184","354375","0.0-5.0-1.59","FL","38cgqt2jvy","1600","900","0","1","0","5f83138efa73fa44e23c5237","","null","","","learningBlock1","","","","That was a wug.","null","","","","","",""
"html-keyboard-response","185","355383","0.0-5.0-2.59","FL","38cgqt2jvy","1600","900","0","1","0","5f83138efa73fa44e23c5237","","null","","","learningBlock1","","","","<div style=""font-size:60px;""> </div>","null","FL","learning/Slide60.JPG","That was a wug.","","",""
"image-keyboard-response","186","355567","0.0-5.0-0.60","FL","38cgqt2jvy","1600","900","0","1","0","5f83138efa73fa44e23c5237","","null","","","","","","","learning/Slide61.JPG","null","","","","","",""
"html-keyboard-response","187","356726","0.0-5.0-1.60","FL","38cgqt2jvy","1600","900","0","1","0","5f83138efa73fa44e23c5237","","null","","","learningBlock1","","","","That was a bim.","null","","","","","",""
"html-keyboard-response","188","357735","0.0-5.0-2.60","FL","38cgqt2jvy","1600","900","0","1","0","5f83138efa73fa44e23c5237","","null","","","learningBlock1","","","","<div style=""font-size:60px;""> </div>","null","FL","learning/Slide61.JPG","That was a bim.","","",""
"image-keyboard-response","189","357919","0.0-5.0-0.61","FL","38cgqt2jvy","1600","900","0","1","0","5f83138efa73fa44e23c5237","","null","","","","","","","learning/Slide62.JPG","null","","","","","",""
"html-keyboard-response","190","359078","0.0-5.0-1.61","FL","38cgqt2jvy","1600","900","0","1","0","5f83138efa73fa44e23c5237","","null","","","learningBlock1","","","","That was a dep.","null","","","","","",""
"html-keyboard-response","191","360086","0.0-5.0-2.61","FL","38cgqt2jvy","1600","900","0","1","0","5f83138efa73fa44e23c5237","","null","","","learningBlock1","","","","<div style=""font-size:60px;""> </div>","null","FL","learning/Slide62.JPG","That was a dep.","","",""
"image-keyboard-response","192","360270","0.0-5.0-0.62","FL","38cgqt2jvy","1600","900","0","1","0","5f83138efa73fa44e23c5237","","null","","","","","","","learning/Slide63.JPG","null","","","","","",""
"html-keyboard-response","193","361430","0.0-5.0-1.62","FL","38cgqt2jvy","1600","900","0","1","0","5f83138efa73fa44e23c5237","","null","","","learningBlock1","","","","That was a bim.","null","","","","","",""
"html-keyboard-response","194","362438","0.0-5.0-2.62","FL","38cgqt2jvy","1600","900","0","1","0","5f83138efa73fa44e23c5237","","null","","","learningBlock1","","","","<div style=""font-size:60px;""> </div>","null","FL","learning/Slide63.JPG","That was a bim.","","",""
"image-keyboard-response","195","362622","0.0-5.0-0.63","FL","38cgqt2jvy","1600","900","0","1","0","5f83138efa73fa44e23c5237","","null","","","","","","","learning/Slide64.JPG","null","","","","","",""
"html-keyboard-response","196","363782","0.0-5.0-1.63","FL","38cgqt2jvy","1600","900","0","1","0","5f83138efa73fa44e23c5237","","null","","","learningBlock1","","","","That was a tob.","null","","","","","",""
"html-keyboard-response","197","364790","0.0-5.0-2.63","FL","38cgqt2jvy","1600","900","0","1","0","5f83138efa73fa44e23c5237","","null","","","learningBlock1","","","","<div style=""font-size:60px;""> </div>","null","FL","learning/Slide64.JPG","That was a tob.","","",""
"image-keyboard-response","198","364974","0.0-5.0-0.64","FL","38cgqt2jvy","1600","900","0","1","0","5f83138efa73fa44e23c5237","","null","","","","","","","learning/Slide65.JPG","null","","","","","",""
"html-keyboard-response","199","366134","0.0-5.0-1.64","FL","38cgqt2jvy","1600","900","0","1","0","5f83138efa73fa44e23c5237","","null","","","learningBlock1","","","","That was a wug.","null","","","","","",""
"html-keyboard-response","200","367141","0.0-5.0-2.64","FL","38cgqt2jvy","1600","900","0","1","0","5f83138efa73fa44e23c5237","","null","","","learningBlock1","","","","<div style=""font-size:60px;""> </div>","null","FL","learning/Slide65.JPG","That was a wug.","","",""
"image-keyboard-response","201","367325","0.0-5.0-0.65","FL","38cgqt2jvy","1600","900","0","1","0","5f83138efa73fa44e23c5237","","null","","","","","","","learning/Slide66.JPG","null","","","","","",""
"html-keyboard-response","202","368485","0.0-5.0-1.65","FL","38cgqt2jvy","1600","900","0","1","0","5f83138efa73fa44e23c5237","","null","","","learningBlock1","","","","That was a dep.","null","","","","","",""
"html-keyboard-response","203","369493","0.0-5.0-2.65","FL","38cgqt2jvy","1600","900","0","1","0","5f83138efa73fa44e23c5237","","null","","","learningBlock1","","","","<div style=""font-size:60px;""> </div>","null","FL","learning/Slide66.JPG","That was a dep.","","",""
"image-keyboard-response","204","369677","0.0-5.0-0.66","FL","38cgqt2jvy","1600","900","0","1","0","5f83138efa73fa44e23c5237","","null","","","","","","","learning/Slide67.JPG","null","","","","","",""
"html-keyboard-response","205","370837","0.0-5.0-1.66","FL","38cgqt2jvy","1600","900","0","1","0","5f83138efa73fa44e23c5237","","null","","","learningBlock1","","","","That was a tob.","null","","","","","",""
"html-keyboard-response","206","371845","0.0-5.0-2.66","FL","38cgqt2jvy","1600","900","0","1","0","5f83138efa73fa44e23c5237","","null","","","learningBlock1","","","","<div style=""font-size:60px;""> </div>","null","FL","learning/Slide67.JPG","That was a tob.","","",""
"image-keyboard-response","207","372029","0.0-5.0-0.67","FL","38cgqt2jvy","1600","900","0","1","0","5f83138efa73fa44e23c5237","","null","","","","","","","learning/Slide68.JPG","null","","","","","",""
"html-keyboard-response","208","373188","0.0-5.0-1.67","FL","38cgqt2jvy","1600","900","0","1","0","5f83138efa73fa44e23c5237","","null","","","learningBlock1","","","","That was a wug.","null","","","","","",""
"html-keyboard-response","209","374198","0.0-5.0-2.67","FL","38cgqt2jvy","1600","900","0","1","0","5f83138efa73fa44e23c5237","","null","","","learningBlock1","","","","<div style=""font-size:60px;""> </div>","null","FL","learning/Slide68.JPG","That was a wug.","","",""
"image-keyboard-response","210","374382","0.0-5.0-0.68","FL","38cgqt2jvy","1600","900","0","1","0","5f83138efa73fa44e23c5237","","null","","","","","","","learning/Slide69.JPG","null","","","","","",""
"html-keyboard-response","211","375542","0.0-5.0-1.68","FL","38cgqt2jvy","1600","900","0","1","0","5f83138efa73fa44e23c5237","","null","","","learningBlock1","","","","That was a tob.","null","","","","","",""
"html-keyboard-response","212","376550","0.0-5.0-2.68","FL","38cgqt2jvy","1600","900","0","1","0","5f83138efa73fa44e23c5237","","null","","","learningBlock1","","","","<div style=""font-size:60px;""> </div>","null","FL","learning/Slide69.JPG","That was a tob.","","",""
"image-keyboard-response","213","376734","0.0-5.0-0.69","FL","38cgqt2jvy","1600","900","0","1","0","5f83138efa73fa44e23c5237","","null","","","","","","","learning/Slide70.JPG","null","","","","","",""
"html-keyboard-response","214","377894","0.0-5.0-1.69","FL","38cgqt2jvy","1600","900","0","1","0","5f83138efa73fa44e23c5237","","null","","","learningBlock1","","","","That was a dep.","null","","","","","",""
"html-keyboard-response","215","378902","0.0-5.0-2.69","FL","38cgqt2jvy","1600","900","0","1","0","5f83138efa73fa44e23c5237","","null","","","learningBlock1","","","","<div style=""font-size:60px;""> </div>","null","FL","learning/Slide70.JPG","That was a dep.","","",""
"image-keyboard-response","216","379086","0.0-5.0-0.70","FL","38cgqt2jvy","1600","900","0","1","0","5f83138efa73fa44e23c5237","","null","","","","","","","learning/Slide71.JPG","null","","","","","",""
"html-keyboard-response","217","380245","0.0-5.0-1.70","FL","38cgqt2jvy","1600","900","0","1","0","5f83138efa73fa44e23c5237","","null","","","learningBlock1","","","","That was a wug.","null","","","","","",""
"html-keyboard-response","218","381255","0.0-5.0-2.70","FL","38cgqt2jvy","1600","900","0","1","0","5f83138efa73fa44e23c5237","","null","","","learningBlock1","","","","<div style=""font-size:60px;""> </div>","null","FL","learning/Slide71.JPG","That was a wug.","","",""
"image-keyboard-response","219","381439","0.0-5.0-0.71","FL","38cgqt2jvy","1600","900","0","1","0","5f83138efa73fa44e23c5237","","null","","","","","","","learning/Slide72.JPG","null","","","","","",""
"html-keyboard-response","220","382599","0.0-5.0-1.71","FL","38cgqt2jvy","1600","900","0","1","0","5f83138efa73fa44e23c5237","","null","","","learningBlock1","","","","That was a bim.","null","","","","","",""
"html-keyboard-response","221","383607","0.0-5.0-2.71","FL","38cgqt2jvy","1600","900","0","1","0","5f83138efa73fa44e23c5237","","null","","","learningBlock1","","","","<div style=""font-size:60px;""> </div>","null","FL","learning/Slide72.JPG","That was a bim.","","",""
"image-keyboard-response","222","383791","0.0-5.0-0.72","FL","38cgqt2jvy","1600","900","0","1","0","5f83138efa73fa44e23c5237","","null","","","","","","","learning/Slide73.JPG","null","","","","","",""
"html-keyboard-response","223","384950","0.0-5.0-1.72","FL","38cgqt2jvy","1600","900","0","1","0","5f83138efa73fa44e23c5237","","null","","","learningBlock1","","","","That was a wug.","null","","","","","",""
"html-keyboard-response","224","385958","0.0-5.0-2.72","FL","38cgqt2jvy","1600","900","0","1","0","5f83138efa73fa44e23c5237","","null","","","learningBlock1","","","","<div style=""font-size:60px;""> </div>","null","FL","learning/Slide73.JPG","That was a wug.","","",""
"image-keyboard-response","225","386142","0.0-5.0-0.73","FL","38cgqt2jvy","1600","900","0","1","0","5f83138efa73fa44e23c5237","","null","","","","","","","learning/Slide74.JPG","null","","","","","",""
"html-keyboard-response","226","387302","0.0-5.0-1.73","FL","38cgqt2jvy","1600","900","0","1","0","5f83138efa73fa44e23c5237","","null","","","learningBlock1","","","","That was a dep.","null","","","","","",""
"html-keyboard-response","227","388310","0.0-5.0-2.73","FL","38cgqt2jvy","1600","900","0","1","0","5f83138efa73fa44e23c5237","","null","","","learningBlock1","","","","<div style=""font-size:60px;""> </div>","null","FL","learning/Slide74.JPG","That was a dep.","","",""
"image-keyboard-response","228","388494","0.0-5.0-0.74","FL","38cgqt2jvy","1600","900","0","1","0","5f83138efa73fa44e23c5237","","null","","","","","","","learning/Slide75.JPG","null","","","","","",""
"html-keyboard-response","229","389654","0.0-5.0-1.74","FL","38cgqt2jvy","1600","900","0","1","0","5f83138efa73fa44e23c5237","","null","","","learningBlock1","","","","That was a tob.","null","","","","","",""
"html-keyboard-response","230","390662","0.0-5.0-2.74","FL","38cgqt2jvy","1600","900","0","1","0","5f83138efa73fa44e23c5237","","null","","","learningBlock1","","","","<div style=""font-size:60px;""> </div>","null","FL","learning/Slide75.JPG","That was a tob.","","",""
"image-keyboard-response","231","390846","0.0-5.0-0.75","FL","38cgqt2jvy","1600","900","0","1","0","5f83138efa73fa44e23c5237","","null","","","","","","","learning/Slide76.JPG","null","","","","","",""
"html-keyboard-response","232","392005","0.0-5.0-1.75","FL","38cgqt2jvy","1600","900","0","1","0","5f83138efa73fa44e23c5237","","null","","","learningBlock1","","","","That was a bim.","null","","","","","",""
"html-keyboard-response","233","393013","0.0-5.0-2.75","FL","38cgqt2jvy","1600","900","0","1","0","5f83138efa73fa44e23c5237","","null","","","learningBlock1","","","","<div style=""font-size:60px;""> </div>","null","FL","learning/Slide76.JPG","That was a bim.","","",""
"image-keyboard-response","234","393197","0.0-5.0-0.76","FL","38cgqt2jvy","1600","900","0","1","0","5f83138efa73fa44e23c5237","","null","","","","","","","learning/Slide77.JPG","null","","","","","",""
"html-keyboard-response","235","394357","0.0-5.0-1.76","FL","38cgqt2jvy","1600","900","0","1","0","5f83138efa73fa44e23c5237","","null","","","learningBlock1","","","","That was a tob.","null","","","","","",""
"html-keyboard-response","236","395365","0.0-5.0-2.76","FL","38cgqt2jvy","1600","900","0","1","0","5f83138efa73fa44e23c5237","","null","","","learningBlock1","","","","<div style=""font-size:60px;""> </div>","null","FL","learning/Slide77.JPG","That was a tob.","","",""
"image-keyboard-response","237","395549","0.0-5.0-0.77","FL","38cgqt2jvy","1600","900","0","1","0","5f83138efa73fa44e23c5237","","null","","","","","","","learning/Slide78.JPG","null","","","","","",""
"html-keyboard-response","238","396709","0.0-5.0-1.77","FL","38cgqt2jvy","1600","900","0","1","0","5f83138efa73fa44e23c5237","","null","","","learningBlock1","","","","That was a wug.","null","","","","","",""
"html-keyboard-response","239","397715","0.0-5.0-2.77","FL","38cgqt2jvy","1600","900","0","1","0","5f83138efa73fa44e23c5237","","null","","","learningBlock1","","","","<div style=""font-size:60px;""> </div>","null","FL","learning/Slide78.JPG","That was a wug.","","",""
"image-keyboard-response","240","397898","0.0-5.0-0.78","FL","38cgqt2jvy","1600","900","0","1","0","5f83138efa73fa44e23c5237","","null","","","","","","","learning/Slide79.JPG","null","","","","","",""
"html-keyboard-response","241","399073","0.0-5.0-1.78","FL","38cgqt2jvy","1600","900","0","1","0","5f83138efa73fa44e23c5237","","null","","","learningBlock1","","","","That was a bim.","null","","","","","",""
"html-keyboard-response","242","400081","0.0-5.0-2.78","FL","38cgqt2jvy","1600","900","0","1","0","5f83138efa73fa44e23c5237","","null","","","learningBlock1","","","","<div style=""font-size:60px;""> </div>","null","FL","learning/Slide79.JPG","That was a bim.","","",""
"image-keyboard-response","243","400265","0.0-5.0-0.79","FL","38cgqt2jvy","1600","900","0","1","0","5f83138efa73fa44e23c5237","","null","","","","","","","learning/Slide80.JPG","null","","","","","",""
"html-keyboard-response","244","401425","0.0-5.0-1.79","FL","38cgqt2jvy","1600","900","0","1","0","5f83138efa73fa44e23c5237","","null","","","learningBlock1","","","","That was a tob.","null","","","","","",""
"html-keyboard-response","245","402433","0.0-5.0-2.79","FL","38cgqt2jvy","1600","900","0","1","0","5f83138efa73fa44e23c5237","","null","","","learningBlock1","","","","<div style=""font-size:60px;""> </div>","null","FL","learning/Slide80.JPG","That was a tob.","","",""
"instructions","246","434362","0.0-6.0","FL","38cgqt2jvy","1600","900","0","1","0","5f83138efa73fa44e23c5237","","NA","","[{""page_index"":0,""viewing_time"":31933.920000097714}]","instructions","","","","","","","","","","",""
"image-keyboard-response","247","434547","0.0-7.0-0.0","FL","38cgqt2jvy","1600","900","0","1","0","5f83138efa73fa44e23c5237","","null","","","","","","","learning/Slide81.JPG","null","","","","","",""
"html-keyboard-response","248","435707","0.0-7.0-1.0","FL","38cgqt2jvy","1600","900","0","1","0","5f83138efa73fa44e23c5237","","null","","","learningBlock2","","","","That was a wug.","null","","","","","",""
"html-keyboard-response","249","436715","0.0-7.0-2.0","FL","38cgqt2jvy","1600","900","0","1","0","5f83138efa73fa44e23c5237","","null","","","learningBlock2","","","","<div style=""font-size:60px;""> </div>","null","FL","learning/Slide81.JPG","That was a wug.","","",""
"image-keyboard-response","250","436899","0.0-7.0-0.1","FL","38cgqt2jvy","1600","900","0","1","0","5f83138efa73fa44e23c5237","","null","","","","","","","learning/Slide82.JPG","null","","","","","",""
"html-keyboard-response","251","438059","0.0-7.0-1.1","FL","38cgqt2jvy","1600","900","0","1","0","5f83138efa73fa44e23c5237","","null","","","learningBlock2","","","","That was a bim.","null","","","","","",""
"html-keyboard-response","252","439067","0.0-7.0-2.1","FL","38cgqt2jvy","1600","900","0","1","0","5f83138efa73fa44e23c5237","","null","","","learningBlock2","","","","<div style=""font-size:60px;""> </div>","null","FL","learning/Slide82.JPG","That was a bim.","","",""
"image-keyboard-response","253","439251","0.0-7.0-0.2","FL","38cgqt2jvy","1600","900","0","1","0","5f83138efa73fa44e23c5237","","null","","","","","","","learning/Slide83.JPG","null","","","","","",""
"html-keyboard-response","254","440411","0.0-7.0-1.2","FL","38cgqt2jvy","1600","900","0","1","0","5f83138efa73fa44e23c5237","","null","","","learningBlock2","","","","That was a wug.","null","","","","","",""
"html-keyboard-response","255","441419","0.0-7.0-2.2","FL","38cgqt2jvy","1600","900","0","1","0","5f83138efa73fa44e23c5237","","null","","","learningBlock2","","","","<div style=""font-size:60px;""> </div>","null","FL","learning/Slide83.JPG","That was a wug.","","",""
"image-keyboard-response","256","441603","0.0-7.0-0.3","FL","38cgqt2jvy","1600","900","0","1","0","5f83138efa73fa44e23c5237","","null","","","","","","","learning/Slide84.JPG","null","","","","","",""
"html-keyboard-response","257","442770","0.0-7.0-1.3","FL","38cgqt2jvy","1600","900","0","1","0","5f83138efa73fa44e23c5237","","null","","","learningBlock2","","","","That was a dep.","null","","","","","",""
"html-keyboard-response","258","443778","0.0-7.0-2.3","FL","38cgqt2jvy","1600","900","0","1","0","5f83138efa73fa44e23c5237","","null","","","learningBlock2","","","","<div style=""font-size:60px;""> </div>","null","FL","learning/Slide84.JPG","That was a dep.","","",""
"image-keyboard-response","259","443962","0.0-7.0-0.4","FL","38cgqt2jvy","1600","900","0","1","0","5f83138efa73fa44e23c5237","","null","","","","","","","learning/Slide85.JPG","null","","","","","",""
"html-keyboard-response","260","445122","0.0-7.0-1.4","FL","38cgqt2jvy","1600","900","0","1","0","5f83138efa73fa44e23c5237","","null","","","learningBlock2","","","","That was a bim.","null","","","","","",""
"html-keyboard-response","261","446130","0.0-7.0-2.4","FL","38cgqt2jvy","1600","900","0","1","0","5f83138efa73fa44e23c5237","","null","","","learningBlock2","","","","<div style=""font-size:60px;""> </div>","null","FL","learning/Slide85.JPG","That was a bim.","","",""
"image-keyboard-response","262","446314","0.0-7.0-0.5","FL","38cgqt2jvy","1600","900","0","1","0","5f83138efa73fa44e23c5237","","null","","","","","","","learning/Slide86.JPG","null","","","","","",""
"html-keyboard-response","263","447474","0.0-7.0-1.5","FL","38cgqt2jvy","1600","900","0","1","0","5f83138efa73fa44e23c5237","","null","","","learningBlock2","","","","That was a tob.","null","","","","","",""
"html-keyboard-response","264","448482","0.0-7.0-2.5","FL","38cgqt2jvy","1600","900","0","1","0","5f83138efa73fa44e23c5237","","null","","","learningBlock2","","","","<div style=""font-size:60px;""> </div>","null","FL","learning/Slide86.JPG","That was a tob.","","",""
"image-keyboard-response","265","448666","0.0-7.0-0.6","FL","38cgqt2jvy","1600","900","0","1","0","5f83138efa73fa44e23c5237","","null","","","","","","","learning/Slide87.JPG","null","","","","","",""
"html-keyboard-response","266","449825","0.0-7.0-1.6","FL","38cgqt2jvy","1600","900","0","1","0","5f83138efa73fa44e23c5237","","null","","","learningBlock2","","","","That was a wug.","null","","","","","",""
"html-keyboard-response","267","450833","0.0-7.0-2.6","FL","38cgqt2jvy","1600","900","0","1","0","5f83138efa73fa44e23c5237","","null","","","learningBlock2","","","","<div style=""font-size:60px;""> </div>","null","FL","learning/Slide87.JPG","That was a wug.","","",""
"image-keyboard-response","268","451017","0.0-7.0-0.7","FL","38cgqt2jvy","1600","900","0","1","0","5f83138efa73fa44e23c5237","","null","","","","","","","learning/Slide88.JPG","null","","","","","",""
"html-keyboard-response","269","452177","0.0-7.0-1.7","FL","38cgqt2jvy","1600","900","0","1","0","5f83138efa73fa44e23c5237","","null","","","learningBlock2","","","","That was a tob.","null","","","","","",""
"html-keyboard-response","270","453185","0.0-7.0-2.7","FL","38cgqt2jvy","1600","900","0","1","0","5f83138efa73fa44e23c5237","","null","","","learningBlock2","","","","<div style=""font-size:60px;""> </div>","null","FL","learning/Slide88.JPG","That was a tob.","","",""
"image-keyboard-response","271","453369","0.0-7.0-0.8","FL","38cgqt2jvy","1600","900","0","1","0","5f83138efa73fa44e23c5237","","null","","","","","","","learning/Slide89.JPG","null","","","","","",""
"html-keyboard-response","272","454529","0.0-7.0-1.8","FL","38cgqt2jvy","1600","900","0","1","0","5f83138efa73fa44e23c5237","","null","","","learningBlock2","","","","That was a bim.","null","","","","","",""
"html-keyboard-response","273","455537","0.0-7.0-2.8","FL","38cgqt2jvy","1600","900","0","1","0","5f83138efa73fa44e23c5237","","null","","","learningBlock2","","","","<div style=""font-size:60px;""> </div>","null","FL","learning/Slide89.JPG","That was a bim.","","",""
"image-keyboard-response","274","455721","0.0-7.0-0.9","FL","38cgqt2jvy","1600","900","0","1","0","5f83138efa73fa44e23c5237","","null","","","","","","","learning/Slide90.JPG","null","","","","","",""
"html-keyboard-response","275","456881","0.0-7.0-1.9","FL","38cgqt2jvy","1600","900","0","1","0","5f83138efa73fa44e23c5237","","null","","","learningBlock2","","","","That was a dep.","null","","","","","",""
"html-keyboard-response","276","457888","0.0-7.0-2.9","FL","38cgqt2jvy","1600","900","0","1","0","5f83138efa73fa44e23c5237","","null","","","learningBlock2","","","","<div style=""font-size:60px;""> </div>","null","FL","learning/Slide90.JPG","That was a dep.","","",""
"image-keyboard-response","277","458072","0.0-7.0-0.10","FL","38cgqt2jvy","1600","900","0","1","0","5f83138efa73fa44e23c5237","","null","","","","","","","learning/Slide91.JPG","null","","","","","",""
"html-keyboard-response","278","459232","0.0-7.0-1.10","FL","38cgqt2jvy","1600","900","0","1","0","5f83138efa73fa44e23c5237","","null","","","learningBlock2","","","","That was a wug.","null","","","","","",""
"html-keyboard-response","279","460240","0.0-7.0-2.10","FL","38cgqt2jvy","1600","900","0","1","0","5f83138efa73fa44e23c5237","","null","","","learningBlock2","","","","<div style=""font-size:60px;""> </div>","null","FL","learning/Slide91.JPG","That was a wug.","","",""
"image-keyboard-response","280","460424","0.0-7.0-0.11","FL","38cgqt2jvy","1600","900","0","1","0","5f83138efa73fa44e23c5237","","null","","","","","","","learning/Slide92.JPG","null","","","","","",""
"html-keyboard-response","281","461584","0.0-7.0-1.11","FL","38cgqt2jvy","1600","900","0","1","0","5f83138efa73fa44e23c5237","","null","","","learningBlock2","","","","That was a tob.","null","","","","","",""
"html-keyboard-response","282","462592","0.0-7.0-2.11","FL","38cgqt2jvy","1600","900","0","1","0","5f83138efa73fa44e23c5237","","null","","","learningBlock2","","","","<div style=""font-size:60px;""> </div>","null","FL","learning/Slide92.JPG","That was a tob.","","",""
"image-keyboard-response","283","462776","0.0-7.0-0.12","FL","38cgqt2jvy","1600","900","0","1","0","5f83138efa73fa44e23c5237","","null","","","","","","","learning/Slide93.JPG","null","","","","","",""
"html-keyboard-response","284","463936","0.0-7.0-1.12","FL","38cgqt2jvy","1600","900","0","1","0","5f83138efa73fa44e23c5237","","null","","","learningBlock2","","","","That was a bim.","null","","","","","",""
"html-keyboard-response","285","464944","0.0-7.0-2.12","FL","38cgqt2jvy","1600","900","0","1","0","5f83138efa73fa44e23c5237","","null","","","learningBlock2","","","","<div style=""font-size:60px;""> </div>","null","FL","learning/Slide93.JPG","That was a bim.","","",""
"image-keyboard-response","286","465127","0.0-7.0-0.13","FL","38cgqt2jvy","1600","900","0","1","0","5f83138efa73fa44e23c5237","","null","","","","","","","learning/Slide94.JPG","null","","","","","",""
"html-keyboard-response","287","466287","0.0-7.0-1.13","FL","38cgqt2jvy","1600","900","0","1","0","5f83138efa73fa44e23c5237","","null","","","learningBlock2","","","","That was a tob.","null","","","","","",""
"html-keyboard-response","288","467295","0.0-7.0-2.13","FL","38cgqt2jvy","1600","900","0","1","0","5f83138efa73fa44e23c5237","","null","","","learningBlock2","","","","<div style=""font-size:60px;""> </div>","null","FL","learning/Slide94.JPG","That was a tob.","","",""
"image-keyboard-response","289","467479","0.0-7.0-0.14","FL","38cgqt2jvy","1600","900","0","1","0","5f83138efa73fa44e23c5237","","null","","","","","","","learning/Slide95.JPG","null","","","","","",""
"html-keyboard-response","290","468639","0.0-7.0-1.14","FL","38cgqt2jvy","1600","900","0","1","0","5f83138efa73fa44e23c5237","","null","","","learningBlock2","","","","That was a wug.","null","","","","","",""
"html-keyboard-response","291","469647","0.0-7.0-2.14","FL","38cgqt2jvy","1600","900","0","1","0","5f83138efa73fa44e23c5237","","null","","","learningBlock2","","","","<div style=""font-size:60px;""> </div>","null","FL","learning/Slide95.JPG","That was a wug.","","",""
"image-keyboard-response","292","469831","0.0-7.0-0.15","FL","38cgqt2jvy","1600","900","0","1","0","5f83138efa73fa44e23c5237","","null","","","","","","","learning/Slide96.JPG","null","","","","","",""
"html-keyboard-response","293","470991","0.0-7.0-1.15","FL","38cgqt2jvy","1600","900","0","1","0","5f83138efa73fa44e23c5237","","null","","","learningBlock2","","","","That was a tob.","null","","","","","",""
"html-keyboard-response","294","471999","0.0-7.0-2.15","FL","38cgqt2jvy","1600","900","0","1","0","5f83138efa73fa44e23c5237","","null","","","learningBlock2","","","","<div style=""font-size:60px;""> </div>","null","FL","learning/Slide96.JPG","That was a tob.","","",""
"image-keyboard-response","295","472183","0.0-7.0-0.16","FL","38cgqt2jvy","1600","900","0","1","0","5f83138efa73fa44e23c5237","","null","","","","","","","learning/Slide97.JPG","null","","","","","",""
"html-keyboard-response","296","473342","0.0-7.0-1.16","FL","38cgqt2jvy","1600","900","0","1","0","5f83138efa73fa44e23c5237","","null","","","learningBlock2","","","","That was a dep.","null","","","","","",""
"html-keyboard-response","297","474350","0.0-7.0-2.16","FL","38cgqt2jvy","1600","900","0","1","0","5f83138efa73fa44e23c5237","","null","","","learningBlock2","","","","<div style=""font-size:60px;""> </div>","null","FL","learning/Slide97.JPG","That was a dep.","","",""
"image-keyboard-response","298","474534","0.0-7.0-0.17","FL","38cgqt2jvy","1600","900","0","1","0","5f83138efa73fa44e23c5237","","null","","","","","","","learning/Slide98.JPG","null","","","","","",""
"html-keyboard-response","299","475694","0.0-7.0-1.17","FL","38cgqt2jvy","1600","900","0","1","0","5f83138efa73fa44e23c5237","","null","","","learningBlock2","","","","That was a bim.","null","","","","","",""
"html-keyboard-response","300","476702","0.0-7.0-2.17","FL","38cgqt2jvy","1600","900","0","1","0","5f83138efa73fa44e23c5237","","null","","","learningBlock2","","","","<div style=""font-size:60px;""> </div>","null","FL","learning/Slide98.JPG","That was a bim.","","",""
"image-keyboard-response","301","476886","0.0-7.0-0.18","FL","38cgqt2jvy","1600","900","0","1","0","5f83138efa73fa44e23c5237","","null","","","","","","","learning/Slide99.JPG","null","","","","","",""
"html-keyboard-response","302","478046","0.0-7.0-1.18","FL","38cgqt2jvy","1600","900","0","1","0","5f83138efa73fa44e23c5237","","null","","","learningBlock2","","","","That was a dep.","null","","","","","",""
"html-keyboard-response","303","479059","0.0-7.0-2.18","FL","38cgqt2jvy","1600","900","0","1","0","5f83138efa73fa44e23c5237","","null","","","learningBlock2","","","","<div style=""font-size:60px;""> </div>","null","FL","learning/Slide99.JPG","That was a dep.","","",""
"image-keyboard-response","304","479243","0.0-7.0-0.19","FL","38cgqt2jvy","1600","900","0","1","0","5f83138efa73fa44e23c5237","","null","","","","","","","learning/Slide100.JPG","null","","","","","",""
"html-keyboard-response","305","480403","0.0-7.0-1.19","FL","38cgqt2jvy","1600","900","0","1","0","5f83138efa73fa44e23c5237","","null","","","learningBlock2","","","","That was a bim.","null","","","","","",""
"html-keyboard-response","306","481411","0.0-7.0-2.19","FL","38cgqt2jvy","1600","900","0","1","0","5f83138efa73fa44e23c5237","","null","","","learningBlock2","","","","<div style=""font-size:60px;""> </div>","null","FL","learning/Slide100.JPG","That was a bim.","","",""
"image-keyboard-response","307","481595","0.0-7.0-0.20","FL","38cgqt2jvy","1600","900","0","1","0","5f83138efa73fa44e23c5237","","null","","","","","","","learning/Slide101.JPG","null","","","","","",""
"html-keyboard-response","308","482748","0.0-7.0-1.20","FL","38cgqt2jvy","1600","900","0","1","0","5f83138efa73fa44e23c5237","","null","","","learningBlock2","","","","That was a tob.","null","","","","","",""
"html-keyboard-response","309","483763","0.0-7.0-2.20","FL","38cgqt2jvy","1600","900","0","1","0","5f83138efa73fa44e23c5237","","null","","","learningBlock2","","","","<div style=""font-size:60px;""> </div>","null","FL","learning/Slide101.JPG","That was a tob.","","",""
"image-keyboard-response","310","483945","0.0-7.0-0.21","FL","38cgqt2jvy","1600","900","0","1","0","5f83138efa73fa44e23c5237","","null","","","","","","","learning/Slide102.JPG","null","","","","","",""
"html-keyboard-response","311","485107","0.0-7.0-1.21","FL","38cgqt2jvy","1600","900","0","1","0","5f83138efa73fa44e23c5237","","null","","","learningBlock2","","","","That was a bim.","null","","","","","",""
"html-keyboard-response","312","486109","0.0-7.0-2.21","FL","38cgqt2jvy","1600","900","0","1","0","5f83138efa73fa44e23c5237","","null","","","learningBlock2","","","","<div style=""font-size:60px;""> </div>","null","FL","learning/Slide102.JPG","That was a bim.","","",""
"image-keyboard-response","313","486291","0.0-7.0-0.22","FL","38cgqt2jvy","1600","900","0","1","0","5f83138efa73fa44e23c5237","","null","","","","","","","learning/Slide103.JPG","null","","","","","",""
"html-keyboard-response","314","487455","0.0-7.0-1.22","FL","38cgqt2jvy","1600","900","0","1","0","5f83138efa73fa44e23c5237","","null","","","learningBlock2","","","","That was a dep.","null","","","","","",""
"html-keyboard-response","315","488466","0.0-7.0-2.22","FL","38cgqt2jvy","1600","900","0","1","0","5f83138efa73fa44e23c5237","","null","","","learningBlock2","","","","<div style=""font-size:60px;""> </div>","null","FL","learning/Slide103.JPG","That was a dep.","","",""
"image-keyboard-response","316","488647","0.0-7.0-0.23","FL","38cgqt2jvy","1600","900","0","1","0","5f83138efa73fa44e23c5237","","null","","","","","","","learning/Slide104.JPG","null","","","","","",""
"html-keyboard-response","317","489815","0.0-7.0-1.23","FL","38cgqt2jvy","1600","900","0","1","0","5f83138efa73fa44e23c5237","","null","","","learningBlock2","","","","That was a tob.","null","","","","","",""
"html-keyboard-response","318","490817","0.0-7.0-2.23","FL","38cgqt2jvy","1600","900","0","1","0","5f83138efa73fa44e23c5237","","null","","","learningBlock2","","","","<div style=""font-size:60px;""> </div>","null","FL","learning/Slide104.JPG","That was a tob.","","",""
"image-keyboard-response","319","491007","0.0-7.0-0.24","FL","38cgqt2jvy","1600","900","0","1","0","5f83138efa73fa44e23c5237","","null","","","","","","","learning/Slide105.JPG","null","","","","","",""
"html-keyboard-response","320","492169","0.0-7.0-1.24","FL","38cgqt2jvy","1600","900","0","1","0","5f83138efa73fa44e23c5237","","null","","","learningBlock2","","","","That was a dep.","null","","","","","",""
"html-keyboard-response","321","493171","0.0-7.0-2.24","FL","38cgqt2jvy","1600","900","0","1","0","5f83138efa73fa44e23c5237","","null","","","learningBlock2","","","","<div style=""font-size:60px;""> </div>","null","FL","learning/Slide105.JPG","That was a dep.","","",""
"image-keyboard-response","322","493354","0.0-7.0-0.25","FL","38cgqt2jvy","1600","900","0","1","0","5f83138efa73fa44e23c5237","","null","","","","","","","learning/Slide106.JPG","null","","","","","",""
"html-keyboard-response","323","494531","0.0-7.0-1.25","FL","38cgqt2jvy","1600","900","0","1","0","5f83138efa73fa44e23c5237","","null","","","learningBlock2","","","","That was a wug.","null","","","","","",""
"html-keyboard-response","324","495548","0.0-7.0-2.25","FL","38cgqt2jvy","1600","900","0","1","0","5f83138efa73fa44e23c5237","","null","","","learningBlock2","","","","<div style=""font-size:60px;""> </div>","null","FL","learning/Slide106.JPG","That was a wug.","","",""
"image-keyboard-response","325","495730","0.0-7.0-0.26","FL","38cgqt2jvy","1600","900","0","1","0","5f83138efa73fa44e23c5237","","null","","","","","","","learning/Slide107.JPG","null","","","","","",""
"html-keyboard-response","326","496907","0.0-7.0-1.26","FL","38cgqt2jvy","1600","900","0","1","0","5f83138efa73fa44e23c5237","","null","","","learningBlock2","","","","That was a bim.","null","","","","","",""
"html-keyboard-response","327","497909","0.0-7.0-2.26","FL","38cgqt2jvy","1600","900","0","1","0","5f83138efa73fa44e23c5237","","null","","","learningBlock2","","","","<div style=""font-size:60px;""> </div>","null","FL","learning/Slide107.JPG","That was a bim.","","",""
"image-keyboard-response","328","498099","0.0-7.0-0.27","FL","38cgqt2jvy","1600","900","0","1","0","5f83138efa73fa44e23c5237","","null","","","","","","","learning/Slide108.JPG","null","","","","","",""
"html-keyboard-response","329","499266","0.0-7.0-1.27","FL","38cgqt2jvy","1600","900","0","1","0","5f83138efa73fa44e23c5237","","null","","","learningBlock2","","","","That was a dep.","null","","","","","",""
"html-keyboard-response","330","500269","0.0-7.0-2.27","FL","38cgqt2jvy","1600","900","0","1","0","5f83138efa73fa44e23c5237","","null","","","learningBlock2","","","","<div style=""font-size:60px;""> </div>","null","FL","learning/Slide108.JPG","That was a dep.","","",""
"image-keyboard-response","331","500459","0.0-7.0-0.28","FL","38cgqt2jvy","1600","900","0","1","0","5f83138efa73fa44e23c5237","","null","","","","","","","learning/Slide109.JPG","null","","","","","",""
"html-keyboard-response","332","501628","0.0-7.0-1.28","FL","38cgqt2jvy","1600","900","0","1","0","5f83138efa73fa44e23c5237","","null","","","learningBlock2","","","","That was a wug.","null","","","","","",""
"html-keyboard-response","333","502631","0.0-7.0-2.28","FL","38cgqt2jvy","1600","900","0","1","0","5f83138efa73fa44e23c5237","","null","","","learningBlock2","","","","<div style=""font-size:60px;""> </div>","null","FL","learning/Slide109.JPG","That was a wug.","","",""
"image-keyboard-response","334","502821","0.0-7.0-0.29","FL","38cgqt2jvy","1600","900","0","1","0","5f83138efa73fa44e23c5237","","null","","","","","","","learning/Slide110.JPG","null","","","","","",""
"html-keyboard-response","335","503990","0.0-7.0-1.29","FL","38cgqt2jvy","1600","900","0","1","0","5f83138efa73fa44e23c5237","","null","","","learningBlock2","","","","That was a bim.","null","","","","","",""
"html-keyboard-response","336","504992","0.0-7.0-2.29","FL","38cgqt2jvy","1600","900","0","1","0","5f83138efa73fa44e23c5237","","null","","","learningBlock2","","","","<div style=""font-size:60px;""> </div>","null","FL","learning/Slide110.JPG","That was a bim.","","",""
"image-keyboard-response","337","505182","0.0-7.0-0.30","FL","38cgqt2jvy","1600","900","0","1","0","5f83138efa73fa44e23c5237","","null","","","","","","","learning/Slide111.JPG","null","","","","","",""
"html-keyboard-response","338","506344","0.0-7.0-1.30","FL","38cgqt2jvy","1600","900","0","1","0","5f83138efa73fa44e23c5237","","null","","","learningBlock2","","","","That was a tob.","null","","","","","",""
"html-keyboard-response","339","507346","0.0-7.0-2.30","FL","38cgqt2jvy","1600","900","0","1","0","5f83138efa73fa44e23c5237","","null","","","learningBlock2","","","","<div style=""font-size:60px;""> </div>","null","FL","learning/Slide111.JPG","That was a tob.","","",""
"image-keyboard-response","340","507529","0.0-7.0-0.31","FL","38cgqt2jvy","1600","900","0","1","0","5f83138efa73fa44e23c5237","","null","","","","","","","learning/Slide112.JPG","null","","","","","",""
"html-keyboard-response","341","508699","0.0-7.0-1.31","FL","38cgqt2jvy","1600","900","0","1","0","5f83138efa73fa44e23c5237","","null","","","learningBlock2","","","","That was a wug.","null","","","","","",""
"html-keyboard-response","342","509710","0.0-7.0-2.31","FL","38cgqt2jvy","1600","900","0","1","0","5f83138efa73fa44e23c5237","","null","","","learningBlock2","","","","<div style=""font-size:60px;""> </div>","null","FL","learning/Slide112.JPG","That was a wug.","","",""
"image-keyboard-response","343","509900","0.0-7.0-0.32","FL","38cgqt2jvy","1600","900","0","1","0","5f83138efa73fa44e23c5237","","null","","","","","","","learning/Slide113.JPG","null","","","","","",""
"html-keyboard-response","344","511069","0.0-7.0-1.32","FL","38cgqt2jvy","1600","900","0","1","0","5f83138efa73fa44e23c5237","","null","","","learningBlock2","","","","That was a tob.","null","","","","","",""
"html-keyboard-response","345","512079","0.0-7.0-2.32","FL","38cgqt2jvy","1600","900","0","1","0","5f83138efa73fa44e23c5237","","null","","","learningBlock2","","","","<div style=""font-size:60px;""> </div>","null","FL","learning/Slide113.JPG","That was a tob.","","",""
"image-keyboard-response","346","512261","0.0-7.0-0.33","FL","38cgqt2jvy","1600","900","0","1","0","5f83138efa73fa44e23c5237","","null","","","","","","","learning/Slide114.JPG","null","","","","","",""
"html-keyboard-response","347","513424","0.0-7.0-1.33","FL","38cgqt2jvy","1600","900","0","1","0","5f83138efa73fa44e23c5237","","null","","","learningBlock2","","","","That was a wug.","null","","","","","",""
"html-keyboard-response","348","514426","0.0-7.0-2.33","FL","38cgqt2jvy","1600","900","0","1","0","5f83138efa73fa44e23c5237","","null","","","learningBlock2","","","","<div style=""font-size:60px;""> </div>","null","FL","learning/Slide114.JPG","That was a wug.","","",""
"image-keyboard-response","349","514616","0.0-7.0-0.34","FL","38cgqt2jvy","1600","900","0","1","0","5f83138efa73fa44e23c5237","","null","","","","","","","learning/Slide115.JPG","null","","","","","",""
"html-keyboard-response","350","515785","0.0-7.0-1.34","FL","38cgqt2jvy","1600","900","0","1","0","5f83138efa73fa44e23c5237","","null","","","learningBlock2","","","","That was a bim.","null","","","","","",""
"html-keyboard-response","351","516802","0.0-7.0-2.34","FL","38cgqt2jvy","1600","900","0","1","0","5f83138efa73fa44e23c5237","","null","","","learningBlock2","","","","<div style=""font-size:60px;""> </div>","null","FL","learning/Slide115.JPG","That was a bim.","","",""
"image-keyboard-response","352","516992","0.0-7.0-0.35","FL","38cgqt2jvy","1600","900","0","1","0","5f83138efa73fa44e23c5237","","null","","","","","","","learning/Slide116.JPG","null","","","","","",""
"html-keyboard-response","353","518166","0.0-7.0-1.35","FL","38cgqt2jvy","1600","900","0","1","0","5f83138efa73fa44e23c5237","","null","","","learningBlock2","","","","That was a dep.","null","","","","","",""
"html-keyboard-response","354","519176","0.0-7.0-2.35","FL","38cgqt2jvy","1600","900","0","1","0","5f83138efa73fa44e23c5237","","null","","","learningBlock2","","","","<div style=""font-size:60px;""> </div>","null","FL","learning/Slide116.JPG","That was a dep.","","",""
"image-keyboard-response","355","519358","0.0-7.0-0.36","FL","38cgqt2jvy","1600","900","0","1","0","5f83138efa73fa44e23c5237","","null","","","","","","","learning/Slide117.JPG","null","","","","","",""
"html-keyboard-response","356","520520","0.0-7.0-1.36","FL","38cgqt2jvy","1600","900","0","1","0","5f83138efa73fa44e23c5237","","null","","","learningBlock2","","","","That was a tob.","null","","","","","",""
"html-keyboard-response","357","521522","0.0-7.0-2.36","FL","38cgqt2jvy","1600","900","0","1","0","5f83138efa73fa44e23c5237","","null","","","learningBlock2","","","","<div style=""font-size:60px;""> </div>","null","FL","learning/Slide117.JPG","That was a tob.","","",""
"image-keyboard-response","358","521713","0.0-7.0-0.37","FL","38cgqt2jvy","1600","900","0","1","0","5f83138efa73fa44e23c5237","","null","","","","","","","learning/Slide118.JPG","null","","","","","",""
"html-keyboard-response","359","522882","0.0-7.0-1.37","FL","38cgqt2jvy","1600","900","0","1","0","5f83138efa73fa44e23c5237","","null","","","learningBlock2","","","","That was a dep.","null","","","","","",""
"html-keyboard-response","360","523884","0.0-7.0-2.37","FL","38cgqt2jvy","1600","900","0","1","0","5f83138efa73fa44e23c5237","","null","","","learningBlock2","","","","<div style=""font-size:60px;""> </div>","null","FL","learning/Slide118.JPG","That was a dep.","","",""
"image-keyboard-response","361","524074","0.0-7.0-0.38","FL","38cgqt2jvy","1600","900","0","1","0","5f83138efa73fa44e23c5237","","null","","","","","","","learning/Slide119.JPG","null","","","","","",""
"html-keyboard-response","362","525236","0.0-7.0-1.38","FL","38cgqt2jvy","1600","900","0","1","0","5f83138efa73fa44e23c5237","","null","","","learningBlock2","","","","That was a wug.","null","","","","","",""
"html-keyboard-response","363","526238","0.0-7.0-2.38","FL","38cgqt2jvy","1600","900","0","1","0","5f83138efa73fa44e23c5237","","null","","","learningBlock2","","","","<div style=""font-size:60px;""> </div>","null","FL","learning/Slide119.JPG","That was a wug.","","",""
"image-keyboard-response","364","526421","0.0-7.0-0.39","FL","38cgqt2jvy","1600","900","0","1","0","5f83138efa73fa44e23c5237","","null","","","","","","","learning/Slide120.JPG","null","","","","","",""
"html-keyboard-response","365","527582","0.0-7.0-1.39","FL","38cgqt2jvy","1600","900","0","1","0","5f83138efa73fa44e23c5237","","null","","","learningBlock2","","","","That was a dep.","null","","","","","",""
"html-keyboard-response","366","528598","0.0-7.0-2.39","FL","38cgqt2jvy","1600","900","0","1","0","5f83138efa73fa44e23c5237","","null","","","learningBlock2","","","","<div style=""font-size:60px;""> </div>","null","FL","learning/Slide120.JPG","That was a dep.","","",""
"image-keyboard-response","367","528780","0.0-7.0-0.40","FL","38cgqt2jvy","1600","900","0","1","0","5f83138efa73fa44e23c5237","","null","","","","","","","learning/Slide121.JPG","null","","","","","",""
"html-keyboard-response","368","529957","0.0-7.0-1.40","FL","38cgqt2jvy","1600","900","0","1","0","5f83138efa73fa44e23c5237","","null","","","learningBlock2","","","","That was a bim.","null","","","","","",""
"html-keyboard-response","369","530959","0.0-7.0-2.40","FL","38cgqt2jvy","1600","900","0","1","0","5f83138efa73fa44e23c5237","","null","","","learningBlock2","","","","<div style=""font-size:60px;""> </div>","null","FL","learning/Slide121.JPG","That was a bim.","","",""
"image-keyboard-response","370","531142","0.0-7.0-0.41","FL","38cgqt2jvy","1600","900","0","1","0","5f83138efa73fa44e23c5237","","null","","","","","","","learning/Slide122.JPG","null","","","","","",""
"html-keyboard-response","371","532315","0.0-7.0-1.41","FL","38cgqt2jvy","1600","900","0","1","0","5f83138efa73fa44e23c5237","","null","","","learningBlock2","","","","That was a wug.","null","","","","","",""
"html-keyboard-response","372","533333","0.0-7.0-2.41","FL","38cgqt2jvy","1600","900","0","1","0","5f83138efa73fa44e23c5237","","null","","","learningBlock2","","","","<div style=""font-size:60px;""> </div>","null","FL","learning/Slide122.JPG","That was a wug.","","",""
"image-keyboard-response","373","533515","0.0-7.0-0.42","FL","38cgqt2jvy","1600","900","0","1","0","5f83138efa73fa44e23c5237","","null","","","","","","","learning/Slide123.JPG","null","","","","","",""
"html-keyboard-response","374","534690","0.0-7.0-1.42","FL","38cgqt2jvy","1600","900","0","1","0","5f83138efa73fa44e23c5237","","null","","","learningBlock2","","","","That was a bim.","null","","","","","",""
"html-keyboard-response","375","535697","0.0-7.0-2.42","FL","38cgqt2jvy","1600","900","0","1","0","5f83138efa73fa44e23c5237","","null","","","learningBlock2","","","","<div style=""font-size:60px;""> </div>","null","FL","learning/Slide123.JPG","That was a bim.","","",""
"image-keyboard-response","376","535880","0.0-7.0-0.43","FL","38cgqt2jvy","1600","900","0","1","0","5f83138efa73fa44e23c5237","","null","","","","","","","learning/Slide124.JPG","null","","","","","",""
"html-keyboard-response","377","537057","0.0-7.0-1.43","FL","38cgqt2jvy","1600","900","0","1","0","5f83138efa73fa44e23c5237","","null","","","learningBlock2","","","","That was a tob.","null","","","","","",""
"html-keyboard-response","378","538059","0.0-7.0-2.43","FL","38cgqt2jvy","1600","900","0","1","0","5f83138efa73fa44e23c5237","","null","","","learningBlock2","","","","<div style=""font-size:60px;""> </div>","null","FL","learning/Slide124.JPG","That was a tob.","","",""
"image-keyboard-response","379","538250","0.0-7.0-0.44","FL","38cgqt2jvy","1600","900","0","1","0","5f83138efa73fa44e23c5237","","null","","","","","","","learning/Slide125.JPG","null","","","","","",""
"html-keyboard-response","380","539412","0.0-7.0-1.44","FL","38cgqt2jvy","1600","900","0","1","0","5f83138efa73fa44e23c5237","","null","","","learningBlock2","","","","That was a bim.","null","","","","","",""
"html-keyboard-response","381","540415","0.0-7.0-2.44","FL","38cgqt2jvy","1600","900","0","1","0","5f83138efa73fa44e23c5237","","null","","","learningBlock2","","","","<div style=""font-size:60px;""> </div>","null","FL","learning/Slide125.JPG","That was a bim.","","",""
"image-keyboard-response","382","540605","0.0-7.0-0.45","FL","38cgqt2jvy","1600","900","0","1","0","5f83138efa73fa44e23c5237","","null","","","","","","","learning/Slide126.JPG","null","","","","","",""
"html-keyboard-response","383","541774","0.0-7.0-1.45","FL","38cgqt2jvy","1600","900","0","1","0","5f83138efa73fa44e23c5237","","null","","","learningBlock2","","","","That was a tob.","null","","","","","",""
"html-keyboard-response","384","542777","0.0-7.0-2.45","FL","38cgqt2jvy","1600","900","0","1","0","5f83138efa73fa44e23c5237","","null","","","learningBlock2","","","","<div style=""font-size:60px;""> </div>","null","FL","learning/Slide126.JPG","That was a tob.","","",""
"image-keyboard-response","385","542967","0.0-7.0-0.46","FL","38cgqt2jvy","1600","900","0","1","0","5f83138efa73fa44e23c5237","","null","","","","","","","learning/Slide127.JPG","null","","","","","",""
"html-keyboard-response","386","544136","0.0-7.0-1.46","FL","38cgqt2jvy","1600","900","0","1","0","5f83138efa73fa44e23c5237","","null","","","learningBlock2","","","","That was a dep.","null","","","","","",""
"html-keyboard-response","387","545138","0.0-7.0-2.46","FL","38cgqt2jvy","1600","900","0","1","0","5f83138efa73fa44e23c5237","","null","","","learningBlock2","","","","<div style=""font-size:60px;""> </div>","null","FL","learning/Slide127.JPG","That was a dep.","","",""
"image-keyboard-response","388","545329","0.0-7.0-0.47","FL","38cgqt2jvy","1600","900","0","1","0","5f83138efa73fa44e23c5237","","null","","","","","","","learning/Slide128.JPG","null","","","","","",""
"html-keyboard-response","389","546498","0.0-7.0-1.47","FL","38cgqt2jvy","1600","900","0","1","0","5f83138efa73fa44e23c5237","","null","","","learningBlock2","","","","That was a wug.","null","","","","","",""
"html-keyboard-response","390","547508","0.0-7.0-2.47","FL","38cgqt2jvy","1600","900","0","1","0","5f83138efa73fa44e23c5237","","null","","","learningBlock2","","","","<div style=""font-size:60px;""> </div>","null","FL","learning/Slide128.JPG","That was a wug.","","",""
"image-keyboard-response","391","547691","0.0-7.0-0.48","FL","38cgqt2jvy","1600","900","0","1","0","5f83138efa73fa44e23c5237","","null","","","","","","","learning/Slide129.JPG","null","","","","","",""
"html-keyboard-response","392","548852","0.0-7.0-1.48","FL","38cgqt2jvy","1600","900","0","1","0","5f83138efa73fa44e23c5237","","null","","","learningBlock2","","","","That was a tob.","null","","","","","",""
"html-keyboard-response","393","549855","0.0-7.0-2.48","FL","38cgqt2jvy","1600","900","0","1","0","5f83138efa73fa44e23c5237","","null","","","learningBlock2","","","","<div style=""font-size:60px;""> </div>","null","FL","learning/Slide129.JPG","That was a tob.","","",""
"image-keyboard-response","394","550045","0.0-7.0-0.49","FL","38cgqt2jvy","1600","900","0","1","0","5f83138efa73fa44e23c5237","","null","","","","","","","learning/Slide130.JPG","null","","","","","",""
"html-keyboard-response","395","551214","0.0-7.0-1.49","FL","38cgqt2jvy","1600","900","0","1","0","5f83138efa73fa44e23c5237","","null","","","learningBlock2","","","","That was a wug.","null","","","","","",""
"html-keyboard-response","396","552217","0.0-7.0-2.49","FL","38cgqt2jvy","1600","900","0","1","0","5f83138efa73fa44e23c5237","","null","","","learningBlock2","","","","<div style=""font-size:60px;""> </div>","null","FL","learning/Slide130.JPG","That was a wug.","","",""
"image-keyboard-response","397","552408","0.0-7.0-0.50","FL","38cgqt2jvy","1600","900","0","1","0","5f83138efa73fa44e23c5237","","null","","","","","","","learning/Slide131.JPG","null","","","","","",""
"html-keyboard-response","398","553570","0.0-7.0-1.50","FL","38cgqt2jvy","1600","900","0","1","0","5f83138efa73fa44e23c5237","","null","","","learningBlock2","","","","That was a bim.","null","","","","","",""
"html-keyboard-response","399","554577","0.0-7.0-2.50","FL","38cgqt2jvy","1600","900","0","1","0","5f83138efa73fa44e23c5237","","null","","","learningBlock2","","","","<div style=""font-size:60px;""> </div>","null","FL","learning/Slide131.JPG","That was a bim.","","",""
"image-keyboard-response","400","554768","0.0-7.0-0.51","FL","38cgqt2jvy","1600","900","0","1","0","5f83138efa73fa44e23c5237","","null","","","","","","","learning/Slide132.JPG","null","","","","","",""
"html-keyboard-response","401","555937","0.0-7.0-1.51","FL","38cgqt2jvy","1600","900","0","1","0","5f83138efa73fa44e23c5237","","null","","","learningBlock2","","","","That was a dep.","null","","","","","",""
"html-keyboard-response","402","556947","0.0-7.0-2.51","FL","38cgqt2jvy","1600","900","0","1","0","5f83138efa73fa44e23c5237","","null","","","learningBlock2","","","","<div style=""font-size:60px;""> </div>","null","FL","learning/Slide132.JPG","That was a dep.","","",""
"image-keyboard-response","403","557129","0.0-7.0-0.52","FL","38cgqt2jvy","1600","900","0","1","0","5f83138efa73fa44e23c5237","","null","","","","","","","learning/Slide133.JPG","null","","","","","",""
"html-keyboard-response","404","558297","0.0-7.0-1.52","FL","38cgqt2jvy","1600","900","0","1","0","5f83138efa73fa44e23c5237","","null","","","learningBlock2","","","","That was a tob.","null","","","","","",""
"html-keyboard-response","405","559307","0.0-7.0-2.52","FL","38cgqt2jvy","1600","900","0","1","0","5f83138efa73fa44e23c5237","","null","","","learningBlock2","","","","<div style=""font-size:60px;""> </div>","null","FL","learning/Slide133.JPG","That was a tob.","","",""
"image-keyboard-response","406","559489","0.0-7.0-0.53","FL","38cgqt2jvy","1600","900","0","1","0","5f83138efa73fa44e23c5237","","null","","","","","","","learning/Slide134.JPG","null","","","","","",""
"html-keyboard-response","407","560651","0.0-7.0-1.53","FL","38cgqt2jvy","1600","900","0","1","0","5f83138efa73fa44e23c5237","","null","","","learningBlock2","","","","That was a dep.","null","","","","","",""
"html-keyboard-response","408","561654","0.0-7.0-2.53","FL","38cgqt2jvy","1600","900","0","1","0","5f83138efa73fa44e23c5237","","null","","","learningBlock2","","","","<div style=""font-size:60px;""> </div>","null","FL","learning/Slide134.JPG","That was a dep.","","",""
"image-keyboard-response","409","561840","0.0-7.0-0.54","FL","38cgqt2jvy","1600","900","0","1","0","5f83138efa73fa44e23c5237","","null","","","","","","","learning/Slide135.JPG","null","","","","","",""
"html-keyboard-response","410","563009","0.0-7.0-1.54","FL","38cgqt2jvy","1600","900","0","1","0","5f83138efa73fa44e23c5237","","null","","","learningBlock2","","","","That was a tob.","null","","","","","",""
"html-keyboard-response","411","564012","0.0-7.0-2.54","FL","38cgqt2jvy","1600","900","0","1","0","5f83138efa73fa44e23c5237","","null","","","learningBlock2","","","","<div style=""font-size:60px;""> </div>","null","FL","learning/Slide135.JPG","That was a tob.","","",""
"image-keyboard-response","412","564202","0.0-7.0-0.55","FL","38cgqt2jvy","1600","900","0","1","0","5f83138efa73fa44e23c5237","","null","","","","","","","learning/Slide136.JPG","null","","","","","",""
"html-keyboard-response","413","565370","0.0-7.0-1.55","FL","38cgqt2jvy","1600","900","0","1","0","5f83138efa73fa44e23c5237","","null","","","learningBlock2","","","","That was a wug.","null","","","","","",""
"html-keyboard-response","414","566372","0.0-7.0-2.55","FL","38cgqt2jvy","1600","900","0","1","0","5f83138efa73fa44e23c5237","","null","","","learningBlock2","","","","<div style=""font-size:60px;""> </div>","null","FL","learning/Slide136.JPG","That was a wug.","","",""
"image-keyboard-response","415","566562","0.0-7.0-0.56","FL","38cgqt2jvy","1600","900","0","1","0","5f83138efa73fa44e23c5237","","null","","","","","","","learning/Slide137.JPG","null","","","","","",""
"html-keyboard-response","416","567731","0.0-7.0-1.56","FL","38cgqt2jvy","1600","900","0","1","0","5f83138efa73fa44e23c5237","","null","","","learningBlock2","","","","That was a tob.","null","","","","","",""
"html-keyboard-response","417","568742","0.0-7.0-2.56","FL","38cgqt2jvy","1600","900","0","1","0","5f83138efa73fa44e23c5237","","null","","","learningBlock2","","","","<div style=""font-size:60px;""> </div>","null","FL","learning/Slide137.JPG","That was a tob.","","",""
"image-keyboard-response","418","568924","0.0-7.0-0.57","FL","38cgqt2jvy","1600","900","0","1","0","5f83138efa73fa44e23c5237","","null","","","","","","","learning/Slide138.JPG","null","","","","","",""
"html-keyboard-response","419","570093","0.0-7.0-1.57","FL","38cgqt2jvy","1600","900","0","1","0","5f83138efa73fa44e23c5237","","null","","","learningBlock2","","","","That was a bim.","null","","","","","",""
"html-keyboard-response","420","571096","0.0-7.0-2.57","FL","38cgqt2jvy","1600","900","0","1","0","5f83138efa73fa44e23c5237","","null","","","learningBlock2","","","","<div style=""font-size:60px;""> </div>","null","FL","learning/Slide138.JPG","That was a bim.","","",""
"image-keyboard-response","421","571286","0.0-7.0-0.58","FL","38cgqt2jvy","1600","900","0","1","0","5f83138efa73fa44e23c5237","","null","","","","","","","learning/Slide139.JPG","null","","","","","",""
"html-keyboard-response","422","572447","0.0-7.0-1.58","FL","38cgqt2jvy","1600","900","0","1","0","5f83138efa73fa44e23c5237","","null","","","learningBlock2","","","","That was a wug.","null","","","","","",""
"html-keyboard-response","423","573458","0.0-7.0-2.58","FL","38cgqt2jvy","1600","900","0","1","0","5f83138efa73fa44e23c5237","","null","","","learningBlock2","","","","<div style=""font-size:60px;""> </div>","null","FL","learning/Slide139.JPG","That was a wug.","","",""
"image-keyboard-response","424","573648","0.0-7.0-0.59","FL","38cgqt2jvy","1600","900","0","1","0","5f83138efa73fa44e23c5237","","null","","","","","","","learning/Slide140.JPG","null","","","","","",""
"html-keyboard-response","425","574824","0.0-7.0-1.59","FL","38cgqt2jvy","1600","900","0","1","0","5f83138efa73fa44e23c5237","","null","","","learningBlock2","","","","That was a dep.","null","","","","","",""
"html-keyboard-response","426","575827","0.0-7.0-2.59","FL","38cgqt2jvy","1600","900","0","1","0","5f83138efa73fa44e23c5237","","null","","","learningBlock2","","","","<div style=""font-size:60px;""> </div>","null","FL","learning/Slide140.JPG","That was a dep.","","",""
"image-keyboard-response","427","576017","0.0-7.0-0.60","FL","38cgqt2jvy","1600","900","0","1","0","5f83138efa73fa44e23c5237","","null","","","","","","","learning/Slide141.JPG","null","","","","","",""
"html-keyboard-response","428","577178","0.0-7.0-1.60","FL","38cgqt2jvy","1600","900","0","1","0","5f83138efa73fa44e23c5237","","null","","","learningBlock2","","","","That was a tob.","null","","","","","",""
"html-keyboard-response","429","578186","0.0-7.0-2.60","FL","38cgqt2jvy","1600","900","0","1","0","5f83138efa73fa44e23c5237","","null","","","learningBlock2","","","","<div style=""font-size:60px;""> </div>","null","FL","learning/Slide141.JPG","That was a tob.","","",""
"image-keyboard-response","430","578369","0.0-7.0-0.61","FL","38cgqt2jvy","1600","900","0","1","0","5f83138efa73fa44e23c5237","","null","","","","","","","learning/Slide142.JPG","null","","","","","",""
"html-keyboard-response","431","579546","0.0-7.0-1.61","FL","38cgqt2jvy","1600","900","0","1","0","5f83138efa73fa44e23c5237","","null","","","learningBlock2","","","","That was a wug.","null","","","","","",""
"html-keyboard-response","432","580548","0.0-7.0-2.61","FL","38cgqt2jvy","1600","900","0","1","0","5f83138efa73fa44e23c5237","","null","","","learningBlock2","","","","<div style=""font-size:60px;""> </div>","null","FL","learning/Slide142.JPG","That was a wug.","","",""
"image-keyboard-response","433","580738","0.0-7.0-0.62","FL","38cgqt2jvy","1600","900","0","1","0","5f83138efa73fa44e23c5237","","null","","","","","","","learning/Slide143.JPG","null","","","","","",""
"html-keyboard-response","434","581907","0.0-7.0-1.62","FL","38cgqt2jvy","1600","900","0","1","0","5f83138efa73fa44e23c5237","","null","","","learningBlock2","","","","That was a bim.","null","","","","","",""
"html-keyboard-response","435","582910","0.0-7.0-2.62","FL","38cgqt2jvy","1600","900","0","1","0","5f83138efa73fa44e23c5237","","null","","","learningBlock2","","","","<div style=""font-size:60px;""> </div>","null","FL","learning/Slide143.JPG","That was a bim.","","",""
"image-keyboard-response","436","583100","0.0-7.0-0.63","FL","38cgqt2jvy","1600","900","0","1","0","5f83138efa73fa44e23c5237","","null","","","","","","","learning/Slide144.JPG","null","","","","","",""
