"trial_type","trial_index","time_elapsed","internal_node_id","condition","subject","screen_width","screen_height","attention","distraction","conscientious","prolificID","success","rt","url","view_history","test_part","final_height_px","final_width_px","scale_factor","stimulus","key_press","learningType","presentedImage","presentedLabel","button_pressed","response","responses"
"pavlovia","0","192","0.0-0.0","FL","ffbjr4pqha","1920","1080","0","1","0","6009c27b9e9b700266fd52b5","","","","","","","","","","","","","","","",""
"fullscreen","1","11539","0.0-1.0","FL","ffbjr4pqha","1920","1080","0","1","0","6009c27b9e9b700266fd52b5","true","","","","","","","","","","","","","","",""
"external-html","2","24315","0.0-2.0-0.0","FL","ffbjr4pqha","1920","1080","0","1","0","6009c27b9e9b700266fd52b5","","12477.264999994077","text/information_english.html","","","","","","","","","","","","",""
"external-html","3","31527","0.0-2.0-1.0","FL","ffbjr4pqha","1920","1080","0","1","0","6009c27b9e9b700266fd52b5","","6946.409999975003","text/consent_english.html","","","","","","","","","","","","",""
"instructions","4","57986","0.0-3.0","FL","ffbjr4pqha","1920","1080","0","1","0","6009c27b9e9b700266fd52b5","","NA","","[{""page_index"":0,""viewing_time"":5347.910000011325},{""page_index"":1,""viewing_time"":21107.449999981327}]","instructions","","","","","","","","","","",""
"resize","5","113684","0.0-4.0","FL","ffbjr4pqha","1920","1080","0","1","0","6009c27b9e9b700266fd52b5","","","","","","","344","2.1841269841269844","","","","","","","",""
"image-keyboard-response","6","113861","0.0-5.0-0.0","FL","ffbjr4pqha","1920","1080","0","1","0","6009c27b9e9b700266fd52b5","","null","","","","","","","learning/Slide1.JPG","null","","","","","",""
"html-keyboard-response","7","115013","0.0-5.0-1.0","FL","ffbjr4pqha","1920","1080","0","1","0","6009c27b9e9b700266fd52b5","","null","","","learningBlock1","","","","That was a tob.","null","","","","","",""
"html-keyboard-response","8","116014","0.0-5.0-2.0","FL","ffbjr4pqha","1920","1080","0","1","0","6009c27b9e9b700266fd52b5","","null","","","learningBlock1","","","","<div style=""font-size:60px;""> </div>","null","FL","learning/Slide1.JPG","That was a tob.","","",""
"image-keyboard-response","9","116191","0.0-5.0-0.1","FL","ffbjr4pqha","1920","1080","0","1","0","6009c27b9e9b700266fd52b5","","null","","","","","","","learning/Slide2.JPG","null","","","","","",""
"html-keyboard-response","10","117344","0.0-5.0-1.1","FL","ffbjr4pqha","1920","1080","0","1","0","6009c27b9e9b700266fd52b5","","null","","","learningBlock1","","","","That was a wug.","null","","","","","",""
"html-keyboard-response","11","118346","0.0-5.0-2.1","FL","ffbjr4pqha","1920","1080","0","1","0","6009c27b9e9b700266fd52b5","","null","","","learningBlock1","","","","<div style=""font-size:60px;""> </div>","null","FL","learning/Slide2.JPG","That was a wug.","","",""
"image-keyboard-response","12","118522","0.0-5.0-0.2","FL","ffbjr4pqha","1920","1080","0","1","0","6009c27b9e9b700266fd52b5","","null","","","","","","","learning/Slide3.JPG","null","","","","","",""
"html-keyboard-response","13","119674","0.0-5.0-1.2","FL","ffbjr4pqha","1920","1080","0","1","0","6009c27b9e9b700266fd52b5","","null","","","learningBlock1","","","","That was a bim.","null","","","","","",""
"html-keyboard-response","14","120677","0.0-5.0-2.2","FL","ffbjr4pqha","1920","1080","0","1","0","6009c27b9e9b700266fd52b5","","null","","","learningBlock1","","","","<div style=""font-size:60px;""> </div>","null","FL","learning/Slide3.JPG","That was a bim.","","",""
"image-keyboard-response","15","120853","0.0-5.0-0.3","FL","ffbjr4pqha","1920","1080","0","1","0","6009c27b9e9b700266fd52b5","","null","","","","","","","learning/Slide4.JPG","null","","","","","",""
"html-keyboard-response","16","122006","0.0-5.0-1.3","FL","ffbjr4pqha","1920","1080","0","1","0","6009c27b9e9b700266fd52b5","","null","","","learningBlock1","","","","That was a dep.","null","","","","","",""
"html-keyboard-response","17","123007","0.0-5.0-2.3","FL","ffbjr4pqha","1920","1080","0","1","0","6009c27b9e9b700266fd52b5","","null","","","learningBlock1","","","","<div style=""font-size:60px;""> </div>","null","FL","learning/Slide4.JPG","That was a dep.","","",""
"image-keyboard-response","18","123185","0.0-5.0-0.4","FL","ffbjr4pqha","1920","1080","0","1","0","6009c27b9e9b700266fd52b5","","null","","","","","","","learning/Slide5.JPG","null","","","","","",""
"html-keyboard-response","19","124338","0.0-5.0-1.4","FL","ffbjr4pqha","1920","1080","0","1","0","6009c27b9e9b700266fd52b5","","null","","","learningBlock1","","","","That was a wug.","null","","","","","",""
"html-keyboard-response","20","125340","0.0-5.0-2.4","FL","ffbjr4pqha","1920","1080","0","1","0","6009c27b9e9b700266fd52b5","","null","","","learningBlock1","","","","<div style=""font-size:60px;""> </div>","null","FL","learning/Slide5.JPG","That was a wug.","","",""
"image-keyboard-response","21","125517","0.0-5.0-0.5","FL","ffbjr4pqha","1920","1080","0","1","0","6009c27b9e9b700266fd52b5","","null","","","","","","","learning/Slide6.JPG","null","","","","","",""
"html-keyboard-response","22","126670","0.0-5.0-1.5","FL","ffbjr4pqha","1920","1080","0","1","0","6009c27b9e9b700266fd52b5","","null","","","learningBlock1","","","","That was a dep.","null","","","","","",""
"html-keyboard-response","23","127671","0.0-5.0-2.5","FL","ffbjr4pqha","1920","1080","0","1","0","6009c27b9e9b700266fd52b5","","null","","","learningBlock1","","","","<div style=""font-size:60px;""> </div>","null","FL","learning/Slide6.JPG","That was a dep.","","",""
"image-keyboard-response","24","127848","0.0-5.0-0.6","FL","ffbjr4pqha","1920","1080","0","1","0","6009c27b9e9b700266fd52b5","","null","","","","","","","learning/Slide7.JPG","null","","","","","",""
"html-keyboard-response","25","129004","0.0-5.0-1.6","FL","ffbjr4pqha","1920","1080","0","1","0","6009c27b9e9b700266fd52b5","","null","","","learningBlock1","","","","That was a wug.","null","","","","","",""
"html-keyboard-response","26","130005","0.0-5.0-2.6","FL","ffbjr4pqha","1920","1080","0","1","0","6009c27b9e9b700266fd52b5","","null","","","learningBlock1","","","","<div style=""font-size:60px;""> </div>","null","FL","learning/Slide7.JPG","That was a wug.","","",""
"image-keyboard-response","27","130181","0.0-5.0-0.7","FL","ffbjr4pqha","1920","1080","0","1","0","6009c27b9e9b700266fd52b5","","null","","","","","","","learning/Slide8.JPG","null","","","","","",""
"html-keyboard-response","28","131338","0.0-5.0-1.7","FL","ffbjr4pqha","1920","1080","0","1","0","6009c27b9e9b700266fd52b5","","null","","","learningBlock1","","","","That was a bim.","null","","","","","",""
"html-keyboard-response","29","132340","0.0-5.0-2.7","FL","ffbjr4pqha","1920","1080","0","1","0","6009c27b9e9b700266fd52b5","","null","","","learningBlock1","","","","<div style=""font-size:60px;""> </div>","null","FL","learning/Slide8.JPG","That was a bim.","","",""
"image-keyboard-response","30","132517","0.0-5.0-0.8","FL","ffbjr4pqha","1920","1080","0","1","0","6009c27b9e9b700266fd52b5","","null","","","","","","","learning/Slide9.JPG","null","","","","","",""
"html-keyboard-response","31","133672","0.0-5.0-1.8","FL","ffbjr4pqha","1920","1080","0","1","0","6009c27b9e9b700266fd52b5","","null","","","learningBlock1","","","","That was a wug.","null","","","","","",""
"html-keyboard-response","32","134673","0.0-5.0-2.8","FL","ffbjr4pqha","1920","1080","0","1","0","6009c27b9e9b700266fd52b5","","null","","","learningBlock1","","","","<div style=""font-size:60px;""> </div>","null","FL","learning/Slide9.JPG","That was a wug.","","",""
"image-keyboard-response","33","134850","0.0-5.0-0.9","FL","ffbjr4pqha","1920","1080","0","1","0","6009c27b9e9b700266fd52b5","","null","","","","","","","learning/Slide10.JPG","null","","","","","",""
"html-keyboard-response","34","136003","0.0-5.0-1.9","FL","ffbjr4pqha","1920","1080","0","1","0","6009c27b9e9b700266fd52b5","","null","","","learningBlock1","","","","That was a dep.","null","","","","","",""
"html-keyboard-response","35","137004","0.0-5.0-2.9","FL","ffbjr4pqha","1920","1080","0","1","0","6009c27b9e9b700266fd52b5","","null","","","learningBlock1","","","","<div style=""font-size:60px;""> </div>","null","FL","learning/Slide10.JPG","That was a dep.","","",""
"image-keyboard-response","36","137182","0.0-5.0-0.10","FL","ffbjr4pqha","1920","1080","0","1","0","6009c27b9e9b700266fd52b5","","null","","","","","","","learning/Slide11.JPG","null","","","","","",""
"html-keyboard-response","37","138337","0.0-5.0-1.10","FL","ffbjr4pqha","1920","1080","0","1","0","6009c27b9e9b700266fd52b5","","null","","","learningBlock1","","","","That was a tob.","null","","","","","",""
"html-keyboard-response","38","139338","0.0-5.0-2.10","FL","ffbjr4pqha","1920","1080","0","1","0","6009c27b9e9b700266fd52b5","","null","","","learningBlock1","","","","<div style=""font-size:60px;""> </div>","null","FL","learning/Slide11.JPG","That was a tob.","","",""
"image-keyboard-response","39","139514","0.0-5.0-0.11","FL","ffbjr4pqha","1920","1080","0","1","0","6009c27b9e9b700266fd52b5","","null","","","","","","","learning/Slide12.JPG","null","","","","","",""
"html-keyboard-response","40","140672","0.0-5.0-1.11","FL","ffbjr4pqha","1920","1080","0","1","0","6009c27b9e9b700266fd52b5","","null","","","learningBlock1","","","","That was a dep.","null","","","","","",""
"html-keyboard-response","41","141675","0.0-5.0-2.11","FL","ffbjr4pqha","1920","1080","0","1","0","6009c27b9e9b700266fd52b5","","null","","","learningBlock1","","","","<div style=""font-size:60px;""> </div>","null","FL","learning/Slide12.JPG","That was a dep.","","",""
"image-keyboard-response","42","141851","0.0-5.0-0.12","FL","ffbjr4pqha","1920","1080","0","1","0","6009c27b9e9b700266fd52b5","","null","","","","","","","learning/Slide13.JPG","null","","","","","",""
"html-keyboard-response","43","143004","0.0-5.0-1.12","FL","ffbjr4pqha","1920","1080","0","1","0","6009c27b9e9b700266fd52b5","","null","","","learningBlock1","","","","That was a bim.","null","","","","","",""
"html-keyboard-response","44","144006","0.0-5.0-2.12","FL","ffbjr4pqha","1920","1080","0","1","0","6009c27b9e9b700266fd52b5","","null","","","learningBlock1","","","","<div style=""font-size:60px;""> </div>","null","FL","learning/Slide13.JPG","That was a bim.","","",""
"image-keyboard-response","45","144183","0.0-5.0-0.13","FL","ffbjr4pqha","1920","1080","0","1","0","6009c27b9e9b700266fd52b5","","null","","","","","","","learning/Slide14.JPG","null","","","","","",""
"html-keyboard-response","46","145337","0.0-5.0-1.13","FL","ffbjr4pqha","1920","1080","0","1","0","6009c27b9e9b700266fd52b5","","null","","","learningBlock1","","","","That was a wug.","null","","","","","",""
"html-keyboard-response","47","146338","0.0-5.0-2.13","FL","ffbjr4pqha","1920","1080","0","1","0","6009c27b9e9b700266fd52b5","","null","","","learningBlock1","","","","<div style=""font-size:60px;""> </div>","null","FL","learning/Slide14.JPG","That was a wug.","","",""
"image-keyboard-response","48","146515","0.0-5.0-0.14","FL","ffbjr4pqha","1920","1080","0","1","0","6009c27b9e9b700266fd52b5","","null","","","","","","","learning/Slide15.JPG","null","","","","","",""
"html-keyboard-response","49","147671","0.0-5.0-1.14","FL","ffbjr4pqha","1920","1080","0","1","0","6009c27b9e9b700266fd52b5","","null","","","learningBlock1","","","","That was a tob.","null","","","","","",""
"html-keyboard-response","50","148672","0.0-5.0-2.14","FL","ffbjr4pqha","1920","1080","0","1","0","6009c27b9e9b700266fd52b5","","null","","","learningBlock1","","","","<div style=""font-size:60px;""> </div>","null","FL","learning/Slide15.JPG","That was a tob.","","",""
"image-keyboard-response","51","148849","0.0-5.0-0.15","FL","ffbjr4pqha","1920","1080","0","1","0","6009c27b9e9b700266fd52b5","","null","","","","","","","learning/Slide16.JPG","null","","","","","",""
"html-keyboard-response","52","150003","0.0-5.0-1.15","FL","ffbjr4pqha","1920","1080","0","1","0","6009c27b9e9b700266fd52b5","","null","","","learningBlock1","","","","That was a dep.","null","","","","","",""
"html-keyboard-response","53","151004","0.0-5.0-2.15","FL","ffbjr4pqha","1920","1080","0","1","0","6009c27b9e9b700266fd52b5","","null","","","learningBlock1","","","","<div style=""font-size:60px;""> </div>","null","FL","learning/Slide16.JPG","That was a dep.","","",""
"image-keyboard-response","54","151181","0.0-5.0-0.16","FL","ffbjr4pqha","1920","1080","0","1","0","6009c27b9e9b700266fd52b5","","null","","","","","","","learning/Slide17.JPG","null","","","","","",""
"html-keyboard-response","55","152338","0.0-5.0-1.16","FL","ffbjr4pqha","1920","1080","0","1","0","6009c27b9e9b700266fd52b5","","null","","","learningBlock1","","","","That was a bim.","null","","","","","",""
"html-keyboard-response","56","153340","0.0-5.0-2.16","FL","ffbjr4pqha","1920","1080","0","1","0","6009c27b9e9b700266fd52b5","","null","","","learningBlock1","","","","<div style=""font-size:60px;""> </div>","null","FL","learning/Slide17.JPG","That was a bim.","","",""
"image-keyboard-response","57","153517","0.0-5.0-0.17","FL","ffbjr4pqha","1920","1080","0","1","0","6009c27b9e9b700266fd52b5","","null","","","","","","","learning/Slide18.JPG","null","","","","","",""
"html-keyboard-response","58","154673","0.0-5.0-1.17","FL","ffbjr4pqha","1920","1080","0","1","0","6009c27b9e9b700266fd52b5","","null","","","learningBlock1","","","","That was a tob.","null","","","","","",""
"html-keyboard-response","59","155674","0.0-5.0-2.17","FL","ffbjr4pqha","1920","1080","0","1","0","6009c27b9e9b700266fd52b5","","null","","","learningBlock1","","","","<div style=""font-size:60px;""> </div>","null","FL","learning/Slide18.JPG","That was a tob.","","",""
"image-keyboard-response","60","155850","0.0-5.0-0.18","FL","ffbjr4pqha","1920","1080","0","1","0","6009c27b9e9b700266fd52b5","","null","","","","","","","learning/Slide19.JPG","null","","","","","",""
"html-keyboard-response","61","157004","0.0-5.0-1.18","FL","ffbjr4pqha","1920","1080","0","1","0","6009c27b9e9b700266fd52b5","","null","","","learningBlock1","","","","That was a wug.","null","","","","","",""
"html-keyboard-response","62","158006","0.0-5.0-2.18","FL","ffbjr4pqha","1920","1080","0","1","0","6009c27b9e9b700266fd52b5","","null","","","learningBlock1","","","","<div style=""font-size:60px;""> </div>","null","FL","learning/Slide19.JPG","That was a wug.","","",""
"image-keyboard-response","63","158183","0.0-5.0-0.19","FL","ffbjr4pqha","1920","1080","0","1","0","6009c27b9e9b700266fd52b5","","null","","","","","","","learning/Slide20.JPG","null","","","","","",""
"html-keyboard-response","64","159337","0.0-5.0-1.19","FL","ffbjr4pqha","1920","1080","0","1","0","6009c27b9e9b700266fd52b5","","null","","","learningBlock1","","","","That was a bim.","null","","","","","",""
"html-keyboard-response","65","160339","0.0-5.0-2.19","FL","ffbjr4pqha","1920","1080","0","1","0","6009c27b9e9b700266fd52b5","","null","","","learningBlock1","","","","<div style=""font-size:60px;""> </div>","null","FL","learning/Slide20.JPG","That was a bim.","","",""
"image-keyboard-response","66","160516","0.0-5.0-0.20","FL","ffbjr4pqha","1920","1080","0","1","0","6009c27b9e9b700266fd52b5","","null","","","","","","","learning/Slide21.JPG","null","","","","","",""
"html-keyboard-response","67","161670","0.0-5.0-1.20","FL","ffbjr4pqha","1920","1080","0","1","0","6009c27b9e9b700266fd52b5","","null","","","learningBlock1","","","","That was a dep.","null","","","","","",""
"html-keyboard-response","68","162672","0.0-5.0-2.20","FL","ffbjr4pqha","1920","1080","0","1","0","6009c27b9e9b700266fd52b5","","null","","","learningBlock1","","","","<div style=""font-size:60px;""> </div>","null","FL","learning/Slide21.JPG","That was a dep.","","",""
"image-keyboard-response","69","162849","0.0-5.0-0.21","FL","ffbjr4pqha","1920","1080","0","1","0","6009c27b9e9b700266fd52b5","","null","","","","","","","learning/Slide22.JPG","null","","","","","",""
"html-keyboard-response","70","164003","0.0-5.0-1.21","FL","ffbjr4pqha","1920","1080","0","1","0","6009c27b9e9b700266fd52b5","","null","","","learningBlock1","","","","That was a bim.","null","","","","","",""
"html-keyboard-response","71","165006","0.0-5.0-2.21","FL","ffbjr4pqha","1920","1080","0","1","0","6009c27b9e9b700266fd52b5","","null","","","learningBlock1","","","","<div style=""font-size:60px;""> </div>","null","FL","learning/Slide22.JPG","That was a bim.","","",""
"image-keyboard-response","72","165183","0.0-5.0-0.22","FL","ffbjr4pqha","1920","1080","0","1","0","6009c27b9e9b700266fd52b5","","null","","","","","","","learning/Slide23.JPG","null","","","","","",""
"html-keyboard-response","73","166337","0.0-5.0-1.22","FL","ffbjr4pqha","1920","1080","0","1","0","6009c27b9e9b700266fd52b5","","null","","","learningBlock1","","","","That was a tob.","null","","","","","",""
"html-keyboard-response","74","167339","0.0-5.0-2.22","FL","ffbjr4pqha","1920","1080","0","1","0","6009c27b9e9b700266fd52b5","","null","","","learningBlock1","","","","<div style=""font-size:60px;""> </div>","null","FL","learning/Slide23.JPG","That was a tob.","","",""
"image-keyboard-response","75","167516","0.0-5.0-0.23","FL","ffbjr4pqha","1920","1080","0","1","0","6009c27b9e9b700266fd52b5","","null","","","","","","","learning/Slide24.JPG","null","","","","","",""
"html-keyboard-response","76","168670","0.0-5.0-1.23","FL","ffbjr4pqha","1920","1080","0","1","0","6009c27b9e9b700266fd52b5","","null","","","learningBlock1","","","","That was a wug.","null","","","","","",""
"html-keyboard-response","77","169677","0.0-5.0-2.23","FL","ffbjr4pqha","1920","1080","0","1","0","6009c27b9e9b700266fd52b5","","null","","","learningBlock1","","","","<div style=""font-size:60px;""> </div>","null","FL","learning/Slide24.JPG","That was a wug.","","",""
"image-keyboard-response","78","169854","0.0-5.0-0.24","FL","ffbjr4pqha","1920","1080","0","1","0","6009c27b9e9b700266fd52b5","","null","","","","","","","learning/Slide25.JPG","null","","","","","",""
"html-keyboard-response","79","171007","0.0-5.0-1.24","FL","ffbjr4pqha","1920","1080","0","1","0","6009c27b9e9b700266fd52b5","","null","","","learningBlock1","","","","That was a dep.","null","","","","","",""
"html-keyboard-response","80","172011","0.0-5.0-2.24","FL","ffbjr4pqha","1920","1080","0","1","0","6009c27b9e9b700266fd52b5","","null","","","learningBlock1","","","","<div style=""font-size:60px;""> </div>","null","FL","learning/Slide25.JPG","That was a dep.","","",""
"image-keyboard-response","81","172187","0.0-5.0-0.25","FL","ffbjr4pqha","1920","1080","0","1","0","6009c27b9e9b700266fd52b5","","null","","","","","","","learning/Slide26.JPG","null","","","","","",""
"html-keyboard-response","82","173344","0.0-5.0-1.25","FL","ffbjr4pqha","1920","1080","0","1","0","6009c27b9e9b700266fd52b5","","null","","","learningBlock1","","","","That was a wug.","null","","","","","",""
"html-keyboard-response","83","174346","0.0-5.0-2.25","FL","ffbjr4pqha","1920","1080","0","1","0","6009c27b9e9b700266fd52b5","","null","","","learningBlock1","","","","<div style=""font-size:60px;""> </div>","null","FL","learning/Slide26.JPG","That was a wug.","","",""
"image-keyboard-response","84","174523","0.0-5.0-0.26","FL","ffbjr4pqha","1920","1080","0","1","0","6009c27b9e9b700266fd52b5","","null","","","","","","","learning/Slide27.JPG","null","","","","","",""
"html-keyboard-response","85","175679","0.0-5.0-1.26","FL","ffbjr4pqha","1920","1080","0","1","0","6009c27b9e9b700266fd52b5","","null","","","learningBlock1","","","","That was a bim.","null","","","","","",""
"html-keyboard-response","86","176681","0.0-5.0-2.26","FL","ffbjr4pqha","1920","1080","0","1","0","6009c27b9e9b700266fd52b5","","null","","","learningBlock1","","","","<div style=""font-size:60px;""> </div>","null","FL","learning/Slide27.JPG","That was a bim.","","",""
"image-keyboard-response","87","176857","0.0-5.0-0.27","FL","ffbjr4pqha","1920","1080","0","1","0","6009c27b9e9b700266fd52b5","","null","","","","","","","learning/Slide28.JPG","null","","","","","",""
"html-keyboard-response","88","178013","0.0-5.0-1.27","FL","ffbjr4pqha","1920","1080","0","1","0","6009c27b9e9b700266fd52b5","","null","","","learningBlock1","","","","That was a dep.","null","","","","","",""
"html-keyboard-response","89","179015","0.0-5.0-2.27","FL","ffbjr4pqha","1920","1080","0","1","0","6009c27b9e9b700266fd52b5","","null","","","learningBlock1","","","","<div style=""font-size:60px;""> </div>","null","FL","learning/Slide28.JPG","That was a dep.","","",""
"image-keyboard-response","90","179191","0.0-5.0-0.28","FL","ffbjr4pqha","1920","1080","0","1","0","6009c27b9e9b700266fd52b5","","null","","","","","","","learning/Slide29.JPG","null","","","","","",""
"html-keyboard-response","91","180345","0.0-5.0-1.28","FL","ffbjr4pqha","1920","1080","0","1","0","6009c27b9e9b700266fd52b5","","null","","","learningBlock1","","","","That was a tob.","null","","","","","",""
"html-keyboard-response","92","181347","0.0-5.0-2.28","FL","ffbjr4pqha","1920","1080","0","1","0","6009c27b9e9b700266fd52b5","","null","","","learningBlock1","","","","<div style=""font-size:60px;""> </div>","null","FL","learning/Slide29.JPG","That was a tob.","","",""
"image-keyboard-response","93","181524","0.0-5.0-0.29","FL","ffbjr4pqha","1920","1080","0","1","0","6009c27b9e9b700266fd52b5","","null","","","","","","","learning/Slide30.JPG","null","","","","","",""
"html-keyboard-response","94","182680","0.0-5.0-1.29","FL","ffbjr4pqha","1920","1080","0","1","0","6009c27b9e9b700266fd52b5","","null","","","learningBlock1","","","","That was a dep.","null","","","","","",""
"html-keyboard-response","95","183681","0.0-5.0-2.29","FL","ffbjr4pqha","1920","1080","0","1","0","6009c27b9e9b700266fd52b5","","null","","","learningBlock1","","","","<div style=""font-size:60px;""> </div>","null","FL","learning/Slide30.JPG","That was a dep.","","",""
"image-keyboard-response","96","183857","0.0-5.0-0.30","FL","ffbjr4pqha","1920","1080","0","1","0","6009c27b9e9b700266fd52b5","","null","","","","","","","learning/Slide31.JPG","null","","","","","",""
"html-keyboard-response","97","185012","0.0-5.0-1.30","FL","ffbjr4pqha","1920","1080","0","1","0","6009c27b9e9b700266fd52b5","","null","","","learningBlock1","","","","That was a wug.","null","","","","","",""
"html-keyboard-response","98","186014","0.0-5.0-2.30","FL","ffbjr4pqha","1920","1080","0","1","0","6009c27b9e9b700266fd52b5","","null","","","learningBlock1","","","","<div style=""font-size:60px;""> </div>","null","FL","learning/Slide31.JPG","That was a wug.","","",""
"image-keyboard-response","99","186191","0.0-5.0-0.31","FL","ffbjr4pqha","1920","1080","0","1","0","6009c27b9e9b700266fd52b5","","null","","","","","","","learning/Slide32.JPG","null","","","","","",""
"html-keyboard-response","100","187345","0.0-5.0-1.31","FL","ffbjr4pqha","1920","1080","0","1","0","6009c27b9e9b700266fd52b5","","null","","","learningBlock1","","","","That was a tob.","null","","","","","",""
"html-keyboard-response","101","188347","0.0-5.0-2.31","FL","ffbjr4pqha","1920","1080","0","1","0","6009c27b9e9b700266fd52b5","","null","","","learningBlock1","","","","<div style=""font-size:60px;""> </div>","null","FL","learning/Slide32.JPG","That was a tob.","","",""
"image-keyboard-response","102","188524","0.0-5.0-0.32","FL","ffbjr4pqha","1920","1080","0","1","0","6009c27b9e9b700266fd52b5","","null","","","","","","","learning/Slide33.JPG","null","","","","","",""
"html-keyboard-response","103","189680","0.0-5.0-1.32","FL","ffbjr4pqha","1920","1080","0","1","0","6009c27b9e9b700266fd52b5","","null","","","learningBlock1","","","","That was a bim.","null","","","","","",""
"html-keyboard-response","104","190682","0.0-5.0-2.32","FL","ffbjr4pqha","1920","1080","0","1","0","6009c27b9e9b700266fd52b5","","null","","","learningBlock1","","","","<div style=""font-size:60px;""> </div>","null","FL","learning/Slide33.JPG","That was a bim.","","",""
"image-keyboard-response","105","190859","0.0-5.0-0.33","FL","ffbjr4pqha","1920","1080","0","1","0","6009c27b9e9b700266fd52b5","","null","","","","","","","learning/Slide34.JPG","null","","","","","",""
"html-keyboard-response","106","192013","0.0-5.0-1.33","FL","ffbjr4pqha","1920","1080","0","1","0","6009c27b9e9b700266fd52b5","","null","","","learningBlock1","","","","That was a tob.","null","","","","","",""
"html-keyboard-response","107","193014","0.0-5.0-2.33","FL","ffbjr4pqha","1920","1080","0","1","0","6009c27b9e9b700266fd52b5","","null","","","learningBlock1","","","","<div style=""font-size:60px;""> </div>","null","FL","learning/Slide34.JPG","That was a tob.","","",""
"image-keyboard-response","108","193191","0.0-5.0-0.34","FL","ffbjr4pqha","1920","1080","0","1","0","6009c27b9e9b700266fd52b5","","null","","","","","","","learning/Slide35.JPG","null","","","","","",""
"html-keyboard-response","109","194346","0.0-5.0-1.34","FL","ffbjr4pqha","1920","1080","0","1","0","6009c27b9e9b700266fd52b5","","null","","","learningBlock1","","","","That was a bim.","null","","","","","",""
"html-keyboard-response","110","195347","0.0-5.0-2.34","FL","ffbjr4pqha","1920","1080","0","1","0","6009c27b9e9b700266fd52b5","","null","","","learningBlock1","","","","<div style=""font-size:60px;""> </div>","null","FL","learning/Slide35.JPG","That was a bim.","","",""
"image-keyboard-response","111","195524","0.0-5.0-0.35","FL","ffbjr4pqha","1920","1080","0","1","0","6009c27b9e9b700266fd52b5","","null","","","","","","","learning/Slide36.JPG","null","","","","","",""
"html-keyboard-response","112","196679","0.0-5.0-1.35","FL","ffbjr4pqha","1920","1080","0","1","0","6009c27b9e9b700266fd52b5","","null","","","learningBlock1","","","","That was a dep.","null","","","","","",""
"html-keyboard-response","113","197681","0.0-5.0-2.35","FL","ffbjr4pqha","1920","1080","0","1","0","6009c27b9e9b700266fd52b5","","null","","","learningBlock1","","","","<div style=""font-size:60px;""> </div>","null","FL","learning/Slide36.JPG","That was a dep.","","",""
"image-keyboard-response","114","197857","0.0-5.0-0.36","FL","ffbjr4pqha","1920","1080","0","1","0","6009c27b9e9b700266fd52b5","","null","","","","","","","learning/Slide37.JPG","null","","","","","",""
"html-keyboard-response","115","199014","0.0-5.0-1.36","FL","ffbjr4pqha","1920","1080","0","1","0","6009c27b9e9b700266fd52b5","","null","","","learningBlock1","","","","That was a tob.","null","","","","","",""
"html-keyboard-response","116","200015","0.0-5.0-2.36","FL","ffbjr4pqha","1920","1080","0","1","0","6009c27b9e9b700266fd52b5","","null","","","learningBlock1","","","","<div style=""font-size:60px;""> </div>","null","FL","learning/Slide37.JPG","That was a tob.","","",""
"image-keyboard-response","117","200191","0.0-5.0-0.37","FL","ffbjr4pqha","1920","1080","0","1","0","6009c27b9e9b700266fd52b5","","null","","","","","","","learning/Slide38.JPG","null","","","","","",""
"html-keyboard-response","118","201346","0.0-5.0-1.37","FL","ffbjr4pqha","1920","1080","0","1","0","6009c27b9e9b700266fd52b5","","null","","","learningBlock1","","","","That was a wug.","null","","","","","",""
"html-keyboard-response","119","202348","0.0-5.0-2.37","FL","ffbjr4pqha","1920","1080","0","1","0","6009c27b9e9b700266fd52b5","","null","","","learningBlock1","","","","<div style=""font-size:60px;""> </div>","null","FL","learning/Slide38.JPG","That was a wug.","","",""
"image-keyboard-response","120","202524","0.0-5.0-0.38","FL","ffbjr4pqha","1920","1080","0","1","0","6009c27b9e9b700266fd52b5","","null","","","","","","","learning/Slide39.JPG","null","","","","","",""
"html-keyboard-response","121","203679","0.0-5.0-1.38","FL","ffbjr4pqha","1920","1080","0","1","0","6009c27b9e9b700266fd52b5","","null","","","learningBlock1","","","","That was a bim.","null","","","","","",""
"html-keyboard-response","122","204681","0.0-5.0-2.38","FL","ffbjr4pqha","1920","1080","0","1","0","6009c27b9e9b700266fd52b5","","null","","","learningBlock1","","","","<div style=""font-size:60px;""> </div>","null","FL","learning/Slide39.JPG","That was a bim.","","",""
"image-keyboard-response","123","204857","0.0-5.0-0.39","FL","ffbjr4pqha","1920","1080","0","1","0","6009c27b9e9b700266fd52b5","","null","","","","","","","learning/Slide40.JPG","null","","","","","",""
"html-keyboard-response","124","206011","0.0-5.0-1.39","FL","ffbjr4pqha","1920","1080","0","1","0","6009c27b9e9b700266fd52b5","","null","","","learningBlock1","","","","That was a tob.","null","","","","","",""
"html-keyboard-response","125","207012","0.0-5.0-2.39","FL","ffbjr4pqha","1920","1080","0","1","0","6009c27b9e9b700266fd52b5","","null","","","learningBlock1","","","","<div style=""font-size:60px;""> </div>","null","FL","learning/Slide40.JPG","That was a tob.","","",""
"image-keyboard-response","126","207190","0.0-5.0-0.40","FL","ffbjr4pqha","1920","1080","0","1","0","6009c27b9e9b700266fd52b5","","null","","","","","","","learning/Slide41.JPG","null","","","","","",""
"html-keyboard-response","127","208342","0.0-5.0-1.40","FL","ffbjr4pqha","1920","1080","0","1","0","6009c27b9e9b700266fd52b5","","null","","","learningBlock1","","","","That was a bim.","null","","","","","",""
"html-keyboard-response","128","209344","0.0-5.0-2.40","FL","ffbjr4pqha","1920","1080","0","1","0","6009c27b9e9b700266fd52b5","","null","","","learningBlock1","","","","<div style=""font-size:60px;""> </div>","null","FL","learning/Slide41.JPG","That was a bim.","","",""
"image-keyboard-response","129","209520","0.0-5.0-0.41","FL","ffbjr4pqha","1920","1080","0","1","0","6009c27b9e9b700266fd52b5","","null","","","","","","","learning/Slide42.JPG","null","","","","","",""
"html-keyboard-response","130","210672","0.0-5.0-1.41","FL","ffbjr4pqha","1920","1080","0","1","0","6009c27b9e9b700266fd52b5","","null","","","learningBlock1","","","","That was a dep.","null","","","","","",""
"html-keyboard-response","131","211673","0.0-5.0-2.41","FL","ffbjr4pqha","1920","1080","0","1","0","6009c27b9e9b700266fd52b5","","null","","","learningBlock1","","","","<div style=""font-size:60px;""> </div>","null","FL","learning/Slide42.JPG","That was a dep.","","",""
"image-keyboard-response","132","211850","0.0-5.0-0.42","FL","ffbjr4pqha","1920","1080","0","1","0","6009c27b9e9b700266fd52b5","","null","","","","","","","learning/Slide43.JPG","null","","","","","",""
"html-keyboard-response","133","213003","0.0-5.0-1.42","FL","ffbjr4pqha","1920","1080","0","1","0","6009c27b9e9b700266fd52b5","","null","","","learningBlock1","","","","That was a wug.","null","","","","","",""
"html-keyboard-response","134","214004","0.0-5.0-2.42","FL","ffbjr4pqha","1920","1080","0","1","0","6009c27b9e9b700266fd52b5","","null","","","learningBlock1","","","","<div style=""font-size:60px;""> </div>","null","FL","learning/Slide43.JPG","That was a wug.","","",""
"image-keyboard-response","135","214181","0.0-5.0-0.43","FL","ffbjr4pqha","1920","1080","0","1","0","6009c27b9e9b700266fd52b5","","null","","","","","","","learning/Slide44.JPG","null","","","","","",""
"html-keyboard-response","136","215334","0.0-5.0-1.43","FL","ffbjr4pqha","1920","1080","0","1","0","6009c27b9e9b700266fd52b5","","null","","","learningBlock1","","","","That was a bim.","null","","","","","",""
"html-keyboard-response","137","216336","0.0-5.0-2.43","FL","ffbjr4pqha","1920","1080","0","1","0","6009c27b9e9b700266fd52b5","","null","","","learningBlock1","","","","<div style=""font-size:60px;""> </div>","null","FL","learning/Slide44.JPG","That was a bim.","","",""
"image-keyboard-response","138","216513","0.0-5.0-0.44","FL","ffbjr4pqha","1920","1080","0","1","0","6009c27b9e9b700266fd52b5","","null","","","","","","","learning/Slide45.JPG","null","","","","","",""
"html-keyboard-response","139","217666","0.0-5.0-1.44","FL","ffbjr4pqha","1920","1080","0","1","0","6009c27b9e9b700266fd52b5","","null","","","learningBlock1","","","","That was a wug.","null","","","","","",""
"html-keyboard-response","140","218668","0.0-5.0-2.44","FL","ffbjr4pqha","1920","1080","0","1","0","6009c27b9e9b700266fd52b5","","null","","","learningBlock1","","","","<div style=""font-size:60px;""> </div>","null","FL","learning/Slide45.JPG","That was a wug.","","",""
"image-keyboard-response","141","218845","0.0-5.0-0.45","FL","ffbjr4pqha","1920","1080","0","1","0","6009c27b9e9b700266fd52b5","","null","","","","","","","learning/Slide46.JPG","null","","","","","",""
"html-keyboard-response","142","219998","0.0-5.0-1.45","FL","ffbjr4pqha","1920","1080","0","1","0","6009c27b9e9b700266fd52b5","","null","","","learningBlock1","","","","That was a dep.","null","","","","","",""
"html-keyboard-response","143","220999","0.0-5.0-2.45","FL","ffbjr4pqha","1920","1080","0","1","0","6009c27b9e9b700266fd52b5","","null","","","learningBlock1","","","","<div style=""font-size:60px;""> </div>","null","FL","learning/Slide46.JPG","That was a dep.","","",""
"image-keyboard-response","144","221175","0.0-5.0-0.46","FL","ffbjr4pqha","1920","1080","0","1","0","6009c27b9e9b700266fd52b5","","null","","","","","","","learning/Slide47.JPG","null","","","","","",""
"html-keyboard-response","145","222328","0.0-5.0-1.46","FL","ffbjr4pqha","1920","1080","0","1","0","6009c27b9e9b700266fd52b5","","null","","","learningBlock1","","","","That was a tob.","null","","","","","",""
"html-keyboard-response","146","223329","0.0-5.0-2.46","FL","ffbjr4pqha","1920","1080","0","1","0","6009c27b9e9b700266fd52b5","","null","","","learningBlock1","","","","<div style=""font-size:60px;""> </div>","null","FL","learning/Slide47.JPG","That was a tob.","","",""
"image-keyboard-response","147","223506","0.0-5.0-0.47","FL","ffbjr4pqha","1920","1080","0","1","0","6009c27b9e9b700266fd52b5","","null","","","","","","","learning/Slide48.JPG","null","","","","","",""
"html-keyboard-response","148","224658","0.0-5.0-1.47","FL","ffbjr4pqha","1920","1080","0","1","0","6009c27b9e9b700266fd52b5","","null","","","learningBlock1","","","","That was a bim.","null","","","","","",""
"html-keyboard-response","149","225660","0.0-5.0-2.47","FL","ffbjr4pqha","1920","1080","0","1","0","6009c27b9e9b700266fd52b5","","null","","","learningBlock1","","","","<div style=""font-size:60px;""> </div>","null","FL","learning/Slide48.JPG","That was a bim.","","",""
"image-keyboard-response","150","225836","0.0-5.0-0.48","FL","ffbjr4pqha","1920","1080","0","1","0","6009c27b9e9b700266fd52b5","","null","","","","","","","learning/Slide49.JPG","null","","","","","",""
"html-keyboard-response","151","226990","0.0-5.0-1.48","FL","ffbjr4pqha","1920","1080","0","1","0","6009c27b9e9b700266fd52b5","","null","","","learningBlock1","","","","That was a dep.","null","","","","","",""
"html-keyboard-response","152","227992","0.0-5.0-2.48","FL","ffbjr4pqha","1920","1080","0","1","0","6009c27b9e9b700266fd52b5","","null","","","learningBlock1","","","","<div style=""font-size:60px;""> </div>","null","FL","learning/Slide49.JPG","That was a dep.","","",""
"image-keyboard-response","153","228168","0.0-5.0-0.49","FL","ffbjr4pqha","1920","1080","0","1","0","6009c27b9e9b700266fd52b5","","null","","","","","","","learning/Slide50.JPG","null","","","","","",""
"html-keyboard-response","154","229322","0.0-5.0-1.49","FL","ffbjr4pqha","1920","1080","0","1","0","6009c27b9e9b700266fd52b5","","null","","","learningBlock1","","","","That was a tob.","null","","","","","",""
"html-keyboard-response","155","230323","0.0-5.0-2.49","FL","ffbjr4pqha","1920","1080","0","1","0","6009c27b9e9b700266fd52b5","","null","","","learningBlock1","","","","<div style=""font-size:60px;""> </div>","null","FL","learning/Slide50.JPG","That was a tob.","","",""
"image-keyboard-response","156","230499","0.0-5.0-0.50","FL","ffbjr4pqha","1920","1080","0","1","0","6009c27b9e9b700266fd52b5","","null","","","","","","","learning/Slide51.JPG","null","","","","","",""
"html-keyboard-response","157","231651","0.0-5.0-1.50","FL","ffbjr4pqha","1920","1080","0","1","0","6009c27b9e9b700266fd52b5","","null","","","learningBlock1","","","","That was a bim.","null","","","","","",""
"html-keyboard-response","158","232653","0.0-5.0-2.50","FL","ffbjr4pqha","1920","1080","0","1","0","6009c27b9e9b700266fd52b5","","null","","","learningBlock1","","","","<div style=""font-size:60px;""> </div>","null","FL","learning/Slide51.JPG","That was a bim.","","",""
"image-keyboard-response","159","232831","0.0-5.0-0.51","FL","ffbjr4pqha","1920","1080","0","1","0","6009c27b9e9b700266fd52b5","","null","","","","","","","learning/Slide52.JPG","null","","","","","",""
"html-keyboard-response","160","233983","0.0-5.0-1.51","FL","ffbjr4pqha","1920","1080","0","1","0","6009c27b9e9b700266fd52b5","","null","","","learningBlock1","","","","That was a wug.","null","","","","","",""
"html-keyboard-response","161","234985","0.0-5.0-2.51","FL","ffbjr4pqha","1920","1080","0","1","0","6009c27b9e9b700266fd52b5","","null","","","learningBlock1","","","","<div style=""font-size:60px;""> </div>","null","FL","learning/Slide52.JPG","That was a wug.","","",""
"image-keyboard-response","162","235162","0.0-5.0-0.52","FL","ffbjr4pqha","1920","1080","0","1","0","6009c27b9e9b700266fd52b5","","null","","","","","","","learning/Slide53.JPG","null","","","","","",""
"html-keyboard-response","163","236313","0.0-5.0-1.52","FL","ffbjr4pqha","1920","1080","0","1","0","6009c27b9e9b700266fd52b5","","null","","","learningBlock1","","","","That was a tob.","null","","","","","",""
"html-keyboard-response","164","237315","0.0-5.0-2.52","FL","ffbjr4pqha","1920","1080","0","1","0","6009c27b9e9b700266fd52b5","","null","","","learningBlock1","","","","<div style=""font-size:60px;""> </div>","null","FL","learning/Slide53.JPG","That was a tob.","","",""
"image-keyboard-response","165","237491","0.0-5.0-0.53","FL","ffbjr4pqha","1920","1080","0","1","0","6009c27b9e9b700266fd52b5","","null","","","","","","","learning/Slide54.JPG","null","","","","","",""
"html-keyboard-response","166","238644","0.0-5.0-1.53","FL","ffbjr4pqha","1920","1080","0","1","0","6009c27b9e9b700266fd52b5","","null","","","learningBlock1","","","","That was a dep.","null","","","","","",""
"html-keyboard-response","167","239648","0.0-5.0-2.53","FL","ffbjr4pqha","1920","1080","0","1","0","6009c27b9e9b700266fd52b5","","null","","","learningBlock1","","","","<div style=""font-size:60px;""> </div>","null","FL","learning/Slide54.JPG","That was a dep.","","",""
"image-keyboard-response","168","239825","0.0-5.0-0.54","FL","ffbjr4pqha","1920","1080","0","1","0","6009c27b9e9b700266fd52b5","","null","","","","","","","learning/Slide55.JPG","null","","","","","",""
"html-keyboard-response","169","240979","0.0-5.0-1.54","FL","ffbjr4pqha","1920","1080","0","1","0","6009c27b9e9b700266fd52b5","","null","","","learningBlock1","","","","That was a bim.","null","","","","","",""
"html-keyboard-response","170","241982","0.0-5.0-2.54","FL","ffbjr4pqha","1920","1080","0","1","0","6009c27b9e9b700266fd52b5","","null","","","learningBlock1","","","","<div style=""font-size:60px;""> </div>","null","FL","learning/Slide55.JPG","That was a bim.","","",""
"image-keyboard-response","171","242160","0.0-5.0-0.55","FL","ffbjr4pqha","1920","1080","0","1","0","6009c27b9e9b700266fd52b5","","null","","","","","","","learning/Slide56.JPG","null","","","","","",""
"html-keyboard-response","172","243313","0.0-5.0-1.55","FL","ffbjr4pqha","1920","1080","0","1","0","6009c27b9e9b700266fd52b5","","null","","","learningBlock1","","","","That was a tob.","null","","","","","",""
"html-keyboard-response","173","244315","0.0-5.0-2.55","FL","ffbjr4pqha","1920","1080","0","1","0","6009c27b9e9b700266fd52b5","","null","","","learningBlock1","","","","<div style=""font-size:60px;""> </div>","null","FL","learning/Slide56.JPG","That was a tob.","","",""
"image-keyboard-response","174","244492","0.0-5.0-0.56","FL","ffbjr4pqha","1920","1080","0","1","0","6009c27b9e9b700266fd52b5","","null","","","","","","","learning/Slide57.JPG","null","","","","","",""
"html-keyboard-response","175","245646","0.0-5.0-1.56","FL","ffbjr4pqha","1920","1080","0","1","0","6009c27b9e9b700266fd52b5","","null","","","learningBlock1","","","","That was a dep.","null","","","","","",""
"html-keyboard-response","176","246648","0.0-5.0-2.56","FL","ffbjr4pqha","1920","1080","0","1","0","6009c27b9e9b700266fd52b5","","null","","","learningBlock1","","","","<div style=""font-size:60px;""> </div>","null","FL","learning/Slide57.JPG","That was a dep.","","",""
"image-keyboard-response","177","246824","0.0-5.0-0.57","FL","ffbjr4pqha","1920","1080","0","1","0","6009c27b9e9b700266fd52b5","","null","","","","","","","learning/Slide58.JPG","null","","","","","",""
"html-keyboard-response","178","247976","0.0-5.0-1.57","FL","ffbjr4pqha","1920","1080","0","1","0","6009c27b9e9b700266fd52b5","","null","","","learningBlock1","","","","That was a wug.","null","","","","","",""
"html-keyboard-response","179","248977","0.0-5.0-2.57","FL","ffbjr4pqha","1920","1080","0","1","0","6009c27b9e9b700266fd52b5","","null","","","learningBlock1","","","","<div style=""font-size:60px;""> </div>","null","FL","learning/Slide58.JPG","That was a wug.","","",""
"image-keyboard-response","180","249155","0.0-5.0-0.58","FL","ffbjr4pqha","1920","1080","0","1","0","6009c27b9e9b700266fd52b5","","null","","","","","","","learning/Slide59.JPG","null","","","","","",""
"html-keyboard-response","181","250309","0.0-5.0-1.58","FL","ffbjr4pqha","1920","1080","0","1","0","6009c27b9e9b700266fd52b5","","null","","","learningBlock1","","","","That was a dep.","null","","","","","",""
"html-keyboard-response","182","251314","0.0-5.0-2.58","FL","ffbjr4pqha","1920","1080","0","1","0","6009c27b9e9b700266fd52b5","","null","","","learningBlock1","","","","<div style=""font-size:60px;""> </div>","null","FL","learning/Slide59.JPG","That was a dep.","","",""
"image-keyboard-response","183","251491","0.0-5.0-0.59","FL","ffbjr4pqha","1920","1080","0","1","0","6009c27b9e9b700266fd52b5","","null","","","","","","","learning/Slide60.JPG","null","","","","","",""
"html-keyboard-response","184","252647","0.0-5.0-1.59","FL","ffbjr4pqha","1920","1080","0","1","0","6009c27b9e9b700266fd52b5","","null","","","learningBlock1","","","","That was a wug.","null","","","","","",""
"html-keyboard-response","185","253648","0.0-5.0-2.59","FL","ffbjr4pqha","1920","1080","0","1","0","6009c27b9e9b700266fd52b5","","null","","","learningBlock1","","","","<div style=""font-size:60px;""> </div>","null","FL","learning/Slide60.JPG","That was a wug.","","",""
"image-keyboard-response","186","253826","0.0-5.0-0.60","FL","ffbjr4pqha","1920","1080","0","1","0","6009c27b9e9b700266fd52b5","","null","","","","","","","learning/Slide61.JPG","null","","","","","",""
"html-keyboard-response","187","254981","0.0-5.0-1.60","FL","ffbjr4pqha","1920","1080","0","1","0","6009c27b9e9b700266fd52b5","","null","","","learningBlock1","","","","That was a bim.","null","","","","","",""
"html-keyboard-response","188","255982","0.0-5.0-2.60","FL","ffbjr4pqha","1920","1080","0","1","0","6009c27b9e9b700266fd52b5","","null","","","learningBlock1","","","","<div style=""font-size:60px;""> </div>","null","FL","learning/Slide61.JPG","That was a bim.","","",""
"image-keyboard-response","189","256158","0.0-5.0-0.61","FL","ffbjr4pqha","1920","1080","0","1","0","6009c27b9e9b700266fd52b5","","null","","","","","","","learning/Slide62.JPG","null","","","","","",""
"html-keyboard-response","190","257311","0.0-5.0-1.61","FL","ffbjr4pqha","1920","1080","0","1","0","6009c27b9e9b700266fd52b5","","null","","","learningBlock1","","","","That was a dep.","null","","","","","",""
"html-keyboard-response","191","258314","0.0-5.0-2.61","FL","ffbjr4pqha","1920","1080","0","1","0","6009c27b9e9b700266fd52b5","","null","","","learningBlock1","","","","<div style=""font-size:60px;""> </div>","null","FL","learning/Slide62.JPG","That was a dep.","","",""
"image-keyboard-response","192","258491","0.0-5.0-0.62","FL","ffbjr4pqha","1920","1080","0","1","0","6009c27b9e9b700266fd52b5","","null","","","","","","","learning/Slide63.JPG","null","","","","","",""
"html-keyboard-response","193","259646","0.0-5.0-1.62","FL","ffbjr4pqha","1920","1080","0","1","0","6009c27b9e9b700266fd52b5","","null","","","learningBlock1","","","","That was a bim.","null","","","","","",""
"html-keyboard-response","194","260648","0.0-5.0-2.62","FL","ffbjr4pqha","1920","1080","0","1","0","6009c27b9e9b700266fd52b5","","null","","","learningBlock1","","","","<div style=""font-size:60px;""> </div>","null","FL","learning/Slide63.JPG","That was a bim.","","",""
"image-keyboard-response","195","260826","0.0-5.0-0.63","FL","ffbjr4pqha","1920","1080","0","1","0","6009c27b9e9b700266fd52b5","","null","","","","","","","learning/Slide64.JPG","null","","","","","",""
"html-keyboard-response","196","261981","0.0-5.0-1.63","FL","ffbjr4pqha","1920","1080","0","1","0","6009c27b9e9b700266fd52b5","","null","","","learningBlock1","","","","That was a tob.","null","","","","","",""
"html-keyboard-response","197","262982","0.0-5.0-2.63","FL","ffbjr4pqha","1920","1080","0","1","0","6009c27b9e9b700266fd52b5","","null","","","learningBlock1","","","","<div style=""font-size:60px;""> </div>","null","FL","learning/Slide64.JPG","That was a tob.","","",""
"image-keyboard-response","198","263161","0.0-5.0-0.64","FL","ffbjr4pqha","1920","1080","0","1","0","6009c27b9e9b700266fd52b5","","null","","","","","","","learning/Slide65.JPG","null","","","","","",""
"html-keyboard-response","199","264315","0.0-5.0-1.64","FL","ffbjr4pqha","1920","1080","0","1","0","6009c27b9e9b700266fd52b5","","null","","","learningBlock1","","","","That was a wug.","null","","","","","",""
"html-keyboard-response","200","265317","0.0-5.0-2.64","FL","ffbjr4pqha","1920","1080","0","1","0","6009c27b9e9b700266fd52b5","","null","","","learningBlock1","","","","<div style=""font-size:60px;""> </div>","null","FL","learning/Slide65.JPG","That was a wug.","","",""
"image-keyboard-response","201","265494","0.0-5.0-0.65","FL","ffbjr4pqha","1920","1080","0","1","0","6009c27b9e9b700266fd52b5","","null","","","","","","","learning/Slide66.JPG","null","","","","","",""
"html-keyboard-response","202","266648","0.0-5.0-1.65","FL","ffbjr4pqha","1920","1080","0","1","0","6009c27b9e9b700266fd52b5","","null","","","learningBlock1","","","","That was a dep.","null","","","","","",""
"html-keyboard-response","203","267650","0.0-5.0-2.65","FL","ffbjr4pqha","1920","1080","0","1","0","6009c27b9e9b700266fd52b5","","null","","","learningBlock1","","","","<div style=""font-size:60px;""> </div>","null","FL","learning/Slide66.JPG","That was a dep.","","",""
"image-keyboard-response","204","267827","0.0-5.0-0.66","FL","ffbjr4pqha","1920","1080","0","1","0","6009c27b9e9b700266fd52b5","","null","","","","","","","learning/Slide67.JPG","null","","","","","",""
"html-keyboard-response","205","268980","0.0-5.0-1.66","FL","ffbjr4pqha","1920","1080","0","1","0","6009c27b9e9b700266fd52b5","","null","","","learningBlock1","","","","That was a tob.","null","","","","","",""
"html-keyboard-response","206","269982","0.0-5.0-2.66","FL","ffbjr4pqha","1920","1080","0","1","0","6009c27b9e9b700266fd52b5","","null","","","learningBlock1","","","","<div style=""font-size:60px;""> </div>","null","FL","learning/Slide67.JPG","That was a tob.","","",""
"image-keyboard-response","207","270158","0.0-5.0-0.67","FL","ffbjr4pqha","1920","1080","0","1","0","6009c27b9e9b700266fd52b5","","null","","","","","","","learning/Slide68.JPG","null","","","","","",""
"html-keyboard-response","208","271313","0.0-5.0-1.67","FL","ffbjr4pqha","1920","1080","0","1","0","6009c27b9e9b700266fd52b5","","null","","","learningBlock1","","","","That was a wug.","null","","","","","",""
"html-keyboard-response","209","272315","0.0-5.0-2.67","FL","ffbjr4pqha","1920","1080","0","1","0","6009c27b9e9b700266fd52b5","","null","","","learningBlock1","","","","<div style=""font-size:60px;""> </div>","null","FL","learning/Slide68.JPG","That was a wug.","","",""
"image-keyboard-response","210","272494","0.0-5.0-0.68","FL","ffbjr4pqha","1920","1080","0","1","0","6009c27b9e9b700266fd52b5","","null","","","","","","","learning/Slide69.JPG","null","","","","","",""
"html-keyboard-response","211","273647","0.0-5.0-1.68","FL","ffbjr4pqha","1920","1080","0","1","0","6009c27b9e9b700266fd52b5","","null","","","learningBlock1","","","","That was a tob.","null","","","","","",""
"html-keyboard-response","212","274649","0.0-5.0-2.68","FL","ffbjr4pqha","1920","1080","0","1","0","6009c27b9e9b700266fd52b5","","null","","","learningBlock1","","","","<div style=""font-size:60px;""> </div>","null","FL","learning/Slide69.JPG","That was a tob.","","",""
"image-keyboard-response","213","274827","0.0-5.0-0.69","FL","ffbjr4pqha","1920","1080","0","1","0","6009c27b9e9b700266fd52b5","","null","","","","","","","learning/Slide70.JPG","null","","","","","",""
"html-keyboard-response","214","275980","0.0-5.0-1.69","FL","ffbjr4pqha","1920","1080","0","1","0","6009c27b9e9b700266fd52b5","","null","","","learningBlock1","","","","That was a dep.","null","","","","","",""
"html-keyboard-response","215","276982","0.0-5.0-2.69","FL","ffbjr4pqha","1920","1080","0","1","0","6009c27b9e9b700266fd52b5","","null","","","learningBlock1","","","","<div style=""font-size:60px;""> </div>","null","FL","learning/Slide70.JPG","That was a dep.","","",""
"image-keyboard-response","216","277158","0.0-5.0-0.70","FL","ffbjr4pqha","1920","1080","0","1","0","6009c27b9e9b700266fd52b5","","null","","","","","","","learning/Slide71.JPG","null","","","","","",""
"html-keyboard-response","217","278310","0.0-5.0-1.70","FL","ffbjr4pqha","1920","1080","0","1","0","6009c27b9e9b700266fd52b5","","null","","","learningBlock1","","","","That was a wug.","null","","","","","",""
"html-keyboard-response","218","279314","0.0-5.0-2.70","FL","ffbjr4pqha","1920","1080","0","1","0","6009c27b9e9b700266fd52b5","","null","","","learningBlock1","","","","<div style=""font-size:60px;""> </div>","null","FL","learning/Slide71.JPG","That was a wug.","","",""
"image-keyboard-response","219","279491","0.0-5.0-0.71","FL","ffbjr4pqha","1920","1080","0","1","0","6009c27b9e9b700266fd52b5","","null","","","","","","","learning/Slide72.JPG","null","","","","","",""
"html-keyboard-response","220","280646","0.0-5.0-1.71","FL","ffbjr4pqha","1920","1080","0","1","0","6009c27b9e9b700266fd52b5","","null","","","learningBlock1","","","","That was a bim.","null","","","","","",""
"html-keyboard-response","221","281647","0.0-5.0-2.71","FL","ffbjr4pqha","1920","1080","0","1","0","6009c27b9e9b700266fd52b5","","null","","","learningBlock1","","","","<div style=""font-size:60px;""> </div>","null","FL","learning/Slide72.JPG","That was a bim.","","",""
"image-keyboard-response","222","281825","0.0-5.0-0.72","FL","ffbjr4pqha","1920","1080","0","1","0","6009c27b9e9b700266fd52b5","","null","","","","","","","learning/Slide73.JPG","null","","","","","",""
"html-keyboard-response","223","282978","0.0-5.0-1.72","FL","ffbjr4pqha","1920","1080","0","1","0","6009c27b9e9b700266fd52b5","","null","","","learningBlock1","","","","That was a wug.","null","","","","","",""
"html-keyboard-response","224","283982","0.0-5.0-2.72","FL","ffbjr4pqha","1920","1080","0","1","0","6009c27b9e9b700266fd52b5","","null","","","learningBlock1","","","","<div style=""font-size:60px;""> </div>","null","FL","learning/Slide73.JPG","That was a wug.","","",""
"image-keyboard-response","225","284158","0.0-5.0-0.73","FL","ffbjr4pqha","1920","1080","0","1","0","6009c27b9e9b700266fd52b5","","null","","","","","","","learning/Slide74.JPG","null","","","","","",""
"html-keyboard-response","226","285312","0.0-5.0-1.73","FL","ffbjr4pqha","1920","1080","0","1","0","6009c27b9e9b700266fd52b5","","null","","","learningBlock1","","","","That was a dep.","null","","","","","",""
"html-keyboard-response","227","286314","0.0-5.0-2.73","FL","ffbjr4pqha","1920","1080","0","1","0","6009c27b9e9b700266fd52b5","","null","","","learningBlock1","","","","<div style=""font-size:60px;""> </div>","null","FL","learning/Slide74.JPG","That was a dep.","","",""
"image-keyboard-response","228","286491","0.0-5.0-0.74","FL","ffbjr4pqha","1920","1080","0","1","0","6009c27b9e9b700266fd52b5","","null","","","","","","","learning/Slide75.JPG","null","","","","","",""
"html-keyboard-response","229","287646","0.0-5.0-1.74","FL","ffbjr4pqha","1920","1080","0","1","0","6009c27b9e9b700266fd52b5","","null","","","learningBlock1","","","","That was a tob.","null","","","","","",""
"html-keyboard-response","230","288647","0.0-5.0-2.74","FL","ffbjr4pqha","1920","1080","0","1","0","6009c27b9e9b700266fd52b5","","null","","","learningBlock1","","","","<div style=""font-size:60px;""> </div>","null","FL","learning/Slide75.JPG","That was a tob.","","",""
"image-keyboard-response","231","288824","0.0-5.0-0.75","FL","ffbjr4pqha","1920","1080","0","1","0","6009c27b9e9b700266fd52b5","","null","","","","","","","learning/Slide76.JPG","null","","","","","",""
"html-keyboard-response","232","289977","0.0-5.0-1.75","FL","ffbjr4pqha","1920","1080","0","1","0","6009c27b9e9b700266fd52b5","","null","","","learningBlock1","","","","That was a bim.","null","","","","","",""
"html-keyboard-response","233","290980","0.0-5.0-2.75","FL","ffbjr4pqha","1920","1080","0","1","0","6009c27b9e9b700266fd52b5","","null","","","learningBlock1","","","","<div style=""font-size:60px;""> </div>","null","FL","learning/Slide76.JPG","That was a bim.","","",""
"image-keyboard-response","234","291157","0.0-5.0-0.76","FL","ffbjr4pqha","1920","1080","0","1","0","6009c27b9e9b700266fd52b5","","null","","","","","","","learning/Slide77.JPG","null","","","","","",""
"html-keyboard-response","235","292309","0.0-5.0-1.76","FL","ffbjr4pqha","1920","1080","0","1","0","6009c27b9e9b700266fd52b5","","null","","","learningBlock1","","","","That was a tob.","null","","","","","",""
"html-keyboard-response","236","293311","0.0-5.0-2.76","FL","ffbjr4pqha","1920","1080","0","1","0","6009c27b9e9b700266fd52b5","","null","","","learningBlock1","","","","<div style=""font-size:60px;""> </div>","null","FL","learning/Slide77.JPG","That was a tob.","","",""
"image-keyboard-response","237","293490","0.0-5.0-0.77","FL","ffbjr4pqha","1920","1080","0","1","0","6009c27b9e9b700266fd52b5","","null","","","","","","","learning/Slide78.JPG","null","","","","","",""
"html-keyboard-response","238","294643","0.0-5.0-1.77","FL","ffbjr4pqha","1920","1080","0","1","0","6009c27b9e9b700266fd52b5","","null","","","learningBlock1","","","","That was a wug.","null","","","","","",""
"html-keyboard-response","239","295646","0.0-5.0-2.77","FL","ffbjr4pqha","1920","1080","0","1","0","6009c27b9e9b700266fd52b5","","null","","","learningBlock1","","","","<div style=""font-size:60px;""> </div>","null","FL","learning/Slide78.JPG","That was a wug.","","",""
"image-keyboard-response","240","295823","0.0-5.0-0.78","FL","ffbjr4pqha","1920","1080","0","1","0","6009c27b9e9b700266fd52b5","","null","","","","","","","learning/Slide79.JPG","null","","","","","",""
"html-keyboard-response","241","296975","0.0-5.0-1.78","FL","ffbjr4pqha","1920","1080","0","1","0","6009c27b9e9b700266fd52b5","","null","","","learningBlock1","","","","That was a bim.","null","","","","","",""
"html-keyboard-response","242","297979","0.0-5.0-2.78","FL","ffbjr4pqha","1920","1080","0","1","0","6009c27b9e9b700266fd52b5","","null","","","learningBlock1","","","","<div style=""font-size:60px;""> </div>","null","FL","learning/Slide79.JPG","That was a bim.","","",""
"image-keyboard-response","243","298155","0.0-5.0-0.79","FL","ffbjr4pqha","1920","1080","0","1","0","6009c27b9e9b700266fd52b5","","null","","","","","","","learning/Slide80.JPG","null","","","","","",""
"html-keyboard-response","244","299307","0.0-5.0-1.79","FL","ffbjr4pqha","1920","1080","0","1","0","6009c27b9e9b700266fd52b5","","null","","","learningBlock1","","","","That was a tob.","null","","","","","",""
"html-keyboard-response","245","300311","0.0-5.0-2.79","FL","ffbjr4pqha","1920","1080","0","1","0","6009c27b9e9b700266fd52b5","","null","","","learningBlock1","","","","<div style=""font-size:60px;""> </div>","null","FL","learning/Slide80.JPG","That was a tob.","","",""
"instructions","246","304368","0.0-6.0","FL","ffbjr4pqha","1920","1080","0","1","0","6009c27b9e9b700266fd52b5","","NA","","[{""page_index"":0,""viewing_time"":4055.740000010701}]","instructions","","","","","","","","","","",""
"image-keyboard-response","247","304545","0.0-7.0-0.0","FL","ffbjr4pqha","1920","1080","0","1","0","6009c27b9e9b700266fd52b5","","null","","","","","","","learning/Slide81.JPG","null","","","","","",""
"html-keyboard-response","248","305697","0.0-7.0-1.0","FL","ffbjr4pqha","1920","1080","0","1","0","6009c27b9e9b700266fd52b5","","null","","","learningBlock2","","","","That was a wug.","null","","","","","",""
"html-keyboard-response","249","306699","0.0-7.0-2.0","FL","ffbjr4pqha","1920","1080","0","1","0","6009c27b9e9b700266fd52b5","","null","","","learningBlock2","","","","<div style=""font-size:60px;""> </div>","null","FL","learning/Slide81.JPG","That was a wug.","","",""
"image-keyboard-response","250","306875","0.0-7.0-0.1","FL","ffbjr4pqha","1920","1080","0","1","0","6009c27b9e9b700266fd52b5","","null","","","","","","","learning/Slide82.JPG","null","","","","","",""
"html-keyboard-response","251","308027","0.0-7.0-1.1","FL","ffbjr4pqha","1920","1080","0","1","0","6009c27b9e9b700266fd52b5","","null","","","learningBlock2","","","","That was a bim.","null","","","","","",""
"html-keyboard-response","252","309030","0.0-7.0-2.1","FL","ffbjr4pqha","1920","1080","0","1","0","6009c27b9e9b700266fd52b5","","null","","","learningBlock2","","","","<div style=""font-size:60px;""> </div>","null","FL","learning/Slide82.JPG","That was a bim.","","",""
"image-keyboard-response","253","309208","0.0-7.0-0.2","FL","ffbjr4pqha","1920","1080","0","1","0","6009c27b9e9b700266fd52b5","","null","","","","","","","learning/Slide83.JPG","null","","","","","",""
"html-keyboard-response","254","310361","0.0-7.0-1.2","FL","ffbjr4pqha","1920","1080","0","1","0","6009c27b9e9b700266fd52b5","","null","","","learningBlock2","","","","That was a wug.","null","","","","","",""
"html-keyboard-response","255","311363","0.0-7.0-2.2","FL","ffbjr4pqha","1920","1080","0","1","0","6009c27b9e9b700266fd52b5","","null","","","learningBlock2","","","","<div style=""font-size:60px;""> </div>","null","FL","learning/Slide83.JPG","That was a wug.","","",""
"image-keyboard-response","256","311541","0.0-7.0-0.3","FL","ffbjr4pqha","1920","1080","0","1","0","6009c27b9e9b700266fd52b5","","null","","","","","","","learning/Slide84.JPG","null","","","","","",""
"html-keyboard-response","257","312694","0.0-7.0-1.3","FL","ffbjr4pqha","1920","1080","0","1","0","6009c27b9e9b700266fd52b5","","null","","","learningBlock2","","","","That was a dep.","null","","","","","",""
"html-keyboard-response","258","313696","0.0-7.0-2.3","FL","ffbjr4pqha","1920","1080","0","1","0","6009c27b9e9b700266fd52b5","","null","","","learningBlock2","","","","<div style=""font-size:60px;""> </div>","null","FL","learning/Slide84.JPG","That was a dep.","","",""
"image-keyboard-response","259","313873","0.0-7.0-0.4","FL","ffbjr4pqha","1920","1080","0","1","0","6009c27b9e9b700266fd52b5","","null","","","","","","","learning/Slide85.JPG","null","","","","","",""
"html-keyboard-response","260","315025","0.0-7.0-1.4","FL","ffbjr4pqha","1920","1080","0","1","0","6009c27b9e9b700266fd52b5","","null","","","learningBlock2","","","","That was a bim.","null","","","","","",""
"html-keyboard-response","261","316026","0.0-7.0-2.4","FL","ffbjr4pqha","1920","1080","0","1","0","6009c27b9e9b700266fd52b5","","null","","","learningBlock2","","","","<div style=""font-size:60px;""> </div>","null","FL","learning/Slide85.JPG","That was a bim.","","",""
"image-keyboard-response","262","316206","0.0-7.0-0.5","FL","ffbjr4pqha","1920","1080","0","1","0","6009c27b9e9b700266fd52b5","","null","","","","","","","learning/Slide86.JPG","null","","","","","",""
"html-keyboard-response","263","317357","0.0-7.0-1.5","FL","ffbjr4pqha","1920","1080","0","1","0","6009c27b9e9b700266fd52b5","","null","","","learningBlock2","","","","That was a tob.","null","","","","","",""
"html-keyboard-response","264","318359","0.0-7.0-2.5","FL","ffbjr4pqha","1920","1080","0","1","0","6009c27b9e9b700266fd52b5","","null","","","learningBlock2","","","","<div style=""font-size:60px;""> </div>","null","FL","learning/Slide86.JPG","That was a tob.","","",""
"image-keyboard-response","265","318535","0.0-7.0-0.6","FL","ffbjr4pqha","1920","1080","0","1","0","6009c27b9e9b700266fd52b5","","null","","","","","","","learning/Slide87.JPG","null","","","","","",""
"html-keyboard-response","266","319688","0.0-7.0-1.6","FL","ffbjr4pqha","1920","1080","0","1","0","6009c27b9e9b700266fd52b5","","null","","","learningBlock2","","","","That was a wug.","null","","","","","",""
"html-keyboard-response","267","320693","0.0-7.0-2.6","FL","ffbjr4pqha","1920","1080","0","1","0","6009c27b9e9b700266fd52b5","","null","","","learningBlock2","","","","<div style=""font-size:60px;""> </div>","null","FL","learning/Slide87.JPG","That was a wug.","","",""
"image-keyboard-response","268","320870","0.0-7.0-0.7","FL","ffbjr4pqha","1920","1080","0","1","0","6009c27b9e9b700266fd52b5","","null","","","","","","","learning/Slide88.JPG","null","","","","","",""
"html-keyboard-response","269","322023","0.0-7.0-1.7","FL","ffbjr4pqha","1920","1080","0","1","0","6009c27b9e9b700266fd52b5","","null","","","learningBlock2","","","","That was a tob.","null","","","","","",""
"html-keyboard-response","270","323029","0.0-7.0-2.7","FL","ffbjr4pqha","1920","1080","0","1","0","6009c27b9e9b700266fd52b5","","null","","","learningBlock2","","","","<div style=""font-size:60px;""> </div>","null","FL","learning/Slide88.JPG","That was a tob.","","",""
"image-keyboard-response","271","323207","0.0-7.0-0.8","FL","ffbjr4pqha","1920","1080","0","1","0","6009c27b9e9b700266fd52b5","","null","","","","","","","learning/Slide89.JPG","null","","","","","",""
"html-keyboard-response","272","324360","0.0-7.0-1.8","FL","ffbjr4pqha","1920","1080","0","1","0","6009c27b9e9b700266fd52b5","","null","","","learningBlock2","","","","That was a bim.","null","","","","","",""
"html-keyboard-response","273","325362","0.0-7.0-2.8","FL","ffbjr4pqha","1920","1080","0","1","0","6009c27b9e9b700266fd52b5","","null","","","learningBlock2","","","","<div style=""font-size:60px;""> </div>","null","FL","learning/Slide89.JPG","That was a bim.","","",""
"image-keyboard-response","274","325540","0.0-7.0-0.9","FL","ffbjr4pqha","1920","1080","0","1","0","6009c27b9e9b700266fd52b5","","null","","","","","","","learning/Slide90.JPG","null","","","","","",""
"html-keyboard-response","275","326696","0.0-7.0-1.9","FL","ffbjr4pqha","1920","1080","0","1","0","6009c27b9e9b700266fd52b5","","null","","","learningBlock2","","","","That was a dep.","null","","","","","",""
"html-keyboard-response","276","327699","0.0-7.0-2.9","FL","ffbjr4pqha","1920","1080","0","1","0","6009c27b9e9b700266fd52b5","","null","","","learningBlock2","","","","<div style=""font-size:60px;""> </div>","null","FL","learning/Slide90.JPG","That was a dep.","","",""
"image-keyboard-response","277","327876","0.0-7.0-0.10","FL","ffbjr4pqha","1920","1080","0","1","0","6009c27b9e9b700266fd52b5","","null","","","","","","","learning/Slide91.JPG","null","","","","","",""
"html-keyboard-response","278","329029","0.0-7.0-1.10","FL","ffbjr4pqha","1920","1080","0","1","0","6009c27b9e9b700266fd52b5","","null","","","learningBlock2","","","","That was a wug.","null","","","","","",""
"html-keyboard-response","279","330031","0.0-7.0-2.10","FL","ffbjr4pqha","1920","1080","0","1","0","6009c27b9e9b700266fd52b5","","null","","","learningBlock2","","","","<div style=""font-size:60px;""> </div>","null","FL","learning/Slide91.JPG","That was a wug.","","",""
"image-keyboard-response","280","330206","0.0-7.0-0.11","FL","ffbjr4pqha","1920","1080","0","1","0","6009c27b9e9b700266fd52b5","","null","","","","","","","learning/Slide92.JPG","null","","","","","",""
"html-keyboard-response","281","331359","0.0-7.0-1.11","FL","ffbjr4pqha","1920","1080","0","1","0","6009c27b9e9b700266fd52b5","","null","","","learningBlock2","","","","That was a tob.","null","","","","","",""
"html-keyboard-response","282","332361","0.0-7.0-2.11","FL","ffbjr4pqha","1920","1080","0","1","0","6009c27b9e9b700266fd52b5","","null","","","learningBlock2","","","","<div style=""font-size:60px;""> </div>","null","FL","learning/Slide92.JPG","That was a tob.","","",""
"image-keyboard-response","283","332538","0.0-7.0-0.12","FL","ffbjr4pqha","1920","1080","0","1","0","6009c27b9e9b700266fd52b5","","null","","","","","","","learning/Slide93.JPG","null","","","","","",""
"html-keyboard-response","284","333690","0.0-7.0-1.12","FL","ffbjr4pqha","1920","1080","0","1","0","6009c27b9e9b700266fd52b5","","null","","","learningBlock2","","","","That was a bim.","null","","","","","",""
"html-keyboard-response","285","334692","0.0-7.0-2.12","FL","ffbjr4pqha","1920","1080","0","1","0","6009c27b9e9b700266fd52b5","","null","","","learningBlock2","","","","<div style=""font-size:60px;""> </div>","null","FL","learning/Slide93.JPG","That was a bim.","","",""
"image-keyboard-response","286","334869","0.0-7.0-0.13","FL","ffbjr4pqha","1920","1080","0","1","0","6009c27b9e9b700266fd52b5","","null","","","","","","","learning/Slide94.JPG","null","","","","","",""
"html-keyboard-response","287","336146","0.0-7.0-1.13","FL","ffbjr4pqha","1920","1080","0","1","0","6009c27b9e9b700266fd52b5","","null","","","learningBlock2","","","","That was a tob.","null","","","","","",""
"html-keyboard-response","288","337156","0.0-7.0-2.13","FL","ffbjr4pqha","1920","1080","0","1","0","6009c27b9e9b700266fd52b5","","null","","","learningBlock2","","","","<div style=""font-size:60px;""> </div>","null","FL","learning/Slide94.JPG","That was a tob.","","",""
"image-keyboard-response","289","337339","0.0-7.0-0.14","FL","ffbjr4pqha","1920","1080","0","1","0","6009c27b9e9b700266fd52b5","","null","","","","","","","learning/Slide95.JPG","null","","","","","",""
"html-keyboard-response","290","338491","0.0-7.0-1.14","FL","ffbjr4pqha","1920","1080","0","1","0","6009c27b9e9b700266fd52b5","","null","","","learningBlock2","","","","That was a wug.","null","","","","","",""
"html-keyboard-response","291","339497","0.0-7.0-2.14","FL","ffbjr4pqha","1920","1080","0","1","0","6009c27b9e9b700266fd52b5","","null","","","learningBlock2","","","","<div style=""font-size:60px;""> </div>","null","FL","learning/Slide95.JPG","That was a wug.","","",""
"image-keyboard-response","292","339681","0.0-7.0-0.15","FL","ffbjr4pqha","1920","1080","0","1","0","6009c27b9e9b700266fd52b5","","null","","","","","","","learning/Slide96.JPG","null","","","","","",""
"html-keyboard-response","293","340833","0.0-7.0-1.15","FL","ffbjr4pqha","1920","1080","0","1","0","6009c27b9e9b700266fd52b5","","null","","","learningBlock2","","","","That was a tob.","null","","","","","",""
"html-keyboard-response","294","341837","0.0-7.0-2.15","FL","ffbjr4pqha","1920","1080","0","1","0","6009c27b9e9b700266fd52b5","","null","","","learningBlock2","","","","<div style=""font-size:60px;""> </div>","null","FL","learning/Slide96.JPG","That was a tob.","","",""
"image-keyboard-response","295","342015","0.0-7.0-0.16","FL","ffbjr4pqha","1920","1080","0","1","0","6009c27b9e9b700266fd52b5","","null","","","","","","","learning/Slide97.JPG","null","","","","","",""
"html-keyboard-response","296","343166","0.0-7.0-1.16","FL","ffbjr4pqha","1920","1080","0","1","0","6009c27b9e9b700266fd52b5","","null","","","learningBlock2","","","","That was a dep.","null","","","","","",""
"html-keyboard-response","297","344179","0.0-7.0-2.16","FL","ffbjr4pqha","1920","1080","0","1","0","6009c27b9e9b700266fd52b5","","null","","","learningBlock2","","","","<div style=""font-size:60px;""> </div>","null","FL","learning/Slide97.JPG","That was a dep.","","",""
"image-keyboard-response","298","344358","0.0-7.0-0.17","FL","ffbjr4pqha","1920","1080","0","1","0","6009c27b9e9b700266fd52b5","","null","","","","","","","learning/Slide98.JPG","null","","","","","",""
"html-keyboard-response","299","345520","0.0-7.0-1.17","FL","ffbjr4pqha","1920","1080","0","1","0","6009c27b9e9b700266fd52b5","","null","","","learningBlock2","","","","That was a bim.","null","","","","","",""
"html-keyboard-response","300","346523","0.0-7.0-2.17","FL","ffbjr4pqha","1920","1080","0","1","0","6009c27b9e9b700266fd52b5","","null","","","learningBlock2","","","","<div style=""font-size:60px;""> </div>","null","FL","learning/Slide98.JPG","That was a bim.","","",""
"image-keyboard-response","301","346723","0.0-7.0-0.18","FL","ffbjr4pqha","1920","1080","0","1","0","6009c27b9e9b700266fd52b5","","null","","","","","","","learning/Slide99.JPG","null","","","","","",""
"html-keyboard-response","302","347882","0.0-7.0-1.18","FL","ffbjr4pqha","1920","1080","0","1","0","6009c27b9e9b700266fd52b5","","null","","","learningBlock2","","","","That was a dep.","null","","","","","",""
"html-keyboard-response","303","348889","0.0-7.0-2.18","FL","ffbjr4pqha","1920","1080","0","1","0","6009c27b9e9b700266fd52b5","","null","","","learningBlock2","","","","<div style=""font-size:60px;""> </div>","null","FL","learning/Slide99.JPG","That was a dep.","","",""
"image-keyboard-response","304","349072","0.0-7.0-0.19","FL","ffbjr4pqha","1920","1080","0","1","0","6009c27b9e9b700266fd52b5","","null","","","","","","","learning/Slide100.JPG","null","","","","","",""
"html-keyboard-response","305","350226","0.0-7.0-1.19","FL","ffbjr4pqha","1920","1080","0","1","0","6009c27b9e9b700266fd52b5","","null","","","learningBlock2","","","","That was a bim.","null","","","","","",""
"html-keyboard-response","306","351243","0.0-7.0-2.19","FL","ffbjr4pqha","1920","1080","0","1","0","6009c27b9e9b700266fd52b5","","null","","","learningBlock2","","","","<div style=""font-size:60px;""> </div>","null","FL","learning/Slide100.JPG","That was a bim.","","",""
"image-keyboard-response","307","351420","0.0-7.0-0.20","FL","ffbjr4pqha","1920","1080","0","1","0","6009c27b9e9b700266fd52b5","","null","","","","","","","learning/Slide101.JPG","null","","","","","",""
"html-keyboard-response","308","352593","0.0-7.0-1.20","FL","ffbjr4pqha","1920","1080","0","1","0","6009c27b9e9b700266fd52b5","","null","","","learningBlock2","","","","That was a tob.","null","","","","","",""
"html-keyboard-response","309","353598","0.0-7.0-2.20","FL","ffbjr4pqha","1920","1080","0","1","0","6009c27b9e9b700266fd52b5","","null","","","learningBlock2","","","","<div style=""font-size:60px;""> </div>","null","FL","learning/Slide101.JPG","That was a tob.","","",""
"image-keyboard-response","310","353781","0.0-7.0-0.21","FL","ffbjr4pqha","1920","1080","0","1","0","6009c27b9e9b700266fd52b5","","null","","","","","","","learning/Slide102.JPG","null","","","","","",""
"html-keyboard-response","311","354947","0.0-7.0-1.21","FL","ffbjr4pqha","1920","1080","0","1","0","6009c27b9e9b700266fd52b5","","null","","","learningBlock2","","","","That was a bim.","null","","","","","",""
"html-keyboard-response","312","355950","0.0-7.0-2.21","FL","ffbjr4pqha","1920","1080","0","1","0","6009c27b9e9b700266fd52b5","","null","","","learningBlock2","","","","<div style=""font-size:60px;""> </div>","null","FL","learning/Slide102.JPG","That was a bim.","","",""
"image-keyboard-response","313","356133","0.0-7.0-0.22","FL","ffbjr4pqha","1920","1080","0","1","0","6009c27b9e9b700266fd52b5","","null","","","","","","","learning/Slide103.JPG","null","","","","","",""
"html-keyboard-response","314","357290","0.0-7.0-1.22","FL","ffbjr4pqha","1920","1080","0","1","0","6009c27b9e9b700266fd52b5","","null","","","learningBlock2","","","","That was a dep.","null","","","","","",""
"html-keyboard-response","315","358292","0.0-7.0-2.22","FL","ffbjr4pqha","1920","1080","0","1","0","6009c27b9e9b700266fd52b5","","null","","","learningBlock2","","","","<div style=""font-size:60px;""> </div>","null","FL","learning/Slide103.JPG","That was a dep.","","",""
"image-keyboard-response","316","358470","0.0-7.0-0.23","FL","ffbjr4pqha","1920","1080","0","1","0","6009c27b9e9b700266fd52b5","","null","","","","","","","learning/Slide104.JPG","null","","","","","",""
"html-keyboard-response","317","359624","0.0-7.0-1.23","FL","ffbjr4pqha","1920","1080","0","1","0","6009c27b9e9b700266fd52b5","","null","","","learningBlock2","","","","That was a tob.","null","","","","","",""
"html-keyboard-response","318","360637","0.0-7.0-2.23","FL","ffbjr4pqha","1920","1080","0","1","0","6009c27b9e9b700266fd52b5","","null","","","learningBlock2","","","","<div style=""font-size:60px;""> </div>","null","FL","learning/Slide104.JPG","That was a tob.","","",""
"image-keyboard-response","319","360822","0.0-7.0-0.24","FL","ffbjr4pqha","1920","1080","0","1","0","6009c27b9e9b700266fd52b5","","null","","","","","","","learning/Slide105.JPG","null","","","","","",""
"html-keyboard-response","320","361989","0.0-7.0-1.24","FL","ffbjr4pqha","1920","1080","0","1","0","6009c27b9e9b700266fd52b5","","null","","","learningBlock2","","","","That was a dep.","null","","","","","",""
"html-keyboard-response","321","362996","0.0-7.0-2.24","FL","ffbjr4pqha","1920","1080","0","1","0","6009c27b9e9b700266fd52b5","","null","","","learningBlock2","","","","<div style=""font-size:60px;""> </div>","null","FL","learning/Slide105.JPG","That was a dep.","","",""
"image-keyboard-response","322","363185","0.0-7.0-0.25","FL","ffbjr4pqha","1920","1080","0","1","0","6009c27b9e9b700266fd52b5","","null","","","","","","","learning/Slide106.JPG","null","","","","","",""
"html-keyboard-response","323","364357","0.0-7.0-1.25","FL","ffbjr4pqha","1920","1080","0","1","0","6009c27b9e9b700266fd52b5","","null","","","learningBlock2","","","","That was a wug.","null","","","","","",""
"html-keyboard-response","324","365364","0.0-7.0-2.25","FL","ffbjr4pqha","1920","1080","0","1","0","6009c27b9e9b700266fd52b5","","null","","","learningBlock2","","","","<div style=""font-size:60px;""> </div>","null","FL","learning/Slide106.JPG","That was a wug.","","",""
"image-keyboard-response","325","365542","0.0-7.0-0.26","FL","ffbjr4pqha","1920","1080","0","1","0","6009c27b9e9b700266fd52b5","","null","","","","","","","learning/Slide107.JPG","null","","","","","",""
"html-keyboard-response","326","366701","0.0-7.0-1.26","FL","ffbjr4pqha","1920","1080","0","1","0","6009c27b9e9b700266fd52b5","","null","","","learningBlock2","","","","That was a bim.","null","","","","","",""
"html-keyboard-response","327","367710","0.0-7.0-2.26","FL","ffbjr4pqha","1920","1080","0","1","0","6009c27b9e9b700266fd52b5","","null","","","learningBlock2","","","","<div style=""font-size:60px;""> </div>","null","FL","learning/Slide107.JPG","That was a bim.","","",""
"image-keyboard-response","328","367887","0.0-7.0-0.27","FL","ffbjr4pqha","1920","1080","0","1","0","6009c27b9e9b700266fd52b5","","null","","","","","","","learning/Slide108.JPG","null","","","","","",""
"html-keyboard-response","329","369040","0.0-7.0-1.27","FL","ffbjr4pqha","1920","1080","0","1","0","6009c27b9e9b700266fd52b5","","null","","","learningBlock2","","","","That was a dep.","null","","","","","",""
"html-keyboard-response","330","370062","0.0-7.0-2.27","FL","ffbjr4pqha","1920","1080","0","1","0","6009c27b9e9b700266fd52b5","","null","","","learningBlock2","","","","<div style=""font-size:60px;""> </div>","null","FL","learning/Slide108.JPG","That was a dep.","","",""
"image-keyboard-response","331","370265","0.0-7.0-0.28","FL","ffbjr4pqha","1920","1080","0","1","0","6009c27b9e9b700266fd52b5","","null","","","","","","","learning/Slide109.JPG","null","","","","","",""
"html-keyboard-response","332","371431","0.0-7.0-1.28","FL","ffbjr4pqha","1920","1080","0","1","0","6009c27b9e9b700266fd52b5","","null","","","learningBlock2","","","","That was a wug.","null","","","","","",""
"html-keyboard-response","333","372437","0.0-7.0-2.28","FL","ffbjr4pqha","1920","1080","0","1","0","6009c27b9e9b700266fd52b5","","null","","","learningBlock2","","","","<div style=""font-size:60px;""> </div>","null","FL","learning/Slide109.JPG","That was a wug.","","",""
"image-keyboard-response","334","372640","0.0-7.0-0.29","FL","ffbjr4pqha","1920","1080","0","1","0","6009c27b9e9b700266fd52b5","","null","","","","","","","learning/Slide110.JPG","null","","","","","",""
"html-keyboard-response","335","373811","0.0-7.0-1.29","FL","ffbjr4pqha","1920","1080","0","1","0","6009c27b9e9b700266fd52b5","","null","","","learningBlock2","","","","That was a bim.","null","","","","","",""
"html-keyboard-response","336","374829","0.0-7.0-2.29","FL","ffbjr4pqha","1920","1080","0","1","0","6009c27b9e9b700266fd52b5","","null","","","learningBlock2","","","","<div style=""font-size:60px;""> </div>","null","FL","learning/Slide110.JPG","That was a bim.","","",""
"image-keyboard-response","337","375027","0.0-7.0-0.30","FL","ffbjr4pqha","1920","1080","0","1","0","6009c27b9e9b700266fd52b5","","null","","","","","","","learning/Slide111.JPG","null","","","","","",""
"html-keyboard-response","338","376205","0.0-7.0-1.30","FL","ffbjr4pqha","1920","1080","0","1","0","6009c27b9e9b700266fd52b5","","null","","","learningBlock2","","","","That was a tob.","null","","","","","",""
"html-keyboard-response","339","377210","0.0-7.0-2.30","FL","ffbjr4pqha","1920","1080","0","1","0","6009c27b9e9b700266fd52b5","","null","","","learningBlock2","","","","<div style=""font-size:60px;""> </div>","null","FL","learning/Slide111.JPG","That was a tob.","","",""
"image-keyboard-response","340","377389","0.0-7.0-0.31","FL","ffbjr4pqha","1920","1080","0","1","0","6009c27b9e9b700266fd52b5","","null","","","","","","","learning/Slide112.JPG","null","","","","","",""
"html-keyboard-response","341","378555","0.0-7.0-1.31","FL","ffbjr4pqha","1920","1080","0","1","0","6009c27b9e9b700266fd52b5","","null","","","learningBlock2","","","","That was a wug.","null","","","","","",""
"html-keyboard-response","342","379557","0.0-7.0-2.31","FL","ffbjr4pqha","1920","1080","0","1","0","6009c27b9e9b700266fd52b5","","null","","","learningBlock2","","","","<div style=""font-size:60px;""> </div>","null","FL","learning/Slide112.JPG","That was a wug.","","",""
"image-keyboard-response","343","379742","0.0-7.0-0.32","FL","ffbjr4pqha","1920","1080","0","1","0","6009c27b9e9b700266fd52b5","","null","","","","","","","learning/Slide113.JPG","null","","","","","",""
"html-keyboard-response","344","380915","0.0-7.0-1.32","FL","ffbjr4pqha","1920","1080","0","1","0","6009c27b9e9b700266fd52b5","","null","","","learningBlock2","","","","That was a tob.","null","","","","","",""
"html-keyboard-response","345","381940","0.0-7.0-2.32","FL","ffbjr4pqha","1920","1080","0","1","0","6009c27b9e9b700266fd52b5","","null","","","learningBlock2","","","","<div style=""font-size:60px;""> </div>","null","FL","learning/Slide113.JPG","That was a tob.","","",""
"image-keyboard-response","346","382144","0.0-7.0-0.33","FL","ffbjr4pqha","1920","1080","0","1","0","6009c27b9e9b700266fd52b5","","null","","","","","","","learning/Slide114.JPG","null","","","","","",""
"html-keyboard-response","347","383340","0.0-7.0-1.33","FL","ffbjr4pqha","1920","1080","0","1","0","6009c27b9e9b700266fd52b5","","null","","","learningBlock2","","","","That was a wug.","null","","","","","",""
"html-keyboard-response","348","384352","0.0-7.0-2.33","FL","ffbjr4pqha","1920","1080","0","1","0","6009c27b9e9b700266fd52b5","","null","","","learningBlock2","","","","<div style=""font-size:60px;""> </div>","null","FL","learning/Slide114.JPG","That was a wug.","","",""
"image-keyboard-response","349","384536","0.0-7.0-0.34","FL","ffbjr4pqha","1920","1080","0","1","0","6009c27b9e9b700266fd52b5","","null","","","","","","","learning/Slide115.JPG","null","","","","","",""
"html-keyboard-response","350","385705","0.0-7.0-1.34","FL","ffbjr4pqha","1920","1080","0","1","0","6009c27b9e9b700266fd52b5","","null","","","learningBlock2","","","","That was a bim.","null","","","","","",""
"html-keyboard-response","351","386713","0.0-7.0-2.34","FL","ffbjr4pqha","1920","1080","0","1","0","6009c27b9e9b700266fd52b5","","null","","","learningBlock2","","","","<div style=""font-size:60px;""> </div>","null","FL","learning/Slide115.JPG","That was a bim.","","",""
"image-keyboard-response","352","386914","0.0-7.0-0.35","FL","ffbjr4pqha","1920","1080","0","1","0","6009c27b9e9b700266fd52b5","","null","","","","","","","learning/Slide116.JPG","null","","","","","",""
"html-keyboard-response","353","388083","0.0-7.0-1.35","FL","ffbjr4pqha","1920","1080","0","1","0","6009c27b9e9b700266fd52b5","","null","","","learningBlock2","","","","That was a dep.","null","","","","","",""
"html-keyboard-response","354","389088","0.0-7.0-2.35","FL","ffbjr4pqha","1920","1080","0","1","0","6009c27b9e9b700266fd52b5","","null","","","learningBlock2","","","","<div style=""font-size:60px;""> </div>","null","FL","learning/Slide116.JPG","That was a dep.","","",""
"image-keyboard-response","355","389282","0.0-7.0-0.36","FL","ffbjr4pqha","1920","1080","0","1","0","6009c27b9e9b700266fd52b5","","null","","","","","","","learning/Slide117.JPG","null","","","","","",""
"html-keyboard-response","356","390470","0.0-7.0-1.36","FL","ffbjr4pqha","1920","1080","0","1","0","6009c27b9e9b700266fd52b5","","null","","","learningBlock2","","","","That was a tob.","null","","","","","",""
"html-keyboard-response","357","391492","0.0-7.0-2.36","FL","ffbjr4pqha","1920","1080","0","1","0","6009c27b9e9b700266fd52b5","","null","","","learningBlock2","","","","<div style=""font-size:60px;""> </div>","null","FL","learning/Slide117.JPG","That was a tob.","","",""
"image-keyboard-response","358","391678","0.0-7.0-0.37","FL","ffbjr4pqha","1920","1080","0","1","0","6009c27b9e9b700266fd52b5","","null","","","","","","","learning/Slide118.JPG","null","","","","","",""
"html-keyboard-response","359","392851","0.0-7.0-1.37","FL","ffbjr4pqha","1920","1080","0","1","0","6009c27b9e9b700266fd52b5","","null","","","learningBlock2","","","","That was a dep.","null","","","","","",""
"html-keyboard-response","360","393861","0.0-7.0-2.37","FL","ffbjr4pqha","1920","1080","0","1","0","6009c27b9e9b700266fd52b5","","null","","","learningBlock2","","","","<div style=""font-size:60px;""> </div>","null","FL","learning/Slide118.JPG","That was a dep.","","",""
"image-keyboard-response","361","394058","0.0-7.0-0.38","FL","ffbjr4pqha","1920","1080","0","1","0","6009c27b9e9b700266fd52b5","","null","","","","","","","learning/Slide119.JPG","null","","","","","",""
"html-keyboard-response","362","395227","0.0-7.0-1.38","FL","ffbjr4pqha","1920","1080","0","1","0","6009c27b9e9b700266fd52b5","","null","","","learningBlock2","","","","That was a wug.","null","","","","","",""
"html-keyboard-response","363","396243","0.0-7.0-2.38","FL","ffbjr4pqha","1920","1080","0","1","0","6009c27b9e9b700266fd52b5","","null","","","learningBlock2","","","","<div style=""font-size:60px;""> </div>","null","FL","learning/Slide119.JPG","That was a wug.","","",""
"image-keyboard-response","364","396422","0.0-7.0-0.39","FL","ffbjr4pqha","1920","1080","0","1","0","6009c27b9e9b700266fd52b5","","null","","","","","","","learning/Slide120.JPG","null","","","","","",""
"html-keyboard-response","365","397588","0.0-7.0-1.39","FL","ffbjr4pqha","1920","1080","0","1","0","6009c27b9e9b700266fd52b5","","null","","","learningBlock2","","","","That was a dep.","null","","","","","",""
"html-keyboard-response","366","398610","0.0-7.0-2.39","FL","ffbjr4pqha","1920","1080","0","1","0","6009c27b9e9b700266fd52b5","","null","","","learningBlock2","","","","<div style=""font-size:60px;""> </div>","null","FL","learning/Slide120.JPG","That was a dep.","","",""
"image-keyboard-response","367","398794","0.0-7.0-0.40","FL","ffbjr4pqha","1920","1080","0","1","0","6009c27b9e9b700266fd52b5","","null","","","","","","","learning/Slide121.JPG","null","","","","","",""
"html-keyboard-response","368","399957","0.0-7.0-1.40","FL","ffbjr4pqha","1920","1080","0","1","0","6009c27b9e9b700266fd52b5","","null","","","learningBlock2","","","","That was a bim.","null","","","","","",""
"html-keyboard-response","369","400991","0.0-7.0-2.40","FL","ffbjr4pqha","1920","1080","0","1","0","6009c27b9e9b700266fd52b5","","null","","","learningBlock2","","","","<div style=""font-size:60px;""> </div>","null","FL","learning/Slide121.JPG","That was a bim.","","",""
"image-keyboard-response","370","401206","0.0-7.0-0.41","FL","ffbjr4pqha","1920","1080","0","1","0","6009c27b9e9b700266fd52b5","","null","","","","","","","learning/Slide122.JPG","null","","","","","",""
"html-keyboard-response","371","402412","0.0-7.0-1.41","FL","ffbjr4pqha","1920","1080","0","1","0","6009c27b9e9b700266fd52b5","","null","","","learningBlock2","","","","That was a wug.","null","","","","","",""
"html-keyboard-response","372","403419","0.0-7.0-2.41","FL","ffbjr4pqha","1920","1080","0","1","0","6009c27b9e9b700266fd52b5","","null","","","learningBlock2","","","","<div style=""font-size:60px;""> </div>","null","FL","learning/Slide122.JPG","That was a wug.","","",""
"image-keyboard-response","373","403596","0.0-7.0-0.42","FL","ffbjr4pqha","1920","1080","0","1","0","6009c27b9e9b700266fd52b5","","null","","","","","","","learning/Slide123.JPG","null","","","","","",""
"html-keyboard-response","374","404799","0.0-7.0-1.42","FL","ffbjr4pqha","1920","1080","0","1","0","6009c27b9e9b700266fd52b5","","null","","","learningBlock2","","","","That was a bim.","null","","","","","",""
"html-keyboard-response","375","405819","0.0-7.0-2.42","FL","ffbjr4pqha","1920","1080","0","1","0","6009c27b9e9b700266fd52b5","","null","","","learningBlock2","","","","<div style=""font-size:60px;""> </div>","null","FL","learning/Slide123.JPG","That was a bim.","","",""
"image-keyboard-response","376","406033","0.0-7.0-0.43","FL","ffbjr4pqha","1920","1080","0","1","0","6009c27b9e9b700266fd52b5","","null","","","","","","","learning/Slide124.JPG","null","","","","","",""
"html-keyboard-response","377","407204","0.0-7.0-1.43","FL","ffbjr4pqha","1920","1080","0","1","0","6009c27b9e9b700266fd52b5","","null","","","learningBlock2","","","","That was a tob.","null","","","","","",""
"html-keyboard-response","378","408219","0.0-7.0-2.43","FL","ffbjr4pqha","1920","1080","0","1","0","6009c27b9e9b700266fd52b5","","null","","","learningBlock2","","","","<div style=""font-size:60px;""> </div>","null","FL","learning/Slide124.JPG","That was a tob.","","",""
"image-keyboard-response","379","408416","0.0-7.0-0.44","FL","ffbjr4pqha","1920","1080","0","1","0","6009c27b9e9b700266fd52b5","","null","","","","","","","learning/Slide125.JPG","null","","","","","",""
"html-keyboard-response","380","409584","0.0-7.0-1.44","FL","ffbjr4pqha","1920","1080","0","1","0","6009c27b9e9b700266fd52b5","","null","","","learningBlock2","","","","That was a bim.","null","","","","","",""
"html-keyboard-response","381","410587","0.0-7.0-2.44","FL","ffbjr4pqha","1920","1080","0","1","0","6009c27b9e9b700266fd52b5","","null","","","learningBlock2","","","","<div style=""font-size:60px;""> </div>","null","FL","learning/Slide125.JPG","That was a bim.","","",""
"image-keyboard-response","382","410769","0.0-7.0-0.45","FL","ffbjr4pqha","1920","1080","0","1","0","6009c27b9e9b700266fd52b5","","null","","","","","","","learning/Slide126.JPG","null","","","","","",""
"html-keyboard-response","383","411947","0.0-7.0-1.45","FL","ffbjr4pqha","1920","1080","0","1","0","6009c27b9e9b700266fd52b5","","null","","","learningBlock2","","","","That was a tob.","null","","","","","",""
"html-keyboard-response","384","412955","0.0-7.0-2.45","FL","ffbjr4pqha","1920","1080","0","1","0","6009c27b9e9b700266fd52b5","","null","","","learningBlock2","","","","<div style=""font-size:60px;""> </div>","null","FL","learning/Slide126.JPG","That was a tob.","","",""
"image-keyboard-response","385","413141","0.0-7.0-0.46","FL","ffbjr4pqha","1920","1080","0","1","0","6009c27b9e9b700266fd52b5","","null","","","","","","","learning/Slide127.JPG","null","","","","","",""
"html-keyboard-response","386","414299","0.0-7.0-1.46","FL","ffbjr4pqha","1920","1080","0","1","0","6009c27b9e9b700266fd52b5","","null","","","learningBlock2","","","","That was a dep.","null","","","","","",""
"html-keyboard-response","387","415331","0.0-7.0-2.46","FL","ffbjr4pqha","1920","1080","0","1","0","6009c27b9e9b700266fd52b5","","null","","","learningBlock2","","","","<div style=""font-size:60px;""> </div>","null","FL","learning/Slide127.JPG","That was a dep.","","",""
"image-keyboard-response","388","415510","0.0-7.0-0.47","FL","ffbjr4pqha","1920","1080","0","1","0","6009c27b9e9b700266fd52b5","","null","","","","","","","learning/Slide128.JPG","null","","","","","",""
"html-keyboard-response","389","416689","0.0-7.0-1.47","FL","ffbjr4pqha","1920","1080","0","1","0","6009c27b9e9b700266fd52b5","","null","","","learningBlock2","","","","That was a wug.","null","","","","","",""
"html-keyboard-response","390","417700","0.0-7.0-2.47","FL","ffbjr4pqha","1920","1080","0","1","0","6009c27b9e9b700266fd52b5","","null","","","learningBlock2","","","","<div style=""font-size:60px;""> </div>","null","FL","learning/Slide128.JPG","That was a wug.","","",""
"image-keyboard-response","391","417877","0.0-7.0-0.48","FL","ffbjr4pqha","1920","1080","0","1","0","6009c27b9e9b700266fd52b5","","null","","","","","","","learning/Slide129.JPG","null","","","","","",""
"html-keyboard-response","392","419047","0.0-7.0-1.48","FL","ffbjr4pqha","1920","1080","0","1","0","6009c27b9e9b700266fd52b5","","null","","","learningBlock2","","","","That was a tob.","null","","","","","",""
"html-keyboard-response","393","420061","0.0-7.0-2.48","FL","ffbjr4pqha","1920","1080","0","1","0","6009c27b9e9b700266fd52b5","","null","","","learningBlock2","","","","<div style=""font-size:60px;""> </div>","null","FL","learning/Slide129.JPG","That was a tob.","","",""
"image-keyboard-response","394","420255","0.0-7.0-0.49","FL","ffbjr4pqha","1920","1080","0","1","0","6009c27b9e9b700266fd52b5","","null","","","","","","","learning/Slide130.JPG","null","","","","","",""
"html-keyboard-response","395","421414","0.0-7.0-1.49","FL","ffbjr4pqha","1920","1080","0","1","0","6009c27b9e9b700266fd52b5","","null","","","learningBlock2","","","","That was a wug.","null","","","","","",""
"html-keyboard-response","396","422416","0.0-7.0-2.49","FL","ffbjr4pqha","1920","1080","0","1","0","6009c27b9e9b700266fd52b5","","null","","","learningBlock2","","","","<div style=""font-size:60px;""> </div>","null","FL","learning/Slide130.JPG","That was a wug.","","",""
"image-keyboard-response","397","422608","0.0-7.0-0.50","FL","ffbjr4pqha","1920","1080","0","1","0","6009c27b9e9b700266fd52b5","","null","","","","","","","learning/Slide131.JPG","null","","","","","",""
"html-keyboard-response","398","423775","0.0-7.0-1.50","FL","ffbjr4pqha","1920","1080","0","1","0","6009c27b9e9b700266fd52b5","","null","","","learningBlock2","","","","That was a bim.","null","","","","","",""
"html-keyboard-response","399","424778","0.0-7.0-2.50","FL","ffbjr4pqha","1920","1080","0","1","0","6009c27b9e9b700266fd52b5","","null","","","learningBlock2","","","","<div style=""font-size:60px;""> </div>","null","FL","learning/Slide131.JPG","That was a bim.","","",""
"image-keyboard-response","400","424956","0.0-7.0-0.51","FL","ffbjr4pqha","1920","1080","0","1","0","6009c27b9e9b700266fd52b5","","null","","","","","","","learning/Slide132.JPG","null","","","","","",""
"html-keyboard-response","401","426132","0.0-7.0-1.51","FL","ffbjr4pqha","1920","1080","0","1","0","6009c27b9e9b700266fd52b5","","null","","","learningBlock2","","","","That was a dep.","null","","","","","",""
"html-keyboard-response","402","427138","0.0-7.0-2.51","FL","ffbjr4pqha","1920","1080","0","1","0","6009c27b9e9b700266fd52b5","","null","","","learningBlock2","","","","<div style=""font-size:60px;""> </div>","null","FL","learning/Slide132.JPG","That was a dep.","","",""
"image-keyboard-response","403","427322","0.0-7.0-0.52","FL","ffbjr4pqha","1920","1080","0","1","0","6009c27b9e9b700266fd52b5","","null","","","","","","","learning/Slide133.JPG","null","","","","","",""
"html-keyboard-response","404","428487","0.0-7.0-1.52","FL","ffbjr4pqha","1920","1080","0","1","0","6009c27b9e9b700266fd52b5","","null","","","learningBlock2","","","","That was a tob.","null","","","","","",""
"html-keyboard-response","405","429491","0.0-7.0-2.52","FL","ffbjr4pqha","1920","1080","0","1","0","6009c27b9e9b700266fd52b5","","null","","","learningBlock2","","","","<div style=""font-size:60px;""> </div>","null","FL","learning/Slide133.JPG","That was a tob.","","",""
"image-keyboard-response","406","429673","0.0-7.0-0.53","FL","ffbjr4pqha","1920","1080","0","1","0","6009c27b9e9b700266fd52b5","","null","","","","","","","learning/Slide134.JPG","null","","","","","",""
"html-keyboard-response","407","430830","0.0-7.0-1.53","FL","ffbjr4pqha","1920","1080","0","1","0","6009c27b9e9b700266fd52b5","","null","","","learningBlock2","","","","That was a dep.","null","","","","","",""
"html-keyboard-response","408","431846","0.0-7.0-2.53","FL","ffbjr4pqha","1920","1080","0","1","0","6009c27b9e9b700266fd52b5","","null","","","learningBlock2","","","","<div style=""font-size:60px;""> </div>","null","FL","learning/Slide134.JPG","That was a dep.","","",""
"image-keyboard-response","409","432041","0.0-7.0-0.54","FL","ffbjr4pqha","1920","1080","0","1","0","6009c27b9e9b700266fd52b5","","null","","","","","","","learning/Slide135.JPG","null","","","","","",""
"html-keyboard-response","410","433213","0.0-7.0-1.54","FL","ffbjr4pqha","1920","1080","0","1","0","6009c27b9e9b700266fd52b5","","null","","","learningBlock2","","","","That was a tob.","null","","","","","",""
"html-keyboard-response","411","434229","0.0-7.0-2.54","FL","ffbjr4pqha","1920","1080","0","1","0","6009c27b9e9b700266fd52b5","","null","","","learningBlock2","","","","<div style=""font-size:60px;""> </div>","null","FL","learning/Slide135.JPG","That was a tob.","","",""
"image-keyboard-response","412","434408","0.0-7.0-0.55","FL","ffbjr4pqha","1920","1080","0","1","0","6009c27b9e9b700266fd52b5","","null","","","","","","","learning/Slide136.JPG","null","","","","","",""
"html-keyboard-response","413","435578","0.0-7.0-1.55","FL","ffbjr4pqha","1920","1080","0","1","0","6009c27b9e9b700266fd52b5","","null","","","learningBlock2","","","","That was a wug.","null","","","","","",""
"html-keyboard-response","414","436580","0.0-7.0-2.55","FL","ffbjr4pqha","1920","1080","0","1","0","6009c27b9e9b700266fd52b5","","null","","","learningBlock2","","","","<div style=""font-size:60px;""> </div>","null","FL","learning/Slide136.JPG","That was a wug.","","",""
"image-keyboard-response","415","436763","0.0-7.0-0.56","FL","ffbjr4pqha","1920","1080","0","1","0","6009c27b9e9b700266fd52b5","","null","","","","","","","learning/Slide137.JPG","null","","","","","",""
"html-keyboard-response","416","437922","0.0-7.0-1.56","FL","ffbjr4pqha","1920","1080","0","1","0","6009c27b9e9b700266fd52b5","","null","","","learningBlock2","","","","That was a tob.","null","","","","","",""
"html-keyboard-response","417","438924","0.0-7.0-2.56","FL","ffbjr4pqha","1920","1080","0","1","0","6009c27b9e9b700266fd52b5","","null","","","learningBlock2","","","","<div style=""font-size:60px;""> </div>","null","FL","learning/Slide137.JPG","That was a tob.","","",""
"image-keyboard-response","418","439103","0.0-7.0-0.57","FL","ffbjr4pqha","1920","1080","0","1","0","6009c27b9e9b700266fd52b5","","null","","","","","","","learning/Slide138.JPG","null","","","","","",""
"html-keyboard-response","419","440263","0.0-7.0-1.57","FL","ffbjr4pqha","1920","1080","0","1","0","6009c27b9e9b700266fd52b5","","null","","","learningBlock2","","","","That was a bim.","null","","","","","",""
"html-keyboard-response","420","441269","0.0-7.0-2.57","FL","ffbjr4pqha","1920","1080","0","1","0","6009c27b9e9b700266fd52b5","","null","","","learningBlock2","","","","<div style=""font-size:60px;""> </div>","null","FL","learning/Slide138.JPG","That was a bim.","","",""
"image-keyboard-response","421","441447","0.0-7.0-0.58","FL","ffbjr4pqha","1920","1080","0","1","0","6009c27b9e9b700266fd52b5","","null","","","","","","","learning/Slide139.JPG","null","","","","","",""
"html-keyboard-response","422","442641","0.0-7.0-1.58","FL","ffbjr4pqha","1920","1080","0","1","0","6009c27b9e9b700266fd52b5","","null","","","learningBlock2","","","","That was a wug.","null","","","","","",""
"html-keyboard-response","423","443646","0.0-7.0-2.58","FL","ffbjr4pqha","1920","1080","0","1","0","6009c27b9e9b700266fd52b5","","null","","","learningBlock2","","","","<div style=""font-size:60px;""> </div>","null","FL","learning/Slide139.JPG","That was a wug.","","",""
"image-keyboard-response","424","443825","0.0-7.0-0.59","FL","ffbjr4pqha","1920","1080","0","1","0","6009c27b9e9b700266fd52b5","","null","","","","","","","learning/Slide140.JPG","null","","","","","",""
"html-keyboard-response","425","444993","0.0-7.0-1.59","FL","ffbjr4pqha","1920","1080","0","1","0","6009c27b9e9b700266fd52b5","","null","","","learningBlock2","","","","That was a dep.","null","","","","","",""
"html-keyboard-response","426","446005","0.0-7.0-2.59","FL","ffbjr4pqha","1920","1080","0","1","0","6009c27b9e9b700266fd52b5","","null","","","learningBlock2","","","","<div style=""font-size:60px;""> </div>","null","FL","learning/Slide140.JPG","That was a dep.","","",""
"image-keyboard-response","427","446188","0.0-7.0-0.60","FL","ffbjr4pqha","1920","1080","0","1","0","6009c27b9e9b700266fd52b5","","null","","","","","","","learning/Slide141.JPG","null","","","","","",""
"html-keyboard-response","428","447347","0.0-7.0-1.60","FL","ffbjr4pqha","1920","1080","0","1","0","6009c27b9e9b700266fd52b5","","null","","","learningBlock2","","","","That was a tob.","null","","","","","",""
"html-keyboard-response","429","448349","0.0-7.0-2.60","FL","ffbjr4pqha","1920","1080","0","1","0","6009c27b9e9b700266fd52b5","","null","","","learningBlock2","","","","<div style=""font-size:60px;""> </div>","null","FL","learning/Slide141.JPG","That was a tob.","","",""
"image-keyboard-response","430","448529","0.0-7.0-0.61","FL","ffbjr4pqha","1920","1080","0","1","0","6009c27b9e9b700266fd52b5","","null","","","","","","","learning/Slide142.JPG","null","","","","","",""
"html-keyboard-response","431","449688","0.0-7.0-1.61","FL","ffbjr4pqha","1920","1080","0","1","0","6009c27b9e9b700266fd52b5","","null","","","learningBlock2","","","","That was a wug.","null","","","","","",""
"html-keyboard-response","432","450691","0.0-7.0-2.61","FL","ffbjr4pqha","1920","1080","0","1","0","6009c27b9e9b700266fd52b5","","null","","","learningBlock2","","","","<div style=""font-size:60px;""> </div>","null","FL","learning/Slide142.JPG","That was a wug.","","",""
"image-keyboard-response","433","450869","0.0-7.0-0.62","FL","ffbjr4pqha","1920","1080","0","1","0","6009c27b9e9b700266fd52b5","","null","","","","","","","learning/Slide143.JPG","null","","","","","",""
"html-keyboard-response","434","452044","0.0-7.0-1.62","FL","ffbjr4pqha","1920","1080","0","1","0","6009c27b9e9b700266fd52b5","","null","","","learningBlock2","","","","That was a bim.","null","","","","","",""
