"trial_type","trial_index","time_elapsed","internal_node_id","condition","subject","screen_width","screen_height","attention","distraction","conscientious","prolificID","success","rt","url","view_history","test_part","final_height_px","final_width_px","scale_factor","stimulus","key_press","learningType","presentedImage","presentedLabel","button_pressed","response","responses"
"pavlovia","0","23","0.0-0.0","LF","gqq2p40hu9","1536","864","0","1","0","5d41aa9ec61bc300012c73f6","","","","","","","","","","","","","","","",""
"fullscreen","1","269185","0.0-1.0","LF","gqq2p40hu9","1536","864","0","1","0","5d41aa9ec61bc300012c73f6","true","","","","","","","","","","","","","","",""
"external-html","2","291540","0.0-2.0-0.0","LF","gqq2p40hu9","1536","864","0","1","0","5d41aa9ec61bc300012c73f6","","22181.48499999917","text/information_english.html","","","","","","","","","","","","",""
"external-html","3","304088","0.0-2.0-1.0","LF","gqq2p40hu9","1536","864","0","1","0","5d41aa9ec61bc300012c73f6","","12468.925000001036","text/consent_english.html","","","","","","","","","","","","",""
"instructions","4","908559","0.0-3.0","LF","gqq2p40hu9","1536","864","0","1","0","5d41aa9ec61bc300012c73f6","","NA","","[{""page_index"":0,""viewing_time"":1689.6949999991339},{""page_index"":1,""viewing_time"":602773.1299999995}]","instructions","","","","","","","","","","",""
"resize","5","926692","0.0-4.0","LF","gqq2p40hu9","1536","864","0","1","0","5d41aa9ec61bc300012c73f6","","","","","","","330","2.0952380952380953","","","","","","","",""
"html-keyboard-response","6","927700","0.0-5.0-0.0","LF","gqq2p40hu9","1536","864","0","1","0","5d41aa9ec61bc300012c73f6","","null","","","learningBlock1","","","","This is a tob:","null","","","","","",""
"image-keyboard-response","7","928033","0.0-5.0-1.0","LF","gqq2p40hu9","1536","864","0","1","0","5d41aa9ec61bc300012c73f6","","null","","","","","","","learning/Slide1.JPG","null","","","","","",""
"html-keyboard-response","8","929035","0.0-5.0-2.0","LF","gqq2p40hu9","1536","864","0","1","0","5d41aa9ec61bc300012c73f6","","null","","","learningBlock1","","","","<div style=""font-size:60px;""> </div>","null","LF","learning/Slide1.JPG","This is a tob:","","",""
"html-keyboard-response","9","930051","0.0-5.0-0.1","LF","gqq2p40hu9","1536","864","0","1","0","5d41aa9ec61bc300012c73f6","","null","","","learningBlock1","","","","This is a wug:","null","","","","","",""
"image-keyboard-response","10","930392","0.0-5.0-1.1","LF","gqq2p40hu9","1536","864","0","1","0","5d41aa9ec61bc300012c73f6","","null","","","","","","","learning/Slide2.JPG","null","","","","","",""
"html-keyboard-response","11","931404","0.0-5.0-2.1","LF","gqq2p40hu9","1536","864","0","1","0","5d41aa9ec61bc300012c73f6","","null","","","learningBlock1","","","","<div style=""font-size:60px;""> </div>","null","LF","learning/Slide2.JPG","This is a wug:","","",""
"html-keyboard-response","12","932418","0.0-5.0-0.2","LF","gqq2p40hu9","1536","864","0","1","0","5d41aa9ec61bc300012c73f6","","null","","","learningBlock1","","","","This is a bim:","null","","","","","",""
"image-keyboard-response","13","932754","0.0-5.0-1.2","LF","gqq2p40hu9","1536","864","0","1","0","5d41aa9ec61bc300012c73f6","","null","","","","","","","learning/Slide3.JPG","null","","","","","",""
"html-keyboard-response","14","933761","0.0-5.0-2.2","LF","gqq2p40hu9","1536","864","0","1","0","5d41aa9ec61bc300012c73f6","","null","","","learningBlock1","","","","<div style=""font-size:60px;""> </div>","null","LF","learning/Slide3.JPG","This is a bim:","","",""
"html-keyboard-response","15","934768","0.0-5.0-0.3","LF","gqq2p40hu9","1536","864","0","1","0","5d41aa9ec61bc300012c73f6","","null","","","learningBlock1","","","","This is a dep:","null","","","","","",""
"image-keyboard-response","16","935096","0.0-5.0-1.3","LF","gqq2p40hu9","1536","864","0","1","0","5d41aa9ec61bc300012c73f6","","null","","","","","","","learning/Slide4.JPG","null","","","","","",""
"html-keyboard-response","17","936099","0.0-5.0-2.3","LF","gqq2p40hu9","1536","864","0","1","0","5d41aa9ec61bc300012c73f6","","null","","","learningBlock1","","","","<div style=""font-size:60px;""> </div>","null","LF","learning/Slide4.JPG","This is a dep:","","",""
"html-keyboard-response","18","937106","0.0-5.0-0.4","LF","gqq2p40hu9","1536","864","0","1","0","5d41aa9ec61bc300012c73f6","","null","","","learningBlock1","","","","This is a wug:","null","","","","","",""
"image-keyboard-response","19","937434","0.0-5.0-1.4","LF","gqq2p40hu9","1536","864","0","1","0","5d41aa9ec61bc300012c73f6","","null","","","","","","","learning/Slide5.JPG","null","","","","","",""
"html-keyboard-response","20","938439","0.0-5.0-2.4","LF","gqq2p40hu9","1536","864","0","1","0","5d41aa9ec61bc300012c73f6","","null","","","learningBlock1","","","","<div style=""font-size:60px;""> </div>","null","LF","learning/Slide5.JPG","This is a wug:","","",""
"html-keyboard-response","21","939450","0.0-5.0-0.5","LF","gqq2p40hu9","1536","864","0","1","0","5d41aa9ec61bc300012c73f6","","null","","","learningBlock1","","","","This is a dep:","null","","","","","",""
"image-keyboard-response","22","939794","0.0-5.0-1.5","LF","gqq2p40hu9","1536","864","0","1","0","5d41aa9ec61bc300012c73f6","","null","","","","","","","learning/Slide6.JPG","null","","","","","",""
"html-keyboard-response","23","940811","0.0-5.0-2.5","LF","gqq2p40hu9","1536","864","0","1","0","5d41aa9ec61bc300012c73f6","","null","","","learningBlock1","","","","<div style=""font-size:60px;""> </div>","null","LF","learning/Slide6.JPG","This is a dep:","","",""
"html-keyboard-response","24","941827","0.0-5.0-0.6","LF","gqq2p40hu9","1536","864","0","1","0","5d41aa9ec61bc300012c73f6","","null","","","learningBlock1","","","","This is a wug:","null","","","","","",""
"image-keyboard-response","25","942171","0.0-5.0-1.6","LF","gqq2p40hu9","1536","864","0","1","0","5d41aa9ec61bc300012c73f6","","null","","","","","","","learning/Slide7.JPG","null","","","","","",""
"html-keyboard-response","26","943181","0.0-5.0-2.6","LF","gqq2p40hu9","1536","864","0","1","0","5d41aa9ec61bc300012c73f6","","null","","","learningBlock1","","","","<div style=""font-size:60px;""> </div>","null","LF","learning/Slide7.JPG","This is a wug:","","",""
"html-keyboard-response","27","944184","0.0-5.0-0.7","LF","gqq2p40hu9","1536","864","0","1","0","5d41aa9ec61bc300012c73f6","","null","","","learningBlock1","","","","This is a bim:","null","","","","","",""
"image-keyboard-response","28","944511","0.0-5.0-1.7","LF","gqq2p40hu9","1536","864","0","1","0","5d41aa9ec61bc300012c73f6","","null","","","","","","","learning/Slide8.JPG","null","","","","","",""
"html-keyboard-response","29","945515","0.0-5.0-2.7","LF","gqq2p40hu9","1536","864","0","1","0","5d41aa9ec61bc300012c73f6","","null","","","learningBlock1","","","","<div style=""font-size:60px;""> </div>","null","LF","learning/Slide8.JPG","This is a bim:","","",""
"html-keyboard-response","30","946527","0.0-5.0-0.8","LF","gqq2p40hu9","1536","864","0","1","0","5d41aa9ec61bc300012c73f6","","null","","","learningBlock1","","","","This is a wug:","null","","","","","",""
"image-keyboard-response","31","946872","0.0-5.0-1.8","LF","gqq2p40hu9","1536","864","0","1","0","5d41aa9ec61bc300012c73f6","","null","","","","","","","learning/Slide9.JPG","null","","","","","",""
"html-keyboard-response","32","947875","0.0-5.0-2.8","LF","gqq2p40hu9","1536","864","0","1","0","5d41aa9ec61bc300012c73f6","","null","","","learningBlock1","","","","<div style=""font-size:60px;""> </div>","null","LF","learning/Slide9.JPG","This is a wug:","","",""
"html-keyboard-response","33","948876","0.0-5.0-0.9","LF","gqq2p40hu9","1536","864","0","1","0","5d41aa9ec61bc300012c73f6","","null","","","learningBlock1","","","","This is a dep:","null","","","","","",""
"image-keyboard-response","34","949226","0.0-5.0-1.9","LF","gqq2p40hu9","1536","864","0","1","0","5d41aa9ec61bc300012c73f6","","null","","","","","","","learning/Slide10.JPG","null","","","","","",""
"html-keyboard-response","35","950229","0.0-5.0-2.9","LF","gqq2p40hu9","1536","864","0","1","0","5d41aa9ec61bc300012c73f6","","null","","","learningBlock1","","","","<div style=""font-size:60px;""> </div>","null","LF","learning/Slide10.JPG","This is a dep:","","",""
"html-keyboard-response","36","951242","0.0-5.0-0.10","LF","gqq2p40hu9","1536","864","0","1","0","5d41aa9ec61bc300012c73f6","","null","","","learningBlock1","","","","This is a tob:","null","","","","","",""
"image-keyboard-response","37","951572","0.0-5.0-1.10","LF","gqq2p40hu9","1536","864","0","1","0","5d41aa9ec61bc300012c73f6","","null","","","","","","","learning/Slide11.JPG","null","","","","","",""
"html-keyboard-response","38","952578","0.0-5.0-2.10","LF","gqq2p40hu9","1536","864","0","1","0","5d41aa9ec61bc300012c73f6","","null","","","learningBlock1","","","","<div style=""font-size:60px;""> </div>","null","LF","learning/Slide11.JPG","This is a tob:","","",""
"html-keyboard-response","39","953580","0.0-5.0-0.11","LF","gqq2p40hu9","1536","864","0","1","0","5d41aa9ec61bc300012c73f6","","null","","","learningBlock1","","","","This is a dep:","null","","","","","",""
"image-keyboard-response","40","953911","0.0-5.0-1.11","LF","gqq2p40hu9","1536","864","0","1","0","5d41aa9ec61bc300012c73f6","","null","","","","","","","learning/Slide12.JPG","null","","","","","",""
"html-keyboard-response","41","954924","0.0-5.0-2.11","LF","gqq2p40hu9","1536","864","0","1","0","5d41aa9ec61bc300012c73f6","","null","","","learningBlock1","","","","<div style=""font-size:60px;""> </div>","null","LF","learning/Slide12.JPG","This is a dep:","","",""
"html-keyboard-response","42","955934","0.0-5.0-0.12","LF","gqq2p40hu9","1536","864","0","1","0","5d41aa9ec61bc300012c73f6","","null","","","learningBlock1","","","","This is a bim:","null","","","","","",""
"image-keyboard-response","43","956278","0.0-5.0-1.12","LF","gqq2p40hu9","1536","864","0","1","0","5d41aa9ec61bc300012c73f6","","null","","","","","","","learning/Slide13.JPG","null","","","","","",""
"html-keyboard-response","44","957281","0.0-5.0-2.12","LF","gqq2p40hu9","1536","864","0","1","0","5d41aa9ec61bc300012c73f6","","null","","","learningBlock1","","","","<div style=""font-size:60px;""> </div>","null","LF","learning/Slide13.JPG","This is a bim:","","",""
"html-keyboard-response","45","958284","0.0-5.0-0.13","LF","gqq2p40hu9","1536","864","0","1","0","5d41aa9ec61bc300012c73f6","","null","","","learningBlock1","","","","This is a wug:","null","","","","","",""
"image-keyboard-response","46","958622","0.0-5.0-1.13","LF","gqq2p40hu9","1536","864","0","1","0","5d41aa9ec61bc300012c73f6","","null","","","","","","","learning/Slide14.JPG","null","","","","","",""
"html-keyboard-response","47","959624","0.0-5.0-2.13","LF","gqq2p40hu9","1536","864","0","1","0","5d41aa9ec61bc300012c73f6","","null","","","learningBlock1","","","","<div style=""font-size:60px;""> </div>","null","LF","learning/Slide14.JPG","This is a wug:","","",""
"html-keyboard-response","48","960628","0.0-5.0-0.14","LF","gqq2p40hu9","1536","864","0","1","0","5d41aa9ec61bc300012c73f6","","null","","","learningBlock1","","","","This is a tob:","null","","","","","",""
"image-keyboard-response","49","960966","0.0-5.0-1.14","LF","gqq2p40hu9","1536","864","0","1","0","5d41aa9ec61bc300012c73f6","","null","","","","","","","learning/Slide15.JPG","null","","","","","",""
"html-keyboard-response","50","961969","0.0-5.0-2.14","LF","gqq2p40hu9","1536","864","0","1","0","5d41aa9ec61bc300012c73f6","","null","","","learningBlock1","","","","<div style=""font-size:60px;""> </div>","null","LF","learning/Slide15.JPG","This is a tob:","","",""
"html-keyboard-response","51","962974","0.0-5.0-0.15","LF","gqq2p40hu9","1536","864","0","1","0","5d41aa9ec61bc300012c73f6","","null","","","learningBlock1","","","","This is a dep:","null","","","","","",""
"image-keyboard-response","52","963312","0.0-5.0-1.15","LF","gqq2p40hu9","1536","864","0","1","0","5d41aa9ec61bc300012c73f6","","null","","","","","","","learning/Slide16.JPG","null","","","","","",""
"html-keyboard-response","53","964321","0.0-5.0-2.15","LF","gqq2p40hu9","1536","864","0","1","0","5d41aa9ec61bc300012c73f6","","null","","","learningBlock1","","","","<div style=""font-size:60px;""> </div>","null","LF","learning/Slide16.JPG","This is a dep:","","",""
"html-keyboard-response","54","965324","0.0-5.0-0.16","LF","gqq2p40hu9","1536","864","0","1","0","5d41aa9ec61bc300012c73f6","","null","","","learningBlock1","","","","This is a bim:","null","","","","","",""
"image-keyboard-response","55","965651","0.0-5.0-1.16","LF","gqq2p40hu9","1536","864","0","1","0","5d41aa9ec61bc300012c73f6","","null","","","","","","","learning/Slide17.JPG","null","","","","","",""
"html-keyboard-response","56","966662","0.0-5.0-2.16","LF","gqq2p40hu9","1536","864","0","1","0","5d41aa9ec61bc300012c73f6","","null","","","learningBlock1","","","","<div style=""font-size:60px;""> </div>","null","LF","learning/Slide17.JPG","This is a bim:","","",""
"html-keyboard-response","57","967679","0.0-5.0-0.17","LF","gqq2p40hu9","1536","864","0","1","0","5d41aa9ec61bc300012c73f6","","null","","","learningBlock1","","","","This is a tob:","null","","","","","",""
"image-keyboard-response","58","968021","0.0-5.0-1.17","LF","gqq2p40hu9","1536","864","0","1","0","5d41aa9ec61bc300012c73f6","","null","","","","","","","learning/Slide18.JPG","null","","","","","",""
"html-keyboard-response","59","969023","0.0-5.0-2.17","LF","gqq2p40hu9","1536","864","0","1","0","5d41aa9ec61bc300012c73f6","","null","","","learningBlock1","","","","<div style=""font-size:60px;""> </div>","null","LF","learning/Slide18.JPG","This is a tob:","","",""
"html-keyboard-response","60","970038","0.0-5.0-0.18","LF","gqq2p40hu9","1536","864","0","1","0","5d41aa9ec61bc300012c73f6","","null","","","learningBlock1","","","","This is a wug:","null","","","","","",""
"image-keyboard-response","61","970377","0.0-5.0-1.18","LF","gqq2p40hu9","1536","864","0","1","0","5d41aa9ec61bc300012c73f6","","null","","","","","","","learning/Slide19.JPG","null","","","","","",""
"html-keyboard-response","62","971380","0.0-5.0-2.18","LF","gqq2p40hu9","1536","864","0","1","0","5d41aa9ec61bc300012c73f6","","null","","","learningBlock1","","","","<div style=""font-size:60px;""> </div>","null","LF","learning/Slide19.JPG","This is a wug:","","",""
"html-keyboard-response","63","972382","0.0-5.0-0.19","LF","gqq2p40hu9","1536","864","0","1","0","5d41aa9ec61bc300012c73f6","","null","","","learningBlock1","","","","This is a bim:","null","","","","","",""
"image-keyboard-response","64","972720","0.0-5.0-1.19","LF","gqq2p40hu9","1536","864","0","1","0","5d41aa9ec61bc300012c73f6","","null","","","","","","","learning/Slide20.JPG","null","","","","","",""
"html-keyboard-response","65","973737","0.0-5.0-2.19","LF","gqq2p40hu9","1536","864","0","1","0","5d41aa9ec61bc300012c73f6","","null","","","learningBlock1","","","","<div style=""font-size:60px;""> </div>","null","LF","learning/Slide20.JPG","This is a bim:","","",""
"html-keyboard-response","66","974738","0.0-5.0-0.20","LF","gqq2p40hu9","1536","864","0","1","0","5d41aa9ec61bc300012c73f6","","null","","","learningBlock1","","","","This is a dep:","null","","","","","",""
"image-keyboard-response","67","975068","0.0-5.0-1.20","LF","gqq2p40hu9","1536","864","0","1","0","5d41aa9ec61bc300012c73f6","","null","","","","","","","learning/Slide21.JPG","null","","","","","",""
"html-keyboard-response","68","976082","0.0-5.0-2.20","LF","gqq2p40hu9","1536","864","0","1","0","5d41aa9ec61bc300012c73f6","","null","","","learningBlock1","","","","<div style=""font-size:60px;""> </div>","null","LF","learning/Slide21.JPG","This is a dep:","","",""
"html-keyboard-response","69","977086","0.0-5.0-0.21","LF","gqq2p40hu9","1536","864","0","1","0","5d41aa9ec61bc300012c73f6","","null","","","learningBlock1","","","","This is a bim:","null","","","","","",""
"image-keyboard-response","70","977424","0.0-5.0-1.21","LF","gqq2p40hu9","1536","864","0","1","0","5d41aa9ec61bc300012c73f6","","null","","","","","","","learning/Slide22.JPG","null","","","","","",""
"html-keyboard-response","71","978440","0.0-5.0-2.21","LF","gqq2p40hu9","1536","864","0","1","0","5d41aa9ec61bc300012c73f6","","null","","","learningBlock1","","","","<div style=""font-size:60px;""> </div>","null","LF","learning/Slide22.JPG","This is a bim:","","",""
"html-keyboard-response","72","979453","0.0-5.0-0.22","LF","gqq2p40hu9","1536","864","0","1","0","5d41aa9ec61bc300012c73f6","","null","","","learningBlock1","","","","This is a tob:","null","","","","","",""
"image-keyboard-response","73","979805","0.0-5.0-1.22","LF","gqq2p40hu9","1536","864","0","1","0","5d41aa9ec61bc300012c73f6","","null","","","","","","","learning/Slide23.JPG","null","","","","","",""
"html-keyboard-response","74","980807","0.0-5.0-2.22","LF","gqq2p40hu9","1536","864","0","1","0","5d41aa9ec61bc300012c73f6","","null","","","learningBlock1","","","","<div style=""font-size:60px;""> </div>","null","LF","learning/Slide23.JPG","This is a tob:","","",""
"html-keyboard-response","75","981818","0.0-5.0-0.23","LF","gqq2p40hu9","1536","864","0","1","0","5d41aa9ec61bc300012c73f6","","null","","","learningBlock1","","","","This is a wug:","null","","","","","",""
"image-keyboard-response","76","982145","0.0-5.0-1.23","LF","gqq2p40hu9","1536","864","0","1","0","5d41aa9ec61bc300012c73f6","","null","","","","","","","learning/Slide24.JPG","null","","","","","",""
"html-keyboard-response","77","983147","0.0-5.0-2.23","LF","gqq2p40hu9","1536","864","0","1","0","5d41aa9ec61bc300012c73f6","","null","","","learningBlock1","","","","<div style=""font-size:60px;""> </div>","null","LF","learning/Slide24.JPG","This is a wug:","","",""
"html-keyboard-response","78","984161","0.0-5.0-0.24","LF","gqq2p40hu9","1536","864","0","1","0","5d41aa9ec61bc300012c73f6","","null","","","learningBlock1","","","","This is a dep:","null","","","","","",""
"image-keyboard-response","79","984511","0.0-5.0-1.24","LF","gqq2p40hu9","1536","864","0","1","0","5d41aa9ec61bc300012c73f6","","null","","","","","","","learning/Slide25.JPG","null","","","","","",""
"html-keyboard-response","80","985516","0.0-5.0-2.24","LF","gqq2p40hu9","1536","864","0","1","0","5d41aa9ec61bc300012c73f6","","null","","","learningBlock1","","","","<div style=""font-size:60px;""> </div>","null","LF","learning/Slide25.JPG","This is a dep:","","",""
"html-keyboard-response","81","986524","0.0-5.0-0.25","LF","gqq2p40hu9","1536","864","0","1","0","5d41aa9ec61bc300012c73f6","","null","","","learningBlock1","","","","This is a wug:","null","","","","","",""
"image-keyboard-response","82","986856","0.0-5.0-1.25","LF","gqq2p40hu9","1536","864","0","1","0","5d41aa9ec61bc300012c73f6","","null","","","","","","","learning/Slide26.JPG","null","","","","","",""
"html-keyboard-response","83","987873","0.0-5.0-2.25","LF","gqq2p40hu9","1536","864","0","1","0","5d41aa9ec61bc300012c73f6","","null","","","learningBlock1","","","","<div style=""font-size:60px;""> </div>","null","LF","learning/Slide26.JPG","This is a wug:","","",""
"html-keyboard-response","84","988885","0.0-5.0-0.26","LF","gqq2p40hu9","1536","864","0","1","0","5d41aa9ec61bc300012c73f6","","null","","","learningBlock1","","","","This is a bim:","null","","","","","",""
"image-keyboard-response","85","989222","0.0-5.0-1.26","LF","gqq2p40hu9","1536","864","0","1","0","5d41aa9ec61bc300012c73f6","","null","","","","","","","learning/Slide27.JPG","null","","","","","",""
"html-keyboard-response","86","990233","0.0-5.0-2.26","LF","gqq2p40hu9","1536","864","0","1","0","5d41aa9ec61bc300012c73f6","","null","","","learningBlock1","","","","<div style=""font-size:60px;""> </div>","null","LF","learning/Slide27.JPG","This is a bim:","","",""
"html-keyboard-response","87","991235","0.0-5.0-0.27","LF","gqq2p40hu9","1536","864","0","1","0","5d41aa9ec61bc300012c73f6","","null","","","learningBlock1","","","","This is a dep:","null","","","","","",""
"image-keyboard-response","88","991566","0.0-5.0-1.27","LF","gqq2p40hu9","1536","864","0","1","0","5d41aa9ec61bc300012c73f6","","null","","","","","","","learning/Slide28.JPG","null","","","","","",""
"html-keyboard-response","89","992569","0.0-5.0-2.27","LF","gqq2p40hu9","1536","864","0","1","0","5d41aa9ec61bc300012c73f6","","null","","","learningBlock1","","","","<div style=""font-size:60px;""> </div>","null","LF","learning/Slide28.JPG","This is a dep:","","",""
"html-keyboard-response","90","993570","0.0-5.0-0.28","LF","gqq2p40hu9","1536","864","0","1","0","5d41aa9ec61bc300012c73f6","","null","","","learningBlock1","","","","This is a tob:","null","","","","","",""
"image-keyboard-response","91","993923","0.0-5.0-1.28","LF","gqq2p40hu9","1536","864","0","1","0","5d41aa9ec61bc300012c73f6","","null","","","","","","","learning/Slide29.JPG","null","","","","","",""
"html-keyboard-response","92","994925","0.0-5.0-2.28","LF","gqq2p40hu9","1536","864","0","1","0","5d41aa9ec61bc300012c73f6","","null","","","learningBlock1","","","","<div style=""font-size:60px;""> </div>","null","LF","learning/Slide29.JPG","This is a tob:","","",""
"html-keyboard-response","93","995927","0.0-5.0-0.29","LF","gqq2p40hu9","1536","864","0","1","0","5d41aa9ec61bc300012c73f6","","null","","","learningBlock1","","","","This is a dep:","null","","","","","",""
"image-keyboard-response","94","996258","0.0-5.0-1.29","LF","gqq2p40hu9","1536","864","0","1","0","5d41aa9ec61bc300012c73f6","","null","","","","","","","learning/Slide30.JPG","null","","","","","",""
"html-keyboard-response","95","997275","0.0-5.0-2.29","LF","gqq2p40hu9","1536","864","0","1","0","5d41aa9ec61bc300012c73f6","","null","","","learningBlock1","","","","<div style=""font-size:60px;""> </div>","null","LF","learning/Slide30.JPG","This is a dep:","","",""
"html-keyboard-response","96","998277","0.0-5.0-0.30","LF","gqq2p40hu9","1536","864","0","1","0","5d41aa9ec61bc300012c73f6","","null","","","learningBlock1","","","","This is a wug:","null","","","","","",""
"image-keyboard-response","97","998605","0.0-5.0-1.30","LF","gqq2p40hu9","1536","864","0","1","0","5d41aa9ec61bc300012c73f6","","null","","","","","","","learning/Slide31.JPG","null","","","","","",""
"html-keyboard-response","98","999621","0.0-5.0-2.30","LF","gqq2p40hu9","1536","864","0","1","0","5d41aa9ec61bc300012c73f6","","null","","","learningBlock1","","","","<div style=""font-size:60px;""> </div>","null","LF","learning/Slide31.JPG","This is a wug:","","",""
"html-keyboard-response","99","1000623","0.0-5.0-0.31","LF","gqq2p40hu9","1536","864","0","1","0","5d41aa9ec61bc300012c73f6","","null","","","learningBlock1","","","","This is a tob:","null","","","","","",""
"image-keyboard-response","100","1000963","0.0-5.0-1.31","LF","gqq2p40hu9","1536","864","0","1","0","5d41aa9ec61bc300012c73f6","","null","","","","","","","learning/Slide32.JPG","null","","","","","",""
"html-keyboard-response","101","1001970","0.0-5.0-2.31","LF","gqq2p40hu9","1536","864","0","1","0","5d41aa9ec61bc300012c73f6","","null","","","learningBlock1","","","","<div style=""font-size:60px;""> </div>","null","LF","learning/Slide32.JPG","This is a tob:","","",""
"html-keyboard-response","102","1002986","0.0-5.0-0.32","LF","gqq2p40hu9","1536","864","0","1","0","5d41aa9ec61bc300012c73f6","","null","","","learningBlock1","","","","This is a bim:","null","","","","","",""
"image-keyboard-response","103","1003325","0.0-5.0-1.32","LF","gqq2p40hu9","1536","864","0","1","0","5d41aa9ec61bc300012c73f6","","null","","","","","","","learning/Slide33.JPG","null","","","","","",""
"html-keyboard-response","104","1004327","0.0-5.0-2.32","LF","gqq2p40hu9","1536","864","0","1","0","5d41aa9ec61bc300012c73f6","","null","","","learningBlock1","","","","<div style=""font-size:60px;""> </div>","null","LF","learning/Slide33.JPG","This is a bim:","","",""
"html-keyboard-response","105","1005328","0.0-5.0-0.33","LF","gqq2p40hu9","1536","864","0","1","0","5d41aa9ec61bc300012c73f6","","null","","","learningBlock1","","","","This is a tob:","null","","","","","",""
"image-keyboard-response","106","1005680","0.0-5.0-1.33","LF","gqq2p40hu9","1536","864","0","1","0","5d41aa9ec61bc300012c73f6","","null","","","","","","","learning/Slide34.JPG","null","","","","","",""
"html-keyboard-response","107","1006683","0.0-5.0-2.33","LF","gqq2p40hu9","1536","864","0","1","0","5d41aa9ec61bc300012c73f6","","null","","","learningBlock1","","","","<div style=""font-size:60px;""> </div>","null","LF","learning/Slide34.JPG","This is a tob:","","",""
"html-keyboard-response","108","1007684","0.0-5.0-0.34","LF","gqq2p40hu9","1536","864","0","1","0","5d41aa9ec61bc300012c73f6","","null","","","learningBlock1","","","","This is a bim:","null","","","","","",""
"image-keyboard-response","109","1008013","0.0-5.0-1.34","LF","gqq2p40hu9","1536","864","0","1","0","5d41aa9ec61bc300012c73f6","","null","","","","","","","learning/Slide35.JPG","null","","","","","",""
"html-keyboard-response","110","1009023","0.0-5.0-2.34","LF","gqq2p40hu9","1536","864","0","1","0","5d41aa9ec61bc300012c73f6","","null","","","learningBlock1","","","","<div style=""font-size:60px;""> </div>","null","LF","learning/Slide35.JPG","This is a bim:","","",""
"html-keyboard-response","111","1010025","0.0-5.0-0.35","LF","gqq2p40hu9","1536","864","0","1","0","5d41aa9ec61bc300012c73f6","","null","","","learningBlock1","","","","This is a dep:","null","","","","","",""
"image-keyboard-response","112","1010353","0.0-5.0-1.35","LF","gqq2p40hu9","1536","864","0","1","0","5d41aa9ec61bc300012c73f6","","null","","","","","","","learning/Slide36.JPG","null","","","","","",""
"html-keyboard-response","113","1011368","0.0-5.0-2.35","LF","gqq2p40hu9","1536","864","0","1","0","5d41aa9ec61bc300012c73f6","","null","","","learningBlock1","","","","<div style=""font-size:60px;""> </div>","null","LF","learning/Slide36.JPG","This is a dep:","","",""
"html-keyboard-response","114","1012370","0.0-5.0-0.36","LF","gqq2p40hu9","1536","864","0","1","0","5d41aa9ec61bc300012c73f6","","null","","","learningBlock1","","","","This is a tob:","null","","","","","",""
"image-keyboard-response","115","1012712","0.0-5.0-1.36","LF","gqq2p40hu9","1536","864","0","1","0","5d41aa9ec61bc300012c73f6","","null","","","","","","","learning/Slide37.JPG","null","","","","","",""
"html-keyboard-response","116","1013714","0.0-5.0-2.36","LF","gqq2p40hu9","1536","864","0","1","0","5d41aa9ec61bc300012c73f6","","null","","","learningBlock1","","","","<div style=""font-size:60px;""> </div>","null","LF","learning/Slide37.JPG","This is a tob:","","",""
"html-keyboard-response","117","1014722","0.0-5.0-0.37","LF","gqq2p40hu9","1536","864","0","1","0","5d41aa9ec61bc300012c73f6","","null","","","learningBlock1","","","","This is a wug:","null","","","","","",""
"image-keyboard-response","118","1015053","0.0-5.0-1.37","LF","gqq2p40hu9","1536","864","0","1","0","5d41aa9ec61bc300012c73f6","","null","","","","","","","learning/Slide38.JPG","null","","","","","",""
"html-keyboard-response","119","1016055","0.0-5.0-2.37","LF","gqq2p40hu9","1536","864","0","1","0","5d41aa9ec61bc300012c73f6","","null","","","learningBlock1","","","","<div style=""font-size:60px;""> </div>","null","LF","learning/Slide38.JPG","This is a wug:","","",""
"html-keyboard-response","120","1017068","0.0-5.0-0.38","LF","gqq2p40hu9","1536","864","0","1","0","5d41aa9ec61bc300012c73f6","","null","","","learningBlock1","","","","This is a bim:","null","","","","","",""
"image-keyboard-response","121","1017409","0.0-5.0-1.38","LF","gqq2p40hu9","1536","864","0","1","0","5d41aa9ec61bc300012c73f6","","null","","","","","","","learning/Slide39.JPG","null","","","","","",""
"html-keyboard-response","122","1018420","0.0-5.0-2.38","LF","gqq2p40hu9","1536","864","0","1","0","5d41aa9ec61bc300012c73f6","","null","","","learningBlock1","","","","<div style=""font-size:60px;""> </div>","null","LF","learning/Slide39.JPG","This is a bim:","","",""
"html-keyboard-response","123","1019436","0.0-5.0-0.39","LF","gqq2p40hu9","1536","864","0","1","0","5d41aa9ec61bc300012c73f6","","null","","","learningBlock1","","","","This is a tob:","null","","","","","",""
"image-keyboard-response","124","1019781","0.0-5.0-1.39","LF","gqq2p40hu9","1536","864","0","1","0","5d41aa9ec61bc300012c73f6","","null","","","","","","","learning/Slide40.JPG","null","","","","","",""
"html-keyboard-response","125","1020788","0.0-5.0-2.39","LF","gqq2p40hu9","1536","864","0","1","0","5d41aa9ec61bc300012c73f6","","null","","","learningBlock1","","","","<div style=""font-size:60px;""> </div>","null","LF","learning/Slide40.JPG","This is a tob:","","",""
"html-keyboard-response","126","1021799","0.0-5.0-0.40","LF","gqq2p40hu9","1536","864","0","1","0","5d41aa9ec61bc300012c73f6","","null","","","learningBlock1","","","","This is a bim:","null","","","","","",""
"image-keyboard-response","127","1022143","0.0-5.0-1.40","LF","gqq2p40hu9","1536","864","0","1","0","5d41aa9ec61bc300012c73f6","","null","","","","","","","learning/Slide41.JPG","null","","","","","",""
"html-keyboard-response","128","1023156","0.0-5.0-2.40","LF","gqq2p40hu9","1536","864","0","1","0","5d41aa9ec61bc300012c73f6","","null","","","learningBlock1","","","","<div style=""font-size:60px;""> </div>","null","LF","learning/Slide41.JPG","This is a bim:","","",""
"html-keyboard-response","129","1024168","0.0-5.0-0.41","LF","gqq2p40hu9","1536","864","0","1","0","5d41aa9ec61bc300012c73f6","","null","","","learningBlock1","","","","This is a dep:","null","","","","","",""
"image-keyboard-response","130","1024504","0.0-5.0-1.41","LF","gqq2p40hu9","1536","864","0","1","0","5d41aa9ec61bc300012c73f6","","null","","","","","","","learning/Slide42.JPG","null","","","","","",""
"html-keyboard-response","131","1025516","0.0-5.0-2.41","LF","gqq2p40hu9","1536","864","0","1","0","5d41aa9ec61bc300012c73f6","","null","","","learningBlock1","","","","<div style=""font-size:60px;""> </div>","null","LF","learning/Slide42.JPG","This is a dep:","","",""
"html-keyboard-response","132","1026522","0.0-5.0-0.42","LF","gqq2p40hu9","1536","864","0","1","0","5d41aa9ec61bc300012c73f6","","null","","","learningBlock1","","","","This is a wug:","null","","","","","",""
"image-keyboard-response","133","1026861","0.0-5.0-1.42","LF","gqq2p40hu9","1536","864","0","1","0","5d41aa9ec61bc300012c73f6","","null","","","","","","","learning/Slide43.JPG","null","","","","","",""
"html-keyboard-response","134","1027878","0.0-5.0-2.42","LF","gqq2p40hu9","1536","864","0","1","0","5d41aa9ec61bc300012c73f6","","null","","","learningBlock1","","","","<div style=""font-size:60px;""> </div>","null","LF","learning/Slide43.JPG","This is a wug:","","",""
"html-keyboard-response","135","1028888","0.0-5.0-0.43","LF","gqq2p40hu9","1536","864","0","1","0","5d41aa9ec61bc300012c73f6","","null","","","learningBlock1","","","","This is a bim:","null","","","","","",""
"image-keyboard-response","136","1029220","0.0-5.0-1.43","LF","gqq2p40hu9","1536","864","0","1","0","5d41aa9ec61bc300012c73f6","","null","","","","","","","learning/Slide44.JPG","null","","","","","",""
"html-keyboard-response","137","1030232","0.0-5.0-2.43","LF","gqq2p40hu9","1536","864","0","1","0","5d41aa9ec61bc300012c73f6","","null","","","learningBlock1","","","","<div style=""font-size:60px;""> </div>","null","LF","learning/Slide44.JPG","This is a bim:","","",""
"html-keyboard-response","138","1031234","0.0-5.0-0.44","LF","gqq2p40hu9","1536","864","0","1","0","5d41aa9ec61bc300012c73f6","","null","","","learningBlock1","","","","This is a wug:","null","","","","","",""
"image-keyboard-response","139","1031562","0.0-5.0-1.44","LF","gqq2p40hu9","1536","864","0","1","0","5d41aa9ec61bc300012c73f6","","null","","","","","","","learning/Slide45.JPG","null","","","","","",""
"html-keyboard-response","140","1032568","0.0-5.0-2.44","LF","gqq2p40hu9","1536","864","0","1","0","5d41aa9ec61bc300012c73f6","","null","","","learningBlock1","","","","<div style=""font-size:60px;""> </div>","null","LF","learning/Slide45.JPG","This is a wug:","","",""
"html-keyboard-response","141","1033582","0.0-5.0-0.45","LF","gqq2p40hu9","1536","864","0","1","0","5d41aa9ec61bc300012c73f6","","null","","","learningBlock1","","","","This is a dep:","null","","","","","",""
"image-keyboard-response","142","1033917","0.0-5.0-1.45","LF","gqq2p40hu9","1536","864","0","1","0","5d41aa9ec61bc300012c73f6","","null","","","","","","","learning/Slide46.JPG","null","","","","","",""
"html-keyboard-response","143","1034927","0.0-5.0-2.45","LF","gqq2p40hu9","1536","864","0","1","0","5d41aa9ec61bc300012c73f6","","null","","","learningBlock1","","","","<div style=""font-size:60px;""> </div>","null","LF","learning/Slide46.JPG","This is a dep:","","",""
"html-keyboard-response","144","1035931","0.0-5.0-0.46","LF","gqq2p40hu9","1536","864","0","1","0","5d41aa9ec61bc300012c73f6","","null","","","learningBlock1","","","","This is a tob:","null","","","","","",""
"image-keyboard-response","145","1036263","0.0-5.0-1.46","LF","gqq2p40hu9","1536","864","0","1","0","5d41aa9ec61bc300012c73f6","","null","","","","","","","learning/Slide47.JPG","null","","","","","",""
"html-keyboard-response","146","1037265","0.0-5.0-2.46","LF","gqq2p40hu9","1536","864","0","1","0","5d41aa9ec61bc300012c73f6","","null","","","learningBlock1","","","","<div style=""font-size:60px;""> </div>","null","LF","learning/Slide47.JPG","This is a tob:","","",""
"html-keyboard-response","147","1038279","0.0-5.0-0.47","LF","gqq2p40hu9","1536","864","0","1","0","5d41aa9ec61bc300012c73f6","","null","","","learningBlock1","","","","This is a bim:","null","","","","","",""
"image-keyboard-response","148","1038625","0.0-5.0-1.47","LF","gqq2p40hu9","1536","864","0","1","0","5d41aa9ec61bc300012c73f6","","null","","","","","","","learning/Slide48.JPG","null","","","","","",""
"html-keyboard-response","149","1039641","0.0-5.0-2.47","LF","gqq2p40hu9","1536","864","0","1","0","5d41aa9ec61bc300012c73f6","","null","","","learningBlock1","","","","<div style=""font-size:60px;""> </div>","null","LF","learning/Slide48.JPG","This is a bim:","","",""
"html-keyboard-response","150","1040643","0.0-5.0-0.48","LF","gqq2p40hu9","1536","864","0","1","0","5d41aa9ec61bc300012c73f6","","null","","","learningBlock1","","","","This is a dep:","null","","","","","",""
"image-keyboard-response","151","1040974","0.0-5.0-1.48","LF","gqq2p40hu9","1536","864","0","1","0","5d41aa9ec61bc300012c73f6","","null","","","","","","","learning/Slide49.JPG","null","","","","","",""
"html-keyboard-response","152","1041986","0.0-5.0-2.48","LF","gqq2p40hu9","1536","864","0","1","0","5d41aa9ec61bc300012c73f6","","null","","","learningBlock1","","","","<div style=""font-size:60px;""> </div>","null","LF","learning/Slide49.JPG","This is a dep:","","",""
"html-keyboard-response","153","1042988","0.0-5.0-0.49","LF","gqq2p40hu9","1536","864","0","1","0","5d41aa9ec61bc300012c73f6","","null","","","learningBlock1","","","","This is a tob:","null","","","","","",""
"image-keyboard-response","154","1043316","0.0-5.0-1.49","LF","gqq2p40hu9","1536","864","0","1","0","5d41aa9ec61bc300012c73f6","","null","","","","","","","learning/Slide50.JPG","null","","","","","",""
"html-keyboard-response","155","1044328","0.0-5.0-2.49","LF","gqq2p40hu9","1536","864","0","1","0","5d41aa9ec61bc300012c73f6","","null","","","learningBlock1","","","","<div style=""font-size:60px;""> </div>","null","LF","learning/Slide50.JPG","This is a tob:","","",""
"html-keyboard-response","156","1045330","0.0-5.0-0.50","LF","gqq2p40hu9","1536","864","0","1","0","5d41aa9ec61bc300012c73f6","","null","","","learningBlock1","","","","This is a bim:","null","","","","","",""
"image-keyboard-response","157","1045669","0.0-5.0-1.50","LF","gqq2p40hu9","1536","864","0","1","0","5d41aa9ec61bc300012c73f6","","null","","","","","","","learning/Slide51.JPG","null","","","","","",""
"html-keyboard-response","158","1046677","0.0-5.0-2.50","LF","gqq2p40hu9","1536","864","0","1","0","5d41aa9ec61bc300012c73f6","","null","","","learningBlock1","","","","<div style=""font-size:60px;""> </div>","null","LF","learning/Slide51.JPG","This is a bim:","","",""
"html-keyboard-response","159","1047680","0.0-5.0-0.51","LF","gqq2p40hu9","1536","864","0","1","0","5d41aa9ec61bc300012c73f6","","null","","","learningBlock1","","","","This is a wug:","null","","","","","",""
"image-keyboard-response","160","1048025","0.0-5.0-1.51","LF","gqq2p40hu9","1536","864","0","1","0","5d41aa9ec61bc300012c73f6","","null","","","","","","","learning/Slide52.JPG","null","","","","","",""
"html-keyboard-response","161","1049034","0.0-5.0-2.51","LF","gqq2p40hu9","1536","864","0","1","0","5d41aa9ec61bc300012c73f6","","null","","","learningBlock1","","","","<div style=""font-size:60px;""> </div>","null","LF","learning/Slide52.JPG","This is a wug:","","",""
"html-keyboard-response","162","1050042","0.0-5.0-0.52","LF","gqq2p40hu9","1536","864","0","1","0","5d41aa9ec61bc300012c73f6","","null","","","learningBlock1","","","","This is a tob:","null","","","","","",""
"image-keyboard-response","163","1050377","0.0-5.0-1.52","LF","gqq2p40hu9","1536","864","0","1","0","5d41aa9ec61bc300012c73f6","","null","","","","","","","learning/Slide53.JPG","null","","","","","",""
"html-keyboard-response","164","1051388","0.0-5.0-2.52","LF","gqq2p40hu9","1536","864","0","1","0","5d41aa9ec61bc300012c73f6","","null","","","learningBlock1","","","","<div style=""font-size:60px;""> </div>","null","LF","learning/Slide53.JPG","This is a tob:","","",""
"html-keyboard-response","165","1052395","0.0-5.0-0.53","LF","gqq2p40hu9","1536","864","0","1","0","5d41aa9ec61bc300012c73f6","","null","","","learningBlock1","","","","This is a dep:","null","","","","","",""
"image-keyboard-response","166","1052729","0.0-5.0-1.53","LF","gqq2p40hu9","1536","864","0","1","0","5d41aa9ec61bc300012c73f6","","null","","","","","","","learning/Slide54.JPG","null","","","","","",""
"html-keyboard-response","167","1053745","0.0-5.0-2.53","LF","gqq2p40hu9","1536","864","0","1","0","5d41aa9ec61bc300012c73f6","","null","","","learningBlock1","","","","<div style=""font-size:60px;""> </div>","null","LF","learning/Slide54.JPG","This is a dep:","","",""
"html-keyboard-response","168","1054748","0.0-5.0-0.54","LF","gqq2p40hu9","1536","864","0","1","0","5d41aa9ec61bc300012c73f6","","null","","","learningBlock1","","","","This is a bim:","null","","","","","",""
"image-keyboard-response","169","1055093","0.0-5.0-1.54","LF","gqq2p40hu9","1536","864","0","1","0","5d41aa9ec61bc300012c73f6","","null","","","","","","","learning/Slide55.JPG","null","","","","","",""
"html-keyboard-response","170","1056095","0.0-5.0-2.54","LF","gqq2p40hu9","1536","864","0","1","0","5d41aa9ec61bc300012c73f6","","null","","","learningBlock1","","","","<div style=""font-size:60px;""> </div>","null","LF","learning/Slide55.JPG","This is a bim:","","",""
"html-keyboard-response","171","1057111","0.0-5.0-0.55","LF","gqq2p40hu9","1536","864","0","1","0","5d41aa9ec61bc300012c73f6","","null","","","learningBlock1","","","","This is a tob:","null","","","","","",""
"image-keyboard-response","172","1057454","0.0-5.0-1.55","LF","gqq2p40hu9","1536","864","0","1","0","5d41aa9ec61bc300012c73f6","","null","","","","","","","learning/Slide56.JPG","null","","","","","",""
"html-keyboard-response","173","1058470","0.0-5.0-2.55","LF","gqq2p40hu9","1536","864","0","1","0","5d41aa9ec61bc300012c73f6","","null","","","learningBlock1","","","","<div style=""font-size:60px;""> </div>","null","LF","learning/Slide56.JPG","This is a tob:","","",""
"html-keyboard-response","174","1059472","0.0-5.0-0.56","LF","gqq2p40hu9","1536","864","0","1","0","5d41aa9ec61bc300012c73f6","","null","","","learningBlock1","","","","This is a dep:","null","","","","","",""
"image-keyboard-response","175","1059812","0.0-5.0-1.56","LF","gqq2p40hu9","1536","864","0","1","0","5d41aa9ec61bc300012c73f6","","null","","","","","","","learning/Slide57.JPG","null","","","","","",""
"html-keyboard-response","176","1060828","0.0-5.0-2.56","LF","gqq2p40hu9","1536","864","0","1","0","5d41aa9ec61bc300012c73f6","","null","","","learningBlock1","","","","<div style=""font-size:60px;""> </div>","null","LF","learning/Slide57.JPG","This is a dep:","","",""
"html-keyboard-response","177","1061838","0.0-5.0-0.57","LF","gqq2p40hu9","1536","864","0","1","0","5d41aa9ec61bc300012c73f6","","null","","","learningBlock1","","","","This is a wug:","null","","","","","",""
"image-keyboard-response","178","1062184","0.0-5.0-1.57","LF","gqq2p40hu9","1536","864","0","1","0","5d41aa9ec61bc300012c73f6","","null","","","","","","","learning/Slide58.JPG","null","","","","","",""
"html-keyboard-response","179","1063186","0.0-5.0-2.57","LF","gqq2p40hu9","1536","864","0","1","0","5d41aa9ec61bc300012c73f6","","null","","","learningBlock1","","","","<div style=""font-size:60px;""> </div>","null","LF","learning/Slide58.JPG","This is a wug:","","",""
"html-keyboard-response","180","1064193","0.0-5.0-0.58","LF","gqq2p40hu9","1536","864","0","1","0","5d41aa9ec61bc300012c73f6","","null","","","learningBlock1","","","","This is a dep:","null","","","","","",""
"image-keyboard-response","181","1064535","0.0-5.0-1.58","LF","gqq2p40hu9","1536","864","0","1","0","5d41aa9ec61bc300012c73f6","","null","","","","","","","learning/Slide59.JPG","null","","","","","",""
"html-keyboard-response","182","1065551","0.0-5.0-2.58","LF","gqq2p40hu9","1536","864","0","1","0","5d41aa9ec61bc300012c73f6","","null","","","learningBlock1","","","","<div style=""font-size:60px;""> </div>","null","LF","learning/Slide59.JPG","This is a dep:","","",""
"html-keyboard-response","183","1066566","0.0-5.0-0.59","LF","gqq2p40hu9","1536","864","0","1","0","5d41aa9ec61bc300012c73f6","","null","","","learningBlock1","","","","This is a wug:","null","","","","","",""
"image-keyboard-response","184","1066910","0.0-5.0-1.59","LF","gqq2p40hu9","1536","864","0","1","0","5d41aa9ec61bc300012c73f6","","null","","","","","","","learning/Slide60.JPG","null","","","","","",""
"html-keyboard-response","185","1067921","0.0-5.0-2.59","LF","gqq2p40hu9","1536","864","0","1","0","5d41aa9ec61bc300012c73f6","","null","","","learningBlock1","","","","<div style=""font-size:60px;""> </div>","null","LF","learning/Slide60.JPG","This is a wug:","","",""
"html-keyboard-response","186","1068934","0.0-5.0-0.60","LF","gqq2p40hu9","1536","864","0","1","0","5d41aa9ec61bc300012c73f6","","null","","","learningBlock1","","","","This is a bim:","null","","","","","",""
"image-keyboard-response","187","1069280","0.0-5.0-1.60","LF","gqq2p40hu9","1536","864","0","1","0","5d41aa9ec61bc300012c73f6","","null","","","","","","","learning/Slide61.JPG","null","","","","","",""
"html-keyboard-response","188","1070283","0.0-5.0-2.60","LF","gqq2p40hu9","1536","864","0","1","0","5d41aa9ec61bc300012c73f6","","null","","","learningBlock1","","","","<div style=""font-size:60px;""> </div>","null","LF","learning/Slide61.JPG","This is a bim:","","",""
"html-keyboard-response","189","1071285","0.0-5.0-0.61","LF","gqq2p40hu9","1536","864","0","1","0","5d41aa9ec61bc300012c73f6","","null","","","learningBlock1","","","","This is a dep:","null","","","","","",""
"image-keyboard-response","190","1071637","0.0-5.0-1.61","LF","gqq2p40hu9","1536","864","0","1","0","5d41aa9ec61bc300012c73f6","","null","","","","","","","learning/Slide62.JPG","null","","","","","",""
"html-keyboard-response","191","1072647","0.0-5.0-2.61","LF","gqq2p40hu9","1536","864","0","1","0","5d41aa9ec61bc300012c73f6","","null","","","learningBlock1","","","","<div style=""font-size:60px;""> </div>","null","LF","learning/Slide62.JPG","This is a dep:","","",""
"html-keyboard-response","192","1073662","0.0-5.0-0.62","LF","gqq2p40hu9","1536","864","0","1","0","5d41aa9ec61bc300012c73f6","","null","","","learningBlock1","","","","This is a bim:","null","","","","","",""
"image-keyboard-response","193","1073998","0.0-5.0-1.62","LF","gqq2p40hu9","1536","864","0","1","0","5d41aa9ec61bc300012c73f6","","null","","","","","","","learning/Slide63.JPG","null","","","","","",""
"html-keyboard-response","194","1075015","0.0-5.0-2.62","LF","gqq2p40hu9","1536","864","0","1","0","5d41aa9ec61bc300012c73f6","","null","","","learningBlock1","","","","<div style=""font-size:60px;""> </div>","null","LF","learning/Slide63.JPG","This is a bim:","","",""
"html-keyboard-response","195","1076022","0.0-5.0-0.63","LF","gqq2p40hu9","1536","864","0","1","0","5d41aa9ec61bc300012c73f6","","null","","","learningBlock1","","","","This is a tob:","null","","","","","",""
"image-keyboard-response","196","1076361","0.0-5.0-1.63","LF","gqq2p40hu9","1536","864","0","1","0","5d41aa9ec61bc300012c73f6","","null","","","","","","","learning/Slide64.JPG","null","","","","","",""
"html-keyboard-response","197","1077367","0.0-5.0-2.63","LF","gqq2p40hu9","1536","864","0","1","0","5d41aa9ec61bc300012c73f6","","null","","","learningBlock1","","","","<div style=""font-size:60px;""> </div>","null","LF","learning/Slide64.JPG","This is a tob:","","",""
"html-keyboard-response","198","1078379","0.0-5.0-0.64","LF","gqq2p40hu9","1536","864","0","1","0","5d41aa9ec61bc300012c73f6","","null","","","learningBlock1","","","","This is a wug:","null","","","","","",""
"image-keyboard-response","199","1078710","0.0-5.0-1.64","LF","gqq2p40hu9","1536","864","0","1","0","5d41aa9ec61bc300012c73f6","","null","","","","","","","learning/Slide65.JPG","null","","","","","",""
"html-keyboard-response","200","1079712","0.0-5.0-2.64","LF","gqq2p40hu9","1536","864","0","1","0","5d41aa9ec61bc300012c73f6","","null","","","learningBlock1","","","","<div style=""font-size:60px;""> </div>","null","LF","learning/Slide65.JPG","This is a wug:","","",""
"html-keyboard-response","201","1080726","0.0-5.0-0.65","LF","gqq2p40hu9","1536","864","0","1","0","5d41aa9ec61bc300012c73f6","","null","","","learningBlock1","","","","This is a dep:","null","","","","","",""
"image-keyboard-response","202","1081077","0.0-5.0-1.65","LF","gqq2p40hu9","1536","864","0","1","0","5d41aa9ec61bc300012c73f6","","null","","","","","","","learning/Slide66.JPG","null","","","","","",""
"html-keyboard-response","203","1082091","0.0-5.0-2.65","LF","gqq2p40hu9","1536","864","0","1","0","5d41aa9ec61bc300012c73f6","","null","","","learningBlock1","","","","<div style=""font-size:60px;""> </div>","null","LF","learning/Slide66.JPG","This is a dep:","","",""
"html-keyboard-response","204","1083108","0.0-5.0-0.66","LF","gqq2p40hu9","1536","864","0","1","0","5d41aa9ec61bc300012c73f6","","null","","","learningBlock1","","","","This is a tob:","null","","","","","",""
"image-keyboard-response","205","1083445","0.0-5.0-1.66","LF","gqq2p40hu9","1536","864","0","1","0","5d41aa9ec61bc300012c73f6","","null","","","","","","","learning/Slide67.JPG","null","","","","","",""
"html-keyboard-response","206","1084448","0.0-5.0-2.66","LF","gqq2p40hu9","1536","864","0","1","0","5d41aa9ec61bc300012c73f6","","null","","","learningBlock1","","","","<div style=""font-size:60px;""> </div>","null","LF","learning/Slide67.JPG","This is a tob:","","",""
"html-keyboard-response","207","1085449","0.0-5.0-0.67","LF","gqq2p40hu9","1536","864","0","1","0","5d41aa9ec61bc300012c73f6","","null","","","learningBlock1","","","","This is a wug:","null","","","","","",""
"image-keyboard-response","208","1085777","0.0-5.0-1.67","LF","gqq2p40hu9","1536","864","0","1","0","5d41aa9ec61bc300012c73f6","","null","","","","","","","learning/Slide68.JPG","null","","","","","",""
"html-keyboard-response","209","1086783","0.0-5.0-2.67","LF","gqq2p40hu9","1536","864","0","1","0","5d41aa9ec61bc300012c73f6","","null","","","learningBlock1","","","","<div style=""font-size:60px;""> </div>","null","LF","learning/Slide68.JPG","This is a wug:","","",""
"html-keyboard-response","210","1087785","0.0-5.0-0.68","LF","gqq2p40hu9","1536","864","0","1","0","5d41aa9ec61bc300012c73f6","","null","","","learningBlock1","","","","This is a tob:","null","","","","","",""
"image-keyboard-response","211","1088127","0.0-5.0-1.68","LF","gqq2p40hu9","1536","864","0","1","0","5d41aa9ec61bc300012c73f6","","null","","","","","","","learning/Slide69.JPG","null","","","","","",""
"html-keyboard-response","212","1089130","0.0-5.0-2.68","LF","gqq2p40hu9","1536","864","0","1","0","5d41aa9ec61bc300012c73f6","","null","","","learningBlock1","","","","<div style=""font-size:60px;""> </div>","null","LF","learning/Slide69.JPG","This is a tob:","","",""
"html-keyboard-response","213","1090138","0.0-5.0-0.69","LF","gqq2p40hu9","1536","864","0","1","0","5d41aa9ec61bc300012c73f6","","null","","","learningBlock1","","","","This is a dep:","null","","","","","",""
"image-keyboard-response","214","1090480","0.0-5.0-1.69","LF","gqq2p40hu9","1536","864","0","1","0","5d41aa9ec61bc300012c73f6","","null","","","","","","","learning/Slide70.JPG","null","","","","","",""
"html-keyboard-response","215","1091492","0.0-5.0-2.69","LF","gqq2p40hu9","1536","864","0","1","0","5d41aa9ec61bc300012c73f6","","null","","","learningBlock1","","","","<div style=""font-size:60px;""> </div>","null","LF","learning/Slide70.JPG","This is a dep:","","",""
"html-keyboard-response","216","1092494","0.0-5.0-0.70","LF","gqq2p40hu9","1536","864","0","1","0","5d41aa9ec61bc300012c73f6","","null","","","learningBlock1","","","","This is a wug:","null","","","","","",""
"image-keyboard-response","217","1092830","0.0-5.0-1.70","LF","gqq2p40hu9","1536","864","0","1","0","5d41aa9ec61bc300012c73f6","","null","","","","","","","learning/Slide71.JPG","null","","","","","",""
"html-keyboard-response","218","1093841","0.0-5.0-2.70","LF","gqq2p40hu9","1536","864","0","1","0","5d41aa9ec61bc300012c73f6","","null","","","learningBlock1","","","","<div style=""font-size:60px;""> </div>","null","LF","learning/Slide71.JPG","This is a wug:","","",""
"html-keyboard-response","219","1094850","0.0-5.0-0.71","LF","gqq2p40hu9","1536","864","0","1","0","5d41aa9ec61bc300012c73f6","","null","","","learningBlock1","","","","This is a bim:","null","","","","","",""
"image-keyboard-response","220","1095179","0.0-5.0-1.71","LF","gqq2p40hu9","1536","864","0","1","0","5d41aa9ec61bc300012c73f6","","null","","","","","","","learning/Slide72.JPG","null","","","","","",""
"html-keyboard-response","221","1096182","0.0-5.0-2.71","LF","gqq2p40hu9","1536","864","0","1","0","5d41aa9ec61bc300012c73f6","","null","","","learningBlock1","","","","<div style=""font-size:60px;""> </div>","null","LF","learning/Slide72.JPG","This is a bim:","","",""
"html-keyboard-response","222","1097183","0.0-5.0-0.72","LF","gqq2p40hu9","1536","864","0","1","0","5d41aa9ec61bc300012c73f6","","null","","","learningBlock1","","","","This is a wug:","null","","","","","",""
"image-keyboard-response","223","1097514","0.0-5.0-1.72","LF","gqq2p40hu9","1536","864","0","1","0","5d41aa9ec61bc300012c73f6","","null","","","","","","","learning/Slide73.JPG","null","","","","","",""
"html-keyboard-response","224","1098532","0.0-5.0-2.72","LF","gqq2p40hu9","1536","864","0","1","0","5d41aa9ec61bc300012c73f6","","null","","","learningBlock1","","","","<div style=""font-size:60px;""> </div>","null","LF","learning/Slide73.JPG","This is a wug:","","",""
"html-keyboard-response","225","1099542","0.0-5.0-0.73","LF","gqq2p40hu9","1536","864","0","1","0","5d41aa9ec61bc300012c73f6","","null","","","learningBlock1","","","","This is a dep:","null","","","","","",""
"image-keyboard-response","226","1099885","0.0-5.0-1.73","LF","gqq2p40hu9","1536","864","0","1","0","5d41aa9ec61bc300012c73f6","","null","","","","","","","learning/Slide74.JPG","null","","","","","",""
"html-keyboard-response","227","1100898","0.0-5.0-2.73","LF","gqq2p40hu9","1536","864","0","1","0","5d41aa9ec61bc300012c73f6","","null","","","learningBlock1","","","","<div style=""font-size:60px;""> </div>","null","LF","learning/Slide74.JPG","This is a dep:","","",""
"html-keyboard-response","228","1101910","0.0-5.0-0.74","LF","gqq2p40hu9","1536","864","0","1","0","5d41aa9ec61bc300012c73f6","","null","","","learningBlock1","","","","This is a tob:","null","","","","","",""
"image-keyboard-response","229","1102247","0.0-5.0-1.74","LF","gqq2p40hu9","1536","864","0","1","0","5d41aa9ec61bc300012c73f6","","null","","","","","","","learning/Slide75.JPG","null","","","","","",""
"html-keyboard-response","230","1103250","0.0-5.0-2.74","LF","gqq2p40hu9","1536","864","0","1","0","5d41aa9ec61bc300012c73f6","","null","","","learningBlock1","","","","<div style=""font-size:60px;""> </div>","null","LF","learning/Slide75.JPG","This is a tob:","","",""
"html-keyboard-response","231","1104252","0.0-5.0-0.75","LF","gqq2p40hu9","1536","864","0","1","0","5d41aa9ec61bc300012c73f6","","null","","","learningBlock1","","","","This is a bim:","null","","","","","",""
"image-keyboard-response","232","1104596","0.0-5.0-1.75","LF","gqq2p40hu9","1536","864","0","1","0","5d41aa9ec61bc300012c73f6","","null","","","","","","","learning/Slide76.JPG","null","","","","","",""
"html-keyboard-response","233","1105599","0.0-5.0-2.75","LF","gqq2p40hu9","1536","864","0","1","0","5d41aa9ec61bc300012c73f6","","null","","","learningBlock1","","","","<div style=""font-size:60px;""> </div>","null","LF","learning/Slide76.JPG","This is a bim:","","",""
"html-keyboard-response","234","1106601","0.0-5.0-0.76","LF","gqq2p40hu9","1536","864","0","1","0","5d41aa9ec61bc300012c73f6","","null","","","learningBlock1","","","","This is a tob:","null","","","","","",""
"image-keyboard-response","235","1106941","0.0-5.0-1.76","LF","gqq2p40hu9","1536","864","0","1","0","5d41aa9ec61bc300012c73f6","","null","","","","","","","learning/Slide77.JPG","null","","","","","",""
"html-keyboard-response","236","1107950","0.0-5.0-2.76","LF","gqq2p40hu9","1536","864","0","1","0","5d41aa9ec61bc300012c73f6","","null","","","learningBlock1","","","","<div style=""font-size:60px;""> </div>","null","LF","learning/Slide77.JPG","This is a tob:","","",""
"html-keyboard-response","237","1108951","0.0-5.0-0.77","LF","gqq2p40hu9","1536","864","0","1","0","5d41aa9ec61bc300012c73f6","","null","","","learningBlock1","","","","This is a wug:","null","","","","","",""
"image-keyboard-response","238","1109279","0.0-5.0-1.77","LF","gqq2p40hu9","1536","864","0","1","0","5d41aa9ec61bc300012c73f6","","null","","","","","","","learning/Slide78.JPG","null","","","","","",""
"html-keyboard-response","239","1110287","0.0-5.0-2.77","LF","gqq2p40hu9","1536","864","0","1","0","5d41aa9ec61bc300012c73f6","","null","","","learningBlock1","","","","<div style=""font-size:60px;""> </div>","null","LF","learning/Slide78.JPG","This is a wug:","","",""
"html-keyboard-response","240","1111289","0.0-5.0-0.78","LF","gqq2p40hu9","1536","864","0","1","0","5d41aa9ec61bc300012c73f6","","null","","","learningBlock1","","","","This is a bim:","null","","","","","",""
"image-keyboard-response","241","1111632","0.0-5.0-1.78","LF","gqq2p40hu9","1536","864","0","1","0","5d41aa9ec61bc300012c73f6","","null","","","","","","","learning/Slide79.JPG","null","","","","","",""
"html-keyboard-response","242","1112635","0.0-5.0-2.78","LF","gqq2p40hu9","1536","864","0","1","0","5d41aa9ec61bc300012c73f6","","null","","","learningBlock1","","","","<div style=""font-size:60px;""> </div>","null","LF","learning/Slide79.JPG","This is a bim:","","",""
"html-keyboard-response","243","1113649","0.0-5.0-0.79","LF","gqq2p40hu9","1536","864","0","1","0","5d41aa9ec61bc300012c73f6","","null","","","learningBlock1","","","","This is a tob:","null","","","","","",""
"image-keyboard-response","244","1114000","0.0-5.0-1.79","LF","gqq2p40hu9","1536","864","0","1","0","5d41aa9ec61bc300012c73f6","","null","","","","","","","learning/Slide80.JPG","null","","","","","",""
"html-keyboard-response","245","1115006","0.0-5.0-2.79","LF","gqq2p40hu9","1536","864","0","1","0","5d41aa9ec61bc300012c73f6","","null","","","learningBlock1","","","","<div style=""font-size:60px;""> </div>","null","LF","learning/Slide80.JPG","This is a tob:","","",""
"instructions","246","1123737","0.0-6.0","LF","gqq2p40hu9","1536","864","0","1","0","5d41aa9ec61bc300012c73f6","","NA","","[{""page_index"":0,""viewing_time"":8730.025000000838}]","instructions","","","","","","","","","","",""
"html-keyboard-response","247","1124740","0.0-7.0-0.0","LF","gqq2p40hu9","1536","864","0","1","0","5d41aa9ec61bc300012c73f6","","null","","","learningBlock2","","","","This is a wug:","null","","","","","",""
"image-keyboard-response","248","1125094","0.0-7.0-1.0","LF","gqq2p40hu9","1536","864","0","1","0","5d41aa9ec61bc300012c73f6","","null","","","","","","","learning/Slide81.JPG","null","","","","","",""
"html-keyboard-response","249","1126101","0.0-7.0-2.0","LF","gqq2p40hu9","1536","864","0","1","0","5d41aa9ec61bc300012c73f6","","null","","","learningBlock2","","","","<div style=""font-size:60px;""> </div>","null","LF","learning/Slide81.JPG","This is a wug:","","",""
"html-keyboard-response","250","1127103","0.0-7.0-0.1","LF","gqq2p40hu9","1536","864","0","1","0","5d41aa9ec61bc300012c73f6","","null","","","learningBlock2","","","","This is a bim:","null","","","","","",""
"image-keyboard-response","251","1127431","0.0-7.0-1.1","LF","gqq2p40hu9","1536","864","0","1","0","5d41aa9ec61bc300012c73f6","","null","","","","","","","learning/Slide82.JPG","null","","","","","",""
"html-keyboard-response","252","1128448","0.0-7.0-2.1","LF","gqq2p40hu9","1536","864","0","1","0","5d41aa9ec61bc300012c73f6","","null","","","learningBlock2","","","","<div style=""font-size:60px;""> </div>","null","LF","learning/Slide82.JPG","This is a bim:","","",""
"html-keyboard-response","253","1129453","0.0-7.0-0.2","LF","gqq2p40hu9","1536","864","0","1","0","5d41aa9ec61bc300012c73f6","","null","","","learningBlock2","","","","This is a wug:","null","","","","","",""
"image-keyboard-response","254","1129802","0.0-7.0-1.2","LF","gqq2p40hu9","1536","864","0","1","0","5d41aa9ec61bc300012c73f6","","null","","","","","","","learning/Slide83.JPG","null","","","","","",""
"html-keyboard-response","255","1130804","0.0-7.0-2.2","LF","gqq2p40hu9","1536","864","0","1","0","5d41aa9ec61bc300012c73f6","","null","","","learningBlock2","","","","<div style=""font-size:60px;""> </div>","null","LF","learning/Slide83.JPG","This is a wug:","","",""
"html-keyboard-response","256","1131813","0.0-7.0-0.3","LF","gqq2p40hu9","1536","864","0","1","0","5d41aa9ec61bc300012c73f6","","null","","","learningBlock2","","","","This is a dep:","null","","","","","",""
"image-keyboard-response","257","1132148","0.0-7.0-1.3","LF","gqq2p40hu9","1536","864","0","1","0","5d41aa9ec61bc300012c73f6","","null","","","","","","","learning/Slide84.JPG","null","","","","","",""
"html-keyboard-response","258","1133159","0.0-7.0-2.3","LF","gqq2p40hu9","1536","864","0","1","0","5d41aa9ec61bc300012c73f6","","null","","","learningBlock2","","","","<div style=""font-size:60px;""> </div>","null","LF","learning/Slide84.JPG","This is a dep:","","",""
"html-keyboard-response","259","1134163","0.0-7.0-0.4","LF","gqq2p40hu9","1536","864","0","1","0","5d41aa9ec61bc300012c73f6","","null","","","learningBlock2","","","","This is a bim:","null","","","","","",""
"image-keyboard-response","260","1134513","0.0-7.0-1.4","LF","gqq2p40hu9","1536","864","0","1","0","5d41aa9ec61bc300012c73f6","","null","","","","","","","learning/Slide85.JPG","null","","","","","",""
"html-keyboard-response","261","1135516","0.0-7.0-2.4","LF","gqq2p40hu9","1536","864","0","1","0","5d41aa9ec61bc300012c73f6","","null","","","learningBlock2","","","","<div style=""font-size:60px;""> </div>","null","LF","learning/Slide85.JPG","This is a bim:","","",""
"html-keyboard-response","262","1136517","0.0-7.0-0.5","LF","gqq2p40hu9","1536","864","0","1","0","5d41aa9ec61bc300012c73f6","","null","","","learningBlock2","","","","This is a tob:","null","","","","","",""
"image-keyboard-response","263","1136845","0.0-7.0-1.5","LF","gqq2p40hu9","1536","864","0","1","0","5d41aa9ec61bc300012c73f6","","null","","","","","","","learning/Slide86.JPG","null","","","","","",""
"html-keyboard-response","264","1137862","0.0-7.0-2.5","LF","gqq2p40hu9","1536","864","0","1","0","5d41aa9ec61bc300012c73f6","","null","","","learningBlock2","","","","<div style=""font-size:60px;""> </div>","null","LF","learning/Slide86.JPG","This is a tob:","","",""
"html-keyboard-response","265","1138863","0.0-7.0-0.6","LF","gqq2p40hu9","1536","864","0","1","0","5d41aa9ec61bc300012c73f6","","null","","","learningBlock2","","","","This is a wug:","null","","","","","",""
"image-keyboard-response","266","1139213","0.0-7.0-1.6","LF","gqq2p40hu9","1536","864","0","1","0","5d41aa9ec61bc300012c73f6","","null","","","","","","","learning/Slide87.JPG","null","","","","","",""
"html-keyboard-response","267","1140226","0.0-7.0-2.6","LF","gqq2p40hu9","1536","864","0","1","0","5d41aa9ec61bc300012c73f6","","null","","","learningBlock2","","","","<div style=""font-size:60px;""> </div>","null","LF","learning/Slide87.JPG","This is a wug:","","",""
"html-keyboard-response","268","1141235","0.0-7.0-0.7","LF","gqq2p40hu9","1536","864","0","1","0","5d41aa9ec61bc300012c73f6","","null","","","learningBlock2","","","","This is a tob:","null","","","","","",""
"image-keyboard-response","269","1141575","0.0-7.0-1.7","LF","gqq2p40hu9","1536","864","0","1","0","5d41aa9ec61bc300012c73f6","","null","","","","","","","learning/Slide88.JPG","null","","","","","",""
"html-keyboard-response","270","1142577","0.0-7.0-2.7","LF","gqq2p40hu9","1536","864","0","1","0","5d41aa9ec61bc300012c73f6","","null","","","learningBlock2","","","","<div style=""font-size:60px;""> </div>","null","LF","learning/Slide88.JPG","This is a tob:","","",""
"html-keyboard-response","271","1143581","0.0-7.0-0.8","LF","gqq2p40hu9","1536","864","0","1","0","5d41aa9ec61bc300012c73f6","","null","","","learningBlock2","","","","This is a bim:","null","","","","","",""
"image-keyboard-response","272","1143930","0.0-7.0-1.8","LF","gqq2p40hu9","1536","864","0","1","0","5d41aa9ec61bc300012c73f6","","null","","","","","","","learning/Slide89.JPG","null","","","","","",""
"html-keyboard-response","273","1144944","0.0-7.0-2.8","LF","gqq2p40hu9","1536","864","0","1","0","5d41aa9ec61bc300012c73f6","","null","","","learningBlock2","","","","<div style=""font-size:60px;""> </div>","null","LF","learning/Slide89.JPG","This is a bim:","","",""
"html-keyboard-response","274","1145963","0.0-7.0-0.9","LF","gqq2p40hu9","1536","864","0","1","0","5d41aa9ec61bc300012c73f6","","null","","","learningBlock2","","","","This is a dep:","null","","","","","",""
"image-keyboard-response","275","1146306","0.0-7.0-1.9","LF","gqq2p40hu9","1536","864","0","1","0","5d41aa9ec61bc300012c73f6","","null","","","","","","","learning/Slide90.JPG","null","","","","","",""
"html-keyboard-response","276","1147314","0.0-7.0-2.9","LF","gqq2p40hu9","1536","864","0","1","0","5d41aa9ec61bc300012c73f6","","null","","","learningBlock2","","","","<div style=""font-size:60px;""> </div>","null","LF","learning/Slide90.JPG","This is a dep:","","",""
"html-keyboard-response","277","1148316","0.0-7.0-0.10","LF","gqq2p40hu9","1536","864","0","1","0","5d41aa9ec61bc300012c73f6","","null","","","learningBlock2","","","","This is a wug:","null","","","","","",""
"image-keyboard-response","278","1148644","0.0-7.0-1.10","LF","gqq2p40hu9","1536","864","0","1","0","5d41aa9ec61bc300012c73f6","","null","","","","","","","learning/Slide91.JPG","null","","","","","",""
"html-keyboard-response","279","1149652","0.0-7.0-2.10","LF","gqq2p40hu9","1536","864","0","1","0","5d41aa9ec61bc300012c73f6","","null","","","learningBlock2","","","","<div style=""font-size:60px;""> </div>","null","LF","learning/Slide91.JPG","This is a wug:","","",""
"html-keyboard-response","280","1150669","0.0-7.0-0.11","LF","gqq2p40hu9","1536","864","0","1","0","5d41aa9ec61bc300012c73f6","","null","","","learningBlock2","","","","This is a tob:","null","","","","","",""
"image-keyboard-response","281","1151010","0.0-7.0-1.11","LF","gqq2p40hu9","1536","864","0","1","0","5d41aa9ec61bc300012c73f6","","null","","","","","","","learning/Slide92.JPG","null","","","","","",""
"html-keyboard-response","282","1152012","0.0-7.0-2.11","LF","gqq2p40hu9","1536","864","0","1","0","5d41aa9ec61bc300012c73f6","","null","","","learningBlock2","","","","<div style=""font-size:60px;""> </div>","null","LF","learning/Slide92.JPG","This is a tob:","","",""
"html-keyboard-response","283","1153015","0.0-7.0-0.12","LF","gqq2p40hu9","1536","864","0","1","0","5d41aa9ec61bc300012c73f6","","null","","","learningBlock2","","","","This is a bim:","null","","","","","",""
"image-keyboard-response","284","1153353","0.0-7.0-1.12","LF","gqq2p40hu9","1536","864","0","1","0","5d41aa9ec61bc300012c73f6","","null","","","","","","","learning/Slide93.JPG","null","","","","","",""
"html-keyboard-response","285","1154363","0.0-7.0-2.12","LF","gqq2p40hu9","1536","864","0","1","0","5d41aa9ec61bc300012c73f6","","null","","","learningBlock2","","","","<div style=""font-size:60px;""> </div>","null","LF","learning/Slide93.JPG","This is a bim:","","",""
"html-keyboard-response","286","1155365","0.0-7.0-0.13","LF","gqq2p40hu9","1536","864","0","1","0","5d41aa9ec61bc300012c73f6","","null","","","learningBlock2","","","","This is a tob:","null","","","","","",""
"image-keyboard-response","287","1155699","0.0-7.0-1.13","LF","gqq2p40hu9","1536","864","0","1","0","5d41aa9ec61bc300012c73f6","","null","","","","","","","learning/Slide94.JPG","null","","","","","",""
"html-keyboard-response","288","1156703","0.0-7.0-2.13","LF","gqq2p40hu9","1536","864","0","1","0","5d41aa9ec61bc300012c73f6","","null","","","learningBlock2","","","","<div style=""font-size:60px;""> </div>","null","LF","learning/Slide94.JPG","This is a tob:","","",""
"html-keyboard-response","289","1157717","0.0-7.0-0.14","LF","gqq2p40hu9","1536","864","0","1","0","5d41aa9ec61bc300012c73f6","","null","","","learningBlock2","","","","This is a wug:","null","","","","","",""
"image-keyboard-response","290","1158073","0.0-7.0-1.14","LF","gqq2p40hu9","1536","864","0","1","0","5d41aa9ec61bc300012c73f6","","null","","","","","","","learning/Slide95.JPG","null","","","","","",""
"html-keyboard-response","291","1159075","0.0-7.0-2.14","LF","gqq2p40hu9","1536","864","0","1","0","5d41aa9ec61bc300012c73f6","","null","","","learningBlock2","","","","<div style=""font-size:60px;""> </div>","null","LF","learning/Slide95.JPG","This is a wug:","","",""
"html-keyboard-response","292","1160078","0.0-7.0-0.15","LF","gqq2p40hu9","1536","864","0","1","0","5d41aa9ec61bc300012c73f6","","null","","","learningBlock2","","","","This is a tob:","null","","","","","",""
"image-keyboard-response","293","1160405","0.0-7.0-1.15","LF","gqq2p40hu9","1536","864","0","1","0","5d41aa9ec61bc300012c73f6","","null","","","","","","","learning/Slide96.JPG","null","","","","","",""
"html-keyboard-response","294","1161417","0.0-7.0-2.15","LF","gqq2p40hu9","1536","864","0","1","0","5d41aa9ec61bc300012c73f6","","null","","","learningBlock2","","","","<div style=""font-size:60px;""> </div>","null","LF","learning/Slide96.JPG","This is a tob:","","",""
"html-keyboard-response","295","1162434","0.0-7.0-0.16","LF","gqq2p40hu9","1536","864","0","1","0","5d41aa9ec61bc300012c73f6","","null","","","learningBlock2","","","","This is a dep:","null","","","","","",""
"image-keyboard-response","296","1162783","0.0-7.0-1.16","LF","gqq2p40hu9","1536","864","0","1","0","5d41aa9ec61bc300012c73f6","","null","","","","","","","learning/Slide97.JPG","null","","","","","",""
"html-keyboard-response","297","1163786","0.0-7.0-2.16","LF","gqq2p40hu9","1536","864","0","1","0","5d41aa9ec61bc300012c73f6","","null","","","learningBlock2","","","","<div style=""font-size:60px;""> </div>","null","LF","learning/Slide97.JPG","This is a dep:","","",""
"html-keyboard-response","298","1164793","0.0-7.0-0.17","LF","gqq2p40hu9","1536","864","0","1","0","5d41aa9ec61bc300012c73f6","","null","","","learningBlock2","","","","This is a bim:","null","","","","","",""
"image-keyboard-response","299","1165125","0.0-7.0-1.17","LF","gqq2p40hu9","1536","864","0","1","0","5d41aa9ec61bc300012c73f6","","null","","","","","","","learning/Slide98.JPG","null","","","","","",""
"html-keyboard-response","300","1166127","0.0-7.0-2.17","LF","gqq2p40hu9","1536","864","0","1","0","5d41aa9ec61bc300012c73f6","","null","","","learningBlock2","","","","<div style=""font-size:60px;""> </div>","null","LF","learning/Slide98.JPG","This is a bim:","","",""
"html-keyboard-response","301","1167143","0.0-7.0-0.18","LF","gqq2p40hu9","1536","864","0","1","0","5d41aa9ec61bc300012c73f6","","null","","","learningBlock2","","","","This is a dep:","null","","","","","",""
"image-keyboard-response","302","1167482","0.0-7.0-1.18","LF","gqq2p40hu9","1536","864","0","1","0","5d41aa9ec61bc300012c73f6","","null","","","","","","","learning/Slide99.JPG","null","","","","","",""
"html-keyboard-response","303","1168498","0.0-7.0-2.18","LF","gqq2p40hu9","1536","864","0","1","0","5d41aa9ec61bc300012c73f6","","null","","","learningBlock2","","","","<div style=""font-size:60px;""> </div>","null","LF","learning/Slide99.JPG","This is a dep:","","",""
"html-keyboard-response","304","1169500","0.0-7.0-0.19","LF","gqq2p40hu9","1536","864","0","1","0","5d41aa9ec61bc300012c73f6","","null","","","learningBlock2","","","","This is a bim:","null","","","","","",""
"image-keyboard-response","305","1169827","0.0-7.0-1.19","LF","gqq2p40hu9","1536","864","0","1","0","5d41aa9ec61bc300012c73f6","","null","","","","","","","learning/Slide100.JPG","null","","","","","",""
"html-keyboard-response","306","1170829","0.0-7.0-2.19","LF","gqq2p40hu9","1536","864","0","1","0","5d41aa9ec61bc300012c73f6","","null","","","learningBlock2","","","","<div style=""font-size:60px;""> </div>","null","LF","learning/Slide100.JPG","This is a bim:","","",""
"html-keyboard-response","307","1171838","0.0-7.0-0.20","LF","gqq2p40hu9","1536","864","0","1","0","5d41aa9ec61bc300012c73f6","","null","","","learningBlock2","","","","This is a tob:","null","","","","","",""
"image-keyboard-response","308","1172166","0.0-7.0-1.20","LF","gqq2p40hu9","1536","864","0","1","0","5d41aa9ec61bc300012c73f6","","null","","","","","","","learning/Slide101.JPG","null","","","","","",""
"html-keyboard-response","309","1173183","0.0-7.0-2.20","LF","gqq2p40hu9","1536","864","0","1","0","5d41aa9ec61bc300012c73f6","","null","","","learningBlock2","","","","<div style=""font-size:60px;""> </div>","null","LF","learning/Slide101.JPG","This is a tob:","","",""
"html-keyboard-response","310","1174189","0.0-7.0-0.21","LF","gqq2p40hu9","1536","864","0","1","0","5d41aa9ec61bc300012c73f6","","null","","","learningBlock2","","","","This is a bim:","null","","","","","",""
"image-keyboard-response","311","1174532","0.0-7.0-1.21","LF","gqq2p40hu9","1536","864","0","1","0","5d41aa9ec61bc300012c73f6","","null","","","","","","","learning/Slide102.JPG","null","","","","","",""
"html-keyboard-response","312","1175541","0.0-7.0-2.21","LF","gqq2p40hu9","1536","864","0","1","0","5d41aa9ec61bc300012c73f6","","null","","","learningBlock2","","","","<div style=""font-size:60px;""> </div>","null","LF","learning/Slide102.JPG","This is a bim:","","",""
"html-keyboard-response","313","1176552","0.0-7.0-0.22","LF","gqq2p40hu9","1536","864","0","1","0","5d41aa9ec61bc300012c73f6","","null","","","learningBlock2","","","","This is a dep:","null","","","","","",""
"image-keyboard-response","314","1176924","0.0-7.0-1.22","LF","gqq2p40hu9","1536","864","0","1","0","5d41aa9ec61bc300012c73f6","","null","","","","","","","learning/Slide103.JPG","null","","","","","",""
"html-keyboard-response","315","1177926","0.0-7.0-2.22","LF","gqq2p40hu9","1536","864","0","1","0","5d41aa9ec61bc300012c73f6","","null","","","learningBlock2","","","","<div style=""font-size:60px;""> </div>","null","LF","learning/Slide103.JPG","This is a dep:","","",""
"html-keyboard-response","316","1178928","0.0-7.0-0.23","LF","gqq2p40hu9","1536","864","0","1","0","5d41aa9ec61bc300012c73f6","","null","","","learningBlock2","","","","This is a tob:","null","","","","","",""
"image-keyboard-response","317","1179256","0.0-7.0-1.23","LF","gqq2p40hu9","1536","864","0","1","0","5d41aa9ec61bc300012c73f6","","null","","","","","","","learning/Slide104.JPG","null","","","","","",""
"html-keyboard-response","318","1180269","0.0-7.0-2.23","LF","gqq2p40hu9","1536","864","0","1","0","5d41aa9ec61bc300012c73f6","","null","","","learningBlock2","","","","<div style=""font-size:60px;""> </div>","null","LF","learning/Slide104.JPG","This is a tob:","","",""
"html-keyboard-response","319","1181271","0.0-7.0-0.24","LF","gqq2p40hu9","1536","864","0","1","0","5d41aa9ec61bc300012c73f6","","null","","","learningBlock2","","","","This is a dep:","null","","","","","",""
"image-keyboard-response","320","1181618","0.0-7.0-1.24","LF","gqq2p40hu9","1536","864","0","1","0","5d41aa9ec61bc300012c73f6","","null","","","","","","","learning/Slide105.JPG","null","","","","","",""
"html-keyboard-response","321","1182635","0.0-7.0-2.24","LF","gqq2p40hu9","1536","864","0","1","0","5d41aa9ec61bc300012c73f6","","null","","","learningBlock2","","","","<div style=""font-size:60px;""> </div>","null","LF","learning/Slide105.JPG","This is a dep:","","",""
"html-keyboard-response","322","1183645","0.0-7.0-0.25","LF","gqq2p40hu9","1536","864","0","1","0","5d41aa9ec61bc300012c73f6","","null","","","learningBlock2","","","","This is a wug:","null","","","","","",""
"image-keyboard-response","323","1183977","0.0-7.0-1.25","LF","gqq2p40hu9","1536","864","0","1","0","5d41aa9ec61bc300012c73f6","","null","","","","","","","learning/Slide106.JPG","null","","","","","",""
"html-keyboard-response","324","1184989","0.0-7.0-2.25","LF","gqq2p40hu9","1536","864","0","1","0","5d41aa9ec61bc300012c73f6","","null","","","learningBlock2","","","","<div style=""font-size:60px;""> </div>","null","LF","learning/Slide106.JPG","This is a wug:","","",""
"html-keyboard-response","325","1186004","0.0-7.0-0.26","LF","gqq2p40hu9","1536","864","0","1","0","5d41aa9ec61bc300012c73f6","","null","","","learningBlock2","","","","This is a bim:","null","","","","","",""
"image-keyboard-response","326","1186339","0.0-7.0-1.26","LF","gqq2p40hu9","1536","864","0","1","0","5d41aa9ec61bc300012c73f6","","null","","","","","","","learning/Slide107.JPG","null","","","","","",""
"html-keyboard-response","327","1187342","0.0-7.0-2.26","LF","gqq2p40hu9","1536","864","0","1","0","5d41aa9ec61bc300012c73f6","","null","","","learningBlock2","","","","<div style=""font-size:60px;""> </div>","null","LF","learning/Slide107.JPG","This is a bim:","","",""
"html-keyboard-response","328","1188351","0.0-7.0-0.27","LF","gqq2p40hu9","1536","864","0","1","0","5d41aa9ec61bc300012c73f6","","null","","","learningBlock2","","","","This is a dep:","null","","","","","",""
"image-keyboard-response","329","1188684","0.0-7.0-1.27","LF","gqq2p40hu9","1536","864","0","1","0","5d41aa9ec61bc300012c73f6","","null","","","","","","","learning/Slide108.JPG","null","","","","","",""
"html-keyboard-response","330","1189685","0.0-7.0-2.27","LF","gqq2p40hu9","1536","864","0","1","0","5d41aa9ec61bc300012c73f6","","null","","","learningBlock2","","","","<div style=""font-size:60px;""> </div>","null","LF","learning/Slide108.JPG","This is a dep:","","",""
"html-keyboard-response","331","1190688","0.0-7.0-0.28","LF","gqq2p40hu9","1536","864","0","1","0","5d41aa9ec61bc300012c73f6","","null","","","learningBlock2","","","","This is a wug:","null","","","","","",""
"image-keyboard-response","332","1191023","0.0-7.0-1.28","LF","gqq2p40hu9","1536","864","0","1","0","5d41aa9ec61bc300012c73f6","","null","","","","","","","learning/Slide109.JPG","null","","","","","",""
"html-keyboard-response","333","1192026","0.0-7.0-2.28","LF","gqq2p40hu9","1536","864","0","1","0","5d41aa9ec61bc300012c73f6","","null","","","learningBlock2","","","","<div style=""font-size:60px;""> </div>","null","LF","learning/Slide109.JPG","This is a wug:","","",""
"html-keyboard-response","334","1193028","0.0-7.0-0.29","LF","gqq2p40hu9","1536","864","0","1","0","5d41aa9ec61bc300012c73f6","","null","","","learningBlock2","","","","This is a bim:","null","","","","","",""
"image-keyboard-response","335","1193361","0.0-7.0-1.29","LF","gqq2p40hu9","1536","864","0","1","0","5d41aa9ec61bc300012c73f6","","null","","","","","","","learning/Slide110.JPG","null","","","","","",""
"html-keyboard-response","336","1194375","0.0-7.0-2.29","LF","gqq2p40hu9","1536","864","0","1","0","5d41aa9ec61bc300012c73f6","","null","","","learningBlock2","","","","<div style=""font-size:60px;""> </div>","null","LF","learning/Slide110.JPG","This is a bim:","","",""
"html-keyboard-response","337","1195378","0.0-7.0-0.30","LF","gqq2p40hu9","1536","864","0","1","0","5d41aa9ec61bc300012c73f6","","null","","","learningBlock2","","","","This is a tob:","null","","","","","",""
"image-keyboard-response","338","1195710","0.0-7.0-1.30","LF","gqq2p40hu9","1536","864","0","1","0","5d41aa9ec61bc300012c73f6","","null","","","","","","","learning/Slide111.JPG","null","","","","","",""
"html-keyboard-response","339","1196725","0.0-7.0-2.30","LF","gqq2p40hu9","1536","864","0","1","0","5d41aa9ec61bc300012c73f6","","null","","","learningBlock2","","","","<div style=""font-size:60px;""> </div>","null","LF","learning/Slide111.JPG","This is a tob:","","",""
"html-keyboard-response","340","1197727","0.0-7.0-0.31","LF","gqq2p40hu9","1536","864","0","1","0","5d41aa9ec61bc300012c73f6","","null","","","learningBlock2","","","","This is a wug:","null","","","","","",""
"image-keyboard-response","341","1198068","0.0-7.0-1.31","LF","gqq2p40hu9","1536","864","0","1","0","5d41aa9ec61bc300012c73f6","","null","","","","","","","learning/Slide112.JPG","null","","","","","",""
"html-keyboard-response","342","1199082","0.0-7.0-2.31","LF","gqq2p40hu9","1536","864","0","1","0","5d41aa9ec61bc300012c73f6","","null","","","learningBlock2","","","","<div style=""font-size:60px;""> </div>","null","LF","learning/Slide112.JPG","This is a wug:","","",""
"html-keyboard-response","343","1200096","0.0-7.0-0.32","LF","gqq2p40hu9","1536","864","0","1","0","5d41aa9ec61bc300012c73f6","","null","","","learningBlock2","","","","This is a tob:","null","","","","","",""
"image-keyboard-response","344","1200438","0.0-7.0-1.32","LF","gqq2p40hu9","1536","864","0","1","0","5d41aa9ec61bc300012c73f6","","null","","","","","","","learning/Slide113.JPG","null","","","","","",""
"html-keyboard-response","345","1201454","0.0-7.0-2.32","LF","gqq2p40hu9","1536","864","0","1","0","5d41aa9ec61bc300012c73f6","","null","","","learningBlock2","","","","<div style=""font-size:60px;""> </div>","null","LF","learning/Slide113.JPG","This is a tob:","","",""
"html-keyboard-response","346","1202460","0.0-7.0-0.33","LF","gqq2p40hu9","1536","864","0","1","0","5d41aa9ec61bc300012c73f6","","null","","","learningBlock2","","","","This is a wug:","null","","","","","",""
"image-keyboard-response","347","1202800","0.0-7.0-1.33","LF","gqq2p40hu9","1536","864","0","1","0","5d41aa9ec61bc300012c73f6","","null","","","","","","","learning/Slide114.JPG","null","","","","","",""
"html-keyboard-response","348","1203817","0.0-7.0-2.33","LF","gqq2p40hu9","1536","864","0","1","0","5d41aa9ec61bc300012c73f6","","null","","","learningBlock2","","","","<div style=""font-size:60px;""> </div>","null","LF","learning/Slide114.JPG","This is a wug:","","",""
"html-keyboard-response","349","1204827","0.0-7.0-0.34","LF","gqq2p40hu9","1536","864","0","1","0","5d41aa9ec61bc300012c73f6","","null","","","learningBlock2","","","","This is a bim:","null","","","","","",""
"image-keyboard-response","350","1205156","0.0-7.0-1.34","LF","gqq2p40hu9","1536","864","0","1","0","5d41aa9ec61bc300012c73f6","","null","","","","","","","learning/Slide115.JPG","null","","","","","",""
"html-keyboard-response","351","1206161","0.0-7.0-2.34","LF","gqq2p40hu9","1536","864","0","1","0","5d41aa9ec61bc300012c73f6","","null","","","learningBlock2","","","","<div style=""font-size:60px;""> </div>","null","LF","learning/Slide115.JPG","This is a bim:","","",""
"html-keyboard-response","352","1207165","0.0-7.0-0.35","LF","gqq2p40hu9","1536","864","0","1","0","5d41aa9ec61bc300012c73f6","","null","","","learningBlock2","","","","This is a dep:","null","","","","","",""
"image-keyboard-response","353","1207512","0.0-7.0-1.35","LF","gqq2p40hu9","1536","864","0","1","0","5d41aa9ec61bc300012c73f6","","null","","","","","","","learning/Slide116.JPG","null","","","","","",""
"html-keyboard-response","354","1208522","0.0-7.0-2.35","LF","gqq2p40hu9","1536","864","0","1","0","5d41aa9ec61bc300012c73f6","","null","","","learningBlock2","","","","<div style=""font-size:60px;""> </div>","null","LF","learning/Slide116.JPG","This is a dep:","","",""
"html-keyboard-response","355","1209534","0.0-7.0-0.36","LF","gqq2p40hu9","1536","864","0","1","0","5d41aa9ec61bc300012c73f6","","null","","","learningBlock2","","","","This is a tob:","null","","","","","",""
"image-keyboard-response","356","1209868","0.0-7.0-1.36","LF","gqq2p40hu9","1536","864","0","1","0","5d41aa9ec61bc300012c73f6","","null","","","","","","","learning/Slide117.JPG","null","","","","","",""
"html-keyboard-response","357","1210870","0.0-7.0-2.36","LF","gqq2p40hu9","1536","864","0","1","0","5d41aa9ec61bc300012c73f6","","null","","","learningBlock2","","","","<div style=""font-size:60px;""> </div>","null","LF","learning/Slide117.JPG","This is a tob:","","",""
"html-keyboard-response","358","1211883","0.0-7.0-0.37","LF","gqq2p40hu9","1536","864","0","1","0","5d41aa9ec61bc300012c73f6","","null","","","learningBlock2","","","","This is a dep:","null","","","","","",""
"image-keyboard-response","359","1212219","0.0-7.0-1.37","LF","gqq2p40hu9","1536","864","0","1","0","5d41aa9ec61bc300012c73f6","","null","","","","","","","learning/Slide118.JPG","null","","","","","",""
"html-keyboard-response","360","1213221","0.0-7.0-2.37","LF","gqq2p40hu9","1536","864","0","1","0","5d41aa9ec61bc300012c73f6","","null","","","learningBlock2","","","","<div style=""font-size:60px;""> </div>","null","LF","learning/Slide118.JPG","This is a dep:","","",""
"html-keyboard-response","361","1214224","0.0-7.0-0.38","LF","gqq2p40hu9","1536","864","0","1","0","5d41aa9ec61bc300012c73f6","","null","","","learningBlock2","","","","This is a wug:","null","","","","","",""
"image-keyboard-response","362","1214552","0.0-7.0-1.38","LF","gqq2p40hu9","1536","864","0","1","0","5d41aa9ec61bc300012c73f6","","null","","","","","","","learning/Slide119.JPG","null","","","","","",""
"html-keyboard-response","363","1215554","0.0-7.0-2.38","LF","gqq2p40hu9","1536","864","0","1","0","5d41aa9ec61bc300012c73f6","","null","","","learningBlock2","","","","<div style=""font-size:60px;""> </div>","null","LF","learning/Slide119.JPG","This is a wug:","","",""
"html-keyboard-response","364","1216570","0.0-7.0-0.39","LF","gqq2p40hu9","1536","864","0","1","0","5d41aa9ec61bc300012c73f6","","null","","","learningBlock2","","","","This is a dep:","null","","","","","",""
"image-keyboard-response","365","1216903","0.0-7.0-1.39","LF","gqq2p40hu9","1536","864","0","1","0","5d41aa9ec61bc300012c73f6","","null","","","","","","","learning/Slide120.JPG","null","","","","","",""
"html-keyboard-response","366","1217919","0.0-7.0-2.39","LF","gqq2p40hu9","1536","864","0","1","0","5d41aa9ec61bc300012c73f6","","null","","","learningBlock2","","","","<div style=""font-size:60px;""> </div>","null","LF","learning/Slide120.JPG","This is a dep:","","",""
"html-keyboard-response","367","1218928","0.0-7.0-0.40","LF","gqq2p40hu9","1536","864","0","1","0","5d41aa9ec61bc300012c73f6","","null","","","learningBlock2","","","","This is a bim:","null","","","","","",""
"image-keyboard-response","368","1219270","0.0-7.0-1.40","LF","gqq2p40hu9","1536","864","0","1","0","5d41aa9ec61bc300012c73f6","","null","","","","","","","learning/Slide121.JPG","null","","","","","",""
"html-keyboard-response","369","1220273","0.0-7.0-2.40","LF","gqq2p40hu9","1536","864","0","1","0","5d41aa9ec61bc300012c73f6","","null","","","learningBlock2","","","","<div style=""font-size:60px;""> </div>","null","LF","learning/Slide121.JPG","This is a bim:","","",""
"html-keyboard-response","370","1221275","0.0-7.0-0.41","LF","gqq2p40hu9","1536","864","0","1","0","5d41aa9ec61bc300012c73f6","","null","","","learningBlock2","","","","This is a wug:","null","","","","","",""
"image-keyboard-response","371","1221625","0.0-7.0-1.41","LF","gqq2p40hu9","1536","864","0","1","0","5d41aa9ec61bc300012c73f6","","null","","","","","","","learning/Slide122.JPG","null","","","","","",""
"html-keyboard-response","372","1222632","0.0-7.0-2.41","LF","gqq2p40hu9","1536","864","0","1","0","5d41aa9ec61bc300012c73f6","","null","","","learningBlock2","","","","<div style=""font-size:60px;""> </div>","null","LF","learning/Slide122.JPG","This is a wug:","","",""
"html-keyboard-response","373","1223634","0.0-7.0-0.42","LF","gqq2p40hu9","1536","864","0","1","0","5d41aa9ec61bc300012c73f6","","null","","","learningBlock2","","","","This is a bim:","null","","","","","",""
"image-keyboard-response","374","1223970","0.0-7.0-1.42","LF","gqq2p40hu9","1536","864","0","1","0","5d41aa9ec61bc300012c73f6","","null","","","","","","","learning/Slide123.JPG","null","","","","","",""
"html-keyboard-response","375","1224987","0.0-7.0-2.42","LF","gqq2p40hu9","1536","864","0","1","0","5d41aa9ec61bc300012c73f6","","null","","","learningBlock2","","","","<div style=""font-size:60px;""> </div>","null","LF","learning/Slide123.JPG","This is a bim:","","",""
"html-keyboard-response","376","1225995","0.0-7.0-0.43","LF","gqq2p40hu9","1536","864","0","1","0","5d41aa9ec61bc300012c73f6","","null","","","learningBlock2","","","","This is a tob:","null","","","","","",""
"image-keyboard-response","377","1226342","0.0-7.0-1.43","LF","gqq2p40hu9","1536","864","0","1","0","5d41aa9ec61bc300012c73f6","","null","","","","","","","learning/Slide124.JPG","null","","","","","",""
"html-keyboard-response","378","1227345","0.0-7.0-2.43","LF","gqq2p40hu9","1536","864","0","1","0","5d41aa9ec61bc300012c73f6","","null","","","learningBlock2","","","","<div style=""font-size:60px;""> </div>","null","LF","learning/Slide124.JPG","This is a tob:","","",""
"html-keyboard-response","379","1228359","0.0-7.0-0.44","LF","gqq2p40hu9","1536","864","0","1","0","5d41aa9ec61bc300012c73f6","","null","","","learningBlock2","","","","This is a bim:","null","","","","","",""
"image-keyboard-response","380","1228708","0.0-7.0-1.44","LF","gqq2p40hu9","1536","864","0","1","0","5d41aa9ec61bc300012c73f6","","null","","","","","","","learning/Slide125.JPG","null","","","","","",""
"html-keyboard-response","381","1229710","0.0-7.0-2.44","LF","gqq2p40hu9","1536","864","0","1","0","5d41aa9ec61bc300012c73f6","","null","","","learningBlock2","","","","<div style=""font-size:60px;""> </div>","null","LF","learning/Slide125.JPG","This is a bim:","","",""
"html-keyboard-response","382","1230724","0.0-7.0-0.45","LF","gqq2p40hu9","1536","864","0","1","0","5d41aa9ec61bc300012c73f6","","null","","","learningBlock2","","","","This is a tob:","null","","","","","",""
"image-keyboard-response","383","1231060","0.0-7.0-1.45","LF","gqq2p40hu9","1536","864","0","1","0","5d41aa9ec61bc300012c73f6","","null","","","","","","","learning/Slide126.JPG","null","","","","","",""
"html-keyboard-response","384","1232071","0.0-7.0-2.45","LF","gqq2p40hu9","1536","864","0","1","0","5d41aa9ec61bc300012c73f6","","null","","","learningBlock2","","","","<div style=""font-size:60px;""> </div>","null","LF","learning/Slide126.JPG","This is a tob:","","",""
"html-keyboard-response","385","1233088","0.0-7.0-0.46","LF","gqq2p40hu9","1536","864","0","1","0","5d41aa9ec61bc300012c73f6","","null","","","learningBlock2","","","","This is a dep:","null","","","","","",""
"image-keyboard-response","386","1233445","0.0-7.0-1.46","LF","gqq2p40hu9","1536","864","0","1","0","5d41aa9ec61bc300012c73f6","","null","","","","","","","learning/Slide127.JPG","null","","","","","",""
"html-keyboard-response","387","1234456","0.0-7.0-2.46","LF","gqq2p40hu9","1536","864","0","1","0","5d41aa9ec61bc300012c73f6","","null","","","learningBlock2","","","","<div style=""font-size:60px;""> </div>","null","LF","learning/Slide127.JPG","This is a dep:","","",""
"html-keyboard-response","388","1235457","0.0-7.0-0.47","LF","gqq2p40hu9","1536","864","0","1","0","5d41aa9ec61bc300012c73f6","","null","","","learningBlock2","","","","This is a wug:","null","","","","","",""
"image-keyboard-response","389","1235786","0.0-7.0-1.47","LF","gqq2p40hu9","1536","864","0","1","0","5d41aa9ec61bc300012c73f6","","null","","","","","","","learning/Slide128.JPG","null","","","","","",""
"html-keyboard-response","390","1236790","0.0-7.0-2.47","LF","gqq2p40hu9","1536","864","0","1","0","5d41aa9ec61bc300012c73f6","","null","","","learningBlock2","","","","<div style=""font-size:60px;""> </div>","null","LF","learning/Slide128.JPG","This is a wug:","","",""
"html-keyboard-response","391","1237807","0.0-7.0-0.48","LF","gqq2p40hu9","1536","864","0","1","0","5d41aa9ec61bc300012c73f6","","null","","","learningBlock2","","","","This is a tob:","null","","","","","",""
"image-keyboard-response","392","1238135","0.0-7.0-1.48","LF","gqq2p40hu9","1536","864","0","1","0","5d41aa9ec61bc300012c73f6","","null","","","","","","","learning/Slide129.JPG","null","","","","","",""
"html-keyboard-response","393","1239146","0.0-7.0-2.48","LF","gqq2p40hu9","1536","864","0","1","0","5d41aa9ec61bc300012c73f6","","null","","","learningBlock2","","","","<div style=""font-size:60px;""> </div>","null","LF","learning/Slide129.JPG","This is a tob:","","",""
"html-keyboard-response","394","1240170","0.0-7.0-0.49","LF","gqq2p40hu9","1536","864","0","1","0","5d41aa9ec61bc300012c73f6","","null","","","learningBlock2","","","","This is a wug:","null","","","","","",""
"image-keyboard-response","395","1240505","0.0-7.0-1.49","LF","gqq2p40hu9","1536","864","0","1","0","5d41aa9ec61bc300012c73f6","","null","","","","","","","learning/Slide130.JPG","null","","","","","",""
"html-keyboard-response","396","1241506","0.0-7.0-2.49","LF","gqq2p40hu9","1536","864","0","1","0","5d41aa9ec61bc300012c73f6","","null","","","learningBlock2","","","","<div style=""font-size:60px;""> </div>","null","LF","learning/Slide130.JPG","This is a wug:","","",""
"html-keyboard-response","397","1242509","0.0-7.0-0.50","LF","gqq2p40hu9","1536","864","0","1","0","5d41aa9ec61bc300012c73f6","","null","","","learningBlock2","","","","This is a bim:","null","","","","","",""
"image-keyboard-response","398","1242844","0.0-7.0-1.50","LF","gqq2p40hu9","1536","864","0","1","0","5d41aa9ec61bc300012c73f6","","null","","","","","","","learning/Slide131.JPG","null","","","","","",""
"html-keyboard-response","399","1243850","0.0-7.0-2.50","LF","gqq2p40hu9","1536","864","0","1","0","5d41aa9ec61bc300012c73f6","","null","","","learningBlock2","","","","<div style=""font-size:60px;""> </div>","null","LF","learning/Slide131.JPG","This is a bim:","","",""
"html-keyboard-response","400","1244867","0.0-7.0-0.51","LF","gqq2p40hu9","1536","864","0","1","0","5d41aa9ec61bc300012c73f6","","null","","","learningBlock2","","","","This is a dep:","null","","","","","",""
"image-keyboard-response","401","1245207","0.0-7.0-1.51","LF","gqq2p40hu9","1536","864","0","1","0","5d41aa9ec61bc300012c73f6","","null","","","","","","","learning/Slide132.JPG","null","","","","","",""
"html-keyboard-response","402","1246209","0.0-7.0-2.51","LF","gqq2p40hu9","1536","864","0","1","0","5d41aa9ec61bc300012c73f6","","null","","","learningBlock2","","","","<div style=""font-size:60px;""> </div>","null","LF","learning/Slide132.JPG","This is a dep:","","",""
"html-keyboard-response","403","1247227","0.0-7.0-0.52","LF","gqq2p40hu9","1536","864","0","1","0","5d41aa9ec61bc300012c73f6","","null","","","learningBlock2","","","","This is a tob:","null","","","","","",""
"image-keyboard-response","404","1247569","0.0-7.0-1.52","LF","gqq2p40hu9","1536","864","0","1","0","5d41aa9ec61bc300012c73f6","","null","","","","","","","learning/Slide133.JPG","null","","","","","",""
"html-keyboard-response","405","1248596","0.0-7.0-2.52","LF","gqq2p40hu9","1536","864","0","1","0","5d41aa9ec61bc300012c73f6","","null","","","learningBlock2","","","","<div style=""font-size:60px;""> </div>","null","LF","learning/Slide133.JPG","This is a tob:","","",""
"html-keyboard-response","406","1249611","0.0-7.0-0.53","LF","gqq2p40hu9","1536","864","0","1","0","5d41aa9ec61bc300012c73f6","","null","","","learningBlock2","","","","This is a dep:","null","","","","","",""
"image-keyboard-response","407","1249959","0.0-7.0-1.53","LF","gqq2p40hu9","1536","864","0","1","0","5d41aa9ec61bc300012c73f6","","null","","","","","","","learning/Slide134.JPG","null","","","","","",""
"html-keyboard-response","408","1250966","0.0-7.0-2.53","LF","gqq2p40hu9","1536","864","0","1","0","5d41aa9ec61bc300012c73f6","","null","","","learningBlock2","","","","<div style=""font-size:60px;""> </div>","null","LF","learning/Slide134.JPG","This is a dep:","","",""
"html-keyboard-response","409","1251982","0.0-7.0-0.54","LF","gqq2p40hu9","1536","864","0","1","0","5d41aa9ec61bc300012c73f6","","null","","","learningBlock2","","","","This is a tob:","null","","","","","",""
"image-keyboard-response","410","1252321","0.0-7.0-1.54","LF","gqq2p40hu9","1536","864","0","1","0","5d41aa9ec61bc300012c73f6","","null","","","","","","","learning/Slide135.JPG","null","","","","","",""
"html-keyboard-response","411","1253326","0.0-7.0-2.54","LF","gqq2p40hu9","1536","864","0","1","0","5d41aa9ec61bc300012c73f6","","null","","","learningBlock2","","","","<div style=""font-size:60px;""> </div>","null","LF","learning/Slide135.JPG","This is a tob:","","",""
"html-keyboard-response","412","1254332","0.0-7.0-0.55","LF","gqq2p40hu9","1536","864","0","1","0","5d41aa9ec61bc300012c73f6","","null","","","learningBlock2","","","","This is a wug:","null","","","","","",""
"image-keyboard-response","413","1254670","0.0-7.0-1.55","LF","gqq2p40hu9","1536","864","0","1","0","5d41aa9ec61bc300012c73f6","","null","","","","","","","learning/Slide136.JPG","null","","","","","",""
"html-keyboard-response","414","1255681","0.0-7.0-2.55","LF","gqq2p40hu9","1536","864","0","1","0","5d41aa9ec61bc300012c73f6","","null","","","learningBlock2","","","","<div style=""font-size:60px;""> </div>","null","LF","learning/Slide136.JPG","This is a wug:","","",""
"html-keyboard-response","415","1256697","0.0-7.0-0.56","LF","gqq2p40hu9","1536","864","0","1","0","5d41aa9ec61bc300012c73f6","","null","","","learningBlock2","","","","This is a tob:","null","","","","","",""
"image-keyboard-response","416","1257037","0.0-7.0-1.56","LF","gqq2p40hu9","1536","864","0","1","0","5d41aa9ec61bc300012c73f6","","null","","","","","","","learning/Slide137.JPG","null","","","","","",""
"html-keyboard-response","417","1258047","0.0-7.0-2.56","LF","gqq2p40hu9","1536","864","0","1","0","5d41aa9ec61bc300012c73f6","","null","","","learningBlock2","","","","<div style=""font-size:60px;""> </div>","null","LF","learning/Slide137.JPG","This is a tob:","","",""
"html-keyboard-response","418","1259050","0.0-7.0-0.57","LF","gqq2p40hu9","1536","864","0","1","0","5d41aa9ec61bc300012c73f6","","null","","","learningBlock2","","","","This is a bim:","null","","","","","",""
"image-keyboard-response","419","1259379","0.0-7.0-1.57","LF","gqq2p40hu9","1536","864","0","1","0","5d41aa9ec61bc300012c73f6","","null","","","","","","","learning/Slide138.JPG","null","","","","","",""
"html-keyboard-response","420","1260382","0.0-7.0-2.57","LF","gqq2p40hu9","1536","864","0","1","0","5d41aa9ec61bc300012c73f6","","null","","","learningBlock2","","","","<div style=""font-size:60px;""> </div>","null","LF","learning/Slide138.JPG","This is a bim:","","",""
"html-keyboard-response","421","1261383","0.0-7.0-0.58","LF","gqq2p40hu9","1536","864","0","1","0","5d41aa9ec61bc300012c73f6","","null","","","learningBlock2","","","","This is a wug:","null","","","","","",""
"image-keyboard-response","422","1261722","0.0-7.0-1.58","LF","gqq2p40hu9","1536","864","0","1","0","5d41aa9ec61bc300012c73f6","","null","","","","","","","learning/Slide139.JPG","null","","","","","",""
"html-keyboard-response","423","1262724","0.0-7.0-2.58","LF","gqq2p40hu9","1536","864","0","1","0","5d41aa9ec61bc300012c73f6","","null","","","learningBlock2","","","","<div style=""font-size:60px;""> </div>","null","LF","learning/Slide139.JPG","This is a wug:","","",""
"html-keyboard-response","424","1263725","0.0-7.0-0.59","LF","gqq2p40hu9","1536","864","0","1","0","5d41aa9ec61bc300012c73f6","","null","","","learningBlock2","","","","This is a dep:","null","","","","","",""
"image-keyboard-response","425","1264067","0.0-7.0-1.59","LF","gqq2p40hu9","1536","864","0","1","0","5d41aa9ec61bc300012c73f6","","null","","","","","","","learning/Slide140.JPG","null","","","","","",""
"html-keyboard-response","426","1265080","0.0-7.0-2.59","LF","gqq2p40hu9","1536","864","0","1","0","5d41aa9ec61bc300012c73f6","","null","","","learningBlock2","","","","<div style=""font-size:60px;""> </div>","null","LF","learning/Slide140.JPG","This is a dep:","","",""
"html-keyboard-response","427","1266089","0.0-7.0-0.60","LF","gqq2p40hu9","1536","864","0","1","0","5d41aa9ec61bc300012c73f6","","null","","","learningBlock2","","","","This is a tob:","null","","","","","",""
"image-keyboard-response","428","1266437","0.0-7.0-1.60","LF","gqq2p40hu9","1536","864","0","1","0","5d41aa9ec61bc300012c73f6","","null","","","","","","","learning/Slide141.JPG","null","","","","","",""
"html-keyboard-response","429","1267441","0.0-7.0-2.60","LF","gqq2p40hu9","1536","864","0","1","0","5d41aa9ec61bc300012c73f6","","null","","","learningBlock2","","","","<div style=""font-size:60px;""> </div>","null","LF","learning/Slide141.JPG","This is a tob:","","",""
"html-keyboard-response","430","1268454","0.0-7.0-0.61","LF","gqq2p40hu9","1536","864","0","1","0","5d41aa9ec61bc300012c73f6","","null","","","learningBlock2","","","","This is a wug:","null","","","","","",""
"image-keyboard-response","431","1268789","0.0-7.0-1.61","LF","gqq2p40hu9","1536","864","0","1","0","5d41aa9ec61bc300012c73f6","","null","","","","","","","learning/Slide142.JPG","null","","","","","",""
"html-keyboard-response","432","1269804","0.0-7.0-2.61","LF","gqq2p40hu9","1536","864","0","1","0","5d41aa9ec61bc300012c73f6","","null","","","learningBlock2","","","","<div style=""font-size:60px;""> </div>","null","LF","learning/Slide142.JPG","This is a wug:","","",""
"html-keyboard-response","433","1270805","0.0-7.0-0.62","LF","gqq2p40hu9","1536","864","0","1","0","5d41aa9ec61bc300012c73f6","","null","","","learningBlock2","","","","This is a bim:","null","","","","","",""
"image-keyboard-response","434","1271149","0.0-7.0-1.62","LF","gqq2p40hu9","1536","864","0","1","0","5d41aa9ec61bc300012c73f6","","null","","","","","","","learning/Slide143.JPG","null","","","","","",""
"html-keyboard-response","435","1272165","0.0-7.0-2.62","LF","gqq2p40hu9","1536","864","0","1","0","5d41aa9ec61bc300012c73f6","","null","","","learningBlock2","","","","<div style=""font-size:60px;""> </div>","null","LF","learning/Slide143.JPG","This is a bim:","","",""
"html-keyboard-response","436","1273176","0.0-7.0-0.63","LF","gqq2p40hu9","1536","864","0","1","0","5d41aa9ec61bc300012c73f6","","null","","","learningBlock2","","","","This is a dep:","null","","","","","",""
