"trial_type","trial_index","time_elapsed","internal_node_id","condition","subject","screen_width","screen_height","attention","distraction","conscientious","prolificID","success","rt","url","view_history","test_part","final_height_px","final_width_px","scale_factor","stimulus","key_press","learningType","presentedImage","presentedLabel","button_pressed","response","responses"
"pavlovia","0","27","0.0-0.0","LF","2n2kv71sum","1366","768","0","1","0","5e67d9ed33e6a60542f4dfd7","","","","","","","","","","","","","","","",""
"fullscreen","1","6334","0.0-1.0","LF","2n2kv71sum","1366","768","0","1","0","5e67d9ed33e6a60542f4dfd7","true","","","","","","","","","","","","","","",""
"external-html","2","35197","0.0-2.0-0.0","LF","2n2kv71sum","1366","768","0","1","0","5e67d9ed33e6a60542f4dfd7","","28566.780000022845","text/information_english.html","","","","","","","","","","","","",""
"external-html","3","63588","0.0-2.0-1.0","LF","2n2kv71sum","1366","768","0","1","0","5e67d9ed33e6a60542f4dfd7","","28070.295000012266","text/consent_english.html","","","","","","","","","","","","",""
"instructions","4","81291","0.0-3.0","LF","2n2kv71sum","1366","768","0","1","0","5e67d9ed33e6a60542f4dfd7","","NA","","[{""page_index"":0,""viewing_time"":2561.245000018971},{""page_index"":1,""viewing_time"":15135.74499997776}]","instructions","","","","","","","","","","",""
"resize","5","137229","0.0-4.0","LF","2n2kv71sum","1366","768","0","1","0","5e67d9ed33e6a60542f4dfd7","","","","","","","370","2.349206349206349","","","","","","","",""
"html-keyboard-response","6","138236","0.0-5.0-0.0","LF","2n2kv71sum","1366","768","0","1","0","5e67d9ed33e6a60542f4dfd7","","null","","","learningBlock1","","","","This is a tob:","null","","","","","",""
"image-keyboard-response","7","138565","0.0-5.0-1.0","LF","2n2kv71sum","1366","768","0","1","0","5e67d9ed33e6a60542f4dfd7","","null","","","","","","","learning/Slide1.JPG","null","","","","","",""
"html-keyboard-response","8","139567","0.0-5.0-2.0","LF","2n2kv71sum","1366","768","0","1","0","5e67d9ed33e6a60542f4dfd7","","null","","","learningBlock1","","","","<div style=""font-size:60px;""> </div>","null","LF","learning/Slide1.JPG","This is a tob:","","",""
"html-keyboard-response","9","140570","0.0-5.0-0.1","LF","2n2kv71sum","1366","768","0","1","0","5e67d9ed33e6a60542f4dfd7","","null","","","learningBlock1","","","","This is a wug:","null","","","","","",""
"image-keyboard-response","10","140899","0.0-5.0-1.1","LF","2n2kv71sum","1366","768","0","1","0","5e67d9ed33e6a60542f4dfd7","","null","","","","","","","learning/Slide2.JPG","null","","","","","",""
"html-keyboard-response","11","141903","0.0-5.0-2.1","LF","2n2kv71sum","1366","768","0","1","0","5e67d9ed33e6a60542f4dfd7","","null","","","learningBlock1","","","","<div style=""font-size:60px;""> </div>","null","LF","learning/Slide2.JPG","This is a wug:","","",""
"html-keyboard-response","12","142905","0.0-5.0-0.2","LF","2n2kv71sum","1366","768","0","1","0","5e67d9ed33e6a60542f4dfd7","","null","","","learningBlock1","","","","This is a bim:","null","","","","","",""
"image-keyboard-response","13","143234","0.0-5.0-1.2","LF","2n2kv71sum","1366","768","0","1","0","5e67d9ed33e6a60542f4dfd7","","null","","","","","","","learning/Slide3.JPG","null","","","","","",""
"html-keyboard-response","14","144238","0.0-5.0-2.2","LF","2n2kv71sum","1366","768","0","1","0","5e67d9ed33e6a60542f4dfd7","","null","","","learningBlock1","","","","<div style=""font-size:60px;""> </div>","null","LF","learning/Slide3.JPG","This is a bim:","","",""
"html-keyboard-response","15","145240","0.0-5.0-0.3","LF","2n2kv71sum","1366","768","0","1","0","5e67d9ed33e6a60542f4dfd7","","null","","","learningBlock1","","","","This is a dep:","null","","","","","",""
"image-keyboard-response","16","145568","0.0-5.0-1.3","LF","2n2kv71sum","1366","768","0","1","0","5e67d9ed33e6a60542f4dfd7","","null","","","","","","","learning/Slide4.JPG","null","","","","","",""
"html-keyboard-response","17","146573","0.0-5.0-2.3","LF","2n2kv71sum","1366","768","0","1","0","5e67d9ed33e6a60542f4dfd7","","null","","","learningBlock1","","","","<div style=""font-size:60px;""> </div>","null","LF","learning/Slide4.JPG","This is a dep:","","",""
"html-keyboard-response","18","147575","0.0-5.0-0.4","LF","2n2kv71sum","1366","768","0","1","0","5e67d9ed33e6a60542f4dfd7","","null","","","learningBlock1","","","","This is a wug:","null","","","","","",""
"image-keyboard-response","19","147904","0.0-5.0-1.4","LF","2n2kv71sum","1366","768","0","1","0","5e67d9ed33e6a60542f4dfd7","","null","","","","","","","learning/Slide5.JPG","null","","","","","",""
"html-keyboard-response","20","148908","0.0-5.0-2.4","LF","2n2kv71sum","1366","768","0","1","0","5e67d9ed33e6a60542f4dfd7","","null","","","learningBlock1","","","","<div style=""font-size:60px;""> </div>","null","LF","learning/Slide5.JPG","This is a wug:","","",""
"html-keyboard-response","21","149910","0.0-5.0-0.5","LF","2n2kv71sum","1366","768","0","1","0","5e67d9ed33e6a60542f4dfd7","","null","","","learningBlock1","","","","This is a dep:","null","","","","","",""
"image-keyboard-response","22","150239","0.0-5.0-1.5","LF","2n2kv71sum","1366","768","0","1","0","5e67d9ed33e6a60542f4dfd7","","null","","","","","","","learning/Slide6.JPG","null","","","","","",""
"html-keyboard-response","23","151242","0.0-5.0-2.5","LF","2n2kv71sum","1366","768","0","1","0","5e67d9ed33e6a60542f4dfd7","","null","","","learningBlock1","","","","<div style=""font-size:60px;""> </div>","null","LF","learning/Slide6.JPG","This is a dep:","","",""
"html-keyboard-response","24","152244","0.0-5.0-0.6","LF","2n2kv71sum","1366","768","0","1","0","5e67d9ed33e6a60542f4dfd7","","null","","","learningBlock1","","","","This is a wug:","null","","","","","",""
"image-keyboard-response","25","152572","0.0-5.0-1.6","LF","2n2kv71sum","1366","768","0","1","0","5e67d9ed33e6a60542f4dfd7","","null","","","","","","","learning/Slide7.JPG","null","","","","","",""
"html-keyboard-response","26","153575","0.0-5.0-2.6","LF","2n2kv71sum","1366","768","0","1","0","5e67d9ed33e6a60542f4dfd7","","null","","","learningBlock1","","","","<div style=""font-size:60px;""> </div>","null","LF","learning/Slide7.JPG","This is a wug:","","",""
"html-keyboard-response","27","154578","0.0-5.0-0.7","LF","2n2kv71sum","1366","768","0","1","0","5e67d9ed33e6a60542f4dfd7","","null","","","learningBlock1","","","","This is a bim:","null","","","","","",""
"image-keyboard-response","28","154907","0.0-5.0-1.7","LF","2n2kv71sum","1366","768","0","1","0","5e67d9ed33e6a60542f4dfd7","","null","","","","","","","learning/Slide8.JPG","null","","","","","",""
"html-keyboard-response","29","155910","0.0-5.0-2.7","LF","2n2kv71sum","1366","768","0","1","0","5e67d9ed33e6a60542f4dfd7","","null","","","learningBlock1","","","","<div style=""font-size:60px;""> </div>","null","LF","learning/Slide8.JPG","This is a bim:","","",""
"html-keyboard-response","30","156912","0.0-5.0-0.8","LF","2n2kv71sum","1366","768","0","1","0","5e67d9ed33e6a60542f4dfd7","","null","","","learningBlock1","","","","This is a wug:","null","","","","","",""
"image-keyboard-response","31","157240","0.0-5.0-1.8","LF","2n2kv71sum","1366","768","0","1","0","5e67d9ed33e6a60542f4dfd7","","null","","","","","","","learning/Slide9.JPG","null","","","","","",""
"html-keyboard-response","32","158243","0.0-5.0-2.8","LF","2n2kv71sum","1366","768","0","1","0","5e67d9ed33e6a60542f4dfd7","","null","","","learningBlock1","","","","<div style=""font-size:60px;""> </div>","null","LF","learning/Slide9.JPG","This is a wug:","","",""
"html-keyboard-response","33","159245","0.0-5.0-0.9","LF","2n2kv71sum","1366","768","0","1","0","5e67d9ed33e6a60542f4dfd7","","null","","","learningBlock1","","","","This is a dep:","null","","","","","",""
"image-keyboard-response","34","159573","0.0-5.0-1.9","LF","2n2kv71sum","1366","768","0","1","0","5e67d9ed33e6a60542f4dfd7","","null","","","","","","","learning/Slide10.JPG","null","","","","","",""
"html-keyboard-response","35","160576","0.0-5.0-2.9","LF","2n2kv71sum","1366","768","0","1","0","5e67d9ed33e6a60542f4dfd7","","null","","","learningBlock1","","","","<div style=""font-size:60px;""> </div>","null","LF","learning/Slide10.JPG","This is a dep:","","",""
"html-keyboard-response","36","161578","0.0-5.0-0.10","LF","2n2kv71sum","1366","768","0","1","0","5e67d9ed33e6a60542f4dfd7","","null","","","learningBlock1","","","","This is a tob:","null","","","","","",""
"image-keyboard-response","37","161907","0.0-5.0-1.10","LF","2n2kv71sum","1366","768","0","1","0","5e67d9ed33e6a60542f4dfd7","","null","","","","","","","learning/Slide11.JPG","null","","","","","",""
"html-keyboard-response","38","162910","0.0-5.0-2.10","LF","2n2kv71sum","1366","768","0","1","0","5e67d9ed33e6a60542f4dfd7","","null","","","learningBlock1","","","","<div style=""font-size:60px;""> </div>","null","LF","learning/Slide11.JPG","This is a tob:","","",""
"html-keyboard-response","39","163912","0.0-5.0-0.11","LF","2n2kv71sum","1366","768","0","1","0","5e67d9ed33e6a60542f4dfd7","","null","","","learningBlock1","","","","This is a dep:","null","","","","","",""
"image-keyboard-response","40","164241","0.0-5.0-1.11","LF","2n2kv71sum","1366","768","0","1","0","5e67d9ed33e6a60542f4dfd7","","null","","","","","","","learning/Slide12.JPG","null","","","","","",""
"html-keyboard-response","41","165246","0.0-5.0-2.11","LF","2n2kv71sum","1366","768","0","1","0","5e67d9ed33e6a60542f4dfd7","","null","","","learningBlock1","","","","<div style=""font-size:60px;""> </div>","null","LF","learning/Slide12.JPG","This is a dep:","","",""
"html-keyboard-response","42","166255","0.0-5.0-0.12","LF","2n2kv71sum","1366","768","0","1","0","5e67d9ed33e6a60542f4dfd7","","null","","","learningBlock1","","","","This is a bim:","null","","","","","",""
"image-keyboard-response","43","166583","0.0-5.0-1.12","LF","2n2kv71sum","1366","768","0","1","0","5e67d9ed33e6a60542f4dfd7","","null","","","","","","","learning/Slide13.JPG","null","","","","","",""
"html-keyboard-response","44","167586","0.0-5.0-2.12","LF","2n2kv71sum","1366","768","0","1","0","5e67d9ed33e6a60542f4dfd7","","null","","","learningBlock1","","","","<div style=""font-size:60px;""> </div>","null","LF","learning/Slide13.JPG","This is a bim:","","",""
"html-keyboard-response","45","168588","0.0-5.0-0.13","LF","2n2kv71sum","1366","768","0","1","0","5e67d9ed33e6a60542f4dfd7","","null","","","learningBlock1","","","","This is a wug:","null","","","","","",""
"image-keyboard-response","46","168916","0.0-5.0-1.13","LF","2n2kv71sum","1366","768","0","1","0","5e67d9ed33e6a60542f4dfd7","","null","","","","","","","learning/Slide14.JPG","null","","","","","",""
"html-keyboard-response","47","169920","0.0-5.0-2.13","LF","2n2kv71sum","1366","768","0","1","0","5e67d9ed33e6a60542f4dfd7","","null","","","learningBlock1","","","","<div style=""font-size:60px;""> </div>","null","LF","learning/Slide14.JPG","This is a wug:","","",""
"html-keyboard-response","48","170922","0.0-5.0-0.14","LF","2n2kv71sum","1366","768","0","1","0","5e67d9ed33e6a60542f4dfd7","","null","","","learningBlock1","","","","This is a tob:","null","","","","","",""
"image-keyboard-response","49","171251","0.0-5.0-1.14","LF","2n2kv71sum","1366","768","0","1","0","5e67d9ed33e6a60542f4dfd7","","null","","","","","","","learning/Slide15.JPG","null","","","","","",""
"html-keyboard-response","50","172254","0.0-5.0-2.14","LF","2n2kv71sum","1366","768","0","1","0","5e67d9ed33e6a60542f4dfd7","","null","","","learningBlock1","","","","<div style=""font-size:60px;""> </div>","null","LF","learning/Slide15.JPG","This is a tob:","","",""
"html-keyboard-response","51","173256","0.0-5.0-0.15","LF","2n2kv71sum","1366","768","0","1","0","5e67d9ed33e6a60542f4dfd7","","null","","","learningBlock1","","","","This is a dep:","null","","","","","",""
"image-keyboard-response","52","173585","0.0-5.0-1.15","LF","2n2kv71sum","1366","768","0","1","0","5e67d9ed33e6a60542f4dfd7","","null","","","","","","","learning/Slide16.JPG","null","","","","","",""
"html-keyboard-response","53","174588","0.0-5.0-2.15","LF","2n2kv71sum","1366","768","0","1","0","5e67d9ed33e6a60542f4dfd7","","null","","","learningBlock1","","","","<div style=""font-size:60px;""> </div>","null","LF","learning/Slide16.JPG","This is a dep:","","",""
"html-keyboard-response","54","175590","0.0-5.0-0.16","LF","2n2kv71sum","1366","768","0","1","0","5e67d9ed33e6a60542f4dfd7","","null","","","learningBlock1","","","","This is a bim:","null","","","","","",""
"image-keyboard-response","55","175919","0.0-5.0-1.16","LF","2n2kv71sum","1366","768","0","1","0","5e67d9ed33e6a60542f4dfd7","","null","","","","","","","learning/Slide17.JPG","null","","","","","",""
"html-keyboard-response","56","176922","0.0-5.0-2.16","LF","2n2kv71sum","1366","768","0","1","0","5e67d9ed33e6a60542f4dfd7","","null","","","learningBlock1","","","","<div style=""font-size:60px;""> </div>","null","LF","learning/Slide17.JPG","This is a bim:","","",""
"html-keyboard-response","57","177924","0.0-5.0-0.17","LF","2n2kv71sum","1366","768","0","1","0","5e67d9ed33e6a60542f4dfd7","","null","","","learningBlock1","","","","This is a tob:","null","","","","","",""
"image-keyboard-response","58","178253","0.0-5.0-1.17","LF","2n2kv71sum","1366","768","0","1","0","5e67d9ed33e6a60542f4dfd7","","null","","","","","","","learning/Slide18.JPG","null","","","","","",""
"html-keyboard-response","59","179256","0.0-5.0-2.17","LF","2n2kv71sum","1366","768","0","1","0","5e67d9ed33e6a60542f4dfd7","","null","","","learningBlock1","","","","<div style=""font-size:60px;""> </div>","null","LF","learning/Slide18.JPG","This is a tob:","","",""
"html-keyboard-response","60","180259","0.0-5.0-0.18","LF","2n2kv71sum","1366","768","0","1","0","5e67d9ed33e6a60542f4dfd7","","null","","","learningBlock1","","","","This is a wug:","null","","","","","",""
"image-keyboard-response","61","180588","0.0-5.0-1.18","LF","2n2kv71sum","1366","768","0","1","0","5e67d9ed33e6a60542f4dfd7","","null","","","","","","","learning/Slide19.JPG","null","","","","","",""
"html-keyboard-response","62","181590","0.0-5.0-2.18","LF","2n2kv71sum","1366","768","0","1","0","5e67d9ed33e6a60542f4dfd7","","null","","","learningBlock1","","","","<div style=""font-size:60px;""> </div>","null","LF","learning/Slide19.JPG","This is a wug:","","",""
"html-keyboard-response","63","182593","0.0-5.0-0.19","LF","2n2kv71sum","1366","768","0","1","0","5e67d9ed33e6a60542f4dfd7","","null","","","learningBlock1","","","","This is a bim:","null","","","","","",""
"image-keyboard-response","64","182920","0.0-5.0-1.19","LF","2n2kv71sum","1366","768","0","1","0","5e67d9ed33e6a60542f4dfd7","","null","","","","","","","learning/Slide20.JPG","null","","","","","",""
"html-keyboard-response","65","183922","0.0-5.0-2.19","LF","2n2kv71sum","1366","768","0","1","0","5e67d9ed33e6a60542f4dfd7","","null","","","learningBlock1","","","","<div style=""font-size:60px;""> </div>","null","LF","learning/Slide20.JPG","This is a bim:","","",""
"html-keyboard-response","66","184924","0.0-5.0-0.20","LF","2n2kv71sum","1366","768","0","1","0","5e67d9ed33e6a60542f4dfd7","","null","","","learningBlock1","","","","This is a dep:","null","","","","","",""
"image-keyboard-response","67","185252","0.0-5.0-1.20","LF","2n2kv71sum","1366","768","0","1","0","5e67d9ed33e6a60542f4dfd7","","null","","","","","","","learning/Slide21.JPG","null","","","","","",""
"html-keyboard-response","68","186255","0.0-5.0-2.20","LF","2n2kv71sum","1366","768","0","1","0","5e67d9ed33e6a60542f4dfd7","","null","","","learningBlock1","","","","<div style=""font-size:60px;""> </div>","null","LF","learning/Slide21.JPG","This is a dep:","","",""
"html-keyboard-response","69","187269","0.0-5.0-0.21","LF","2n2kv71sum","1366","768","0","1","0","5e67d9ed33e6a60542f4dfd7","","null","","","learningBlock1","","","","This is a bim:","null","","","","","",""
"image-keyboard-response","70","187598","0.0-5.0-1.21","LF","2n2kv71sum","1366","768","0","1","0","5e67d9ed33e6a60542f4dfd7","","null","","","","","","","learning/Slide22.JPG","null","","","","","",""
"html-keyboard-response","71","188601","0.0-5.0-2.21","LF","2n2kv71sum","1366","768","0","1","0","5e67d9ed33e6a60542f4dfd7","","null","","","learningBlock1","","","","<div style=""font-size:60px;""> </div>","null","LF","learning/Slide22.JPG","This is a bim:","","",""
"html-keyboard-response","72","189603","0.0-5.0-0.22","LF","2n2kv71sum","1366","768","0","1","0","5e67d9ed33e6a60542f4dfd7","","null","","","learningBlock1","","","","This is a tob:","null","","","","","",""
"image-keyboard-response","73","189932","0.0-5.0-1.22","LF","2n2kv71sum","1366","768","0","1","0","5e67d9ed33e6a60542f4dfd7","","null","","","","","","","learning/Slide23.JPG","null","","","","","",""
"html-keyboard-response","74","190936","0.0-5.0-2.22","LF","2n2kv71sum","1366","768","0","1","0","5e67d9ed33e6a60542f4dfd7","","null","","","learningBlock1","","","","<div style=""font-size:60px;""> </div>","null","LF","learning/Slide23.JPG","This is a tob:","","",""
"html-keyboard-response","75","191937","0.0-5.0-0.23","LF","2n2kv71sum","1366","768","0","1","0","5e67d9ed33e6a60542f4dfd7","","null","","","learningBlock1","","","","This is a wug:","null","","","","","",""
"image-keyboard-response","76","192265","0.0-5.0-1.23","LF","2n2kv71sum","1366","768","0","1","0","5e67d9ed33e6a60542f4dfd7","","null","","","","","","","learning/Slide24.JPG","null","","","","","",""
"html-keyboard-response","77","193268","0.0-5.0-2.23","LF","2n2kv71sum","1366","768","0","1","0","5e67d9ed33e6a60542f4dfd7","","null","","","learningBlock1","","","","<div style=""font-size:60px;""> </div>","null","LF","learning/Slide24.JPG","This is a wug:","","",""
"html-keyboard-response","78","194274","0.0-5.0-0.24","LF","2n2kv71sum","1366","768","0","1","0","5e67d9ed33e6a60542f4dfd7","","null","","","learningBlock1","","","","This is a dep:","null","","","","","",""
"image-keyboard-response","79","194602","0.0-5.0-1.24","LF","2n2kv71sum","1366","768","0","1","0","5e67d9ed33e6a60542f4dfd7","","null","","","","","","","learning/Slide25.JPG","null","","","","","",""
"html-keyboard-response","80","195605","0.0-5.0-2.24","LF","2n2kv71sum","1366","768","0","1","0","5e67d9ed33e6a60542f4dfd7","","null","","","learningBlock1","","","","<div style=""font-size:60px;""> </div>","null","LF","learning/Slide25.JPG","This is a dep:","","",""
"html-keyboard-response","81","196607","0.0-5.0-0.25","LF","2n2kv71sum","1366","768","0","1","0","5e67d9ed33e6a60542f4dfd7","","null","","","learningBlock1","","","","This is a wug:","null","","","","","",""
"image-keyboard-response","82","196935","0.0-5.0-1.25","LF","2n2kv71sum","1366","768","0","1","0","5e67d9ed33e6a60542f4dfd7","","null","","","","","","","learning/Slide26.JPG","null","","","","","",""
"html-keyboard-response","83","197938","0.0-5.0-2.25","LF","2n2kv71sum","1366","768","0","1","0","5e67d9ed33e6a60542f4dfd7","","null","","","learningBlock1","","","","<div style=""font-size:60px;""> </div>","null","LF","learning/Slide26.JPG","This is a wug:","","",""
"html-keyboard-response","84","198940","0.0-5.0-0.26","LF","2n2kv71sum","1366","768","0","1","0","5e67d9ed33e6a60542f4dfd7","","null","","","learningBlock1","","","","This is a bim:","null","","","","","",""
"image-keyboard-response","85","199268","0.0-5.0-1.26","LF","2n2kv71sum","1366","768","0","1","0","5e67d9ed33e6a60542f4dfd7","","null","","","","","","","learning/Slide27.JPG","null","","","","","",""
"html-keyboard-response","86","200270","0.0-5.0-2.26","LF","2n2kv71sum","1366","768","0","1","0","5e67d9ed33e6a60542f4dfd7","","null","","","learningBlock1","","","","<div style=""font-size:60px;""> </div>","null","LF","learning/Slide27.JPG","This is a bim:","","",""
"html-keyboard-response","87","201273","0.0-5.0-0.27","LF","2n2kv71sum","1366","768","0","1","0","5e67d9ed33e6a60542f4dfd7","","null","","","learningBlock1","","","","This is a dep:","null","","","","","",""
"image-keyboard-response","88","201601","0.0-5.0-1.27","LF","2n2kv71sum","1366","768","0","1","0","5e67d9ed33e6a60542f4dfd7","","null","","","","","","","learning/Slide28.JPG","null","","","","","",""
"html-keyboard-response","89","202605","0.0-5.0-2.27","LF","2n2kv71sum","1366","768","0","1","0","5e67d9ed33e6a60542f4dfd7","","null","","","learningBlock1","","","","<div style=""font-size:60px;""> </div>","null","LF","learning/Slide28.JPG","This is a dep:","","",""
"html-keyboard-response","90","203607","0.0-5.0-0.28","LF","2n2kv71sum","1366","768","0","1","0","5e67d9ed33e6a60542f4dfd7","","null","","","learningBlock1","","","","This is a tob:","null","","","","","",""
"image-keyboard-response","91","203934","0.0-5.0-1.28","LF","2n2kv71sum","1366","768","0","1","0","5e67d9ed33e6a60542f4dfd7","","null","","","","","","","learning/Slide29.JPG","null","","","","","",""
"html-keyboard-response","92","204938","0.0-5.0-2.28","LF","2n2kv71sum","1366","768","0","1","0","5e67d9ed33e6a60542f4dfd7","","null","","","learningBlock1","","","","<div style=""font-size:60px;""> </div>","null","LF","learning/Slide29.JPG","This is a tob:","","",""
"html-keyboard-response","93","205940","0.0-5.0-0.29","LF","2n2kv71sum","1366","768","0","1","0","5e67d9ed33e6a60542f4dfd7","","null","","","learningBlock1","","","","This is a dep:","null","","","","","",""
"image-keyboard-response","94","206268","0.0-5.0-1.29","LF","2n2kv71sum","1366","768","0","1","0","5e67d9ed33e6a60542f4dfd7","","null","","","","","","","learning/Slide30.JPG","null","","","","","",""
"html-keyboard-response","95","207271","0.0-5.0-2.29","LF","2n2kv71sum","1366","768","0","1","0","5e67d9ed33e6a60542f4dfd7","","null","","","learningBlock1","","","","<div style=""font-size:60px;""> </div>","null","LF","learning/Slide30.JPG","This is a dep:","","",""
"html-keyboard-response","96","208273","0.0-5.0-0.30","LF","2n2kv71sum","1366","768","0","1","0","5e67d9ed33e6a60542f4dfd7","","null","","","learningBlock1","","","","This is a wug:","null","","","","","",""
"image-keyboard-response","97","208601","0.0-5.0-1.30","LF","2n2kv71sum","1366","768","0","1","0","5e67d9ed33e6a60542f4dfd7","","null","","","","","","","learning/Slide31.JPG","null","","","","","",""
"html-keyboard-response","98","209604","0.0-5.0-2.30","LF","2n2kv71sum","1366","768","0","1","0","5e67d9ed33e6a60542f4dfd7","","null","","","learningBlock1","","","","<div style=""font-size:60px;""> </div>","null","LF","learning/Slide31.JPG","This is a wug:","","",""
"html-keyboard-response","99","210606","0.0-5.0-0.31","LF","2n2kv71sum","1366","768","0","1","0","5e67d9ed33e6a60542f4dfd7","","null","","","learningBlock1","","","","This is a tob:","null","","","","","",""
"image-keyboard-response","100","210934","0.0-5.0-1.31","LF","2n2kv71sum","1366","768","0","1","0","5e67d9ed33e6a60542f4dfd7","","null","","","","","","","learning/Slide32.JPG","null","","","","","",""
"html-keyboard-response","101","211937","0.0-5.0-2.31","LF","2n2kv71sum","1366","768","0","1","0","5e67d9ed33e6a60542f4dfd7","","null","","","learningBlock1","","","","<div style=""font-size:60px;""> </div>","null","LF","learning/Slide32.JPG","This is a tob:","","",""
"html-keyboard-response","102","212939","0.0-5.0-0.32","LF","2n2kv71sum","1366","768","0","1","0","5e67d9ed33e6a60542f4dfd7","","null","","","learningBlock1","","","","This is a bim:","null","","","","","",""
"image-keyboard-response","103","213266","0.0-5.0-1.32","LF","2n2kv71sum","1366","768","0","1","0","5e67d9ed33e6a60542f4dfd7","","null","","","","","","","learning/Slide33.JPG","null","","","","","",""
"html-keyboard-response","104","214267","0.0-5.0-2.32","LF","2n2kv71sum","1366","768","0","1","0","5e67d9ed33e6a60542f4dfd7","","null","","","learningBlock1","","","","<div style=""font-size:60px;""> </div>","null","LF","learning/Slide33.JPG","This is a bim:","","",""
"html-keyboard-response","105","215269","0.0-5.0-0.33","LF","2n2kv71sum","1366","768","0","1","0","5e67d9ed33e6a60542f4dfd7","","null","","","learningBlock1","","","","This is a tob:","null","","","","","",""
"image-keyboard-response","106","215597","0.0-5.0-1.33","LF","2n2kv71sum","1366","768","0","1","0","5e67d9ed33e6a60542f4dfd7","","null","","","","","","","learning/Slide34.JPG","null","","","","","",""
"html-keyboard-response","107","216600","0.0-5.0-2.33","LF","2n2kv71sum","1366","768","0","1","0","5e67d9ed33e6a60542f4dfd7","","null","","","learningBlock1","","","","<div style=""font-size:60px;""> </div>","null","LF","learning/Slide34.JPG","This is a tob:","","",""
"html-keyboard-response","108","217602","0.0-5.0-0.34","LF","2n2kv71sum","1366","768","0","1","0","5e67d9ed33e6a60542f4dfd7","","null","","","learningBlock1","","","","This is a bim:","null","","","","","",""
"image-keyboard-response","109","217930","0.0-5.0-1.34","LF","2n2kv71sum","1366","768","0","1","0","5e67d9ed33e6a60542f4dfd7","","null","","","","","","","learning/Slide35.JPG","null","","","","","",""
"html-keyboard-response","110","218933","0.0-5.0-2.34","LF","2n2kv71sum","1366","768","0","1","0","5e67d9ed33e6a60542f4dfd7","","null","","","learningBlock1","","","","<div style=""font-size:60px;""> </div>","null","LF","learning/Slide35.JPG","This is a bim:","","",""
"html-keyboard-response","111","219935","0.0-5.0-0.35","LF","2n2kv71sum","1366","768","0","1","0","5e67d9ed33e6a60542f4dfd7","","null","","","learningBlock1","","","","This is a dep:","null","","","","","",""
"image-keyboard-response","112","220263","0.0-5.0-1.35","LF","2n2kv71sum","1366","768","0","1","0","5e67d9ed33e6a60542f4dfd7","","null","","","","","","","learning/Slide36.JPG","null","","","","","",""
"html-keyboard-response","113","221266","0.0-5.0-2.35","LF","2n2kv71sum","1366","768","0","1","0","5e67d9ed33e6a60542f4dfd7","","null","","","learningBlock1","","","","<div style=""font-size:60px;""> </div>","null","LF","learning/Slide36.JPG","This is a dep:","","",""
"html-keyboard-response","114","222269","0.0-5.0-0.36","LF","2n2kv71sum","1366","768","0","1","0","5e67d9ed33e6a60542f4dfd7","","null","","","learningBlock1","","","","This is a tob:","null","","","","","",""
"image-keyboard-response","115","222600","0.0-5.0-1.36","LF","2n2kv71sum","1366","768","0","1","0","5e67d9ed33e6a60542f4dfd7","","null","","","","","","","learning/Slide37.JPG","null","","","","","",""
"html-keyboard-response","116","223603","0.0-5.0-2.36","LF","2n2kv71sum","1366","768","0","1","0","5e67d9ed33e6a60542f4dfd7","","null","","","learningBlock1","","","","<div style=""font-size:60px;""> </div>","null","LF","learning/Slide37.JPG","This is a tob:","","",""
"html-keyboard-response","117","224605","0.0-5.0-0.37","LF","2n2kv71sum","1366","768","0","1","0","5e67d9ed33e6a60542f4dfd7","","null","","","learningBlock1","","","","This is a wug:","null","","","","","",""
"image-keyboard-response","118","224934","0.0-5.0-1.37","LF","2n2kv71sum","1366","768","0","1","0","5e67d9ed33e6a60542f4dfd7","","null","","","","","","","learning/Slide38.JPG","null","","","","","",""
"html-keyboard-response","119","225937","0.0-5.0-2.37","LF","2n2kv71sum","1366","768","0","1","0","5e67d9ed33e6a60542f4dfd7","","null","","","learningBlock1","","","","<div style=""font-size:60px;""> </div>","null","LF","learning/Slide38.JPG","This is a wug:","","",""
"html-keyboard-response","120","226939","0.0-5.0-0.38","LF","2n2kv71sum","1366","768","0","1","0","5e67d9ed33e6a60542f4dfd7","","null","","","learningBlock1","","","","This is a bim:","null","","","","","",""
"image-keyboard-response","121","227267","0.0-5.0-1.38","LF","2n2kv71sum","1366","768","0","1","0","5e67d9ed33e6a60542f4dfd7","","null","","","","","","","learning/Slide39.JPG","null","","","","","",""
"html-keyboard-response","122","228270","0.0-5.0-2.38","LF","2n2kv71sum","1366","768","0","1","0","5e67d9ed33e6a60542f4dfd7","","null","","","learningBlock1","","","","<div style=""font-size:60px;""> </div>","null","LF","learning/Slide39.JPG","This is a bim:","","",""
"html-keyboard-response","123","229272","0.0-5.0-0.39","LF","2n2kv71sum","1366","768","0","1","0","5e67d9ed33e6a60542f4dfd7","","null","","","learningBlock1","","","","This is a tob:","null","","","","","",""
"image-keyboard-response","124","229599","0.0-5.0-1.39","LF","2n2kv71sum","1366","768","0","1","0","5e67d9ed33e6a60542f4dfd7","","null","","","","","","","learning/Slide40.JPG","null","","","","","",""
"html-keyboard-response","125","230602","0.0-5.0-2.39","LF","2n2kv71sum","1366","768","0","1","0","5e67d9ed33e6a60542f4dfd7","","null","","","learningBlock1","","","","<div style=""font-size:60px;""> </div>","null","LF","learning/Slide40.JPG","This is a tob:","","",""
"html-keyboard-response","126","231606","0.0-5.0-0.40","LF","2n2kv71sum","1366","768","0","1","0","5e67d9ed33e6a60542f4dfd7","","null","","","learningBlock1","","","","This is a bim:","null","","","","","",""
"image-keyboard-response","127","231934","0.0-5.0-1.40","LF","2n2kv71sum","1366","768","0","1","0","5e67d9ed33e6a60542f4dfd7","","null","","","","","","","learning/Slide41.JPG","null","","","","","",""
"html-keyboard-response","128","232937","0.0-5.0-2.40","LF","2n2kv71sum","1366","768","0","1","0","5e67d9ed33e6a60542f4dfd7","","null","","","learningBlock1","","","","<div style=""font-size:60px;""> </div>","null","LF","learning/Slide41.JPG","This is a bim:","","",""
"html-keyboard-response","129","233939","0.0-5.0-0.41","LF","2n2kv71sum","1366","768","0","1","0","5e67d9ed33e6a60542f4dfd7","","null","","","learningBlock1","","","","This is a dep:","null","","","","","",""
"image-keyboard-response","130","234267","0.0-5.0-1.41","LF","2n2kv71sum","1366","768","0","1","0","5e67d9ed33e6a60542f4dfd7","","null","","","","","","","learning/Slide42.JPG","null","","","","","",""
"html-keyboard-response","131","235270","0.0-5.0-2.41","LF","2n2kv71sum","1366","768","0","1","0","5e67d9ed33e6a60542f4dfd7","","null","","","learningBlock1","","","","<div style=""font-size:60px;""> </div>","null","LF","learning/Slide42.JPG","This is a dep:","","",""
"html-keyboard-response","132","236272","0.0-5.0-0.42","LF","2n2kv71sum","1366","768","0","1","0","5e67d9ed33e6a60542f4dfd7","","null","","","learningBlock1","","","","This is a wug:","null","","","","","",""
"image-keyboard-response","133","236600","0.0-5.0-1.42","LF","2n2kv71sum","1366","768","0","1","0","5e67d9ed33e6a60542f4dfd7","","null","","","","","","","learning/Slide43.JPG","null","","","","","",""
"html-keyboard-response","134","237603","0.0-5.0-2.42","LF","2n2kv71sum","1366","768","0","1","0","5e67d9ed33e6a60542f4dfd7","","null","","","learningBlock1","","","","<div style=""font-size:60px;""> </div>","null","LF","learning/Slide43.JPG","This is a wug:","","",""
"html-keyboard-response","135","238605","0.0-5.0-0.43","LF","2n2kv71sum","1366","768","0","1","0","5e67d9ed33e6a60542f4dfd7","","null","","","learningBlock1","","","","This is a bim:","null","","","","","",""
"image-keyboard-response","136","238933","0.0-5.0-1.43","LF","2n2kv71sum","1366","768","0","1","0","5e67d9ed33e6a60542f4dfd7","","null","","","","","","","learning/Slide44.JPG","null","","","","","",""
"html-keyboard-response","137","239936","0.0-5.0-2.43","LF","2n2kv71sum","1366","768","0","1","0","5e67d9ed33e6a60542f4dfd7","","null","","","learningBlock1","","","","<div style=""font-size:60px;""> </div>","null","LF","learning/Slide44.JPG","This is a bim:","","",""
"html-keyboard-response","138","240939","0.0-5.0-0.44","LF","2n2kv71sum","1366","768","0","1","0","5e67d9ed33e6a60542f4dfd7","","null","","","learningBlock1","","","","This is a wug:","null","","","","","",""
"image-keyboard-response","139","241267","0.0-5.0-1.44","LF","2n2kv71sum","1366","768","0","1","0","5e67d9ed33e6a60542f4dfd7","","null","","","","","","","learning/Slide45.JPG","null","","","","","",""
"html-keyboard-response","140","242270","0.0-5.0-2.44","LF","2n2kv71sum","1366","768","0","1","0","5e67d9ed33e6a60542f4dfd7","","null","","","learningBlock1","","","","<div style=""font-size:60px;""> </div>","null","LF","learning/Slide45.JPG","This is a wug:","","",""
"html-keyboard-response","141","243273","0.0-5.0-0.45","LF","2n2kv71sum","1366","768","0","1","0","5e67d9ed33e6a60542f4dfd7","","null","","","learningBlock1","","","","This is a dep:","null","","","","","",""
"image-keyboard-response","142","243600","0.0-5.0-1.45","LF","2n2kv71sum","1366","768","0","1","0","5e67d9ed33e6a60542f4dfd7","","null","","","","","","","learning/Slide46.JPG","null","","","","","",""
"html-keyboard-response","143","244603","0.0-5.0-2.45","LF","2n2kv71sum","1366","768","0","1","0","5e67d9ed33e6a60542f4dfd7","","null","","","learningBlock1","","","","<div style=""font-size:60px;""> </div>","null","LF","learning/Slide46.JPG","This is a dep:","","",""
"html-keyboard-response","144","245605","0.0-5.0-0.46","LF","2n2kv71sum","1366","768","0","1","0","5e67d9ed33e6a60542f4dfd7","","null","","","learningBlock1","","","","This is a tob:","null","","","","","",""
"image-keyboard-response","145","245933","0.0-5.0-1.46","LF","2n2kv71sum","1366","768","0","1","0","5e67d9ed33e6a60542f4dfd7","","null","","","","","","","learning/Slide47.JPG","null","","","","","",""
"html-keyboard-response","146","246937","0.0-5.0-2.46","LF","2n2kv71sum","1366","768","0","1","0","5e67d9ed33e6a60542f4dfd7","","null","","","learningBlock1","","","","<div style=""font-size:60px;""> </div>","null","LF","learning/Slide47.JPG","This is a tob:","","",""
"html-keyboard-response","147","247938","0.0-5.0-0.47","LF","2n2kv71sum","1366","768","0","1","0","5e67d9ed33e6a60542f4dfd7","","null","","","learningBlock1","","","","This is a bim:","null","","","","","",""
"image-keyboard-response","148","248267","0.0-5.0-1.47","LF","2n2kv71sum","1366","768","0","1","0","5e67d9ed33e6a60542f4dfd7","","null","","","","","","","learning/Slide48.JPG","null","","","","","",""
"html-keyboard-response","149","249270","0.0-5.0-2.47","LF","2n2kv71sum","1366","768","0","1","0","5e67d9ed33e6a60542f4dfd7","","null","","","learningBlock1","","","","<div style=""font-size:60px;""> </div>","null","LF","learning/Slide48.JPG","This is a bim:","","",""
"html-keyboard-response","150","250272","0.0-5.0-0.48","LF","2n2kv71sum","1366","768","0","1","0","5e67d9ed33e6a60542f4dfd7","","null","","","learningBlock1","","","","This is a dep:","null","","","","","",""
"image-keyboard-response","151","250600","0.0-5.0-1.48","LF","2n2kv71sum","1366","768","0","1","0","5e67d9ed33e6a60542f4dfd7","","null","","","","","","","learning/Slide49.JPG","null","","","","","",""
"html-keyboard-response","152","251603","0.0-5.0-2.48","LF","2n2kv71sum","1366","768","0","1","0","5e67d9ed33e6a60542f4dfd7","","null","","","learningBlock1","","","","<div style=""font-size:60px;""> </div>","null","LF","learning/Slide49.JPG","This is a dep:","","",""
"html-keyboard-response","153","252605","0.0-5.0-0.49","LF","2n2kv71sum","1366","768","0","1","0","5e67d9ed33e6a60542f4dfd7","","null","","","learningBlock1","","","","This is a tob:","null","","","","","",""
"image-keyboard-response","154","252934","0.0-5.0-1.49","LF","2n2kv71sum","1366","768","0","1","0","5e67d9ed33e6a60542f4dfd7","","null","","","","","","","learning/Slide50.JPG","null","","","","","",""
"html-keyboard-response","155","253937","0.0-5.0-2.49","LF","2n2kv71sum","1366","768","0","1","0","5e67d9ed33e6a60542f4dfd7","","null","","","learningBlock1","","","","<div style=""font-size:60px;""> </div>","null","LF","learning/Slide50.JPG","This is a tob:","","",""
"html-keyboard-response","156","254939","0.0-5.0-0.50","LF","2n2kv71sum","1366","768","0","1","0","5e67d9ed33e6a60542f4dfd7","","null","","","learningBlock1","","","","This is a bim:","null","","","","","",""
"image-keyboard-response","157","255267","0.0-5.0-1.50","LF","2n2kv71sum","1366","768","0","1","0","5e67d9ed33e6a60542f4dfd7","","null","","","","","","","learning/Slide51.JPG","null","","","","","",""
"html-keyboard-response","158","256270","0.0-5.0-2.50","LF","2n2kv71sum","1366","768","0","1","0","5e67d9ed33e6a60542f4dfd7","","null","","","learningBlock1","","","","<div style=""font-size:60px;""> </div>","null","LF","learning/Slide51.JPG","This is a bim:","","",""
"html-keyboard-response","159","257272","0.0-5.0-0.51","LF","2n2kv71sum","1366","768","0","1","0","5e67d9ed33e6a60542f4dfd7","","null","","","learningBlock1","","","","This is a wug:","null","","","","","",""
"image-keyboard-response","160","257600","0.0-5.0-1.51","LF","2n2kv71sum","1366","768","0","1","0","5e67d9ed33e6a60542f4dfd7","","null","","","","","","","learning/Slide52.JPG","null","","","","","",""
"html-keyboard-response","161","258603","0.0-5.0-2.51","LF","2n2kv71sum","1366","768","0","1","0","5e67d9ed33e6a60542f4dfd7","","null","","","learningBlock1","","","","<div style=""font-size:60px;""> </div>","null","LF","learning/Slide52.JPG","This is a wug:","","",""
"html-keyboard-response","162","259605","0.0-5.0-0.52","LF","2n2kv71sum","1366","768","0","1","0","5e67d9ed33e6a60542f4dfd7","","null","","","learningBlock1","","","","This is a tob:","null","","","","","",""
"image-keyboard-response","163","259935","0.0-5.0-1.52","LF","2n2kv71sum","1366","768","0","1","0","5e67d9ed33e6a60542f4dfd7","","null","","","","","","","learning/Slide53.JPG","null","","","","","",""
"html-keyboard-response","164","260937","0.0-5.0-2.52","LF","2n2kv71sum","1366","768","0","1","0","5e67d9ed33e6a60542f4dfd7","","null","","","learningBlock1","","","","<div style=""font-size:60px;""> </div>","null","LF","learning/Slide53.JPG","This is a tob:","","",""
"html-keyboard-response","165","261939","0.0-5.0-0.53","LF","2n2kv71sum","1366","768","0","1","0","5e67d9ed33e6a60542f4dfd7","","null","","","learningBlock1","","","","This is a dep:","null","","","","","",""
"image-keyboard-response","166","262268","0.0-5.0-1.53","LF","2n2kv71sum","1366","768","0","1","0","5e67d9ed33e6a60542f4dfd7","","null","","","","","","","learning/Slide54.JPG","null","","","","","",""
"html-keyboard-response","167","263270","0.0-5.0-2.53","LF","2n2kv71sum","1366","768","0","1","0","5e67d9ed33e6a60542f4dfd7","","null","","","learningBlock1","","","","<div style=""font-size:60px;""> </div>","null","LF","learning/Slide54.JPG","This is a dep:","","",""
"html-keyboard-response","168","264272","0.0-5.0-0.54","LF","2n2kv71sum","1366","768","0","1","0","5e67d9ed33e6a60542f4dfd7","","null","","","learningBlock1","","","","This is a bim:","null","","","","","",""
"image-keyboard-response","169","264599","0.0-5.0-1.54","LF","2n2kv71sum","1366","768","0","1","0","5e67d9ed33e6a60542f4dfd7","","null","","","","","","","learning/Slide55.JPG","null","","","","","",""
"html-keyboard-response","170","265604","0.0-5.0-2.54","LF","2n2kv71sum","1366","768","0","1","0","5e67d9ed33e6a60542f4dfd7","","null","","","learningBlock1","","","","<div style=""font-size:60px;""> </div>","null","LF","learning/Slide55.JPG","This is a bim:","","",""
"html-keyboard-response","171","266609","0.0-5.0-0.55","LF","2n2kv71sum","1366","768","0","1","0","5e67d9ed33e6a60542f4dfd7","","null","","","learningBlock1","","","","This is a tob:","null","","","","","",""
"image-keyboard-response","172","266937","0.0-5.0-1.55","LF","2n2kv71sum","1366","768","0","1","0","5e67d9ed33e6a60542f4dfd7","","null","","","","","","","learning/Slide56.JPG","null","","","","","",""
"html-keyboard-response","173","267942","0.0-5.0-2.55","LF","2n2kv71sum","1366","768","0","1","0","5e67d9ed33e6a60542f4dfd7","","null","","","learningBlock1","","","","<div style=""font-size:60px;""> </div>","null","LF","learning/Slide56.JPG","This is a tob:","","",""
"html-keyboard-response","174","268944","0.0-5.0-0.56","LF","2n2kv71sum","1366","768","0","1","0","5e67d9ed33e6a60542f4dfd7","","null","","","learningBlock1","","","","This is a dep:","null","","","","","",""
"image-keyboard-response","175","269271","0.0-5.0-1.56","LF","2n2kv71sum","1366","768","0","1","0","5e67d9ed33e6a60542f4dfd7","","null","","","","","","","learning/Slide57.JPG","null","","","","","",""
"html-keyboard-response","176","270275","0.0-5.0-2.56","LF","2n2kv71sum","1366","768","0","1","0","5e67d9ed33e6a60542f4dfd7","","null","","","learningBlock1","","","","<div style=""font-size:60px;""> </div>","null","LF","learning/Slide57.JPG","This is a dep:","","",""
"html-keyboard-response","177","271277","0.0-5.0-0.57","LF","2n2kv71sum","1366","768","0","1","0","5e67d9ed33e6a60542f4dfd7","","null","","","learningBlock1","","","","This is a wug:","null","","","","","",""
"image-keyboard-response","178","271604","0.0-5.0-1.57","LF","2n2kv71sum","1366","768","0","1","0","5e67d9ed33e6a60542f4dfd7","","null","","","","","","","learning/Slide58.JPG","null","","","","","",""
"html-keyboard-response","179","272607","0.0-5.0-2.57","LF","2n2kv71sum","1366","768","0","1","0","5e67d9ed33e6a60542f4dfd7","","null","","","learningBlock1","","","","<div style=""font-size:60px;""> </div>","null","LF","learning/Slide58.JPG","This is a wug:","","",""
"html-keyboard-response","180","273616","0.0-5.0-0.58","LF","2n2kv71sum","1366","768","0","1","0","5e67d9ed33e6a60542f4dfd7","","null","","","learningBlock1","","","","This is a dep:","null","","","","","",""
"image-keyboard-response","181","273945","0.0-5.0-1.58","LF","2n2kv71sum","1366","768","0","1","0","5e67d9ed33e6a60542f4dfd7","","null","","","","","","","learning/Slide59.JPG","null","","","","","",""
"html-keyboard-response","182","274948","0.0-5.0-2.58","LF","2n2kv71sum","1366","768","0","1","0","5e67d9ed33e6a60542f4dfd7","","null","","","learningBlock1","","","","<div style=""font-size:60px;""> </div>","null","LF","learning/Slide59.JPG","This is a dep:","","",""
"html-keyboard-response","183","275950","0.0-5.0-0.59","LF","2n2kv71sum","1366","768","0","1","0","5e67d9ed33e6a60542f4dfd7","","null","","","learningBlock1","","","","This is a wug:","null","","","","","",""
"image-keyboard-response","184","276278","0.0-5.0-1.59","LF","2n2kv71sum","1366","768","0","1","0","5e67d9ed33e6a60542f4dfd7","","null","","","","","","","learning/Slide60.JPG","null","","","","","",""
"html-keyboard-response","185","277281","0.0-5.0-2.59","LF","2n2kv71sum","1366","768","0","1","0","5e67d9ed33e6a60542f4dfd7","","null","","","learningBlock1","","","","<div style=""font-size:60px;""> </div>","null","LF","learning/Slide60.JPG","This is a wug:","","",""
"html-keyboard-response","186","278283","0.0-5.0-0.60","LF","2n2kv71sum","1366","768","0","1","0","5e67d9ed33e6a60542f4dfd7","","null","","","learningBlock1","","","","This is a bim:","null","","","","","",""
"image-keyboard-response","187","278611","0.0-5.0-1.60","LF","2n2kv71sum","1366","768","0","1","0","5e67d9ed33e6a60542f4dfd7","","null","","","","","","","learning/Slide61.JPG","null","","","","","",""
"html-keyboard-response","188","279614","0.0-5.0-2.60","LF","2n2kv71sum","1366","768","0","1","0","5e67d9ed33e6a60542f4dfd7","","null","","","learningBlock1","","","","<div style=""font-size:60px;""> </div>","null","LF","learning/Slide61.JPG","This is a bim:","","",""
"html-keyboard-response","189","280616","0.0-5.0-0.61","LF","2n2kv71sum","1366","768","0","1","0","5e67d9ed33e6a60542f4dfd7","","null","","","learningBlock1","","","","This is a dep:","null","","","","","",""
"image-keyboard-response","190","280944","0.0-5.0-1.61","LF","2n2kv71sum","1366","768","0","1","0","5e67d9ed33e6a60542f4dfd7","","null","","","","","","","learning/Slide62.JPG","null","","","","","",""
"html-keyboard-response","191","281947","0.0-5.0-2.61","LF","2n2kv71sum","1366","768","0","1","0","5e67d9ed33e6a60542f4dfd7","","null","","","learningBlock1","","","","<div style=""font-size:60px;""> </div>","null","LF","learning/Slide62.JPG","This is a dep:","","",""
"html-keyboard-response","192","282949","0.0-5.0-0.62","LF","2n2kv71sum","1366","768","0","1","0","5e67d9ed33e6a60542f4dfd7","","null","","","learningBlock1","","","","This is a bim:","null","","","","","",""
"image-keyboard-response","193","283277","0.0-5.0-1.62","LF","2n2kv71sum","1366","768","0","1","0","5e67d9ed33e6a60542f4dfd7","","null","","","","","","","learning/Slide63.JPG","null","","","","","",""
"html-keyboard-response","194","284280","0.0-5.0-2.62","LF","2n2kv71sum","1366","768","0","1","0","5e67d9ed33e6a60542f4dfd7","","null","","","learningBlock1","","","","<div style=""font-size:60px;""> </div>","null","LF","learning/Slide63.JPG","This is a bim:","","",""
"html-keyboard-response","195","285282","0.0-5.0-0.63","LF","2n2kv71sum","1366","768","0","1","0","5e67d9ed33e6a60542f4dfd7","","null","","","learningBlock1","","","","This is a tob:","null","","","","","",""
"image-keyboard-response","196","285610","0.0-5.0-1.63","LF","2n2kv71sum","1366","768","0","1","0","5e67d9ed33e6a60542f4dfd7","","null","","","","","","","learning/Slide64.JPG","null","","","","","",""
"html-keyboard-response","197","286613","0.0-5.0-2.63","LF","2n2kv71sum","1366","768","0","1","0","5e67d9ed33e6a60542f4dfd7","","null","","","learningBlock1","","","","<div style=""font-size:60px;""> </div>","null","LF","learning/Slide64.JPG","This is a tob:","","",""
"html-keyboard-response","198","287615","0.0-5.0-0.64","LF","2n2kv71sum","1366","768","0","1","0","5e67d9ed33e6a60542f4dfd7","","null","","","learningBlock1","","","","This is a wug:","null","","","","","",""
"image-keyboard-response","199","287943","0.0-5.0-1.64","LF","2n2kv71sum","1366","768","0","1","0","5e67d9ed33e6a60542f4dfd7","","null","","","","","","","learning/Slide65.JPG","null","","","","","",""
"html-keyboard-response","200","288947","0.0-5.0-2.64","LF","2n2kv71sum","1366","768","0","1","0","5e67d9ed33e6a60542f4dfd7","","null","","","learningBlock1","","","","<div style=""font-size:60px;""> </div>","null","LF","learning/Slide65.JPG","This is a wug:","","",""
"html-keyboard-response","201","289949","0.0-5.0-0.65","LF","2n2kv71sum","1366","768","0","1","0","5e67d9ed33e6a60542f4dfd7","","null","","","learningBlock1","","","","This is a dep:","null","","","","","",""
"image-keyboard-response","202","290276","0.0-5.0-1.65","LF","2n2kv71sum","1366","768","0","1","0","5e67d9ed33e6a60542f4dfd7","","null","","","","","","","learning/Slide66.JPG","null","","","","","",""
"html-keyboard-response","203","291280","0.0-5.0-2.65","LF","2n2kv71sum","1366","768","0","1","0","5e67d9ed33e6a60542f4dfd7","","null","","","learningBlock1","","","","<div style=""font-size:60px;""> </div>","null","LF","learning/Slide66.JPG","This is a dep:","","",""
"html-keyboard-response","204","292282","0.0-5.0-0.66","LF","2n2kv71sum","1366","768","0","1","0","5e67d9ed33e6a60542f4dfd7","","null","","","learningBlock1","","","","This is a tob:","null","","","","","",""
"image-keyboard-response","205","292610","0.0-5.0-1.66","LF","2n2kv71sum","1366","768","0","1","0","5e67d9ed33e6a60542f4dfd7","","null","","","","","","","learning/Slide67.JPG","null","","","","","",""
"html-keyboard-response","206","293613","0.0-5.0-2.66","LF","2n2kv71sum","1366","768","0","1","0","5e67d9ed33e6a60542f4dfd7","","null","","","learningBlock1","","","","<div style=""font-size:60px;""> </div>","null","LF","learning/Slide67.JPG","This is a tob:","","",""
"html-keyboard-response","207","294615","0.0-5.0-0.67","LF","2n2kv71sum","1366","768","0","1","0","5e67d9ed33e6a60542f4dfd7","","null","","","learningBlock1","","","","This is a wug:","null","","","","","",""
"image-keyboard-response","208","294942","0.0-5.0-1.67","LF","2n2kv71sum","1366","768","0","1","0","5e67d9ed33e6a60542f4dfd7","","null","","","","","","","learning/Slide68.JPG","null","","","","","",""
"html-keyboard-response","209","295945","0.0-5.0-2.67","LF","2n2kv71sum","1366","768","0","1","0","5e67d9ed33e6a60542f4dfd7","","null","","","learningBlock1","","","","<div style=""font-size:60px;""> </div>","null","LF","learning/Slide68.JPG","This is a wug:","","",""
"html-keyboard-response","210","296947","0.0-5.0-0.68","LF","2n2kv71sum","1366","768","0","1","0","5e67d9ed33e6a60542f4dfd7","","null","","","learningBlock1","","","","This is a tob:","null","","","","","",""
"image-keyboard-response","211","297276","0.0-5.0-1.68","LF","2n2kv71sum","1366","768","0","1","0","5e67d9ed33e6a60542f4dfd7","","null","","","","","","","learning/Slide69.JPG","null","","","","","",""
"html-keyboard-response","212","298279","0.0-5.0-2.68","LF","2n2kv71sum","1366","768","0","1","0","5e67d9ed33e6a60542f4dfd7","","null","","","learningBlock1","","","","<div style=""font-size:60px;""> </div>","null","LF","learning/Slide69.JPG","This is a tob:","","",""
"html-keyboard-response","213","299281","0.0-5.0-0.69","LF","2n2kv71sum","1366","768","0","1","0","5e67d9ed33e6a60542f4dfd7","","null","","","learningBlock1","","","","This is a dep:","null","","","","","",""
"image-keyboard-response","214","299609","0.0-5.0-1.69","LF","2n2kv71sum","1366","768","0","1","0","5e67d9ed33e6a60542f4dfd7","","null","","","","","","","learning/Slide70.JPG","null","","","","","",""
"html-keyboard-response","215","300612","0.0-5.0-2.69","LF","2n2kv71sum","1366","768","0","1","0","5e67d9ed33e6a60542f4dfd7","","null","","","learningBlock1","","","","<div style=""font-size:60px;""> </div>","null","LF","learning/Slide70.JPG","This is a dep:","","",""
"html-keyboard-response","216","301615","0.0-5.0-0.70","LF","2n2kv71sum","1366","768","0","1","0","5e67d9ed33e6a60542f4dfd7","","null","","","learningBlock1","","","","This is a wug:","null","","","","","",""
"image-keyboard-response","217","301943","0.0-5.0-1.70","LF","2n2kv71sum","1366","768","0","1","0","5e67d9ed33e6a60542f4dfd7","","null","","","","","","","learning/Slide71.JPG","null","","","","","",""
"html-keyboard-response","218","302946","0.0-5.0-2.70","LF","2n2kv71sum","1366","768","0","1","0","5e67d9ed33e6a60542f4dfd7","","null","","","learningBlock1","","","","<div style=""font-size:60px;""> </div>","null","LF","learning/Slide71.JPG","This is a wug:","","",""
"html-keyboard-response","219","303949","0.0-5.0-0.71","LF","2n2kv71sum","1366","768","0","1","0","5e67d9ed33e6a60542f4dfd7","","null","","","learningBlock1","","","","This is a bim:","null","","","","","",""
"image-keyboard-response","220","304285","0.0-5.0-1.71","LF","2n2kv71sum","1366","768","0","1","0","5e67d9ed33e6a60542f4dfd7","","null","","","","","","","learning/Slide72.JPG","null","","","","","",""
"html-keyboard-response","221","305292","0.0-5.0-2.71","LF","2n2kv71sum","1366","768","0","1","0","5e67d9ed33e6a60542f4dfd7","","null","","","learningBlock1","","","","<div style=""font-size:60px;""> </div>","null","LF","learning/Slide72.JPG","This is a bim:","","",""
"html-keyboard-response","222","306294","0.0-5.0-0.72","LF","2n2kv71sum","1366","768","0","1","0","5e67d9ed33e6a60542f4dfd7","","null","","","learningBlock1","","","","This is a wug:","null","","","","","",""
"image-keyboard-response","223","306622","0.0-5.0-1.72","LF","2n2kv71sum","1366","768","0","1","0","5e67d9ed33e6a60542f4dfd7","","null","","","","","","","learning/Slide73.JPG","null","","","","","",""
"html-keyboard-response","224","307625","0.0-5.0-2.72","LF","2n2kv71sum","1366","768","0","1","0","5e67d9ed33e6a60542f4dfd7","","null","","","learningBlock1","","","","<div style=""font-size:60px;""> </div>","null","LF","learning/Slide73.JPG","This is a wug:","","",""
"html-keyboard-response","225","308626","0.0-5.0-0.73","LF","2n2kv71sum","1366","768","0","1","0","5e67d9ed33e6a60542f4dfd7","","null","","","learningBlock1","","","","This is a dep:","null","","","","","",""
"image-keyboard-response","226","308954","0.0-5.0-1.73","LF","2n2kv71sum","1366","768","0","1","0","5e67d9ed33e6a60542f4dfd7","","null","","","","","","","learning/Slide74.JPG","null","","","","","",""
"html-keyboard-response","227","309956","0.0-5.0-2.73","LF","2n2kv71sum","1366","768","0","1","0","5e67d9ed33e6a60542f4dfd7","","null","","","learningBlock1","","","","<div style=""font-size:60px;""> </div>","null","LF","learning/Slide74.JPG","This is a dep:","","",""
"html-keyboard-response","228","310962","0.0-5.0-0.74","LF","2n2kv71sum","1366","768","0","1","0","5e67d9ed33e6a60542f4dfd7","","null","","","learningBlock1","","","","This is a tob:","null","","","","","",""
"image-keyboard-response","229","311291","0.0-5.0-1.74","LF","2n2kv71sum","1366","768","0","1","0","5e67d9ed33e6a60542f4dfd7","","null","","","","","","","learning/Slide75.JPG","null","","","","","",""
"html-keyboard-response","230","312294","0.0-5.0-2.74","LF","2n2kv71sum","1366","768","0","1","0","5e67d9ed33e6a60542f4dfd7","","null","","","learningBlock1","","","","<div style=""font-size:60px;""> </div>","null","LF","learning/Slide75.JPG","This is a tob:","","",""
"html-keyboard-response","231","313299","0.0-5.0-0.75","LF","2n2kv71sum","1366","768","0","1","0","5e67d9ed33e6a60542f4dfd7","","null","","","learningBlock1","","","","This is a bim:","null","","","","","",""
"image-keyboard-response","232","313626","0.0-5.0-1.75","LF","2n2kv71sum","1366","768","0","1","0","5e67d9ed33e6a60542f4dfd7","","null","","","","","","","learning/Slide76.JPG","null","","","","","",""
"html-keyboard-response","233","314629","0.0-5.0-2.75","LF","2n2kv71sum","1366","768","0","1","0","5e67d9ed33e6a60542f4dfd7","","null","","","learningBlock1","","","","<div style=""font-size:60px;""> </div>","null","LF","learning/Slide76.JPG","This is a bim:","","",""
"html-keyboard-response","234","315632","0.0-5.0-0.76","LF","2n2kv71sum","1366","768","0","1","0","5e67d9ed33e6a60542f4dfd7","","null","","","learningBlock1","","","","This is a tob:","null","","","","","",""
"image-keyboard-response","235","315960","0.0-5.0-1.76","LF","2n2kv71sum","1366","768","0","1","0","5e67d9ed33e6a60542f4dfd7","","null","","","","","","","learning/Slide77.JPG","null","","","","","",""
"html-keyboard-response","236","316963","0.0-5.0-2.76","LF","2n2kv71sum","1366","768","0","1","0","5e67d9ed33e6a60542f4dfd7","","null","","","learningBlock1","","","","<div style=""font-size:60px;""> </div>","null","LF","learning/Slide77.JPG","This is a tob:","","",""
"html-keyboard-response","237","317965","0.0-5.0-0.77","LF","2n2kv71sum","1366","768","0","1","0","5e67d9ed33e6a60542f4dfd7","","null","","","learningBlock1","","","","This is a wug:","null","","","","","",""
"image-keyboard-response","238","318293","0.0-5.0-1.77","LF","2n2kv71sum","1366","768","0","1","0","5e67d9ed33e6a60542f4dfd7","","null","","","","","","","learning/Slide78.JPG","null","","","","","",""
"html-keyboard-response","239","319296","0.0-5.0-2.77","LF","2n2kv71sum","1366","768","0","1","0","5e67d9ed33e6a60542f4dfd7","","null","","","learningBlock1","","","","<div style=""font-size:60px;""> </div>","null","LF","learning/Slide78.JPG","This is a wug:","","",""
"html-keyboard-response","240","320298","0.0-5.0-0.78","LF","2n2kv71sum","1366","768","0","1","0","5e67d9ed33e6a60542f4dfd7","","null","","","learningBlock1","","","","This is a bim:","null","","","","","",""
"image-keyboard-response","241","320626","0.0-5.0-1.78","LF","2n2kv71sum","1366","768","0","1","0","5e67d9ed33e6a60542f4dfd7","","null","","","","","","","learning/Slide79.JPG","null","","","","","",""
"html-keyboard-response","242","321629","0.0-5.0-2.78","LF","2n2kv71sum","1366","768","0","1","0","5e67d9ed33e6a60542f4dfd7","","null","","","learningBlock1","","","","<div style=""font-size:60px;""> </div>","null","LF","learning/Slide79.JPG","This is a bim:","","",""
"html-keyboard-response","243","322631","0.0-5.0-0.79","LF","2n2kv71sum","1366","768","0","1","0","5e67d9ed33e6a60542f4dfd7","","null","","","learningBlock1","","","","This is a tob:","null","","","","","",""
"image-keyboard-response","244","322959","0.0-5.0-1.79","LF","2n2kv71sum","1366","768","0","1","0","5e67d9ed33e6a60542f4dfd7","","null","","","","","","","learning/Slide80.JPG","null","","","","","",""
"html-keyboard-response","245","323963","0.0-5.0-2.79","LF","2n2kv71sum","1366","768","0","1","0","5e67d9ed33e6a60542f4dfd7","","null","","","learningBlock1","","","","<div style=""font-size:60px;""> </div>","null","LF","learning/Slide80.JPG","This is a tob:","","",""
"instructions","246","327551","0.0-6.0","LF","2n2kv71sum","1366","768","0","1","0","5e67d9ed33e6a60542f4dfd7","","NA","","[{""page_index"":0,""viewing_time"":3586.0699999902863}]","instructions","","","","","","","","","","",""
"html-keyboard-response","247","328555","0.0-7.0-0.0","LF","2n2kv71sum","1366","768","0","1","0","5e67d9ed33e6a60542f4dfd7","","null","","","learningBlock2","","","","This is a wug:","null","","","","","",""
"image-keyboard-response","248","328883","0.0-7.0-1.0","LF","2n2kv71sum","1366","768","0","1","0","5e67d9ed33e6a60542f4dfd7","","null","","","","","","","learning/Slide81.JPG","null","","","","","",""
"html-keyboard-response","249","329886","0.0-7.0-2.0","LF","2n2kv71sum","1366","768","0","1","0","5e67d9ed33e6a60542f4dfd7","","null","","","learningBlock2","","","","<div style=""font-size:60px;""> </div>","null","LF","learning/Slide81.JPG","This is a wug:","","",""
"html-keyboard-response","250","330888","0.0-7.0-0.1","LF","2n2kv71sum","1366","768","0","1","0","5e67d9ed33e6a60542f4dfd7","","null","","","learningBlock2","","","","This is a bim:","null","","","","","",""
"image-keyboard-response","251","331216","0.0-7.0-1.1","LF","2n2kv71sum","1366","768","0","1","0","5e67d9ed33e6a60542f4dfd7","","null","","","","","","","learning/Slide82.JPG","null","","","","","",""
"html-keyboard-response","252","332221","0.0-7.0-2.1","LF","2n2kv71sum","1366","768","0","1","0","5e67d9ed33e6a60542f4dfd7","","null","","","learningBlock2","","","","<div style=""font-size:60px;""> </div>","null","LF","learning/Slide82.JPG","This is a bim:","","",""
"html-keyboard-response","253","333223","0.0-7.0-0.2","LF","2n2kv71sum","1366","768","0","1","0","5e67d9ed33e6a60542f4dfd7","","null","","","learningBlock2","","","","This is a wug:","null","","","","","",""
"image-keyboard-response","254","333551","0.0-7.0-1.2","LF","2n2kv71sum","1366","768","0","1","0","5e67d9ed33e6a60542f4dfd7","","null","","","","","","","learning/Slide83.JPG","null","","","","","",""
"html-keyboard-response","255","334554","0.0-7.0-2.2","LF","2n2kv71sum","1366","768","0","1","0","5e67d9ed33e6a60542f4dfd7","","null","","","learningBlock2","","","","<div style=""font-size:60px;""> </div>","null","LF","learning/Slide83.JPG","This is a wug:","","",""
"html-keyboard-response","256","335556","0.0-7.0-0.3","LF","2n2kv71sum","1366","768","0","1","0","5e67d9ed33e6a60542f4dfd7","","null","","","learningBlock2","","","","This is a dep:","null","","","","","",""
"image-keyboard-response","257","335884","0.0-7.0-1.3","LF","2n2kv71sum","1366","768","0","1","0","5e67d9ed33e6a60542f4dfd7","","null","","","","","","","learning/Slide84.JPG","null","","","","","",""
"html-keyboard-response","258","336887","0.0-7.0-2.3","LF","2n2kv71sum","1366","768","0","1","0","5e67d9ed33e6a60542f4dfd7","","null","","","learningBlock2","","","","<div style=""font-size:60px;""> </div>","null","LF","learning/Slide84.JPG","This is a dep:","","",""
"html-keyboard-response","259","337889","0.0-7.0-0.4","LF","2n2kv71sum","1366","768","0","1","0","5e67d9ed33e6a60542f4dfd7","","null","","","learningBlock2","","","","This is a bim:","null","","","","","",""
"image-keyboard-response","260","338218","0.0-7.0-1.4","LF","2n2kv71sum","1366","768","0","1","0","5e67d9ed33e6a60542f4dfd7","","null","","","","","","","learning/Slide85.JPG","null","","","","","",""
"html-keyboard-response","261","339221","0.0-7.0-2.4","LF","2n2kv71sum","1366","768","0","1","0","5e67d9ed33e6a60542f4dfd7","","null","","","learningBlock2","","","","<div style=""font-size:60px;""> </div>","null","LF","learning/Slide85.JPG","This is a bim:","","",""
"html-keyboard-response","262","340223","0.0-7.0-0.5","LF","2n2kv71sum","1366","768","0","1","0","5e67d9ed33e6a60542f4dfd7","","null","","","learningBlock2","","","","This is a tob:","null","","","","","",""
"image-keyboard-response","263","340551","0.0-7.0-1.5","LF","2n2kv71sum","1366","768","0","1","0","5e67d9ed33e6a60542f4dfd7","","null","","","","","","","learning/Slide86.JPG","null","","","","","",""
"html-keyboard-response","264","341554","0.0-7.0-2.5","LF","2n2kv71sum","1366","768","0","1","0","5e67d9ed33e6a60542f4dfd7","","null","","","learningBlock2","","","","<div style=""font-size:60px;""> </div>","null","LF","learning/Slide86.JPG","This is a tob:","","",""
"html-keyboard-response","265","342556","0.0-7.0-0.6","LF","2n2kv71sum","1366","768","0","1","0","5e67d9ed33e6a60542f4dfd7","","null","","","learningBlock2","","","","This is a wug:","null","","","","","",""
"image-keyboard-response","266","342892","0.0-7.0-1.6","LF","2n2kv71sum","1366","768","0","1","0","5e67d9ed33e6a60542f4dfd7","","null","","","","","","","learning/Slide87.JPG","null","","","","","",""
"html-keyboard-response","267","343894","0.0-7.0-2.6","LF","2n2kv71sum","1366","768","0","1","0","5e67d9ed33e6a60542f4dfd7","","null","","","learningBlock2","","","","<div style=""font-size:60px;""> </div>","null","LF","learning/Slide87.JPG","This is a wug:","","",""
"html-keyboard-response","268","344897","0.0-7.0-0.7","LF","2n2kv71sum","1366","768","0","1","0","5e67d9ed33e6a60542f4dfd7","","null","","","learningBlock2","","","","This is a tob:","null","","","","","",""
"image-keyboard-response","269","345233","0.0-7.0-1.7","LF","2n2kv71sum","1366","768","0","1","0","5e67d9ed33e6a60542f4dfd7","","null","","","","","","","learning/Slide88.JPG","null","","","","","",""
"html-keyboard-response","270","346239","0.0-7.0-2.7","LF","2n2kv71sum","1366","768","0","1","0","5e67d9ed33e6a60542f4dfd7","","null","","","learningBlock2","","","","<div style=""font-size:60px;""> </div>","null","LF","learning/Slide88.JPG","This is a tob:","","",""
"html-keyboard-response","271","347241","0.0-7.0-0.8","LF","2n2kv71sum","1366","768","0","1","0","5e67d9ed33e6a60542f4dfd7","","null","","","learningBlock2","","","","This is a bim:","null","","","","","",""
"image-keyboard-response","272","347570","0.0-7.0-1.8","LF","2n2kv71sum","1366","768","0","1","0","5e67d9ed33e6a60542f4dfd7","","null","","","","","","","learning/Slide89.JPG","null","","","","","",""
"html-keyboard-response","273","348573","0.0-7.0-2.8","LF","2n2kv71sum","1366","768","0","1","0","5e67d9ed33e6a60542f4dfd7","","null","","","learningBlock2","","","","<div style=""font-size:60px;""> </div>","null","LF","learning/Slide89.JPG","This is a bim:","","",""
"html-keyboard-response","274","349575","0.0-7.0-0.9","LF","2n2kv71sum","1366","768","0","1","0","5e67d9ed33e6a60542f4dfd7","","null","","","learningBlock2","","","","This is a dep:","null","","","","","",""
"image-keyboard-response","275","349904","0.0-7.0-1.9","LF","2n2kv71sum","1366","768","0","1","0","5e67d9ed33e6a60542f4dfd7","","null","","","","","","","learning/Slide90.JPG","null","","","","","",""
"html-keyboard-response","276","350907","0.0-7.0-2.9","LF","2n2kv71sum","1366","768","0","1","0","5e67d9ed33e6a60542f4dfd7","","null","","","learningBlock2","","","","<div style=""font-size:60px;""> </div>","null","LF","learning/Slide90.JPG","This is a dep:","","",""
"html-keyboard-response","277","351908","0.0-7.0-0.10","LF","2n2kv71sum","1366","768","0","1","0","5e67d9ed33e6a60542f4dfd7","","null","","","learningBlock2","","","","This is a wug:","null","","","","","",""
"image-keyboard-response","278","352235","0.0-7.0-1.10","LF","2n2kv71sum","1366","768","0","1","0","5e67d9ed33e6a60542f4dfd7","","null","","","","","","","learning/Slide91.JPG","null","","","","","",""
"html-keyboard-response","279","353238","0.0-7.0-2.10","LF","2n2kv71sum","1366","768","0","1","0","5e67d9ed33e6a60542f4dfd7","","null","","","learningBlock2","","","","<div style=""font-size:60px;""> </div>","null","LF","learning/Slide91.JPG","This is a wug:","","",""
"html-keyboard-response","280","354247","0.0-7.0-0.11","LF","2n2kv71sum","1366","768","0","1","0","5e67d9ed33e6a60542f4dfd7","","null","","","learningBlock2","","","","This is a tob:","null","","","","","",""
"image-keyboard-response","281","354576","0.0-7.0-1.11","LF","2n2kv71sum","1366","768","0","1","0","5e67d9ed33e6a60542f4dfd7","","null","","","","","","","learning/Slide92.JPG","null","","","","","",""
"html-keyboard-response","282","355579","0.0-7.0-2.11","LF","2n2kv71sum","1366","768","0","1","0","5e67d9ed33e6a60542f4dfd7","","null","","","learningBlock2","","","","<div style=""font-size:60px;""> </div>","null","LF","learning/Slide92.JPG","This is a tob:","","",""
"html-keyboard-response","283","356584","0.0-7.0-0.12","LF","2n2kv71sum","1366","768","0","1","0","5e67d9ed33e6a60542f4dfd7","","null","","","learningBlock2","","","","This is a bim:","null","","","","","",""
"image-keyboard-response","284","356912","0.0-7.0-1.12","LF","2n2kv71sum","1366","768","0","1","0","5e67d9ed33e6a60542f4dfd7","","null","","","","","","","learning/Slide93.JPG","null","","","","","",""
"html-keyboard-response","285","357915","0.0-7.0-2.12","LF","2n2kv71sum","1366","768","0","1","0","5e67d9ed33e6a60542f4dfd7","","null","","","learningBlock2","","","","<div style=""font-size:60px;""> </div>","null","LF","learning/Slide93.JPG","This is a bim:","","",""
"html-keyboard-response","286","358919","0.0-7.0-0.13","LF","2n2kv71sum","1366","768","0","1","0","5e67d9ed33e6a60542f4dfd7","","null","","","learningBlock2","","","","This is a tob:","null","","","","","",""
"image-keyboard-response","287","359247","0.0-7.0-1.13","LF","2n2kv71sum","1366","768","0","1","0","5e67d9ed33e6a60542f4dfd7","","null","","","","","","","learning/Slide94.JPG","null","","","","","",""
"html-keyboard-response","288","360250","0.0-7.0-2.13","LF","2n2kv71sum","1366","768","0","1","0","5e67d9ed33e6a60542f4dfd7","","null","","","learningBlock2","","","","<div style=""font-size:60px;""> </div>","null","LF","learning/Slide94.JPG","This is a tob:","","",""
"html-keyboard-response","289","361252","0.0-7.0-0.14","LF","2n2kv71sum","1366","768","0","1","0","5e67d9ed33e6a60542f4dfd7","","null","","","learningBlock2","","","","This is a wug:","null","","","","","",""
"image-keyboard-response","290","361581","0.0-7.0-1.14","LF","2n2kv71sum","1366","768","0","1","0","5e67d9ed33e6a60542f4dfd7","","null","","","","","","","learning/Slide95.JPG","null","","","","","",""
"html-keyboard-response","291","362585","0.0-7.0-2.14","LF","2n2kv71sum","1366","768","0","1","0","5e67d9ed33e6a60542f4dfd7","","null","","","learningBlock2","","","","<div style=""font-size:60px;""> </div>","null","LF","learning/Slide95.JPG","This is a wug:","","",""
"html-keyboard-response","292","363587","0.0-7.0-0.15","LF","2n2kv71sum","1366","768","0","1","0","5e67d9ed33e6a60542f4dfd7","","null","","","learningBlock2","","","","This is a tob:","null","","","","","",""
"image-keyboard-response","293","363916","0.0-7.0-1.15","LF","2n2kv71sum","1366","768","0","1","0","5e67d9ed33e6a60542f4dfd7","","null","","","","","","","learning/Slide96.JPG","null","","","","","",""
"html-keyboard-response","294","364917","0.0-7.0-2.15","LF","2n2kv71sum","1366","768","0","1","0","5e67d9ed33e6a60542f4dfd7","","null","","","learningBlock2","","","","<div style=""font-size:60px;""> </div>","null","LF","learning/Slide96.JPG","This is a tob:","","",""
"html-keyboard-response","295","365919","0.0-7.0-0.16","LF","2n2kv71sum","1366","768","0","1","0","5e67d9ed33e6a60542f4dfd7","","null","","","learningBlock2","","","","This is a dep:","null","","","","","",""
"image-keyboard-response","296","366247","0.0-7.0-1.16","LF","2n2kv71sum","1366","768","0","1","0","5e67d9ed33e6a60542f4dfd7","","null","","","","","","","learning/Slide97.JPG","null","","","","","",""
"html-keyboard-response","297","367250","0.0-7.0-2.16","LF","2n2kv71sum","1366","768","0","1","0","5e67d9ed33e6a60542f4dfd7","","null","","","learningBlock2","","","","<div style=""font-size:60px;""> </div>","null","LF","learning/Slide97.JPG","This is a dep:","","",""
"html-keyboard-response","298","368252","0.0-7.0-0.17","LF","2n2kv71sum","1366","768","0","1","0","5e67d9ed33e6a60542f4dfd7","","null","","","learningBlock2","","","","This is a bim:","null","","","","","",""
"image-keyboard-response","299","368581","0.0-7.0-1.17","LF","2n2kv71sum","1366","768","0","1","0","5e67d9ed33e6a60542f4dfd7","","null","","","","","","","learning/Slide98.JPG","null","","","","","",""
"html-keyboard-response","300","369584","0.0-7.0-2.17","LF","2n2kv71sum","1366","768","0","1","0","5e67d9ed33e6a60542f4dfd7","","null","","","learningBlock2","","","","<div style=""font-size:60px;""> </div>","null","LF","learning/Slide98.JPG","This is a bim:","","",""
"html-keyboard-response","301","370586","0.0-7.0-0.18","LF","2n2kv71sum","1366","768","0","1","0","5e67d9ed33e6a60542f4dfd7","","null","","","learningBlock2","","","","This is a dep:","null","","","","","",""
"image-keyboard-response","302","370916","0.0-7.0-1.18","LF","2n2kv71sum","1366","768","0","1","0","5e67d9ed33e6a60542f4dfd7","","null","","","","","","","learning/Slide99.JPG","null","","","","","",""
"html-keyboard-response","303","371919","0.0-7.0-2.18","LF","2n2kv71sum","1366","768","0","1","0","5e67d9ed33e6a60542f4dfd7","","null","","","learningBlock2","","","","<div style=""font-size:60px;""> </div>","null","LF","learning/Slide99.JPG","This is a dep:","","",""
"html-keyboard-response","304","372920","0.0-7.0-0.19","LF","2n2kv71sum","1366","768","0","1","0","5e67d9ed33e6a60542f4dfd7","","null","","","learningBlock2","","","","This is a bim:","null","","","","","",""
"image-keyboard-response","305","373249","0.0-7.0-1.19","LF","2n2kv71sum","1366","768","0","1","0","5e67d9ed33e6a60542f4dfd7","","null","","","","","","","learning/Slide100.JPG","null","","","","","",""
"html-keyboard-response","306","374252","0.0-7.0-2.19","LF","2n2kv71sum","1366","768","0","1","0","5e67d9ed33e6a60542f4dfd7","","null","","","learningBlock2","","","","<div style=""font-size:60px;""> </div>","null","LF","learning/Slide100.JPG","This is a bim:","","",""
"html-keyboard-response","307","375254","0.0-7.0-0.20","LF","2n2kv71sum","1366","768","0","1","0","5e67d9ed33e6a60542f4dfd7","","null","","","learningBlock2","","","","This is a tob:","null","","","","","",""
"image-keyboard-response","308","375582","0.0-7.0-1.20","LF","2n2kv71sum","1366","768","0","1","0","5e67d9ed33e6a60542f4dfd7","","null","","","","","","","learning/Slide101.JPG","null","","","","","",""
"html-keyboard-response","309","376585","0.0-7.0-2.20","LF","2n2kv71sum","1366","768","0","1","0","5e67d9ed33e6a60542f4dfd7","","null","","","learningBlock2","","","","<div style=""font-size:60px;""> </div>","null","LF","learning/Slide101.JPG","This is a tob:","","",""
"html-keyboard-response","310","377587","0.0-7.0-0.21","LF","2n2kv71sum","1366","768","0","1","0","5e67d9ed33e6a60542f4dfd7","","null","","","learningBlock2","","","","This is a bim:","null","","","","","",""
"image-keyboard-response","311","377915","0.0-7.0-1.21","LF","2n2kv71sum","1366","768","0","1","0","5e67d9ed33e6a60542f4dfd7","","null","","","","","","","learning/Slide102.JPG","null","","","","","",""
"html-keyboard-response","312","378918","0.0-7.0-2.21","LF","2n2kv71sum","1366","768","0","1","0","5e67d9ed33e6a60542f4dfd7","","null","","","learningBlock2","","","","<div style=""font-size:60px;""> </div>","null","LF","learning/Slide102.JPG","This is a bim:","","",""
"html-keyboard-response","313","379920","0.0-7.0-0.22","LF","2n2kv71sum","1366","768","0","1","0","5e67d9ed33e6a60542f4dfd7","","null","","","learningBlock2","","","","This is a dep:","null","","","","","",""
"image-keyboard-response","314","380248","0.0-7.0-1.22","LF","2n2kv71sum","1366","768","0","1","0","5e67d9ed33e6a60542f4dfd7","","null","","","","","","","learning/Slide103.JPG","null","","","","","",""
"html-keyboard-response","315","381251","0.0-7.0-2.22","LF","2n2kv71sum","1366","768","0","1","0","5e67d9ed33e6a60542f4dfd7","","null","","","learningBlock2","","","","<div style=""font-size:60px;""> </div>","null","LF","learning/Slide103.JPG","This is a dep:","","",""
"html-keyboard-response","316","382253","0.0-7.0-0.23","LF","2n2kv71sum","1366","768","0","1","0","5e67d9ed33e6a60542f4dfd7","","null","","","learningBlock2","","","","This is a tob:","null","","","","","",""
"image-keyboard-response","317","382582","0.0-7.0-1.23","LF","2n2kv71sum","1366","768","0","1","0","5e67d9ed33e6a60542f4dfd7","","null","","","","","","","learning/Slide104.JPG","null","","","","","",""
"html-keyboard-response","318","383585","0.0-7.0-2.23","LF","2n2kv71sum","1366","768","0","1","0","5e67d9ed33e6a60542f4dfd7","","null","","","learningBlock2","","","","<div style=""font-size:60px;""> </div>","null","LF","learning/Slide104.JPG","This is a tob:","","",""
"html-keyboard-response","319","384587","0.0-7.0-0.24","LF","2n2kv71sum","1366","768","0","1","0","5e67d9ed33e6a60542f4dfd7","","null","","","learningBlock2","","","","This is a dep:","null","","","","","",""
"image-keyboard-response","320","384916","0.0-7.0-1.24","LF","2n2kv71sum","1366","768","0","1","0","5e67d9ed33e6a60542f4dfd7","","null","","","","","","","learning/Slide105.JPG","null","","","","","",""
"html-keyboard-response","321","385919","0.0-7.0-2.24","LF","2n2kv71sum","1366","768","0","1","0","5e67d9ed33e6a60542f4dfd7","","null","","","learningBlock2","","","","<div style=""font-size:60px;""> </div>","null","LF","learning/Slide105.JPG","This is a dep:","","",""
"html-keyboard-response","322","386921","0.0-7.0-0.25","LF","2n2kv71sum","1366","768","0","1","0","5e67d9ed33e6a60542f4dfd7","","null","","","learningBlock2","","","","This is a wug:","null","","","","","",""
"image-keyboard-response","323","387249","0.0-7.0-1.25","LF","2n2kv71sum","1366","768","0","1","0","5e67d9ed33e6a60542f4dfd7","","null","","","","","","","learning/Slide106.JPG","null","","","","","",""
"html-keyboard-response","324","388252","0.0-7.0-2.25","LF","2n2kv71sum","1366","768","0","1","0","5e67d9ed33e6a60542f4dfd7","","null","","","learningBlock2","","","","<div style=""font-size:60px;""> </div>","null","LF","learning/Slide106.JPG","This is a wug:","","",""
"html-keyboard-response","325","389254","0.0-7.0-0.26","LF","2n2kv71sum","1366","768","0","1","0","5e67d9ed33e6a60542f4dfd7","","null","","","learningBlock2","","","","This is a bim:","null","","","","","",""
"image-keyboard-response","326","389582","0.0-7.0-1.26","LF","2n2kv71sum","1366","768","0","1","0","5e67d9ed33e6a60542f4dfd7","","null","","","","","","","learning/Slide107.JPG","null","","","","","",""
"html-keyboard-response","327","390585","0.0-7.0-2.26","LF","2n2kv71sum","1366","768","0","1","0","5e67d9ed33e6a60542f4dfd7","","null","","","learningBlock2","","","","<div style=""font-size:60px;""> </div>","null","LF","learning/Slide107.JPG","This is a bim:","","",""
"html-keyboard-response","328","391587","0.0-7.0-0.27","LF","2n2kv71sum","1366","768","0","1","0","5e67d9ed33e6a60542f4dfd7","","null","","","learningBlock2","","","","This is a dep:","null","","","","","",""
"image-keyboard-response","329","391921","0.0-7.0-1.27","LF","2n2kv71sum","1366","768","0","1","0","5e67d9ed33e6a60542f4dfd7","","null","","","","","","","learning/Slide108.JPG","null","","","","","",""
"html-keyboard-response","330","392926","0.0-7.0-2.27","LF","2n2kv71sum","1366","768","0","1","0","5e67d9ed33e6a60542f4dfd7","","null","","","learningBlock2","","","","<div style=""font-size:60px;""> </div>","null","LF","learning/Slide108.JPG","This is a dep:","","",""
"html-keyboard-response","331","393928","0.0-7.0-0.28","LF","2n2kv71sum","1366","768","0","1","0","5e67d9ed33e6a60542f4dfd7","","null","","","learningBlock2","","","","This is a wug:","null","","","","","",""
"image-keyboard-response","332","394256","0.0-7.0-1.28","LF","2n2kv71sum","1366","768","0","1","0","5e67d9ed33e6a60542f4dfd7","","null","","","","","","","learning/Slide109.JPG","null","","","","","",""
"html-keyboard-response","333","395261","0.0-7.0-2.28","LF","2n2kv71sum","1366","768","0","1","0","5e67d9ed33e6a60542f4dfd7","","null","","","learningBlock2","","","","<div style=""font-size:60px;""> </div>","null","LF","learning/Slide109.JPG","This is a wug:","","",""
"html-keyboard-response","334","396267","0.0-7.0-0.29","LF","2n2kv71sum","1366","768","0","1","0","5e67d9ed33e6a60542f4dfd7","","null","","","learningBlock2","","","","This is a bim:","null","","","","","",""
"image-keyboard-response","335","396593","0.0-7.0-1.29","LF","2n2kv71sum","1366","768","0","1","0","5e67d9ed33e6a60542f4dfd7","","null","","","","","","","learning/Slide110.JPG","null","","","","","",""
"html-keyboard-response","336","397594","0.0-7.0-2.29","LF","2n2kv71sum","1366","768","0","1","0","5e67d9ed33e6a60542f4dfd7","","null","","","learningBlock2","","","","<div style=""font-size:60px;""> </div>","null","LF","learning/Slide110.JPG","This is a bim:","","",""
"html-keyboard-response","337","398601","0.0-7.0-0.30","LF","2n2kv71sum","1366","768","0","1","0","5e67d9ed33e6a60542f4dfd7","","null","","","learningBlock2","","","","This is a tob:","null","","","","","",""
"image-keyboard-response","338","398930","0.0-7.0-1.30","LF","2n2kv71sum","1366","768","0","1","0","5e67d9ed33e6a60542f4dfd7","","null","","","","","","","learning/Slide111.JPG","null","","","","","",""
"html-keyboard-response","339","399933","0.0-7.0-2.30","LF","2n2kv71sum","1366","768","0","1","0","5e67d9ed33e6a60542f4dfd7","","null","","","learningBlock2","","","","<div style=""font-size:60px;""> </div>","null","LF","learning/Slide111.JPG","This is a tob:","","",""
"html-keyboard-response","340","400939","0.0-7.0-0.31","LF","2n2kv71sum","1366","768","0","1","0","5e67d9ed33e6a60542f4dfd7","","null","","","learningBlock2","","","","This is a wug:","null","","","","","",""
"image-keyboard-response","341","401268","0.0-7.0-1.31","LF","2n2kv71sum","1366","768","0","1","0","5e67d9ed33e6a60542f4dfd7","","null","","","","","","","learning/Slide112.JPG","null","","","","","",""
"html-keyboard-response","342","402271","0.0-7.0-2.31","LF","2n2kv71sum","1366","768","0","1","0","5e67d9ed33e6a60542f4dfd7","","null","","","learningBlock2","","","","<div style=""font-size:60px;""> </div>","null","LF","learning/Slide112.JPG","This is a wug:","","",""
"html-keyboard-response","343","403273","0.0-7.0-0.32","LF","2n2kv71sum","1366","768","0","1","0","5e67d9ed33e6a60542f4dfd7","","null","","","learningBlock2","","","","This is a tob:","null","","","","","",""
"image-keyboard-response","344","403600","0.0-7.0-1.32","LF","2n2kv71sum","1366","768","0","1","0","5e67d9ed33e6a60542f4dfd7","","null","","","","","","","learning/Slide113.JPG","null","","","","","",""
"html-keyboard-response","345","404602","0.0-7.0-2.32","LF","2n2kv71sum","1366","768","0","1","0","5e67d9ed33e6a60542f4dfd7","","null","","","learningBlock2","","","","<div style=""font-size:60px;""> </div>","null","LF","learning/Slide113.JPG","This is a tob:","","",""
"html-keyboard-response","346","405604","0.0-7.0-0.33","LF","2n2kv71sum","1366","768","0","1","0","5e67d9ed33e6a60542f4dfd7","","null","","","learningBlock2","","","","This is a wug:","null","","","","","",""
"image-keyboard-response","347","405932","0.0-7.0-1.33","LF","2n2kv71sum","1366","768","0","1","0","5e67d9ed33e6a60542f4dfd7","","null","","","","","","","learning/Slide114.JPG","null","","","","","",""
"html-keyboard-response","348","406935","0.0-7.0-2.33","LF","2n2kv71sum","1366","768","0","1","0","5e67d9ed33e6a60542f4dfd7","","null","","","learningBlock2","","","","<div style=""font-size:60px;""> </div>","null","LF","learning/Slide114.JPG","This is a wug:","","",""
"html-keyboard-response","349","407937","0.0-7.0-0.34","LF","2n2kv71sum","1366","768","0","1","0","5e67d9ed33e6a60542f4dfd7","","null","","","learningBlock2","","","","This is a bim:","null","","","","","",""
"image-keyboard-response","350","408265","0.0-7.0-1.34","LF","2n2kv71sum","1366","768","0","1","0","5e67d9ed33e6a60542f4dfd7","","null","","","","","","","learning/Slide115.JPG","null","","","","","",""
"html-keyboard-response","351","409268","0.0-7.0-2.34","LF","2n2kv71sum","1366","768","0","1","0","5e67d9ed33e6a60542f4dfd7","","null","","","learningBlock2","","","","<div style=""font-size:60px;""> </div>","null","LF","learning/Slide115.JPG","This is a bim:","","",""
"html-keyboard-response","352","410270","0.0-7.0-0.35","LF","2n2kv71sum","1366","768","0","1","0","5e67d9ed33e6a60542f4dfd7","","null","","","learningBlock2","","","","This is a dep:","null","","","","","",""
"image-keyboard-response","353","410598","0.0-7.0-1.35","LF","2n2kv71sum","1366","768","0","1","0","5e67d9ed33e6a60542f4dfd7","","null","","","","","","","learning/Slide116.JPG","null","","","","","",""
"html-keyboard-response","354","411602","0.0-7.0-2.35","LF","2n2kv71sum","1366","768","0","1","0","5e67d9ed33e6a60542f4dfd7","","null","","","learningBlock2","","","","<div style=""font-size:60px;""> </div>","null","LF","learning/Slide116.JPG","This is a dep:","","",""
"html-keyboard-response","355","412604","0.0-7.0-0.36","LF","2n2kv71sum","1366","768","0","1","0","5e67d9ed33e6a60542f4dfd7","","null","","","learningBlock2","","","","This is a tob:","null","","","","","",""
"image-keyboard-response","356","412932","0.0-7.0-1.36","LF","2n2kv71sum","1366","768","0","1","0","5e67d9ed33e6a60542f4dfd7","","null","","","","","","","learning/Slide117.JPG","null","","","","","",""
"html-keyboard-response","357","413936","0.0-7.0-2.36","LF","2n2kv71sum","1366","768","0","1","0","5e67d9ed33e6a60542f4dfd7","","null","","","learningBlock2","","","","<div style=""font-size:60px;""> </div>","null","LF","learning/Slide117.JPG","This is a tob:","","",""
"html-keyboard-response","358","414938","0.0-7.0-0.37","LF","2n2kv71sum","1366","768","0","1","0","5e67d9ed33e6a60542f4dfd7","","null","","","learningBlock2","","","","This is a dep:","null","","","","","",""
"image-keyboard-response","359","415266","0.0-7.0-1.37","LF","2n2kv71sum","1366","768","0","1","0","5e67d9ed33e6a60542f4dfd7","","null","","","","","","","learning/Slide118.JPG","null","","","","","",""
"html-keyboard-response","360","416269","0.0-7.0-2.37","LF","2n2kv71sum","1366","768","0","1","0","5e67d9ed33e6a60542f4dfd7","","null","","","learningBlock2","","","","<div style=""font-size:60px;""> </div>","null","LF","learning/Slide118.JPG","This is a dep:","","",""
"html-keyboard-response","361","417271","0.0-7.0-0.38","LF","2n2kv71sum","1366","768","0","1","0","5e67d9ed33e6a60542f4dfd7","","null","","","learningBlock2","","","","This is a wug:","null","","","","","",""
"image-keyboard-response","362","417597","0.0-7.0-1.38","LF","2n2kv71sum","1366","768","0","1","0","5e67d9ed33e6a60542f4dfd7","","null","","","","","","","learning/Slide119.JPG","null","","","","","",""
"html-keyboard-response","363","418600","0.0-7.0-2.38","LF","2n2kv71sum","1366","768","0","1","0","5e67d9ed33e6a60542f4dfd7","","null","","","learningBlock2","","","","<div style=""font-size:60px;""> </div>","null","LF","learning/Slide119.JPG","This is a wug:","","",""
"html-keyboard-response","364","419602","0.0-7.0-0.39","LF","2n2kv71sum","1366","768","0","1","0","5e67d9ed33e6a60542f4dfd7","","null","","","learningBlock2","","","","This is a dep:","null","","","","","",""
"image-keyboard-response","365","419930","0.0-7.0-1.39","LF","2n2kv71sum","1366","768","0","1","0","5e67d9ed33e6a60542f4dfd7","","null","","","","","","","learning/Slide120.JPG","null","","","","","",""
"html-keyboard-response","366","420933","0.0-7.0-2.39","LF","2n2kv71sum","1366","768","0","1","0","5e67d9ed33e6a60542f4dfd7","","null","","","learningBlock2","","","","<div style=""font-size:60px;""> </div>","null","LF","learning/Slide120.JPG","This is a dep:","","",""
"html-keyboard-response","367","421935","0.0-7.0-0.40","LF","2n2kv71sum","1366","768","0","1","0","5e67d9ed33e6a60542f4dfd7","","null","","","learningBlock2","","","","This is a bim:","null","","","","","",""
"image-keyboard-response","368","422264","0.0-7.0-1.40","LF","2n2kv71sum","1366","768","0","1","0","5e67d9ed33e6a60542f4dfd7","","null","","","","","","","learning/Slide121.JPG","null","","","","","",""
"html-keyboard-response","369","423268","0.0-7.0-2.40","LF","2n2kv71sum","1366","768","0","1","0","5e67d9ed33e6a60542f4dfd7","","null","","","learningBlock2","","","","<div style=""font-size:60px;""> </div>","null","LF","learning/Slide121.JPG","This is a bim:","","",""
"html-keyboard-response","370","424269","0.0-7.0-0.41","LF","2n2kv71sum","1366","768","0","1","0","5e67d9ed33e6a60542f4dfd7","","null","","","learningBlock2","","","","This is a wug:","null","","","","","",""
"image-keyboard-response","371","424598","0.0-7.0-1.41","LF","2n2kv71sum","1366","768","0","1","0","5e67d9ed33e6a60542f4dfd7","","null","","","","","","","learning/Slide122.JPG","null","","","","","",""
"html-keyboard-response","372","425601","0.0-7.0-2.41","LF","2n2kv71sum","1366","768","0","1","0","5e67d9ed33e6a60542f4dfd7","","null","","","learningBlock2","","","","<div style=""font-size:60px;""> </div>","null","LF","learning/Slide122.JPG","This is a wug:","","",""
"html-keyboard-response","373","426603","0.0-7.0-0.42","LF","2n2kv71sum","1366","768","0","1","0","5e67d9ed33e6a60542f4dfd7","","null","","","learningBlock2","","","","This is a bim:","null","","","","","",""
"image-keyboard-response","374","426932","0.0-7.0-1.42","LF","2n2kv71sum","1366","768","0","1","0","5e67d9ed33e6a60542f4dfd7","","null","","","","","","","learning/Slide123.JPG","null","","","","","",""
"html-keyboard-response","375","427934","0.0-7.0-2.42","LF","2n2kv71sum","1366","768","0","1","0","5e67d9ed33e6a60542f4dfd7","","null","","","learningBlock2","","","","<div style=""font-size:60px;""> </div>","null","LF","learning/Slide123.JPG","This is a bim:","","",""
"html-keyboard-response","376","428936","0.0-7.0-0.43","LF","2n2kv71sum","1366","768","0","1","0","5e67d9ed33e6a60542f4dfd7","","null","","","learningBlock2","","","","This is a tob:","null","","","","","",""
"image-keyboard-response","377","429265","0.0-7.0-1.43","LF","2n2kv71sum","1366","768","0","1","0","5e67d9ed33e6a60542f4dfd7","","null","","","","","","","learning/Slide124.JPG","null","","","","","",""
"html-keyboard-response","378","430267","0.0-7.0-2.43","LF","2n2kv71sum","1366","768","0","1","0","5e67d9ed33e6a60542f4dfd7","","null","","","learningBlock2","","","","<div style=""font-size:60px;""> </div>","null","LF","learning/Slide124.JPG","This is a tob:","","",""
"html-keyboard-response","379","431269","0.0-7.0-0.44","LF","2n2kv71sum","1366","768","0","1","0","5e67d9ed33e6a60542f4dfd7","","null","","","learningBlock2","","","","This is a bim:","null","","","","","",""
"image-keyboard-response","380","431597","0.0-7.0-1.44","LF","2n2kv71sum","1366","768","0","1","0","5e67d9ed33e6a60542f4dfd7","","null","","","","","","","learning/Slide125.JPG","null","","","","","",""
"html-keyboard-response","381","432600","0.0-7.0-2.44","LF","2n2kv71sum","1366","768","0","1","0","5e67d9ed33e6a60542f4dfd7","","null","","","learningBlock2","","","","<div style=""font-size:60px;""> </div>","null","LF","learning/Slide125.JPG","This is a bim:","","",""
"html-keyboard-response","382","433602","0.0-7.0-0.45","LF","2n2kv71sum","1366","768","0","1","0","5e67d9ed33e6a60542f4dfd7","","null","","","learningBlock2","","","","This is a tob:","null","","","","","",""
"image-keyboard-response","383","433931","0.0-7.0-1.45","LF","2n2kv71sum","1366","768","0","1","0","5e67d9ed33e6a60542f4dfd7","","null","","","","","","","learning/Slide126.JPG","null","","","","","",""
"html-keyboard-response","384","434934","0.0-7.0-2.45","LF","2n2kv71sum","1366","768","0","1","0","5e67d9ed33e6a60542f4dfd7","","null","","","learningBlock2","","","","<div style=""font-size:60px;""> </div>","null","LF","learning/Slide126.JPG","This is a tob:","","",""
"html-keyboard-response","385","435936","0.0-7.0-0.46","LF","2n2kv71sum","1366","768","0","1","0","5e67d9ed33e6a60542f4dfd7","","null","","","learningBlock2","","","","This is a dep:","null","","","","","",""
"image-keyboard-response","386","436264","0.0-7.0-1.46","LF","2n2kv71sum","1366","768","0","1","0","5e67d9ed33e6a60542f4dfd7","","null","","","","","","","learning/Slide127.JPG","null","","","","","",""
"html-keyboard-response","387","437267","0.0-7.0-2.46","LF","2n2kv71sum","1366","768","0","1","0","5e67d9ed33e6a60542f4dfd7","","null","","","learningBlock2","","","","<div style=""font-size:60px;""> </div>","null","LF","learning/Slide127.JPG","This is a dep:","","",""
"html-keyboard-response","388","438277","0.0-7.0-0.47","LF","2n2kv71sum","1366","768","0","1","0","5e67d9ed33e6a60542f4dfd7","","null","","","learningBlock2","","","","This is a wug:","null","","","","","",""
"image-keyboard-response","389","438604","0.0-7.0-1.47","LF","2n2kv71sum","1366","768","0","1","0","5e67d9ed33e6a60542f4dfd7","","null","","","","","","","learning/Slide128.JPG","null","","","","","",""
"html-keyboard-response","390","439607","0.0-7.0-2.47","LF","2n2kv71sum","1366","768","0","1","0","5e67d9ed33e6a60542f4dfd7","","null","","","learningBlock2","","","","<div style=""font-size:60px;""> </div>","null","LF","learning/Slide128.JPG","This is a wug:","","",""
"html-keyboard-response","391","440609","0.0-7.0-0.48","LF","2n2kv71sum","1366","768","0","1","0","5e67d9ed33e6a60542f4dfd7","","null","","","learningBlock2","","","","This is a tob:","null","","","","","",""
"image-keyboard-response","392","440936","0.0-7.0-1.48","LF","2n2kv71sum","1366","768","0","1","0","5e67d9ed33e6a60542f4dfd7","","null","","","","","","","learning/Slide129.JPG","null","","","","","",""
"html-keyboard-response","393","441937","0.0-7.0-2.48","LF","2n2kv71sum","1366","768","0","1","0","5e67d9ed33e6a60542f4dfd7","","null","","","learningBlock2","","","","<div style=""font-size:60px;""> </div>","null","LF","learning/Slide129.JPG","This is a tob:","","",""
"html-keyboard-response","394","442939","0.0-7.0-0.49","LF","2n2kv71sum","1366","768","0","1","0","5e67d9ed33e6a60542f4dfd7","","null","","","learningBlock2","","","","This is a wug:","null","","","","","",""
"image-keyboard-response","395","443268","0.0-7.0-1.49","LF","2n2kv71sum","1366","768","0","1","0","5e67d9ed33e6a60542f4dfd7","","null","","","","","","","learning/Slide130.JPG","null","","","","","",""
"html-keyboard-response","396","444270","0.0-7.0-2.49","LF","2n2kv71sum","1366","768","0","1","0","5e67d9ed33e6a60542f4dfd7","","null","","","learningBlock2","","","","<div style=""font-size:60px;""> </div>","null","LF","learning/Slide130.JPG","This is a wug:","","",""
"html-keyboard-response","397","445273","0.0-7.0-0.50","LF","2n2kv71sum","1366","768","0","1","0","5e67d9ed33e6a60542f4dfd7","","null","","","learningBlock2","","","","This is a bim:","null","","","","","",""
"image-keyboard-response","398","445600","0.0-7.0-1.50","LF","2n2kv71sum","1366","768","0","1","0","5e67d9ed33e6a60542f4dfd7","","null","","","","","","","learning/Slide131.JPG","null","","","","","",""
"html-keyboard-response","399","446603","0.0-7.0-2.50","LF","2n2kv71sum","1366","768","0","1","0","5e67d9ed33e6a60542f4dfd7","","null","","","learningBlock2","","","","<div style=""font-size:60px;""> </div>","null","LF","learning/Slide131.JPG","This is a bim:","","",""
"html-keyboard-response","400","447612","0.0-7.0-0.51","LF","2n2kv71sum","1366","768","0","1","0","5e67d9ed33e6a60542f4dfd7","","null","","","learningBlock2","","","","This is a dep:","null","","","","","",""
"image-keyboard-response","401","447941","0.0-7.0-1.51","LF","2n2kv71sum","1366","768","0","1","0","5e67d9ed33e6a60542f4dfd7","","null","","","","","","","learning/Slide132.JPG","null","","","","","",""
"html-keyboard-response","402","448944","0.0-7.0-2.51","LF","2n2kv71sum","1366","768","0","1","0","5e67d9ed33e6a60542f4dfd7","","null","","","learningBlock2","","","","<div style=""font-size:60px;""> </div>","null","LF","learning/Slide132.JPG","This is a dep:","","",""
"html-keyboard-response","403","449946","0.0-7.0-0.52","LF","2n2kv71sum","1366","768","0","1","0","5e67d9ed33e6a60542f4dfd7","","null","","","learningBlock2","","","","This is a tob:","null","","","","","",""
"image-keyboard-response","404","450279","0.0-7.0-1.52","LF","2n2kv71sum","1366","768","0","1","0","5e67d9ed33e6a60542f4dfd7","","null","","","","","","","learning/Slide133.JPG","null","","","","","",""
"html-keyboard-response","405","451282","0.0-7.0-2.52","LF","2n2kv71sum","1366","768","0","1","0","5e67d9ed33e6a60542f4dfd7","","null","","","learningBlock2","","","","<div style=""font-size:60px;""> </div>","null","LF","learning/Slide133.JPG","This is a tob:","","",""
"html-keyboard-response","406","452284","0.0-7.0-0.53","LF","2n2kv71sum","1366","768","0","1","0","5e67d9ed33e6a60542f4dfd7","","null","","","learningBlock2","","","","This is a dep:","null","","","","","",""
"image-keyboard-response","407","452612","0.0-7.0-1.53","LF","2n2kv71sum","1366","768","0","1","0","5e67d9ed33e6a60542f4dfd7","","null","","","","","","","learning/Slide134.JPG","null","","","","","",""
"html-keyboard-response","408","453615","0.0-7.0-2.53","LF","2n2kv71sum","1366","768","0","1","0","5e67d9ed33e6a60542f4dfd7","","null","","","learningBlock2","","","","<div style=""font-size:60px;""> </div>","null","LF","learning/Slide134.JPG","This is a dep:","","",""
"html-keyboard-response","409","454618","0.0-7.0-0.54","LF","2n2kv71sum","1366","768","0","1","0","5e67d9ed33e6a60542f4dfd7","","null","","","learningBlock2","","","","This is a tob:","null","","","","","",""
"image-keyboard-response","410","454946","0.0-7.0-1.54","LF","2n2kv71sum","1366","768","0","1","0","5e67d9ed33e6a60542f4dfd7","","null","","","","","","","learning/Slide135.JPG","null","","","","","",""
"html-keyboard-response","411","455949","0.0-7.0-2.54","LF","2n2kv71sum","1366","768","0","1","0","5e67d9ed33e6a60542f4dfd7","","null","","","learningBlock2","","","","<div style=""font-size:60px;""> </div>","null","LF","learning/Slide135.JPG","This is a tob:","","",""
"html-keyboard-response","412","456951","0.0-7.0-0.55","LF","2n2kv71sum","1366","768","0","1","0","5e67d9ed33e6a60542f4dfd7","","null","","","learningBlock2","","","","This is a wug:","null","","","","","",""
"image-keyboard-response","413","457280","0.0-7.0-1.55","LF","2n2kv71sum","1366","768","0","1","0","5e67d9ed33e6a60542f4dfd7","","null","","","","","","","learning/Slide136.JPG","null","","","","","",""
"html-keyboard-response","414","458283","0.0-7.0-2.55","LF","2n2kv71sum","1366","768","0","1","0","5e67d9ed33e6a60542f4dfd7","","null","","","learningBlock2","","","","<div style=""font-size:60px;""> </div>","null","LF","learning/Slide136.JPG","This is a wug:","","",""
"html-keyboard-response","415","459285","0.0-7.0-0.56","LF","2n2kv71sum","1366","768","0","1","0","5e67d9ed33e6a60542f4dfd7","","null","","","learningBlock2","","","","This is a tob:","null","","","","","",""
"image-keyboard-response","416","459614","0.0-7.0-1.56","LF","2n2kv71sum","1366","768","0","1","0","5e67d9ed33e6a60542f4dfd7","","null","","","","","","","learning/Slide137.JPG","null","","","","","",""
"html-keyboard-response","417","460618","0.0-7.0-2.56","LF","2n2kv71sum","1366","768","0","1","0","5e67d9ed33e6a60542f4dfd7","","null","","","learningBlock2","","","","<div style=""font-size:60px;""> </div>","null","LF","learning/Slide137.JPG","This is a tob:","","",""
"html-keyboard-response","418","461619","0.0-7.0-0.57","LF","2n2kv71sum","1366","768","0","1","0","5e67d9ed33e6a60542f4dfd7","","null","","","learningBlock2","","","","This is a bim:","null","","","","","",""
"image-keyboard-response","419","461948","0.0-7.0-1.57","LF","2n2kv71sum","1366","768","0","1","0","5e67d9ed33e6a60542f4dfd7","","null","","","","","","","learning/Slide138.JPG","null","","","","","",""
"html-keyboard-response","420","462949","0.0-7.0-2.57","LF","2n2kv71sum","1366","768","0","1","0","5e67d9ed33e6a60542f4dfd7","","null","","","learningBlock2","","","","<div style=""font-size:60px;""> </div>","null","LF","learning/Slide138.JPG","This is a bim:","","",""
"html-keyboard-response","421","463951","0.0-7.0-0.58","LF","2n2kv71sum","1366","768","0","1","0","5e67d9ed33e6a60542f4dfd7","","null","","","learningBlock2","","","","This is a wug:","null","","","","","",""
"image-keyboard-response","422","464280","0.0-7.0-1.58","LF","2n2kv71sum","1366","768","0","1","0","5e67d9ed33e6a60542f4dfd7","","null","","","","","","","learning/Slide139.JPG","null","","","","","",""
"html-keyboard-response","423","465285","0.0-7.0-2.58","LF","2n2kv71sum","1366","768","0","1","0","5e67d9ed33e6a60542f4dfd7","","null","","","learningBlock2","","","","<div style=""font-size:60px;""> </div>","null","LF","learning/Slide139.JPG","This is a wug:","","",""
"html-keyboard-response","424","466291","0.0-7.0-0.59","LF","2n2kv71sum","1366","768","0","1","0","5e67d9ed33e6a60542f4dfd7","","null","","","learningBlock2","","","","This is a dep:","null","","","","","",""
"image-keyboard-response","425","466619","0.0-7.0-1.59","LF","2n2kv71sum","1366","768","0","1","0","5e67d9ed33e6a60542f4dfd7","","null","","","","","","","learning/Slide140.JPG","null","","","","","",""
"html-keyboard-response","426","467622","0.0-7.0-2.59","LF","2n2kv71sum","1366","768","0","1","0","5e67d9ed33e6a60542f4dfd7","","null","","","learningBlock2","","","","<div style=""font-size:60px;""> </div>","null","LF","learning/Slide140.JPG","This is a dep:","","",""
"html-keyboard-response","427","468624","0.0-7.0-0.60","LF","2n2kv71sum","1366","768","0","1","0","5e67d9ed33e6a60542f4dfd7","","null","","","learningBlock2","","","","This is a tob:","null","","","","","",""
"image-keyboard-response","428","468952","0.0-7.0-1.60","LF","2n2kv71sum","1366","768","0","1","0","5e67d9ed33e6a60542f4dfd7","","null","","","","","","","learning/Slide141.JPG","null","","","","","",""
"html-keyboard-response","429","469955","0.0-7.0-2.60","LF","2n2kv71sum","1366","768","0","1","0","5e67d9ed33e6a60542f4dfd7","","null","","","learningBlock2","","","","<div style=""font-size:60px;""> </div>","null","LF","learning/Slide141.JPG","This is a tob:","","",""
"html-keyboard-response","430","470960","0.0-7.0-0.61","LF","2n2kv71sum","1366","768","0","1","0","5e67d9ed33e6a60542f4dfd7","","null","","","learningBlock2","","","","This is a wug:","null","","","","","",""
"image-keyboard-response","431","471289","0.0-7.0-1.61","LF","2n2kv71sum","1366","768","0","1","0","5e67d9ed33e6a60542f4dfd7","","null","","","","","","","learning/Slide142.JPG","null","","","","","",""
"html-keyboard-response","432","472292","0.0-7.0-2.61","LF","2n2kv71sum","1366","768","0","1","0","5e67d9ed33e6a60542f4dfd7","","null","","","learningBlock2","","","","<div style=""font-size:60px;""> </div>","null","LF","learning/Slide142.JPG","This is a wug:","","",""
"html-keyboard-response","433","473294","0.0-7.0-0.62","LF","2n2kv71sum","1366","768","0","1","0","5e67d9ed33e6a60542f4dfd7","","null","","","learningBlock2","","","","This is a bim:","null","","","","","",""
"image-keyboard-response","434","473637","0.0-7.0-1.62","LF","2n2kv71sum","1366","768","0","1","0","5e67d9ed33e6a60542f4dfd7","","null","","","","","","","learning/Slide143.JPG","null","","","","","",""
"html-keyboard-response","435","474640","0.0-7.0-2.62","LF","2n2kv71sum","1366","768","0","1","0","5e67d9ed33e6a60542f4dfd7","","null","","","learningBlock2","","","","<div style=""font-size:60px;""> </div>","null","LF","learning/Slide143.JPG","This is a bim:","","",""
"html-keyboard-response","436","475642","0.0-7.0-0.63","LF","2n2kv71sum","1366","768","0","1","0","5e67d9ed33e6a60542f4dfd7","","null","","","learningBlock2","","","","This is a dep:","null","","","","","",""
"image-keyboard-response","437","475971","0.0-7.0-1.63","LF","2n2kv71sum","1366","768","0","1","0","5e67d9ed33e6a60542f4dfd7","","null","","","","","","","learning/Slide144.JPG","null","","","","","",""
