"trial_type","trial_index","time_elapsed","internal_node_id","condition","subject","screen_width","screen_height","attention","distraction","conscientious","prolificID","success","rt","url","view_history","test_part","final_height_px","final_width_px","scale_factor","stimulus","key_press","learningType","presentedImage","presentedLabel","button_pressed","response","responses"
"pavlovia","0","28","0.0-0.0","LF","8706z1pc24","1920","1080","0","1","0","5c916456ec114b0016418dca","","","","","","","","","","","","","","","",""
"fullscreen","1","3865","0.0-1.0","LF","8706z1pc24","1920","1080","0","1","0","5c916456ec114b0016418dca","true","","","","","","","","","","","","","","",""
"external-html","2","6226","0.0-2.0-0.0","LF","8706z1pc24","1920","1080","0","1","0","5c916456ec114b0016418dca","","2299.9350000172853","text/information_english.html","","","","","","","","","","","","",""
"external-html","3","10231","0.0-2.0-1.0","LF","8706z1pc24","1920","1080","0","1","0","5c916456ec114b0016418dca","","3918.430000077933","text/consent_english.html","","","","","","","","","","","","",""
"instructions","4","17173","0.0-3.0","LF","8706z1pc24","1920","1080","0","1","0","5c916456ec114b0016418dca","","NA","","[{""page_index"":0,""viewing_time"":1179.3250000337139},{""page_index"":1,""viewing_time"":5760.444999905303}]","instructions","","","","","","","","","","",""
"resize","5","152986","0.0-4.0","LF","8706z1pc24","1920","1080","0","1","0","5c916456ec114b0016418dca","","","","","","","438","2.780952380952381","","","","","","","",""
"html-keyboard-response","6","153988","0.0-5.0-0.0","LF","8706z1pc24","1920","1080","0","1","0","5c916456ec114b0016418dca","","null","","","learningBlock1","","","","This is a tob:","null","","","","","",""
"image-keyboard-response","7","154316","0.0-5.0-1.0","LF","8706z1pc24","1920","1080","0","1","0","5c916456ec114b0016418dca","","null","","","","","","","learning/Slide1.JPG","null","","","","","",""
"html-keyboard-response","8","155317","0.0-5.0-2.0","LF","8706z1pc24","1920","1080","0","1","0","5c916456ec114b0016418dca","","null","","","learningBlock1","","","","<div style=""font-size:60px;""> </div>","null","LF","learning/Slide1.JPG","This is a tob:","","",""
"html-keyboard-response","9","156319","0.0-5.0-0.1","LF","8706z1pc24","1920","1080","0","1","0","5c916456ec114b0016418dca","","null","","","learningBlock1","","","","This is a wug:","null","","","","","",""
"image-keyboard-response","10","156648","0.0-5.0-1.1","LF","8706z1pc24","1920","1080","0","1","0","5c916456ec114b0016418dca","","null","","","","","","","learning/Slide2.JPG","null","","","","","",""
"html-keyboard-response","11","157651","0.0-5.0-2.1","LF","8706z1pc24","1920","1080","0","1","0","5c916456ec114b0016418dca","","null","","","learningBlock1","","","","<div style=""font-size:60px;""> </div>","null","LF","learning/Slide2.JPG","This is a wug:","","",""
"html-keyboard-response","12","158653","0.0-5.0-0.2","LF","8706z1pc24","1920","1080","0","1","0","5c916456ec114b0016418dca","","null","","","learningBlock1","","","","This is a bim:","null","","","","","",""
"image-keyboard-response","13","158980","0.0-5.0-1.2","LF","8706z1pc24","1920","1080","0","1","0","5c916456ec114b0016418dca","","null","","","","","","","learning/Slide3.JPG","null","","","","","",""
"html-keyboard-response","14","159984","0.0-5.0-2.2","LF","8706z1pc24","1920","1080","0","1","0","5c916456ec114b0016418dca","","null","","","learningBlock1","","","","<div style=""font-size:60px;""> </div>","null","LF","learning/Slide3.JPG","This is a bim:","","",""
"html-keyboard-response","15","160986","0.0-5.0-0.3","LF","8706z1pc24","1920","1080","0","1","0","5c916456ec114b0016418dca","","null","","","learningBlock1","","","","This is a dep:","null","","","","","",""
"image-keyboard-response","16","161315","0.0-5.0-1.3","LF","8706z1pc24","1920","1080","0","1","0","5c916456ec114b0016418dca","","null","","","","","","","learning/Slide4.JPG","null","","","","","",""
"html-keyboard-response","17","162331","0.0-5.0-2.3","LF","8706z1pc24","1920","1080","0","1","0","5c916456ec114b0016418dca","","null","","","learningBlock1","","","","<div style=""font-size:60px;""> </div>","null","LF","learning/Slide4.JPG","This is a dep:","","",""
"html-keyboard-response","18","163333","0.0-5.0-0.4","LF","8706z1pc24","1920","1080","0","1","0","5c916456ec114b0016418dca","","null","","","learningBlock1","","","","This is a wug:","null","","","","","",""
"image-keyboard-response","19","163662","0.0-5.0-1.4","LF","8706z1pc24","1920","1080","0","1","0","5c916456ec114b0016418dca","","null","","","","","","","learning/Slide5.JPG","null","","","","","",""
"html-keyboard-response","20","164665","0.0-5.0-2.4","LF","8706z1pc24","1920","1080","0","1","0","5c916456ec114b0016418dca","","null","","","learningBlock1","","","","<div style=""font-size:60px;""> </div>","null","LF","learning/Slide5.JPG","This is a wug:","","",""
"html-keyboard-response","21","165667","0.0-5.0-0.5","LF","8706z1pc24","1920","1080","0","1","0","5c916456ec114b0016418dca","","null","","","learningBlock1","","","","This is a dep:","null","","","","","",""
"image-keyboard-response","22","165995","0.0-5.0-1.5","LF","8706z1pc24","1920","1080","0","1","0","5c916456ec114b0016418dca","","null","","","","","","","learning/Slide6.JPG","null","","","","","",""
"html-keyboard-response","23","166998","0.0-5.0-2.5","LF","8706z1pc24","1920","1080","0","1","0","5c916456ec114b0016418dca","","null","","","learningBlock1","","","","<div style=""font-size:60px;""> </div>","null","LF","learning/Slide6.JPG","This is a dep:","","",""
"html-keyboard-response","24","168001","0.0-5.0-0.6","LF","8706z1pc24","1920","1080","0","1","0","5c916456ec114b0016418dca","","null","","","learningBlock1","","","","This is a wug:","null","","","","","",""
"image-keyboard-response","25","168329","0.0-5.0-1.6","LF","8706z1pc24","1920","1080","0","1","0","5c916456ec114b0016418dca","","null","","","","","","","learning/Slide7.JPG","null","","","","","",""
"html-keyboard-response","26","169332","0.0-5.0-2.6","LF","8706z1pc24","1920","1080","0","1","0","5c916456ec114b0016418dca","","null","","","learningBlock1","","","","<div style=""font-size:60px;""> </div>","null","LF","learning/Slide7.JPG","This is a wug:","","",""
"html-keyboard-response","27","170334","0.0-5.0-0.7","LF","8706z1pc24","1920","1080","0","1","0","5c916456ec114b0016418dca","","null","","","learningBlock1","","","","This is a bim:","null","","","","","",""
"image-keyboard-response","28","170663","0.0-5.0-1.7","LF","8706z1pc24","1920","1080","0","1","0","5c916456ec114b0016418dca","","null","","","","","","","learning/Slide8.JPG","null","","","","","",""
"html-keyboard-response","29","171681","0.0-5.0-2.7","LF","8706z1pc24","1920","1080","0","1","0","5c916456ec114b0016418dca","","null","","","learningBlock1","","","","<div style=""font-size:60px;""> </div>","null","LF","learning/Slide8.JPG","This is a bim:","","",""
"html-keyboard-response","30","172683","0.0-5.0-0.8","LF","8706z1pc24","1920","1080","0","1","0","5c916456ec114b0016418dca","","null","","","learningBlock1","","","","This is a wug:","null","","","","","",""
"image-keyboard-response","31","173011","0.0-5.0-1.8","LF","8706z1pc24","1920","1080","0","1","0","5c916456ec114b0016418dca","","null","","","","","","","learning/Slide9.JPG","null","","","","","",""
"html-keyboard-response","32","174014","0.0-5.0-2.8","LF","8706z1pc24","1920","1080","0","1","0","5c916456ec114b0016418dca","","null","","","learningBlock1","","","","<div style=""font-size:60px;""> </div>","null","LF","learning/Slide9.JPG","This is a wug:","","",""
"html-keyboard-response","33","175017","0.0-5.0-0.9","LF","8706z1pc24","1920","1080","0","1","0","5c916456ec114b0016418dca","","null","","","learningBlock1","","","","This is a dep:","null","","","","","",""
"image-keyboard-response","34","175344","0.0-5.0-1.9","LF","8706z1pc24","1920","1080","0","1","0","5c916456ec114b0016418dca","","null","","","","","","","learning/Slide10.JPG","null","","","","","",""
"html-keyboard-response","35","176347","0.0-5.0-2.9","LF","8706z1pc24","1920","1080","0","1","0","5c916456ec114b0016418dca","","null","","","learningBlock1","","","","<div style=""font-size:60px;""> </div>","null","LF","learning/Slide10.JPG","This is a dep:","","",""
"html-keyboard-response","36","177349","0.0-5.0-0.10","LF","8706z1pc24","1920","1080","0","1","0","5c916456ec114b0016418dca","","null","","","learningBlock1","","","","This is a tob:","null","","","","","",""
"image-keyboard-response","37","177690","0.0-5.0-1.10","LF","8706z1pc24","1920","1080","0","1","0","5c916456ec114b0016418dca","","null","","","","","","","learning/Slide11.JPG","null","","","","","",""
"html-keyboard-response","38","178693","0.0-5.0-2.10","LF","8706z1pc24","1920","1080","0","1","0","5c916456ec114b0016418dca","","null","","","learningBlock1","","","","<div style=""font-size:60px;""> </div>","null","LF","learning/Slide11.JPG","This is a tob:","","",""
"html-keyboard-response","39","179695","0.0-5.0-0.11","LF","8706z1pc24","1920","1080","0","1","0","5c916456ec114b0016418dca","","null","","","learningBlock1","","","","This is a dep:","null","","","","","",""
"image-keyboard-response","40","180024","0.0-5.0-1.11","LF","8706z1pc24","1920","1080","0","1","0","5c916456ec114b0016418dca","","null","","","","","","","learning/Slide12.JPG","null","","","","","",""
"html-keyboard-response","41","181027","0.0-5.0-2.11","LF","8706z1pc24","1920","1080","0","1","0","5c916456ec114b0016418dca","","null","","","learningBlock1","","","","<div style=""font-size:60px;""> </div>","null","LF","learning/Slide12.JPG","This is a dep:","","",""
"html-keyboard-response","42","182029","0.0-5.0-0.12","LF","8706z1pc24","1920","1080","0","1","0","5c916456ec114b0016418dca","","null","","","learningBlock1","","","","This is a bim:","null","","","","","",""
"image-keyboard-response","43","182359","0.0-5.0-1.12","LF","8706z1pc24","1920","1080","0","1","0","5c916456ec114b0016418dca","","null","","","","","","","learning/Slide13.JPG","null","","","","","",""
"html-keyboard-response","44","183362","0.0-5.0-2.12","LF","8706z1pc24","1920","1080","0","1","0","5c916456ec114b0016418dca","","null","","","learningBlock1","","","","<div style=""font-size:60px;""> </div>","null","LF","learning/Slide13.JPG","This is a bim:","","",""
"html-keyboard-response","45","184364","0.0-5.0-0.13","LF","8706z1pc24","1920","1080","0","1","0","5c916456ec114b0016418dca","","null","","","learningBlock1","","","","This is a wug:","null","","","","","",""
"image-keyboard-response","46","184693","0.0-5.0-1.13","LF","8706z1pc24","1920","1080","0","1","0","5c916456ec114b0016418dca","","null","","","","","","","learning/Slide14.JPG","null","","","","","",""
"html-keyboard-response","47","185710","0.0-5.0-2.13","LF","8706z1pc24","1920","1080","0","1","0","5c916456ec114b0016418dca","","null","","","learningBlock1","","","","<div style=""font-size:60px;""> </div>","null","LF","learning/Slide14.JPG","This is a wug:","","",""
"html-keyboard-response","48","186712","0.0-5.0-0.14","LF","8706z1pc24","1920","1080","0","1","0","5c916456ec114b0016418dca","","null","","","learningBlock1","","","","This is a tob:","null","","","","","",""
"image-keyboard-response","49","187039","0.0-5.0-1.14","LF","8706z1pc24","1920","1080","0","1","0","5c916456ec114b0016418dca","","null","","","","","","","learning/Slide15.JPG","null","","","","","",""
"html-keyboard-response","50","188041","0.0-5.0-2.14","LF","8706z1pc24","1920","1080","0","1","0","5c916456ec114b0016418dca","","null","","","learningBlock1","","","","<div style=""font-size:60px;""> </div>","null","LF","learning/Slide15.JPG","This is a tob:","","",""
"html-keyboard-response","51","189043","0.0-5.0-0.15","LF","8706z1pc24","1920","1080","0","1","0","5c916456ec114b0016418dca","","null","","","learningBlock1","","","","This is a dep:","null","","","","","",""
"image-keyboard-response","52","189371","0.0-5.0-1.15","LF","8706z1pc24","1920","1080","0","1","0","5c916456ec114b0016418dca","","null","","","","","","","learning/Slide16.JPG","null","","","","","",""
"html-keyboard-response","53","190375","0.0-5.0-2.15","LF","8706z1pc24","1920","1080","0","1","0","5c916456ec114b0016418dca","","null","","","learningBlock1","","","","<div style=""font-size:60px;""> </div>","null","LF","learning/Slide16.JPG","This is a dep:","","",""
"html-keyboard-response","54","191377","0.0-5.0-0.16","LF","8706z1pc24","1920","1080","0","1","0","5c916456ec114b0016418dca","","null","","","learningBlock1","","","","This is a bim:","null","","","","","",""
"image-keyboard-response","55","191706","0.0-5.0-1.16","LF","8706z1pc24","1920","1080","0","1","0","5c916456ec114b0016418dca","","null","","","","","","","learning/Slide17.JPG","null","","","","","",""
"html-keyboard-response","56","192708","0.0-5.0-2.16","LF","8706z1pc24","1920","1080","0","1","0","5c916456ec114b0016418dca","","null","","","learningBlock1","","","","<div style=""font-size:60px;""> </div>","null","LF","learning/Slide17.JPG","This is a bim:","","",""
"html-keyboard-response","57","193710","0.0-5.0-0.17","LF","8706z1pc24","1920","1080","0","1","0","5c916456ec114b0016418dca","","null","","","learningBlock1","","","","This is a tob:","null","","","","","",""
"image-keyboard-response","58","194039","0.0-5.0-1.17","LF","8706z1pc24","1920","1080","0","1","0","5c916456ec114b0016418dca","","null","","","","","","","learning/Slide18.JPG","null","","","","","",""
"html-keyboard-response","59","195042","0.0-5.0-2.17","LF","8706z1pc24","1920","1080","0","1","0","5c916456ec114b0016418dca","","null","","","learningBlock1","","","","<div style=""font-size:60px;""> </div>","null","LF","learning/Slide18.JPG","This is a tob:","","",""
"html-keyboard-response","60","196043","0.0-5.0-0.18","LF","8706z1pc24","1920","1080","0","1","0","5c916456ec114b0016418dca","","null","","","learningBlock1","","","","This is a wug:","null","","","","","",""
"image-keyboard-response","61","196372","0.0-5.0-1.18","LF","8706z1pc24","1920","1080","0","1","0","5c916456ec114b0016418dca","","null","","","","","","","learning/Slide19.JPG","null","","","","","",""
"html-keyboard-response","62","197375","0.0-5.0-2.18","LF","8706z1pc24","1920","1080","0","1","0","5c916456ec114b0016418dca","","null","","","learningBlock1","","","","<div style=""font-size:60px;""> </div>","null","LF","learning/Slide19.JPG","This is a wug:","","",""
"html-keyboard-response","63","198377","0.0-5.0-0.19","LF","8706z1pc24","1920","1080","0","1","0","5c916456ec114b0016418dca","","null","","","learningBlock1","","","","This is a bim:","null","","","","","",""
"image-keyboard-response","64","198705","0.0-5.0-1.19","LF","8706z1pc24","1920","1080","0","1","0","5c916456ec114b0016418dca","","null","","","","","","","learning/Slide20.JPG","null","","","","","",""
"html-keyboard-response","65","199708","0.0-5.0-2.19","LF","8706z1pc24","1920","1080","0","1","0","5c916456ec114b0016418dca","","null","","","learningBlock1","","","","<div style=""font-size:60px;""> </div>","null","LF","learning/Slide20.JPG","This is a bim:","","",""
"html-keyboard-response","66","200710","0.0-5.0-0.20","LF","8706z1pc24","1920","1080","0","1","0","5c916456ec114b0016418dca","","null","","","learningBlock1","","","","This is a dep:","null","","","","","",""
"image-keyboard-response","67","201039","0.0-5.0-1.20","LF","8706z1pc24","1920","1080","0","1","0","5c916456ec114b0016418dca","","null","","","","","","","learning/Slide21.JPG","null","","","","","",""
"html-keyboard-response","68","202041","0.0-5.0-2.20","LF","8706z1pc24","1920","1080","0","1","0","5c916456ec114b0016418dca","","null","","","learningBlock1","","","","<div style=""font-size:60px;""> </div>","null","LF","learning/Slide21.JPG","This is a dep:","","",""
"html-keyboard-response","69","203044","0.0-5.0-0.21","LF","8706z1pc24","1920","1080","0","1","0","5c916456ec114b0016418dca","","null","","","learningBlock1","","","","This is a bim:","null","","","","","",""
"image-keyboard-response","70","203373","0.0-5.0-1.21","LF","8706z1pc24","1920","1080","0","1","0","5c916456ec114b0016418dca","","null","","","","","","","learning/Slide22.JPG","null","","","","","",""
"html-keyboard-response","71","204375","0.0-5.0-2.21","LF","8706z1pc24","1920","1080","0","1","0","5c916456ec114b0016418dca","","null","","","learningBlock1","","","","<div style=""font-size:60px;""> </div>","null","LF","learning/Slide22.JPG","This is a bim:","","",""
"html-keyboard-response","72","205381","0.0-5.0-0.22","LF","8706z1pc24","1920","1080","0","1","0","5c916456ec114b0016418dca","","null","","","learningBlock1","","","","This is a tob:","null","","","","","",""
"image-keyboard-response","73","205708","0.0-5.0-1.22","LF","8706z1pc24","1920","1080","0","1","0","5c916456ec114b0016418dca","","null","","","","","","","learning/Slide23.JPG","null","","","","","",""
"html-keyboard-response","74","206712","0.0-5.0-2.22","LF","8706z1pc24","1920","1080","0","1","0","5c916456ec114b0016418dca","","null","","","learningBlock1","","","","<div style=""font-size:60px;""> </div>","null","LF","learning/Slide23.JPG","This is a tob:","","",""
"html-keyboard-response","75","207714","0.0-5.0-0.23","LF","8706z1pc24","1920","1080","0","1","0","5c916456ec114b0016418dca","","null","","","learningBlock1","","","","This is a wug:","null","","","","","",""
"image-keyboard-response","76","208042","0.0-5.0-1.23","LF","8706z1pc24","1920","1080","0","1","0","5c916456ec114b0016418dca","","null","","","","","","","learning/Slide24.JPG","null","","","","","",""
"html-keyboard-response","77","209044","0.0-5.0-2.23","LF","8706z1pc24","1920","1080","0","1","0","5c916456ec114b0016418dca","","null","","","learningBlock1","","","","<div style=""font-size:60px;""> </div>","null","LF","learning/Slide24.JPG","This is a wug:","","",""
"html-keyboard-response","78","210045","0.0-5.0-0.24","LF","8706z1pc24","1920","1080","0","1","0","5c916456ec114b0016418dca","","null","","","learningBlock1","","","","This is a dep:","null","","","","","",""
"image-keyboard-response","79","210374","0.0-5.0-1.24","LF","8706z1pc24","1920","1080","0","1","0","5c916456ec114b0016418dca","","null","","","","","","","learning/Slide25.JPG","null","","","","","",""
"html-keyboard-response","80","211377","0.0-5.0-2.24","LF","8706z1pc24","1920","1080","0","1","0","5c916456ec114b0016418dca","","null","","","learningBlock1","","","","<div style=""font-size:60px;""> </div>","null","LF","learning/Slide25.JPG","This is a dep:","","",""
"html-keyboard-response","81","212390","0.0-5.0-0.25","LF","8706z1pc24","1920","1080","0","1","0","5c916456ec114b0016418dca","","null","","","learningBlock1","","","","This is a wug:","null","","","","","",""
"image-keyboard-response","82","212718","0.0-5.0-1.25","LF","8706z1pc24","1920","1080","0","1","0","5c916456ec114b0016418dca","","null","","","","","","","learning/Slide26.JPG","null","","","","","",""
"html-keyboard-response","83","213721","0.0-5.0-2.25","LF","8706z1pc24","1920","1080","0","1","0","5c916456ec114b0016418dca","","null","","","learningBlock1","","","","<div style=""font-size:60px;""> </div>","null","LF","learning/Slide26.JPG","This is a wug:","","",""
"html-keyboard-response","84","214726","0.0-5.0-0.26","LF","8706z1pc24","1920","1080","0","1","0","5c916456ec114b0016418dca","","null","","","learningBlock1","","","","This is a bim:","null","","","","","",""
"image-keyboard-response","85","215055","0.0-5.0-1.26","LF","8706z1pc24","1920","1080","0","1","0","5c916456ec114b0016418dca","","null","","","","","","","learning/Slide27.JPG","null","","","","","",""
"html-keyboard-response","86","216057","0.0-5.0-2.26","LF","8706z1pc24","1920","1080","0","1","0","5c916456ec114b0016418dca","","null","","","learningBlock1","","","","<div style=""font-size:60px;""> </div>","null","LF","learning/Slide27.JPG","This is a bim:","","",""
"html-keyboard-response","87","217060","0.0-5.0-0.27","LF","8706z1pc24","1920","1080","0","1","0","5c916456ec114b0016418dca","","null","","","learningBlock1","","","","This is a dep:","null","","","","","",""
"image-keyboard-response","88","217388","0.0-5.0-1.27","LF","8706z1pc24","1920","1080","0","1","0","5c916456ec114b0016418dca","","null","","","","","","","learning/Slide28.JPG","null","","","","","",""
"html-keyboard-response","89","218398","0.0-5.0-2.27","LF","8706z1pc24","1920","1080","0","1","0","5c916456ec114b0016418dca","","null","","","learningBlock1","","","","<div style=""font-size:60px;""> </div>","null","LF","learning/Slide28.JPG","This is a dep:","","",""
"html-keyboard-response","90","219400","0.0-5.0-0.28","LF","8706z1pc24","1920","1080","0","1","0","5c916456ec114b0016418dca","","null","","","learningBlock1","","","","This is a tob:","null","","","","","",""
"image-keyboard-response","91","219728","0.0-5.0-1.28","LF","8706z1pc24","1920","1080","0","1","0","5c916456ec114b0016418dca","","null","","","","","","","learning/Slide29.JPG","null","","","","","",""
"html-keyboard-response","92","220731","0.0-5.0-2.28","LF","8706z1pc24","1920","1080","0","1","0","5c916456ec114b0016418dca","","null","","","learningBlock1","","","","<div style=""font-size:60px;""> </div>","null","LF","learning/Slide29.JPG","This is a tob:","","",""
"html-keyboard-response","93","221733","0.0-5.0-0.29","LF","8706z1pc24","1920","1080","0","1","0","5c916456ec114b0016418dca","","null","","","learningBlock1","","","","This is a dep:","null","","","","","",""
"image-keyboard-response","94","222061","0.0-5.0-1.29","LF","8706z1pc24","1920","1080","0","1","0","5c916456ec114b0016418dca","","null","","","","","","","learning/Slide30.JPG","null","","","","","",""
"html-keyboard-response","95","223064","0.0-5.0-2.29","LF","8706z1pc24","1920","1080","0","1","0","5c916456ec114b0016418dca","","null","","","learningBlock1","","","","<div style=""font-size:60px;""> </div>","null","LF","learning/Slide30.JPG","This is a dep:","","",""
"html-keyboard-response","96","224066","0.0-5.0-0.30","LF","8706z1pc24","1920","1080","0","1","0","5c916456ec114b0016418dca","","null","","","learningBlock1","","","","This is a wug:","null","","","","","",""
"image-keyboard-response","97","224393","0.0-5.0-1.30","LF","8706z1pc24","1920","1080","0","1","0","5c916456ec114b0016418dca","","null","","","","","","","learning/Slide31.JPG","null","","","","","",""
"html-keyboard-response","98","225410","0.0-5.0-2.30","LF","8706z1pc24","1920","1080","0","1","0","5c916456ec114b0016418dca","","null","","","learningBlock1","","","","<div style=""font-size:60px;""> </div>","null","LF","learning/Slide31.JPG","This is a wug:","","",""
"html-keyboard-response","99","226413","0.0-5.0-0.31","LF","8706z1pc24","1920","1080","0","1","0","5c916456ec114b0016418dca","","null","","","learningBlock1","","","","This is a tob:","null","","","","","",""
"image-keyboard-response","100","226740","0.0-5.0-1.31","LF","8706z1pc24","1920","1080","0","1","0","5c916456ec114b0016418dca","","null","","","","","","","learning/Slide32.JPG","null","","","","","",""
"html-keyboard-response","101","227743","0.0-5.0-2.31","LF","8706z1pc24","1920","1080","0","1","0","5c916456ec114b0016418dca","","null","","","learningBlock1","","","","<div style=""font-size:60px;""> </div>","null","LF","learning/Slide32.JPG","This is a tob:","","",""
"html-keyboard-response","102","228746","0.0-5.0-0.32","LF","8706z1pc24","1920","1080","0","1","0","5c916456ec114b0016418dca","","null","","","learningBlock1","","","","This is a bim:","null","","","","","",""
"image-keyboard-response","103","229074","0.0-5.0-1.32","LF","8706z1pc24","1920","1080","0","1","0","5c916456ec114b0016418dca","","null","","","","","","","learning/Slide33.JPG","null","","","","","",""
"html-keyboard-response","104","230075","0.0-5.0-2.32","LF","8706z1pc24","1920","1080","0","1","0","5c916456ec114b0016418dca","","null","","","learningBlock1","","","","<div style=""font-size:60px;""> </div>","null","LF","learning/Slide33.JPG","This is a bim:","","",""
"html-keyboard-response","105","231077","0.0-5.0-0.33","LF","8706z1pc24","1920","1080","0","1","0","5c916456ec114b0016418dca","","null","","","learningBlock1","","","","This is a tob:","null","","","","","",""
"image-keyboard-response","106","231406","0.0-5.0-1.33","LF","8706z1pc24","1920","1080","0","1","0","5c916456ec114b0016418dca","","null","","","","","","","learning/Slide34.JPG","null","","","","","",""
"html-keyboard-response","107","232409","0.0-5.0-2.33","LF","8706z1pc24","1920","1080","0","1","0","5c916456ec114b0016418dca","","null","","","learningBlock1","","","","<div style=""font-size:60px;""> </div>","null","LF","learning/Slide34.JPG","This is a tob:","","",""
"html-keyboard-response","108","233412","0.0-5.0-0.34","LF","8706z1pc24","1920","1080","0","1","0","5c916456ec114b0016418dca","","null","","","learningBlock1","","","","This is a bim:","null","","","","","",""
"image-keyboard-response","109","233739","0.0-5.0-1.34","LF","8706z1pc24","1920","1080","0","1","0","5c916456ec114b0016418dca","","null","","","","","","","learning/Slide35.JPG","null","","","","","",""
"html-keyboard-response","110","234742","0.0-5.0-2.34","LF","8706z1pc24","1920","1080","0","1","0","5c916456ec114b0016418dca","","null","","","learningBlock1","","","","<div style=""font-size:60px;""> </div>","null","LF","learning/Slide35.JPG","This is a bim:","","",""
"html-keyboard-response","111","235744","0.0-5.0-0.35","LF","8706z1pc24","1920","1080","0","1","0","5c916456ec114b0016418dca","","null","","","learningBlock1","","","","This is a dep:","null","","","","","",""
"image-keyboard-response","112","236072","0.0-5.0-1.35","LF","8706z1pc24","1920","1080","0","1","0","5c916456ec114b0016418dca","","null","","","","","","","learning/Slide36.JPG","null","","","","","",""
"html-keyboard-response","113","237075","0.0-5.0-2.35","LF","8706z1pc24","1920","1080","0","1","0","5c916456ec114b0016418dca","","null","","","learningBlock1","","","","<div style=""font-size:60px;""> </div>","null","LF","learning/Slide36.JPG","This is a dep:","","",""
"html-keyboard-response","114","238078","0.0-5.0-0.36","LF","8706z1pc24","1920","1080","0","1","0","5c916456ec114b0016418dca","","null","","","learningBlock1","","","","This is a tob:","null","","","","","",""
"image-keyboard-response","115","238406","0.0-5.0-1.36","LF","8706z1pc24","1920","1080","0","1","0","5c916456ec114b0016418dca","","null","","","","","","","learning/Slide37.JPG","null","","","","","",""
"html-keyboard-response","116","239407","0.0-5.0-2.36","LF","8706z1pc24","1920","1080","0","1","0","5c916456ec114b0016418dca","","null","","","learningBlock1","","","","<div style=""font-size:60px;""> </div>","null","LF","learning/Slide37.JPG","This is a tob:","","",""
"html-keyboard-response","117","240408","0.0-5.0-0.37","LF","8706z1pc24","1920","1080","0","1","0","5c916456ec114b0016418dca","","null","","","learningBlock1","","","","This is a wug:","null","","","","","",""
"image-keyboard-response","118","240737","0.0-5.0-1.37","LF","8706z1pc24","1920","1080","0","1","0","5c916456ec114b0016418dca","","null","","","","","","","learning/Slide38.JPG","null","","","","","",""
"html-keyboard-response","119","241741","0.0-5.0-2.37","LF","8706z1pc24","1920","1080","0","1","0","5c916456ec114b0016418dca","","null","","","learningBlock1","","","","<div style=""font-size:60px;""> </div>","null","LF","learning/Slide38.JPG","This is a wug:","","",""
"html-keyboard-response","120","242758","0.0-5.0-0.38","LF","8706z1pc24","1920","1080","0","1","0","5c916456ec114b0016418dca","","null","","","learningBlock1","","","","This is a bim:","null","","","","","",""
"image-keyboard-response","121","243086","0.0-5.0-1.38","LF","8706z1pc24","1920","1080","0","1","0","5c916456ec114b0016418dca","","null","","","","","","","learning/Slide39.JPG","null","","","","","",""
"html-keyboard-response","122","244088","0.0-5.0-2.38","LF","8706z1pc24","1920","1080","0","1","0","5c916456ec114b0016418dca","","null","","","learningBlock1","","","","<div style=""font-size:60px;""> </div>","null","LF","learning/Slide39.JPG","This is a bim:","","",""
"html-keyboard-response","123","245090","0.0-5.0-0.39","LF","8706z1pc24","1920","1080","0","1","0","5c916456ec114b0016418dca","","null","","","learningBlock1","","","","This is a tob:","null","","","","","",""
"image-keyboard-response","124","245419","0.0-5.0-1.39","LF","8706z1pc24","1920","1080","0","1","0","5c916456ec114b0016418dca","","null","","","","","","","learning/Slide40.JPG","null","","","","","",""
"html-keyboard-response","125","246421","0.0-5.0-2.39","LF","8706z1pc24","1920","1080","0","1","0","5c916456ec114b0016418dca","","null","","","learningBlock1","","","","<div style=""font-size:60px;""> </div>","null","LF","learning/Slide40.JPG","This is a tob:","","",""
"html-keyboard-response","126","247423","0.0-5.0-0.40","LF","8706z1pc24","1920","1080","0","1","0","5c916456ec114b0016418dca","","null","","","learningBlock1","","","","This is a bim:","null","","","","","",""
"image-keyboard-response","127","247752","0.0-5.0-1.40","LF","8706z1pc24","1920","1080","0","1","0","5c916456ec114b0016418dca","","null","","","","","","","learning/Slide41.JPG","null","","","","","",""
"html-keyboard-response","128","248755","0.0-5.0-2.40","LF","8706z1pc24","1920","1080","0","1","0","5c916456ec114b0016418dca","","null","","","learningBlock1","","","","<div style=""font-size:60px;""> </div>","null","LF","learning/Slide41.JPG","This is a bim:","","",""
"html-keyboard-response","129","249757","0.0-5.0-0.41","LF","8706z1pc24","1920","1080","0","1","0","5c916456ec114b0016418dca","","null","","","learningBlock1","","","","This is a dep:","null","","","","","",""
"image-keyboard-response","130","250085","0.0-5.0-1.41","LF","8706z1pc24","1920","1080","0","1","0","5c916456ec114b0016418dca","","null","","","","","","","learning/Slide42.JPG","null","","","","","",""
"html-keyboard-response","131","251087","0.0-5.0-2.41","LF","8706z1pc24","1920","1080","0","1","0","5c916456ec114b0016418dca","","null","","","learningBlock1","","","","<div style=""font-size:60px;""> </div>","null","LF","learning/Slide42.JPG","This is a dep:","","",""
"html-keyboard-response","132","252089","0.0-5.0-0.42","LF","8706z1pc24","1920","1080","0","1","0","5c916456ec114b0016418dca","","null","","","learningBlock1","","","","This is a wug:","null","","","","","",""
"image-keyboard-response","133","252418","0.0-5.0-1.42","LF","8706z1pc24","1920","1080","0","1","0","5c916456ec114b0016418dca","","null","","","","","","","learning/Slide43.JPG","null","","","","","",""
"html-keyboard-response","134","253420","0.0-5.0-2.42","LF","8706z1pc24","1920","1080","0","1","0","5c916456ec114b0016418dca","","null","","","learningBlock1","","","","<div style=""font-size:60px;""> </div>","null","LF","learning/Slide43.JPG","This is a wug:","","",""
"html-keyboard-response","135","254421","0.0-5.0-0.43","LF","8706z1pc24","1920","1080","0","1","0","5c916456ec114b0016418dca","","null","","","learningBlock1","","","","This is a bim:","null","","","","","",""
"image-keyboard-response","136","254749","0.0-5.0-1.43","LF","8706z1pc24","1920","1080","0","1","0","5c916456ec114b0016418dca","","null","","","","","","","learning/Slide44.JPG","null","","","","","",""
"html-keyboard-response","137","255752","0.0-5.0-2.43","LF","8706z1pc24","1920","1080","0","1","0","5c916456ec114b0016418dca","","null","","","learningBlock1","","","","<div style=""font-size:60px;""> </div>","null","LF","learning/Slide44.JPG","This is a bim:","","",""
"html-keyboard-response","138","256754","0.0-5.0-0.44","LF","8706z1pc24","1920","1080","0","1","0","5c916456ec114b0016418dca","","null","","","learningBlock1","","","","This is a wug:","null","","","","","",""
"image-keyboard-response","139","257082","0.0-5.0-1.44","LF","8706z1pc24","1920","1080","0","1","0","5c916456ec114b0016418dca","","null","","","","","","","learning/Slide45.JPG","null","","","","","",""
"html-keyboard-response","140","258085","0.0-5.0-2.44","LF","8706z1pc24","1920","1080","0","1","0","5c916456ec114b0016418dca","","null","","","learningBlock1","","","","<div style=""font-size:60px;""> </div>","null","LF","learning/Slide45.JPG","This is a wug:","","",""
"html-keyboard-response","141","259086","0.0-5.0-0.45","LF","8706z1pc24","1920","1080","0","1","0","5c916456ec114b0016418dca","","null","","","learningBlock1","","","","This is a dep:","null","","","","","",""
"image-keyboard-response","142","259415","0.0-5.0-1.45","LF","8706z1pc24","1920","1080","0","1","0","5c916456ec114b0016418dca","","null","","","","","","","learning/Slide46.JPG","null","","","","","",""
"html-keyboard-response","143","260418","0.0-5.0-2.45","LF","8706z1pc24","1920","1080","0","1","0","5c916456ec114b0016418dca","","null","","","learningBlock1","","","","<div style=""font-size:60px;""> </div>","null","LF","learning/Slide46.JPG","This is a dep:","","",""
"html-keyboard-response","144","261421","0.0-5.0-0.46","LF","8706z1pc24","1920","1080","0","1","0","5c916456ec114b0016418dca","","null","","","learningBlock1","","","","This is a tob:","null","","","","","",""
"image-keyboard-response","145","261748","0.0-5.0-1.46","LF","8706z1pc24","1920","1080","0","1","0","5c916456ec114b0016418dca","","null","","","","","","","learning/Slide47.JPG","null","","","","","",""
"html-keyboard-response","146","262751","0.0-5.0-2.46","LF","8706z1pc24","1920","1080","0","1","0","5c916456ec114b0016418dca","","null","","","learningBlock1","","","","<div style=""font-size:60px;""> </div>","null","LF","learning/Slide47.JPG","This is a tob:","","",""
"html-keyboard-response","147","263754","0.0-5.0-0.47","LF","8706z1pc24","1920","1080","0","1","0","5c916456ec114b0016418dca","","null","","","learningBlock1","","","","This is a bim:","null","","","","","",""
"image-keyboard-response","148","264081","0.0-5.0-1.47","LF","8706z1pc24","1920","1080","0","1","0","5c916456ec114b0016418dca","","null","","","","","","","learning/Slide48.JPG","null","","","","","",""
"html-keyboard-response","149","265084","0.0-5.0-2.47","LF","8706z1pc24","1920","1080","0","1","0","5c916456ec114b0016418dca","","null","","","learningBlock1","","","","<div style=""font-size:60px;""> </div>","null","LF","learning/Slide48.JPG","This is a bim:","","",""
"html-keyboard-response","150","266087","0.0-5.0-0.48","LF","8706z1pc24","1920","1080","0","1","0","5c916456ec114b0016418dca","","null","","","learningBlock1","","","","This is a dep:","null","","","","","",""
"image-keyboard-response","151","266415","0.0-5.0-1.48","LF","8706z1pc24","1920","1080","0","1","0","5c916456ec114b0016418dca","","null","","","","","","","learning/Slide49.JPG","null","","","","","",""
"html-keyboard-response","152","267418","0.0-5.0-2.48","LF","8706z1pc24","1920","1080","0","1","0","5c916456ec114b0016418dca","","null","","","learningBlock1","","","","<div style=""font-size:60px;""> </div>","null","LF","learning/Slide49.JPG","This is a dep:","","",""
"html-keyboard-response","153","268419","0.0-5.0-0.49","LF","8706z1pc24","1920","1080","0","1","0","5c916456ec114b0016418dca","","null","","","learningBlock1","","","","This is a tob:","null","","","","","",""
"image-keyboard-response","154","268747","0.0-5.0-1.49","LF","8706z1pc24","1920","1080","0","1","0","5c916456ec114b0016418dca","","null","","","","","","","learning/Slide50.JPG","null","","","","","",""
"html-keyboard-response","155","269750","0.0-5.0-2.49","LF","8706z1pc24","1920","1080","0","1","0","5c916456ec114b0016418dca","","null","","","learningBlock1","","","","<div style=""font-size:60px;""> </div>","null","LF","learning/Slide50.JPG","This is a tob:","","",""
"html-keyboard-response","156","270752","0.0-5.0-0.50","LF","8706z1pc24","1920","1080","0","1","0","5c916456ec114b0016418dca","","null","","","learningBlock1","","","","This is a bim:","null","","","","","",""
"image-keyboard-response","157","271086","0.0-5.0-1.50","LF","8706z1pc24","1920","1080","0","1","0","5c916456ec114b0016418dca","","null","","","","","","","learning/Slide51.JPG","null","","","","","",""
"html-keyboard-response","158","272089","0.0-5.0-2.50","LF","8706z1pc24","1920","1080","0","1","0","5c916456ec114b0016418dca","","null","","","learningBlock1","","","","<div style=""font-size:60px;""> </div>","null","LF","learning/Slide51.JPG","This is a bim:","","",""
"html-keyboard-response","159","273091","0.0-5.0-0.51","LF","8706z1pc24","1920","1080","0","1","0","5c916456ec114b0016418dca","","null","","","learningBlock1","","","","This is a wug:","null","","","","","",""
"image-keyboard-response","160","273420","0.0-5.0-1.51","LF","8706z1pc24","1920","1080","0","1","0","5c916456ec114b0016418dca","","null","","","","","","","learning/Slide52.JPG","null","","","","","",""
"html-keyboard-response","161","274420","0.0-5.0-2.51","LF","8706z1pc24","1920","1080","0","1","0","5c916456ec114b0016418dca","","null","","","learningBlock1","","","","<div style=""font-size:60px;""> </div>","null","LF","learning/Slide52.JPG","This is a wug:","","",""
"html-keyboard-response","162","275423","0.0-5.0-0.52","LF","8706z1pc24","1920","1080","0","1","0","5c916456ec114b0016418dca","","null","","","learningBlock1","","","","This is a tob:","null","","","","","",""
"image-keyboard-response","163","275750","0.0-5.0-1.52","LF","8706z1pc24","1920","1080","0","1","0","5c916456ec114b0016418dca","","null","","","","","","","learning/Slide53.JPG","null","","","","","",""
"html-keyboard-response","164","276754","0.0-5.0-2.52","LF","8706z1pc24","1920","1080","0","1","0","5c916456ec114b0016418dca","","null","","","learningBlock1","","","","<div style=""font-size:60px;""> </div>","null","LF","learning/Slide53.JPG","This is a tob:","","",""
"html-keyboard-response","165","277755","0.0-5.0-0.53","LF","8706z1pc24","1920","1080","0","1","0","5c916456ec114b0016418dca","","null","","","learningBlock1","","","","This is a dep:","null","","","","","",""
"image-keyboard-response","166","278083","0.0-5.0-1.53","LF","8706z1pc24","1920","1080","0","1","0","5c916456ec114b0016418dca","","null","","","","","","","learning/Slide54.JPG","null","","","","","",""
"html-keyboard-response","167","279085","0.0-5.0-2.53","LF","8706z1pc24","1920","1080","0","1","0","5c916456ec114b0016418dca","","null","","","learningBlock1","","","","<div style=""font-size:60px;""> </div>","null","LF","learning/Slide54.JPG","This is a dep:","","",""
"html-keyboard-response","168","280087","0.0-5.0-0.54","LF","8706z1pc24","1920","1080","0","1","0","5c916456ec114b0016418dca","","null","","","learningBlock1","","","","This is a bim:","null","","","","","",""
"image-keyboard-response","169","280416","0.0-5.0-1.54","LF","8706z1pc24","1920","1080","0","1","0","5c916456ec114b0016418dca","","null","","","","","","","learning/Slide55.JPG","null","","","","","",""
"html-keyboard-response","170","281419","0.0-5.0-2.54","LF","8706z1pc24","1920","1080","0","1","0","5c916456ec114b0016418dca","","null","","","learningBlock1","","","","<div style=""font-size:60px;""> </div>","null","LF","learning/Slide55.JPG","This is a bim:","","",""
"html-keyboard-response","171","282420","0.0-5.0-0.55","LF","8706z1pc24","1920","1080","0","1","0","5c916456ec114b0016418dca","","null","","","learningBlock1","","","","This is a tob:","null","","","","","",""
"image-keyboard-response","172","282747","0.0-5.0-1.55","LF","8706z1pc24","1920","1080","0","1","0","5c916456ec114b0016418dca","","null","","","","","","","learning/Slide56.JPG","null","","","","","",""
"html-keyboard-response","173","283750","0.0-5.0-2.55","LF","8706z1pc24","1920","1080","0","1","0","5c916456ec114b0016418dca","","null","","","learningBlock1","","","","<div style=""font-size:60px;""> </div>","null","LF","learning/Slide56.JPG","This is a tob:","","",""
"html-keyboard-response","174","284752","0.0-5.0-0.56","LF","8706z1pc24","1920","1080","0","1","0","5c916456ec114b0016418dca","","null","","","learningBlock1","","","","This is a dep:","null","","","","","",""
"image-keyboard-response","175","285080","0.0-5.0-1.56","LF","8706z1pc24","1920","1080","0","1","0","5c916456ec114b0016418dca","","null","","","","","","","learning/Slide57.JPG","null","","","","","",""
"html-keyboard-response","176","286084","0.0-5.0-2.56","LF","8706z1pc24","1920","1080","0","1","0","5c916456ec114b0016418dca","","null","","","learningBlock1","","","","<div style=""font-size:60px;""> </div>","null","LF","learning/Slide57.JPG","This is a dep:","","",""
"html-keyboard-response","177","287096","0.0-5.0-0.57","LF","8706z1pc24","1920","1080","0","1","0","5c916456ec114b0016418dca","","null","","","learningBlock1","","","","This is a wug:","null","","","","","",""
"image-keyboard-response","178","287423","0.0-5.0-1.57","LF","8706z1pc24","1920","1080","0","1","0","5c916456ec114b0016418dca","","null","","","","","","","learning/Slide58.JPG","null","","","","","",""
"html-keyboard-response","179","288425","0.0-5.0-2.57","LF","8706z1pc24","1920","1080","0","1","0","5c916456ec114b0016418dca","","null","","","learningBlock1","","","","<div style=""font-size:60px;""> </div>","null","LF","learning/Slide58.JPG","This is a wug:","","",""
"html-keyboard-response","180","289427","0.0-5.0-0.58","LF","8706z1pc24","1920","1080","0","1","0","5c916456ec114b0016418dca","","null","","","learningBlock1","","","","This is a dep:","null","","","","","",""
"image-keyboard-response","181","289754","0.0-5.0-1.58","LF","8706z1pc24","1920","1080","0","1","0","5c916456ec114b0016418dca","","null","","","","","","","learning/Slide59.JPG","null","","","","","",""
"html-keyboard-response","182","290755","0.0-5.0-2.58","LF","8706z1pc24","1920","1080","0","1","0","5c916456ec114b0016418dca","","null","","","learningBlock1","","","","<div style=""font-size:60px;""> </div>","null","LF","learning/Slide59.JPG","This is a dep:","","",""
"html-keyboard-response","183","291757","0.0-5.0-0.59","LF","8706z1pc24","1920","1080","0","1","0","5c916456ec114b0016418dca","","null","","","learningBlock1","","","","This is a wug:","null","","","","","",""
"image-keyboard-response","184","292084","0.0-5.0-1.59","LF","8706z1pc24","1920","1080","0","1","0","5c916456ec114b0016418dca","","null","","","","","","","learning/Slide60.JPG","null","","","","","",""
"html-keyboard-response","185","293086","0.0-5.0-2.59","LF","8706z1pc24","1920","1080","0","1","0","5c916456ec114b0016418dca","","null","","","learningBlock1","","","","<div style=""font-size:60px;""> </div>","null","LF","learning/Slide60.JPG","This is a wug:","","",""
"html-keyboard-response","186","294087","0.0-5.0-0.60","LF","8706z1pc24","1920","1080","0","1","0","5c916456ec114b0016418dca","","null","","","learningBlock1","","","","This is a bim:","null","","","","","",""
"image-keyboard-response","187","294416","0.0-5.0-1.60","LF","8706z1pc24","1920","1080","0","1","0","5c916456ec114b0016418dca","","null","","","","","","","learning/Slide61.JPG","null","","","","","",""
"html-keyboard-response","188","295419","0.0-5.0-2.60","LF","8706z1pc24","1920","1080","0","1","0","5c916456ec114b0016418dca","","null","","","learningBlock1","","","","<div style=""font-size:60px;""> </div>","null","LF","learning/Slide61.JPG","This is a bim:","","",""
"html-keyboard-response","189","296420","0.0-5.0-0.61","LF","8706z1pc24","1920","1080","0","1","0","5c916456ec114b0016418dca","","null","","","learningBlock1","","","","This is a dep:","null","","","","","",""
"image-keyboard-response","190","296748","0.0-5.0-1.61","LF","8706z1pc24","1920","1080","0","1","0","5c916456ec114b0016418dca","","null","","","","","","","learning/Slide62.JPG","null","","","","","",""
"html-keyboard-response","191","297751","0.0-5.0-2.61","LF","8706z1pc24","1920","1080","0","1","0","5c916456ec114b0016418dca","","null","","","learningBlock1","","","","<div style=""font-size:60px;""> </div>","null","LF","learning/Slide62.JPG","This is a dep:","","",""
"html-keyboard-response","192","298753","0.0-5.0-0.62","LF","8706z1pc24","1920","1080","0","1","0","5c916456ec114b0016418dca","","null","","","learningBlock1","","","","This is a bim:","null","","","","","",""
"image-keyboard-response","193","299080","0.0-5.0-1.62","LF","8706z1pc24","1920","1080","0","1","0","5c916456ec114b0016418dca","","null","","","","","","","learning/Slide63.JPG","null","","","","","",""
"html-keyboard-response","194","300087","0.0-5.0-2.62","LF","8706z1pc24","1920","1080","0","1","0","5c916456ec114b0016418dca","","null","","","learningBlock1","","","","<div style=""font-size:60px;""> </div>","null","LF","learning/Slide63.JPG","This is a bim:","","",""
"html-keyboard-response","195","301089","0.0-5.0-0.63","LF","8706z1pc24","1920","1080","0","1","0","5c916456ec114b0016418dca","","null","","","learningBlock1","","","","This is a tob:","null","","","","","",""
"image-keyboard-response","196","301423","0.0-5.0-1.63","LF","8706z1pc24","1920","1080","0","1","0","5c916456ec114b0016418dca","","null","","","","","","","learning/Slide64.JPG","null","","","","","",""
"html-keyboard-response","197","302424","0.0-5.0-2.63","LF","8706z1pc24","1920","1080","0","1","0","5c916456ec114b0016418dca","","null","","","learningBlock1","","","","<div style=""font-size:60px;""> </div>","null","LF","learning/Slide64.JPG","This is a tob:","","",""
"html-keyboard-response","198","303427","0.0-5.0-0.64","LF","8706z1pc24","1920","1080","0","1","0","5c916456ec114b0016418dca","","null","","","learningBlock1","","","","This is a wug:","null","","","","","",""
"image-keyboard-response","199","303756","0.0-5.0-1.64","LF","8706z1pc24","1920","1080","0","1","0","5c916456ec114b0016418dca","","null","","","","","","","learning/Slide65.JPG","null","","","","","",""
"html-keyboard-response","200","304760","0.0-5.0-2.64","LF","8706z1pc24","1920","1080","0","1","0","5c916456ec114b0016418dca","","null","","","learningBlock1","","","","<div style=""font-size:60px;""> </div>","null","LF","learning/Slide65.JPG","This is a wug:","","",""
"html-keyboard-response","201","305762","0.0-5.0-0.65","LF","8706z1pc24","1920","1080","0","1","0","5c916456ec114b0016418dca","","null","","","learningBlock1","","","","This is a dep:","null","","","","","",""
"image-keyboard-response","202","306089","0.0-5.0-1.65","LF","8706z1pc24","1920","1080","0","1","0","5c916456ec114b0016418dca","","null","","","","","","","learning/Slide66.JPG","null","","","","","",""
"html-keyboard-response","203","307092","0.0-5.0-2.65","LF","8706z1pc24","1920","1080","0","1","0","5c916456ec114b0016418dca","","null","","","learningBlock1","","","","<div style=""font-size:60px;""> </div>","null","LF","learning/Slide66.JPG","This is a dep:","","",""
"html-keyboard-response","204","308094","0.0-5.0-0.66","LF","8706z1pc24","1920","1080","0","1","0","5c916456ec114b0016418dca","","null","","","learningBlock1","","","","This is a tob:","null","","","","","",""
"image-keyboard-response","205","308422","0.0-5.0-1.66","LF","8706z1pc24","1920","1080","0","1","0","5c916456ec114b0016418dca","","null","","","","","","","learning/Slide67.JPG","null","","","","","",""
"html-keyboard-response","206","309425","0.0-5.0-2.66","LF","8706z1pc24","1920","1080","0","1","0","5c916456ec114b0016418dca","","null","","","learningBlock1","","","","<div style=""font-size:60px;""> </div>","null","LF","learning/Slide67.JPG","This is a tob:","","",""
"html-keyboard-response","207","310427","0.0-5.0-0.67","LF","8706z1pc24","1920","1080","0","1","0","5c916456ec114b0016418dca","","null","","","learningBlock1","","","","This is a wug:","null","","","","","",""
"image-keyboard-response","208","310755","0.0-5.0-1.67","LF","8706z1pc24","1920","1080","0","1","0","5c916456ec114b0016418dca","","null","","","","","","","learning/Slide68.JPG","null","","","","","",""
"html-keyboard-response","209","311759","0.0-5.0-2.67","LF","8706z1pc24","1920","1080","0","1","0","5c916456ec114b0016418dca","","null","","","learningBlock1","","","","<div style=""font-size:60px;""> </div>","null","LF","learning/Slide68.JPG","This is a wug:","","",""
"html-keyboard-response","210","312761","0.0-5.0-0.68","LF","8706z1pc24","1920","1080","0","1","0","5c916456ec114b0016418dca","","null","","","learningBlock1","","","","This is a tob:","null","","","","","",""
"image-keyboard-response","211","313089","0.0-5.0-1.68","LF","8706z1pc24","1920","1080","0","1","0","5c916456ec114b0016418dca","","null","","","","","","","learning/Slide69.JPG","null","","","","","",""
"html-keyboard-response","212","314092","0.0-5.0-2.68","LF","8706z1pc24","1920","1080","0","1","0","5c916456ec114b0016418dca","","null","","","learningBlock1","","","","<div style=""font-size:60px;""> </div>","null","LF","learning/Slide69.JPG","This is a tob:","","",""
"html-keyboard-response","213","315107","0.0-5.0-0.69","LF","8706z1pc24","1920","1080","0","1","0","5c916456ec114b0016418dca","","null","","","learningBlock1","","","","This is a dep:","null","","","","","",""
"image-keyboard-response","214","315435","0.0-5.0-1.69","LF","8706z1pc24","1920","1080","0","1","0","5c916456ec114b0016418dca","","null","","","","","","","learning/Slide70.JPG","null","","","","","",""
"html-keyboard-response","215","316437","0.0-5.0-2.69","LF","8706z1pc24","1920","1080","0","1","0","5c916456ec114b0016418dca","","null","","","learningBlock1","","","","<div style=""font-size:60px;""> </div>","null","LF","learning/Slide70.JPG","This is a dep:","","",""
"html-keyboard-response","216","317439","0.0-5.0-0.70","LF","8706z1pc24","1920","1080","0","1","0","5c916456ec114b0016418dca","","null","","","learningBlock1","","","","This is a wug:","null","","","","","",""
"image-keyboard-response","217","317767","0.0-5.0-1.70","LF","8706z1pc24","1920","1080","0","1","0","5c916456ec114b0016418dca","","null","","","","","","","learning/Slide71.JPG","null","","","","","",""
"html-keyboard-response","218","318770","0.0-5.0-2.70","LF","8706z1pc24","1920","1080","0","1","0","5c916456ec114b0016418dca","","null","","","learningBlock1","","","","<div style=""font-size:60px;""> </div>","null","LF","learning/Slide71.JPG","This is a wug:","","",""
"html-keyboard-response","219","319772","0.0-5.0-0.71","LF","8706z1pc24","1920","1080","0","1","0","5c916456ec114b0016418dca","","null","","","learningBlock1","","","","This is a bim:","null","","","","","",""
"image-keyboard-response","220","320101","0.0-5.0-1.71","LF","8706z1pc24","1920","1080","0","1","0","5c916456ec114b0016418dca","","null","","","","","","","learning/Slide72.JPG","null","","","","","",""
"html-keyboard-response","221","321103","0.0-5.0-2.71","LF","8706z1pc24","1920","1080","0","1","0","5c916456ec114b0016418dca","","null","","","learningBlock1","","","","<div style=""font-size:60px;""> </div>","null","LF","learning/Slide72.JPG","This is a bim:","","",""
"html-keyboard-response","222","322106","0.0-5.0-0.72","LF","8706z1pc24","1920","1080","0","1","0","5c916456ec114b0016418dca","","null","","","learningBlock1","","","","This is a wug:","null","","","","","",""
"image-keyboard-response","223","322435","0.0-5.0-1.72","LF","8706z1pc24","1920","1080","0","1","0","5c916456ec114b0016418dca","","null","","","","","","","learning/Slide73.JPG","null","","","","","",""
"html-keyboard-response","224","323438","0.0-5.0-2.72","LF","8706z1pc24","1920","1080","0","1","0","5c916456ec114b0016418dca","","null","","","learningBlock1","","","","<div style=""font-size:60px;""> </div>","null","LF","learning/Slide73.JPG","This is a wug:","","",""
"html-keyboard-response","225","324439","0.0-5.0-0.73","LF","8706z1pc24","1920","1080","0","1","0","5c916456ec114b0016418dca","","null","","","learningBlock1","","","","This is a dep:","null","","","","","",""
"image-keyboard-response","226","324768","0.0-5.0-1.73","LF","8706z1pc24","1920","1080","0","1","0","5c916456ec114b0016418dca","","null","","","","","","","learning/Slide74.JPG","null","","","","","",""
"html-keyboard-response","227","325771","0.0-5.0-2.73","LF","8706z1pc24","1920","1080","0","1","0","5c916456ec114b0016418dca","","null","","","learningBlock1","","","","<div style=""font-size:60px;""> </div>","null","LF","learning/Slide74.JPG","This is a dep:","","",""
"html-keyboard-response","228","326774","0.0-5.0-0.74","LF","8706z1pc24","1920","1080","0","1","0","5c916456ec114b0016418dca","","null","","","learningBlock1","","","","This is a tob:","null","","","","","",""
"image-keyboard-response","229","327102","0.0-5.0-1.74","LF","8706z1pc24","1920","1080","0","1","0","5c916456ec114b0016418dca","","null","","","","","","","learning/Slide75.JPG","null","","","","","",""
"html-keyboard-response","230","328103","0.0-5.0-2.74","LF","8706z1pc24","1920","1080","0","1","0","5c916456ec114b0016418dca","","null","","","learningBlock1","","","","<div style=""font-size:60px;""> </div>","null","LF","learning/Slide75.JPG","This is a tob:","","",""
"html-keyboard-response","231","329105","0.0-5.0-0.75","LF","8706z1pc24","1920","1080","0","1","0","5c916456ec114b0016418dca","","null","","","learningBlock1","","","","This is a bim:","null","","","","","",""
"image-keyboard-response","232","329433","0.0-5.0-1.75","LF","8706z1pc24","1920","1080","0","1","0","5c916456ec114b0016418dca","","null","","","","","","","learning/Slide76.JPG","null","","","","","",""
"html-keyboard-response","233","330434","0.0-5.0-2.75","LF","8706z1pc24","1920","1080","0","1","0","5c916456ec114b0016418dca","","null","","","learningBlock1","","","","<div style=""font-size:60px;""> </div>","null","LF","learning/Slide76.JPG","This is a bim:","","",""
"html-keyboard-response","234","331436","0.0-5.0-0.76","LF","8706z1pc24","1920","1080","0","1","0","5c916456ec114b0016418dca","","null","","","learningBlock1","","","","This is a tob:","null","","","","","",""
"image-keyboard-response","235","331763","0.0-5.0-1.76","LF","8706z1pc24","1920","1080","0","1","0","5c916456ec114b0016418dca","","null","","","","","","","learning/Slide77.JPG","null","","","","","",""
"html-keyboard-response","236","332766","0.0-5.0-2.76","LF","8706z1pc24","1920","1080","0","1","0","5c916456ec114b0016418dca","","null","","","learningBlock1","","","","<div style=""font-size:60px;""> </div>","null","LF","learning/Slide77.JPG","This is a tob:","","",""
"html-keyboard-response","237","333768","0.0-5.0-0.77","LF","8706z1pc24","1920","1080","0","1","0","5c916456ec114b0016418dca","","null","","","learningBlock1","","","","This is a wug:","null","","","","","",""
"image-keyboard-response","238","334096","0.0-5.0-1.77","LF","8706z1pc24","1920","1080","0","1","0","5c916456ec114b0016418dca","","null","","","","","","","learning/Slide78.JPG","null","","","","","",""
"html-keyboard-response","239","335099","0.0-5.0-2.77","LF","8706z1pc24","1920","1080","0","1","0","5c916456ec114b0016418dca","","null","","","learningBlock1","","","","<div style=""font-size:60px;""> </div>","null","LF","learning/Slide78.JPG","This is a wug:","","",""
"html-keyboard-response","240","336102","0.0-5.0-0.78","LF","8706z1pc24","1920","1080","0","1","0","5c916456ec114b0016418dca","","null","","","learningBlock1","","","","This is a bim:","null","","","","","",""
"image-keyboard-response","241","336429","0.0-5.0-1.78","LF","8706z1pc24","1920","1080","0","1","0","5c916456ec114b0016418dca","","null","","","","","","","learning/Slide79.JPG","null","","","","","",""
"html-keyboard-response","242","337432","0.0-5.0-2.78","LF","8706z1pc24","1920","1080","0","1","0","5c916456ec114b0016418dca","","null","","","learningBlock1","","","","<div style=""font-size:60px;""> </div>","null","LF","learning/Slide79.JPG","This is a bim:","","",""
"html-keyboard-response","243","338433","0.0-5.0-0.79","LF","8706z1pc24","1920","1080","0","1","0","5c916456ec114b0016418dca","","null","","","learningBlock1","","","","This is a tob:","null","","","","","",""
"image-keyboard-response","244","338761","0.0-5.0-1.79","LF","8706z1pc24","1920","1080","0","1","0","5c916456ec114b0016418dca","","null","","","","","","","learning/Slide80.JPG","null","","","","","",""
"html-keyboard-response","245","339765","0.0-5.0-2.79","LF","8706z1pc24","1920","1080","0","1","0","5c916456ec114b0016418dca","","null","","","learningBlock1","","","","<div style=""font-size:60px;""> </div>","null","LF","learning/Slide80.JPG","This is a tob:","","",""
"instructions","246","360860","0.0-6.0","LF","8706z1pc24","1920","1080","0","1","0","5c916456ec114b0016418dca","","NA","","[{""page_index"":0,""viewing_time"":21094.470000010915}]","instructions","","","","","","","","","","",""
"html-keyboard-response","247","361862","0.0-7.0-0.0","LF","8706z1pc24","1920","1080","0","1","0","5c916456ec114b0016418dca","","null","","","learningBlock2","","","","This is a wug:","null","","","","","",""
"image-keyboard-response","248","362190","0.0-7.0-1.0","LF","8706z1pc24","1920","1080","0","1","0","5c916456ec114b0016418dca","","null","","","","","","","learning/Slide81.JPG","null","","","","","",""
"html-keyboard-response","249","363193","0.0-7.0-2.0","LF","8706z1pc24","1920","1080","0","1","0","5c916456ec114b0016418dca","","null","","","learningBlock2","","","","<div style=""font-size:60px;""> </div>","null","LF","learning/Slide81.JPG","This is a wug:","","",""
"html-keyboard-response","250","364195","0.0-7.0-0.1","LF","8706z1pc24","1920","1080","0","1","0","5c916456ec114b0016418dca","","null","","","learningBlock2","","","","This is a bim:","null","","","","","",""
"image-keyboard-response","251","364523","0.0-7.0-1.1","LF","8706z1pc24","1920","1080","0","1","0","5c916456ec114b0016418dca","","null","","","","","","","learning/Slide82.JPG","null","","","","","",""
"html-keyboard-response","252","365525","0.0-7.0-2.1","LF","8706z1pc24","1920","1080","0","1","0","5c916456ec114b0016418dca","","null","","","learningBlock2","","","","<div style=""font-size:60px;""> </div>","null","LF","learning/Slide82.JPG","This is a bim:","","",""
"html-keyboard-response","253","366527","0.0-7.0-0.2","LF","8706z1pc24","1920","1080","0","1","0","5c916456ec114b0016418dca","","null","","","learningBlock2","","","","This is a wug:","null","","","","","",""
"image-keyboard-response","254","366855","0.0-7.0-1.2","LF","8706z1pc24","1920","1080","0","1","0","5c916456ec114b0016418dca","","null","","","","","","","learning/Slide83.JPG","null","","","","","",""
"html-keyboard-response","255","367857","0.0-7.0-2.2","LF","8706z1pc24","1920","1080","0","1","0","5c916456ec114b0016418dca","","null","","","learningBlock2","","","","<div style=""font-size:60px;""> </div>","null","LF","learning/Slide83.JPG","This is a wug:","","",""
"html-keyboard-response","256","368860","0.0-7.0-0.3","LF","8706z1pc24","1920","1080","0","1","0","5c916456ec114b0016418dca","","null","","","learningBlock2","","","","This is a dep:","null","","","","","",""
"image-keyboard-response","257","369187","0.0-7.0-1.3","LF","8706z1pc24","1920","1080","0","1","0","5c916456ec114b0016418dca","","null","","","","","","","learning/Slide84.JPG","null","","","","","",""
"html-keyboard-response","258","370190","0.0-7.0-2.3","LF","8706z1pc24","1920","1080","0","1","0","5c916456ec114b0016418dca","","null","","","learningBlock2","","","","<div style=""font-size:60px;""> </div>","null","LF","learning/Slide84.JPG","This is a dep:","","",""
"html-keyboard-response","259","371191","0.0-7.0-0.4","LF","8706z1pc24","1920","1080","0","1","0","5c916456ec114b0016418dca","","null","","","learningBlock2","","","","This is a bim:","null","","","","","",""
"image-keyboard-response","260","371520","0.0-7.0-1.4","LF","8706z1pc24","1920","1080","0","1","0","5c916456ec114b0016418dca","","null","","","","","","","learning/Slide85.JPG","null","","","","","",""
"html-keyboard-response","261","372522","0.0-7.0-2.4","LF","8706z1pc24","1920","1080","0","1","0","5c916456ec114b0016418dca","","null","","","learningBlock2","","","","<div style=""font-size:60px;""> </div>","null","LF","learning/Slide85.JPG","This is a bim:","","",""
"html-keyboard-response","262","373524","0.0-7.0-0.5","LF","8706z1pc24","1920","1080","0","1","0","5c916456ec114b0016418dca","","null","","","learningBlock2","","","","This is a tob:","null","","","","","",""
"image-keyboard-response","263","373852","0.0-7.0-1.5","LF","8706z1pc24","1920","1080","0","1","0","5c916456ec114b0016418dca","","null","","","","","","","learning/Slide86.JPG","null","","","","","",""
"html-keyboard-response","264","374855","0.0-7.0-2.5","LF","8706z1pc24","1920","1080","0","1","0","5c916456ec114b0016418dca","","null","","","learningBlock2","","","","<div style=""font-size:60px;""> </div>","null","LF","learning/Slide86.JPG","This is a tob:","","",""
"html-keyboard-response","265","375858","0.0-7.0-0.6","LF","8706z1pc24","1920","1080","0","1","0","5c916456ec114b0016418dca","","null","","","learningBlock2","","","","This is a wug:","null","","","","","",""
"image-keyboard-response","266","376188","0.0-7.0-1.6","LF","8706z1pc24","1920","1080","0","1","0","5c916456ec114b0016418dca","","null","","","","","","","learning/Slide87.JPG","null","","","","","",""
"html-keyboard-response","267","377191","0.0-7.0-2.6","LF","8706z1pc24","1920","1080","0","1","0","5c916456ec114b0016418dca","","null","","","learningBlock2","","","","<div style=""font-size:60px;""> </div>","null","LF","learning/Slide87.JPG","This is a wug:","","",""
"html-keyboard-response","268","378193","0.0-7.0-0.7","LF","8706z1pc24","1920","1080","0","1","0","5c916456ec114b0016418dca","","null","","","learningBlock2","","","","This is a tob:","null","","","","","",""
"image-keyboard-response","269","378520","0.0-7.0-1.7","LF","8706z1pc24","1920","1080","0","1","0","5c916456ec114b0016418dca","","null","","","","","","","learning/Slide88.JPG","null","","","","","",""
"html-keyboard-response","270","379523","0.0-7.0-2.7","LF","8706z1pc24","1920","1080","0","1","0","5c916456ec114b0016418dca","","null","","","learningBlock2","","","","<div style=""font-size:60px;""> </div>","null","LF","learning/Slide88.JPG","This is a tob:","","",""
"html-keyboard-response","271","380526","0.0-7.0-0.8","LF","8706z1pc24","1920","1080","0","1","0","5c916456ec114b0016418dca","","null","","","learningBlock2","","","","This is a bim:","null","","","","","",""
"image-keyboard-response","272","380854","0.0-7.0-1.8","LF","8706z1pc24","1920","1080","0","1","0","5c916456ec114b0016418dca","","null","","","","","","","learning/Slide89.JPG","null","","","","","",""
"html-keyboard-response","273","381858","0.0-7.0-2.8","LF","8706z1pc24","1920","1080","0","1","0","5c916456ec114b0016418dca","","null","","","learningBlock2","","","","<div style=""font-size:60px;""> </div>","null","LF","learning/Slide89.JPG","This is a bim:","","",""
"html-keyboard-response","274","382859","0.0-7.0-0.9","LF","8706z1pc24","1920","1080","0","1","0","5c916456ec114b0016418dca","","null","","","learningBlock2","","","","This is a dep:","null","","","","","",""
"image-keyboard-response","275","383187","0.0-7.0-1.9","LF","8706z1pc24","1920","1080","0","1","0","5c916456ec114b0016418dca","","null","","","","","","","learning/Slide90.JPG","null","","","","","",""
"html-keyboard-response","276","384188","0.0-7.0-2.9","LF","8706z1pc24","1920","1080","0","1","0","5c916456ec114b0016418dca","","null","","","learningBlock2","","","","<div style=""font-size:60px;""> </div>","null","LF","learning/Slide90.JPG","This is a dep:","","",""
"html-keyboard-response","277","385190","0.0-7.0-0.10","LF","8706z1pc24","1920","1080","0","1","0","5c916456ec114b0016418dca","","null","","","learningBlock2","","","","This is a wug:","null","","","","","",""
"image-keyboard-response","278","385518","0.0-7.0-1.10","LF","8706z1pc24","1920","1080","0","1","0","5c916456ec114b0016418dca","","null","","","","","","","learning/Slide91.JPG","null","","","","","",""
"html-keyboard-response","279","386520","0.0-7.0-2.10","LF","8706z1pc24","1920","1080","0","1","0","5c916456ec114b0016418dca","","null","","","learningBlock2","","","","<div style=""font-size:60px;""> </div>","null","LF","learning/Slide91.JPG","This is a wug:","","",""
"html-keyboard-response","280","387523","0.0-7.0-0.11","LF","8706z1pc24","1920","1080","0","1","0","5c916456ec114b0016418dca","","null","","","learningBlock2","","","","This is a tob:","null","","","","","",""
"image-keyboard-response","281","387851","0.0-7.0-1.11","LF","8706z1pc24","1920","1080","0","1","0","5c916456ec114b0016418dca","","null","","","","","","","learning/Slide92.JPG","null","","","","","",""
"html-keyboard-response","282","388854","0.0-7.0-2.11","LF","8706z1pc24","1920","1080","0","1","0","5c916456ec114b0016418dca","","null","","","learningBlock2","","","","<div style=""font-size:60px;""> </div>","null","LF","learning/Slide92.JPG","This is a tob:","","",""
"html-keyboard-response","283","389858","0.0-7.0-0.12","LF","8706z1pc24","1920","1080","0","1","0","5c916456ec114b0016418dca","","null","","","learningBlock2","","","","This is a bim:","null","","","","","",""
"image-keyboard-response","284","390186","0.0-7.0-1.12","LF","8706z1pc24","1920","1080","0","1","0","5c916456ec114b0016418dca","","null","","","","","","","learning/Slide93.JPG","null","","","","","",""
"html-keyboard-response","285","391190","0.0-7.0-2.12","LF","8706z1pc24","1920","1080","0","1","0","5c916456ec114b0016418dca","","null","","","learningBlock2","","","","<div style=""font-size:60px;""> </div>","null","LF","learning/Slide93.JPG","This is a bim:","","",""
"html-keyboard-response","286","392191","0.0-7.0-0.13","LF","8706z1pc24","1920","1080","0","1","0","5c916456ec114b0016418dca","","null","","","learningBlock2","","","","This is a tob:","null","","","","","",""
"image-keyboard-response","287","392520","0.0-7.0-1.13","LF","8706z1pc24","1920","1080","0","1","0","5c916456ec114b0016418dca","","null","","","","","","","learning/Slide94.JPG","null","","","","","",""
"html-keyboard-response","288","393524","0.0-7.0-2.13","LF","8706z1pc24","1920","1080","0","1","0","5c916456ec114b0016418dca","","null","","","learningBlock2","","","","<div style=""font-size:60px;""> </div>","null","LF","learning/Slide94.JPG","This is a tob:","","",""
"html-keyboard-response","289","394527","0.0-7.0-0.14","LF","8706z1pc24","1920","1080","0","1","0","5c916456ec114b0016418dca","","null","","","learningBlock2","","","","This is a wug:","null","","","","","",""
"image-keyboard-response","290","394855","0.0-7.0-1.14","LF","8706z1pc24","1920","1080","0","1","0","5c916456ec114b0016418dca","","null","","","","","","","learning/Slide95.JPG","null","","","","","",""
"html-keyboard-response","291","395858","0.0-7.0-2.14","LF","8706z1pc24","1920","1080","0","1","0","5c916456ec114b0016418dca","","null","","","learningBlock2","","","","<div style=""font-size:60px;""> </div>","null","LF","learning/Slide95.JPG","This is a wug:","","",""
"html-keyboard-response","292","396859","0.0-7.0-0.15","LF","8706z1pc24","1920","1080","0","1","0","5c916456ec114b0016418dca","","null","","","learningBlock2","","","","This is a tob:","null","","","","","",""
"image-keyboard-response","293","397188","0.0-7.0-1.15","LF","8706z1pc24","1920","1080","0","1","0","5c916456ec114b0016418dca","","null","","","","","","","learning/Slide96.JPG","null","","","","","",""
"html-keyboard-response","294","398191","0.0-7.0-2.15","LF","8706z1pc24","1920","1080","0","1","0","5c916456ec114b0016418dca","","null","","","learningBlock2","","","","<div style=""font-size:60px;""> </div>","null","LF","learning/Slide96.JPG","This is a tob:","","",""
"html-keyboard-response","295","399194","0.0-7.0-0.16","LF","8706z1pc24","1920","1080","0","1","0","5c916456ec114b0016418dca","","null","","","learningBlock2","","","","This is a dep:","null","","","","","",""
"image-keyboard-response","296","399522","0.0-7.0-1.16","LF","8706z1pc24","1920","1080","0","1","0","5c916456ec114b0016418dca","","null","","","","","","","learning/Slide97.JPG","null","","","","","",""
"html-keyboard-response","297","400526","0.0-7.0-2.16","LF","8706z1pc24","1920","1080","0","1","0","5c916456ec114b0016418dca","","null","","","learningBlock2","","","","<div style=""font-size:60px;""> </div>","null","LF","learning/Slide97.JPG","This is a dep:","","",""
"html-keyboard-response","298","401528","0.0-7.0-0.17","LF","8706z1pc24","1920","1080","0","1","0","5c916456ec114b0016418dca","","null","","","learningBlock2","","","","This is a bim:","null","","","","","",""
"image-keyboard-response","299","401855","0.0-7.0-1.17","LF","8706z1pc24","1920","1080","0","1","0","5c916456ec114b0016418dca","","null","","","","","","","learning/Slide98.JPG","null","","","","","",""
"html-keyboard-response","300","402857","0.0-7.0-2.17","LF","8706z1pc24","1920","1080","0","1","0","5c916456ec114b0016418dca","","null","","","learningBlock2","","","","<div style=""font-size:60px;""> </div>","null","LF","learning/Slide98.JPG","This is a bim:","","",""
"html-keyboard-response","301","403860","0.0-7.0-0.18","LF","8706z1pc24","1920","1080","0","1","0","5c916456ec114b0016418dca","","null","","","learningBlock2","","","","This is a dep:","null","","","","","",""
"image-keyboard-response","302","404189","0.0-7.0-1.18","LF","8706z1pc24","1920","1080","0","1","0","5c916456ec114b0016418dca","","null","","","","","","","learning/Slide99.JPG","null","","","","","",""
"html-keyboard-response","303","405192","0.0-7.0-2.18","LF","8706z1pc24","1920","1080","0","1","0","5c916456ec114b0016418dca","","null","","","learningBlock2","","","","<div style=""font-size:60px;""> </div>","null","LF","learning/Slide99.JPG","This is a dep:","","",""
"html-keyboard-response","304","406194","0.0-7.0-0.19","LF","8706z1pc24","1920","1080","0","1","0","5c916456ec114b0016418dca","","null","","","learningBlock2","","","","This is a bim:","null","","","","","",""
"image-keyboard-response","305","406529","0.0-7.0-1.19","LF","8706z1pc24","1920","1080","0","1","0","5c916456ec114b0016418dca","","null","","","","","","","learning/Slide100.JPG","null","","","","","",""
"html-keyboard-response","306","407545","0.0-7.0-2.19","LF","8706z1pc24","1920","1080","0","1","0","5c916456ec114b0016418dca","","null","","","learningBlock2","","","","<div style=""font-size:60px;""> </div>","null","LF","learning/Slide100.JPG","This is a bim:","","",""
"html-keyboard-response","307","408548","0.0-7.0-0.20","LF","8706z1pc24","1920","1080","0","1","0","5c916456ec114b0016418dca","","null","","","learningBlock2","","","","This is a tob:","null","","","","","",""
"image-keyboard-response","308","408876","0.0-7.0-1.20","LF","8706z1pc24","1920","1080","0","1","0","5c916456ec114b0016418dca","","null","","","","","","","learning/Slide101.JPG","null","","","","","",""
"html-keyboard-response","309","409880","0.0-7.0-2.20","LF","8706z1pc24","1920","1080","0","1","0","5c916456ec114b0016418dca","","null","","","learningBlock2","","","","<div style=""font-size:60px;""> </div>","null","LF","learning/Slide101.JPG","This is a tob:","","",""
"html-keyboard-response","310","410882","0.0-7.0-0.21","LF","8706z1pc24","1920","1080","0","1","0","5c916456ec114b0016418dca","","null","","","learningBlock2","","","","This is a bim:","null","","","","","",""
"image-keyboard-response","311","411209","0.0-7.0-1.21","LF","8706z1pc24","1920","1080","0","1","0","5c916456ec114b0016418dca","","null","","","","","","","learning/Slide102.JPG","null","","","","","",""
"html-keyboard-response","312","412211","0.0-7.0-2.21","LF","8706z1pc24","1920","1080","0","1","0","5c916456ec114b0016418dca","","null","","","learningBlock2","","","","<div style=""font-size:60px;""> </div>","null","LF","learning/Slide102.JPG","This is a bim:","","",""
"html-keyboard-response","313","413213","0.0-7.0-0.22","LF","8706z1pc24","1920","1080","0","1","0","5c916456ec114b0016418dca","","null","","","learningBlock2","","","","This is a dep:","null","","","","","",""
"image-keyboard-response","314","413541","0.0-7.0-1.22","LF","8706z1pc24","1920","1080","0","1","0","5c916456ec114b0016418dca","","null","","","","","","","learning/Slide103.JPG","null","","","","","",""
"html-keyboard-response","315","414543","0.0-7.0-2.22","LF","8706z1pc24","1920","1080","0","1","0","5c916456ec114b0016418dca","","null","","","learningBlock2","","","","<div style=""font-size:60px;""> </div>","null","LF","learning/Slide103.JPG","This is a dep:","","",""
"html-keyboard-response","316","415561","0.0-7.0-0.23","LF","8706z1pc24","1920","1080","0","1","0","5c916456ec114b0016418dca","","null","","","learningBlock2","","","","This is a tob:","null","","","","","",""
"image-keyboard-response","317","415890","0.0-7.0-1.23","LF","8706z1pc24","1920","1080","0","1","0","5c916456ec114b0016418dca","","null","","","","","","","learning/Slide104.JPG","null","","","","","",""
"html-keyboard-response","318","416892","0.0-7.0-2.23","LF","8706z1pc24","1920","1080","0","1","0","5c916456ec114b0016418dca","","null","","","learningBlock2","","","","<div style=""font-size:60px;""> </div>","null","LF","learning/Slide104.JPG","This is a tob:","","",""
"html-keyboard-response","319","417895","0.0-7.0-0.24","LF","8706z1pc24","1920","1080","0","1","0","5c916456ec114b0016418dca","","null","","","learningBlock2","","","","This is a dep:","null","","","","","",""
"image-keyboard-response","320","418223","0.0-7.0-1.24","LF","8706z1pc24","1920","1080","0","1","0","5c916456ec114b0016418dca","","null","","","","","","","learning/Slide105.JPG","null","","","","","",""
"html-keyboard-response","321","419232","0.0-7.0-2.24","LF","8706z1pc24","1920","1080","0","1","0","5c916456ec114b0016418dca","","null","","","learningBlock2","","","","<div style=""font-size:60px;""> </div>","null","LF","learning/Slide105.JPG","This is a dep:","","",""
"html-keyboard-response","322","420234","0.0-7.0-0.25","LF","8706z1pc24","1920","1080","0","1","0","5c916456ec114b0016418dca","","null","","","learningBlock2","","","","This is a wug:","null","","","","","",""
"image-keyboard-response","323","420563","0.0-7.0-1.25","LF","8706z1pc24","1920","1080","0","1","0","5c916456ec114b0016418dca","","null","","","","","","","learning/Slide106.JPG","null","","","","","",""
"html-keyboard-response","324","421566","0.0-7.0-2.25","LF","8706z1pc24","1920","1080","0","1","0","5c916456ec114b0016418dca","","null","","","learningBlock2","","","","<div style=""font-size:60px;""> </div>","null","LF","learning/Slide106.JPG","This is a wug:","","",""
"html-keyboard-response","325","422581","0.0-7.0-0.26","LF","8706z1pc24","1920","1080","0","1","0","5c916456ec114b0016418dca","","null","","","learningBlock2","","","","This is a bim:","null","","","","","",""
"image-keyboard-response","326","422910","0.0-7.0-1.26","LF","8706z1pc24","1920","1080","0","1","0","5c916456ec114b0016418dca","","null","","","","","","","learning/Slide107.JPG","null","","","","","",""
"html-keyboard-response","327","423912","0.0-7.0-2.26","LF","8706z1pc24","1920","1080","0","1","0","5c916456ec114b0016418dca","","null","","","learningBlock2","","","","<div style=""font-size:60px;""> </div>","null","LF","learning/Slide107.JPG","This is a bim:","","",""
"html-keyboard-response","328","424915","0.0-7.0-0.27","LF","8706z1pc24","1920","1080","0","1","0","5c916456ec114b0016418dca","","null","","","learningBlock2","","","","This is a dep:","null","","","","","",""
"image-keyboard-response","329","425243","0.0-7.0-1.27","LF","8706z1pc24","1920","1080","0","1","0","5c916456ec114b0016418dca","","null","","","","","","","learning/Slide108.JPG","null","","","","","",""
"html-keyboard-response","330","426245","0.0-7.0-2.27","LF","8706z1pc24","1920","1080","0","1","0","5c916456ec114b0016418dca","","null","","","learningBlock2","","","","<div style=""font-size:60px;""> </div>","null","LF","learning/Slide108.JPG","This is a dep:","","",""
"html-keyboard-response","331","427248","0.0-7.0-0.28","LF","8706z1pc24","1920","1080","0","1","0","5c916456ec114b0016418dca","","null","","","learningBlock2","","","","This is a wug:","null","","","","","",""
"image-keyboard-response","332","427577","0.0-7.0-1.28","LF","8706z1pc24","1920","1080","0","1","0","5c916456ec114b0016418dca","","null","","","","","","","learning/Slide109.JPG","null","","","","","",""
"html-keyboard-response","333","428579","0.0-7.0-2.28","LF","8706z1pc24","1920","1080","0","1","0","5c916456ec114b0016418dca","","null","","","learningBlock2","","","","<div style=""font-size:60px;""> </div>","null","LF","learning/Slide109.JPG","This is a wug:","","",""
"html-keyboard-response","334","429581","0.0-7.0-0.29","LF","8706z1pc24","1920","1080","0","1","0","5c916456ec114b0016418dca","","null","","","learningBlock2","","","","This is a bim:","null","","","","","",""
"image-keyboard-response","335","429911","0.0-7.0-1.29","LF","8706z1pc24","1920","1080","0","1","0","5c916456ec114b0016418dca","","null","","","","","","","learning/Slide110.JPG","null","","","","","",""
"html-keyboard-response","336","430913","0.0-7.0-2.29","LF","8706z1pc24","1920","1080","0","1","0","5c916456ec114b0016418dca","","null","","","learningBlock2","","","","<div style=""font-size:60px;""> </div>","null","LF","learning/Slide110.JPG","This is a bim:","","",""
"html-keyboard-response","337","431915","0.0-7.0-0.30","LF","8706z1pc24","1920","1080","0","1","0","5c916456ec114b0016418dca","","null","","","learningBlock2","","","","This is a tob:","null","","","","","",""
"image-keyboard-response","338","432243","0.0-7.0-1.30","LF","8706z1pc24","1920","1080","0","1","0","5c916456ec114b0016418dca","","null","","","","","","","learning/Slide111.JPG","null","","","","","",""
"html-keyboard-response","339","433245","0.0-7.0-2.30","LF","8706z1pc24","1920","1080","0","1","0","5c916456ec114b0016418dca","","null","","","learningBlock2","","","","<div style=""font-size:60px;""> </div>","null","LF","learning/Slide111.JPG","This is a tob:","","",""
"html-keyboard-response","340","434247","0.0-7.0-0.31","LF","8706z1pc24","1920","1080","0","1","0","5c916456ec114b0016418dca","","null","","","learningBlock2","","","","This is a wug:","null","","","","","",""
"image-keyboard-response","341","434574","0.0-7.0-1.31","LF","8706z1pc24","1920","1080","0","1","0","5c916456ec114b0016418dca","","null","","","","","","","learning/Slide112.JPG","null","","","","","",""
"html-keyboard-response","342","435577","0.0-7.0-2.31","LF","8706z1pc24","1920","1080","0","1","0","5c916456ec114b0016418dca","","null","","","learningBlock2","","","","<div style=""font-size:60px;""> </div>","null","LF","learning/Slide112.JPG","This is a wug:","","",""
"html-keyboard-response","343","436580","0.0-7.0-0.32","LF","8706z1pc24","1920","1080","0","1","0","5c916456ec114b0016418dca","","null","","","learningBlock2","","","","This is a tob:","null","","","","","",""
"image-keyboard-response","344","436909","0.0-7.0-1.32","LF","8706z1pc24","1920","1080","0","1","0","5c916456ec114b0016418dca","","null","","","","","","","learning/Slide113.JPG","null","","","","","",""
"html-keyboard-response","345","437911","0.0-7.0-2.32","LF","8706z1pc24","1920","1080","0","1","0","5c916456ec114b0016418dca","","null","","","learningBlock2","","","","<div style=""font-size:60px;""> </div>","null","LF","learning/Slide113.JPG","This is a tob:","","",""
"html-keyboard-response","346","438913","0.0-7.0-0.33","LF","8706z1pc24","1920","1080","0","1","0","5c916456ec114b0016418dca","","null","","","learningBlock2","","","","This is a wug:","null","","","","","",""
"image-keyboard-response","347","439243","0.0-7.0-1.33","LF","8706z1pc24","1920","1080","0","1","0","5c916456ec114b0016418dca","","null","","","","","","","learning/Slide114.JPG","null","","","","","",""
"html-keyboard-response","348","440245","0.0-7.0-2.33","LF","8706z1pc24","1920","1080","0","1","0","5c916456ec114b0016418dca","","null","","","learningBlock2","","","","<div style=""font-size:60px;""> </div>","null","LF","learning/Slide114.JPG","This is a wug:","","",""
"html-keyboard-response","349","441248","0.0-7.0-0.34","LF","8706z1pc24","1920","1080","0","1","0","5c916456ec114b0016418dca","","null","","","learningBlock2","","","","This is a bim:","null","","","","","",""
"image-keyboard-response","350","441576","0.0-7.0-1.34","LF","8706z1pc24","1920","1080","0","1","0","5c916456ec114b0016418dca","","null","","","","","","","learning/Slide115.JPG","null","","","","","",""
"html-keyboard-response","351","442578","0.0-7.0-2.34","LF","8706z1pc24","1920","1080","0","1","0","5c916456ec114b0016418dca","","null","","","learningBlock2","","","","<div style=""font-size:60px;""> </div>","null","LF","learning/Slide115.JPG","This is a bim:","","",""
"html-keyboard-response","352","443581","0.0-7.0-0.35","LF","8706z1pc24","1920","1080","0","1","0","5c916456ec114b0016418dca","","null","","","learningBlock2","","","","This is a dep:","null","","","","","",""
"image-keyboard-response","353","443908","0.0-7.0-1.35","LF","8706z1pc24","1920","1080","0","1","0","5c916456ec114b0016418dca","","null","","","","","","","learning/Slide116.JPG","null","","","","","",""
"html-keyboard-response","354","444912","0.0-7.0-2.35","LF","8706z1pc24","1920","1080","0","1","0","5c916456ec114b0016418dca","","null","","","learningBlock2","","","","<div style=""font-size:60px;""> </div>","null","LF","learning/Slide116.JPG","This is a dep:","","",""
"html-keyboard-response","355","445914","0.0-7.0-0.36","LF","8706z1pc24","1920","1080","0","1","0","5c916456ec114b0016418dca","","null","","","learningBlock2","","","","This is a tob:","null","","","","","",""
"image-keyboard-response","356","446242","0.0-7.0-1.36","LF","8706z1pc24","1920","1080","0","1","0","5c916456ec114b0016418dca","","null","","","","","","","learning/Slide117.JPG","null","","","","","",""
"html-keyboard-response","357","447245","0.0-7.0-2.36","LF","8706z1pc24","1920","1080","0","1","0","5c916456ec114b0016418dca","","null","","","learningBlock2","","","","<div style=""font-size:60px;""> </div>","null","LF","learning/Slide117.JPG","This is a tob:","","",""
"html-keyboard-response","358","448247","0.0-7.0-0.37","LF","8706z1pc24","1920","1080","0","1","0","5c916456ec114b0016418dca","","null","","","learningBlock2","","","","This is a dep:","null","","","","","",""
"image-keyboard-response","359","448575","0.0-7.0-1.37","LF","8706z1pc24","1920","1080","0","1","0","5c916456ec114b0016418dca","","null","","","","","","","learning/Slide118.JPG","null","","","","","",""
"html-keyboard-response","360","449578","0.0-7.0-2.37","LF","8706z1pc24","1920","1080","0","1","0","5c916456ec114b0016418dca","","null","","","learningBlock2","","","","<div style=""font-size:60px;""> </div>","null","LF","learning/Slide118.JPG","This is a dep:","","",""
"html-keyboard-response","361","450580","0.0-7.0-0.38","LF","8706z1pc24","1920","1080","0","1","0","5c916456ec114b0016418dca","","null","","","learningBlock2","","","","This is a wug:","null","","","","","",""
"image-keyboard-response","362","450918","0.0-7.0-1.38","LF","8706z1pc24","1920","1080","0","1","0","5c916456ec114b0016418dca","","null","","","","","","","learning/Slide119.JPG","null","","","","","",""
"html-keyboard-response","363","451922","0.0-7.0-2.38","LF","8706z1pc24","1920","1080","0","1","0","5c916456ec114b0016418dca","","null","","","learningBlock2","","","","<div style=""font-size:60px;""> </div>","null","LF","learning/Slide119.JPG","This is a wug:","","",""
"html-keyboard-response","364","452924","0.0-7.0-0.39","LF","8706z1pc24","1920","1080","0","1","0","5c916456ec114b0016418dca","","null","","","learningBlock2","","","","This is a dep:","null","","","","","",""
"image-keyboard-response","365","453253","0.0-7.0-1.39","LF","8706z1pc24","1920","1080","0","1","0","5c916456ec114b0016418dca","","null","","","","","","","learning/Slide120.JPG","null","","","","","",""
"html-keyboard-response","366","454268","0.0-7.0-2.39","LF","8706z1pc24","1920","1080","0","1","0","5c916456ec114b0016418dca","","null","","","learningBlock2","","","","<div style=""font-size:60px;""> </div>","null","LF","learning/Slide120.JPG","This is a dep:","","",""
"html-keyboard-response","367","455269","0.0-7.0-0.40","LF","8706z1pc24","1920","1080","0","1","0","5c916456ec114b0016418dca","","null","","","learningBlock2","","","","This is a bim:","null","","","","","",""
"image-keyboard-response","368","455597","0.0-7.0-1.40","LF","8706z1pc24","1920","1080","0","1","0","5c916456ec114b0016418dca","","null","","","","","","","learning/Slide121.JPG","null","","","","","",""
"html-keyboard-response","369","456600","0.0-7.0-2.40","LF","8706z1pc24","1920","1080","0","1","0","5c916456ec114b0016418dca","","null","","","learningBlock2","","","","<div style=""font-size:60px;""> </div>","null","LF","learning/Slide121.JPG","This is a bim:","","",""
"html-keyboard-response","370","457602","0.0-7.0-0.41","LF","8706z1pc24","1920","1080","0","1","0","5c916456ec114b0016418dca","","null","","","learningBlock2","","","","This is a wug:","null","","","","","",""
"image-keyboard-response","371","457931","0.0-7.0-1.41","LF","8706z1pc24","1920","1080","0","1","0","5c916456ec114b0016418dca","","null","","","","","","","learning/Slide122.JPG","null","","","","","",""
"html-keyboard-response","372","458934","0.0-7.0-2.41","LF","8706z1pc24","1920","1080","0","1","0","5c916456ec114b0016418dca","","null","","","learningBlock2","","","","<div style=""font-size:60px;""> </div>","null","LF","learning/Slide122.JPG","This is a wug:","","",""
"html-keyboard-response","373","459937","0.0-7.0-0.42","LF","8706z1pc24","1920","1080","0","1","0","5c916456ec114b0016418dca","","null","","","learningBlock2","","","","This is a bim:","null","","","","","",""
"image-keyboard-response","374","460265","0.0-7.0-1.42","LF","8706z1pc24","1920","1080","0","1","0","5c916456ec114b0016418dca","","null","","","","","","","learning/Slide123.JPG","null","","","","","",""
"html-keyboard-response","375","461268","0.0-7.0-2.42","LF","8706z1pc24","1920","1080","0","1","0","5c916456ec114b0016418dca","","null","","","learningBlock2","","","","<div style=""font-size:60px;""> </div>","null","LF","learning/Slide123.JPG","This is a bim:","","",""
"html-keyboard-response","376","462271","0.0-7.0-0.43","LF","8706z1pc24","1920","1080","0","1","0","5c916456ec114b0016418dca","","null","","","learningBlock2","","","","This is a tob:","null","","","","","",""
"image-keyboard-response","377","462599","0.0-7.0-1.43","LF","8706z1pc24","1920","1080","0","1","0","5c916456ec114b0016418dca","","null","","","","","","","learning/Slide124.JPG","null","","","","","",""
"html-keyboard-response","378","463602","0.0-7.0-2.43","LF","8706z1pc24","1920","1080","0","1","0","5c916456ec114b0016418dca","","null","","","learningBlock2","","","","<div style=""font-size:60px;""> </div>","null","LF","learning/Slide124.JPG","This is a tob:","","",""
"html-keyboard-response","379","464603","0.0-7.0-0.44","LF","8706z1pc24","1920","1080","0","1","0","5c916456ec114b0016418dca","","null","","","learningBlock2","","","","This is a bim:","null","","","","","",""
"image-keyboard-response","380","464931","0.0-7.0-1.44","LF","8706z1pc24","1920","1080","0","1","0","5c916456ec114b0016418dca","","null","","","","","","","learning/Slide125.JPG","null","","","","","",""
"html-keyboard-response","381","465933","0.0-7.0-2.44","LF","8706z1pc24","1920","1080","0","1","0","5c916456ec114b0016418dca","","null","","","learningBlock2","","","","<div style=""font-size:60px;""> </div>","null","LF","learning/Slide125.JPG","This is a bim:","","",""
"html-keyboard-response","382","466943","0.0-7.0-0.45","LF","8706z1pc24","1920","1080","0","1","0","5c916456ec114b0016418dca","","null","","","learningBlock2","","","","This is a tob:","null","","","","","",""
"image-keyboard-response","383","467272","0.0-7.0-1.45","LF","8706z1pc24","1920","1080","0","1","0","5c916456ec114b0016418dca","","null","","","","","","","learning/Slide126.JPG","null","","","","","",""
"html-keyboard-response","384","468275","0.0-7.0-2.45","LF","8706z1pc24","1920","1080","0","1","0","5c916456ec114b0016418dca","","null","","","learningBlock2","","","","<div style=""font-size:60px;""> </div>","null","LF","learning/Slide126.JPG","This is a tob:","","",""
"html-keyboard-response","385","469277","0.0-7.0-0.46","LF","8706z1pc24","1920","1080","0","1","0","5c916456ec114b0016418dca","","null","","","learningBlock2","","","","This is a dep:","null","","","","","",""
"image-keyboard-response","386","469605","0.0-7.0-1.46","LF","8706z1pc24","1920","1080","0","1","0","5c916456ec114b0016418dca","","null","","","","","","","learning/Slide127.JPG","null","","","","","",""
"html-keyboard-response","387","470608","0.0-7.0-2.46","LF","8706z1pc24","1920","1080","0","1","0","5c916456ec114b0016418dca","","null","","","learningBlock2","","","","<div style=""font-size:60px;""> </div>","null","LF","learning/Slide127.JPG","This is a dep:","","",""
"html-keyboard-response","388","471610","0.0-7.0-0.47","LF","8706z1pc24","1920","1080","0","1","0","5c916456ec114b0016418dca","","null","","","learningBlock2","","","","This is a wug:","null","","","","","",""
"image-keyboard-response","389","471939","0.0-7.0-1.47","LF","8706z1pc24","1920","1080","0","1","0","5c916456ec114b0016418dca","","null","","","","","","","learning/Slide128.JPG","null","","","","","",""
"html-keyboard-response","390","472942","0.0-7.0-2.47","LF","8706z1pc24","1920","1080","0","1","0","5c916456ec114b0016418dca","","null","","","learningBlock2","","","","<div style=""font-size:60px;""> </div>","null","LF","learning/Slide128.JPG","This is a wug:","","",""
"html-keyboard-response","391","473944","0.0-7.0-0.48","LF","8706z1pc24","1920","1080","0","1","0","5c916456ec114b0016418dca","","null","","","learningBlock2","","","","This is a tob:","null","","","","","",""
"image-keyboard-response","392","474272","0.0-7.0-1.48","LF","8706z1pc24","1920","1080","0","1","0","5c916456ec114b0016418dca","","null","","","","","","","learning/Slide129.JPG","null","","","","","",""
"html-keyboard-response","393","475274","0.0-7.0-2.48","LF","8706z1pc24","1920","1080","0","1","0","5c916456ec114b0016418dca","","null","","","learningBlock2","","","","<div style=""font-size:60px;""> </div>","null","LF","learning/Slide129.JPG","This is a tob:","","",""
"html-keyboard-response","394","476275","0.0-7.0-0.49","LF","8706z1pc24","1920","1080","0","1","0","5c916456ec114b0016418dca","","null","","","learningBlock2","","","","This is a wug:","null","","","","","",""
"image-keyboard-response","395","476603","0.0-7.0-1.49","LF","8706z1pc24","1920","1080","0","1","0","5c916456ec114b0016418dca","","null","","","","","","","learning/Slide130.JPG","null","","","","","",""
"html-keyboard-response","396","477606","0.0-7.0-2.49","LF","8706z1pc24","1920","1080","0","1","0","5c916456ec114b0016418dca","","null","","","learningBlock2","","","","<div style=""font-size:60px;""> </div>","null","LF","learning/Slide130.JPG","This is a wug:","","",""
"html-keyboard-response","397","478613","0.0-7.0-0.50","LF","8706z1pc24","1920","1080","0","1","0","5c916456ec114b0016418dca","","null","","","learningBlock2","","","","This is a bim:","null","","","","","",""
"image-keyboard-response","398","478941","0.0-7.0-1.50","LF","8706z1pc24","1920","1080","0","1","0","5c916456ec114b0016418dca","","null","","","","","","","learning/Slide131.JPG","null","","","","","",""
"html-keyboard-response","399","479944","0.0-7.0-2.50","LF","8706z1pc24","1920","1080","0","1","0","5c916456ec114b0016418dca","","null","","","learningBlock2","","","","<div style=""font-size:60px;""> </div>","null","LF","learning/Slide131.JPG","This is a bim:","","",""
"html-keyboard-response","400","480947","0.0-7.0-0.51","LF","8706z1pc24","1920","1080","0","1","0","5c916456ec114b0016418dca","","null","","","learningBlock2","","","","This is a dep:","null","","","","","",""
"image-keyboard-response","401","481274","0.0-7.0-1.51","LF","8706z1pc24","1920","1080","0","1","0","5c916456ec114b0016418dca","","null","","","","","","","learning/Slide132.JPG","null","","","","","",""
"html-keyboard-response","402","482277","0.0-7.0-2.51","LF","8706z1pc24","1920","1080","0","1","0","5c916456ec114b0016418dca","","null","","","learningBlock2","","","","<div style=""font-size:60px;""> </div>","null","LF","learning/Slide132.JPG","This is a dep:","","",""
"html-keyboard-response","403","483280","0.0-7.0-0.52","LF","8706z1pc24","1920","1080","0","1","0","5c916456ec114b0016418dca","","null","","","learningBlock2","","","","This is a tob:","null","","","","","",""
"image-keyboard-response","404","483611","0.0-7.0-1.52","LF","8706z1pc24","1920","1080","0","1","0","5c916456ec114b0016418dca","","null","","","","","","","learning/Slide133.JPG","null","","","","","",""
"html-keyboard-response","405","484613","0.0-7.0-2.52","LF","8706z1pc24","1920","1080","0","1","0","5c916456ec114b0016418dca","","null","","","learningBlock2","","","","<div style=""font-size:60px;""> </div>","null","LF","learning/Slide133.JPG","This is a tob:","","",""
"html-keyboard-response","406","485615","0.0-7.0-0.53","LF","8706z1pc24","1920","1080","0","1","0","5c916456ec114b0016418dca","","null","","","learningBlock2","","","","This is a dep:","null","","","","","",""
"image-keyboard-response","407","485944","0.0-7.0-1.53","LF","8706z1pc24","1920","1080","0","1","0","5c916456ec114b0016418dca","","null","","","","","","","learning/Slide134.JPG","null","","","","","",""
"html-keyboard-response","408","486947","0.0-7.0-2.53","LF","8706z1pc24","1920","1080","0","1","0","5c916456ec114b0016418dca","","null","","","learningBlock2","","","","<div style=""font-size:60px;""> </div>","null","LF","learning/Slide134.JPG","This is a dep:","","",""
"html-keyboard-response","409","487949","0.0-7.0-0.54","LF","8706z1pc24","1920","1080","0","1","0","5c916456ec114b0016418dca","","null","","","learningBlock2","","","","This is a tob:","null","","","","","",""
"image-keyboard-response","410","488277","0.0-7.0-1.54","LF","8706z1pc24","1920","1080","0","1","0","5c916456ec114b0016418dca","","null","","","","","","","learning/Slide135.JPG","null","","","","","",""
"html-keyboard-response","411","489279","0.0-7.0-2.54","LF","8706z1pc24","1920","1080","0","1","0","5c916456ec114b0016418dca","","null","","","learningBlock2","","","","<div style=""font-size:60px;""> </div>","null","LF","learning/Slide135.JPG","This is a tob:","","",""
"html-keyboard-response","412","490282","0.0-7.0-0.55","LF","8706z1pc24","1920","1080","0","1","0","5c916456ec114b0016418dca","","null","","","learningBlock2","","","","This is a wug:","null","","","","","",""
"image-keyboard-response","413","490610","0.0-7.0-1.55","LF","8706z1pc24","1920","1080","0","1","0","5c916456ec114b0016418dca","","null","","","","","","","learning/Slide136.JPG","null","","","","","",""
"html-keyboard-response","414","491613","0.0-7.0-2.55","LF","8706z1pc24","1920","1080","0","1","0","5c916456ec114b0016418dca","","null","","","learningBlock2","","","","<div style=""font-size:60px;""> </div>","null","LF","learning/Slide136.JPG","This is a wug:","","",""
"html-keyboard-response","415","492614","0.0-7.0-0.56","LF","8706z1pc24","1920","1080","0","1","0","5c916456ec114b0016418dca","","null","","","learningBlock2","","","","This is a tob:","null","","","","","",""
"image-keyboard-response","416","492940","0.0-7.0-1.56","LF","8706z1pc24","1920","1080","0","1","0","5c916456ec114b0016418dca","","null","","","","","","","learning/Slide137.JPG","null","","","","","",""
"html-keyboard-response","417","493942","0.0-7.0-2.56","LF","8706z1pc24","1920","1080","0","1","0","5c916456ec114b0016418dca","","null","","","learningBlock2","","","","<div style=""font-size:60px;""> </div>","null","LF","learning/Slide137.JPG","This is a tob:","","",""
"html-keyboard-response","418","494950","0.0-7.0-0.57","LF","8706z1pc24","1920","1080","0","1","0","5c916456ec114b0016418dca","","null","","","learningBlock2","","","","This is a bim:","null","","","","","",""
"image-keyboard-response","419","495277","0.0-7.0-1.57","LF","8706z1pc24","1920","1080","0","1","0","5c916456ec114b0016418dca","","null","","","","","","","learning/Slide138.JPG","null","","","","","",""
"html-keyboard-response","420","496280","0.0-7.0-2.57","LF","8706z1pc24","1920","1080","0","1","0","5c916456ec114b0016418dca","","null","","","learningBlock2","","","","<div style=""font-size:60px;""> </div>","null","LF","learning/Slide138.JPG","This is a bim:","","",""
"html-keyboard-response","421","497281","0.0-7.0-0.58","LF","8706z1pc24","1920","1080","0","1","0","5c916456ec114b0016418dca","","null","","","learningBlock2","","","","This is a wug:","null","","","","","",""
"image-keyboard-response","422","497608","0.0-7.0-1.58","LF","8706z1pc24","1920","1080","0","1","0","5c916456ec114b0016418dca","","null","","","","","","","learning/Slide139.JPG","null","","","","","",""
"html-keyboard-response","423","498611","0.0-7.0-2.58","LF","8706z1pc24","1920","1080","0","1","0","5c916456ec114b0016418dca","","null","","","learningBlock2","","","","<div style=""font-size:60px;""> </div>","null","LF","learning/Slide139.JPG","This is a wug:","","",""
"html-keyboard-response","424","499613","0.0-7.0-0.59","LF","8706z1pc24","1920","1080","0","1","0","5c916456ec114b0016418dca","","null","","","learningBlock2","","","","This is a dep:","null","","","","","",""
"image-keyboard-response","425","499941","0.0-7.0-1.59","LF","8706z1pc24","1920","1080","0","1","0","5c916456ec114b0016418dca","","null","","","","","","","learning/Slide140.JPG","null","","","","","",""
"html-keyboard-response","426","500944","0.0-7.0-2.59","LF","8706z1pc24","1920","1080","0","1","0","5c916456ec114b0016418dca","","null","","","learningBlock2","","","","<div style=""font-size:60px;""> </div>","null","LF","learning/Slide140.JPG","This is a dep:","","",""
"html-keyboard-response","427","501946","0.0-7.0-0.60","LF","8706z1pc24","1920","1080","0","1","0","5c916456ec114b0016418dca","","null","","","learningBlock2","","","","This is a tob:","null","","","","","",""
"image-keyboard-response","428","502274","0.0-7.0-1.60","LF","8706z1pc24","1920","1080","0","1","0","5c916456ec114b0016418dca","","null","","","","","","","learning/Slide141.JPG","null","","","","","",""
"html-keyboard-response","429","503290","0.0-7.0-2.60","LF","8706z1pc24","1920","1080","0","1","0","5c916456ec114b0016418dca","","null","","","learningBlock2","","","","<div style=""font-size:60px;""> </div>","null","LF","learning/Slide141.JPG","This is a tob:","","",""
"html-keyboard-response","430","504292","0.0-7.0-0.61","LF","8706z1pc24","1920","1080","0","1","0","5c916456ec114b0016418dca","","null","","","learningBlock2","","","","This is a wug:","null","","","","","",""
"image-keyboard-response","431","504620","0.0-7.0-1.61","LF","8706z1pc24","1920","1080","0","1","0","5c916456ec114b0016418dca","","null","","","","","","","learning/Slide142.JPG","null","","","","","",""
"html-keyboard-response","432","505623","0.0-7.0-2.61","LF","8706z1pc24","1920","1080","0","1","0","5c916456ec114b0016418dca","","null","","","learningBlock2","","","","<div style=""font-size:60px;""> </div>","null","LF","learning/Slide142.JPG","This is a wug:","","",""
"html-keyboard-response","433","506625","0.0-7.0-0.62","LF","8706z1pc24","1920","1080","0","1","0","5c916456ec114b0016418dca","","null","","","learningBlock2","","","","This is a bim:","null","","","","","",""
"image-keyboard-response","434","506953","0.0-7.0-1.62","LF","8706z1pc24","1920","1080","0","1","0","5c916456ec114b0016418dca","","null","","","","","","","learning/Slide143.JPG","null","","","","","",""
"html-keyboard-response","435","507957","0.0-7.0-2.62","LF","8706z1pc24","1920","1080","0","1","0","5c916456ec114b0016418dca","","null","","","learningBlock2","","","","<div style=""font-size:60px;""> </div>","null","LF","learning/Slide143.JPG","This is a bim:","","",""
