"trial_type","trial_index","time_elapsed","internal_node_id","condition","subject","screen_width","screen_height","attention","distraction","conscientious","prolificID","success","rt","url","view_history","test_part","final_height_px","final_width_px","scale_factor","stimulus","key_press","learningType","presentedImage","presentedLabel","button_pressed","response","responses"
"pavlovia","0","91","0.0-0.0","FL","e4msx463h0","1366","768","0","1","0","5f1f04c1604e3508877cf62a","","","","","","","","","","","","","","","",""
"fullscreen","1","153074","0.0-1.0","FL","e4msx463h0","1366","768","0","1","0","5f1f04c1604e3508877cf62a","true","","","","","","","","","","","","","","",""
"external-html","2","209724","0.0-2.0-0.0","FL","e4msx463h0","1366","768","0","1","0","5f1f04c1604e3508877cf62a","","56589.20499996748","text/information_english.html","","","","","","","","","","","","",""
"external-html","3","219391","0.0-2.0-1.0","FL","e4msx463h0","1366","768","0","1","0","5f1f04c1604e3508877cf62a","","9594.114999985322","text/consent_english.html","","","","","","","","","","","","",""
"instructions","4","248793","0.0-3.0","FL","e4msx463h0","1366","768","0","1","0","5f1f04c1604e3508877cf62a","","NA","","[{""page_index"":0,""viewing_time"":2336.5150000317954},{""page_index"":1,""viewing_time"":27059.95999998413}]","instructions","","","","","","","","","","",""
"resize","5","291024","0.0-4.0","FL","e4msx463h0","1366","768","0","1","0","5f1f04c1604e3508877cf62a","","","","","","","355","2.253968253968254","","","","","","","",""
"image-keyboard-response","6","291202","0.0-5.0-0.0","FL","e4msx463h0","1366","768","0","1","0","5f1f04c1604e3508877cf62a","","null","","","","","","","learning/Slide1.JPG","null","","","","","",""
"html-keyboard-response","7","292355","0.0-5.0-1.0","FL","e4msx463h0","1366","768","0","1","0","5f1f04c1604e3508877cf62a","","null","","","learningBlock1","","","","That was a tob.","null","","","","","",""
"html-keyboard-response","8","293357","0.0-5.0-2.0","FL","e4msx463h0","1366","768","0","1","0","5f1f04c1604e3508877cf62a","","null","","","learningBlock1","","","","<div style=""font-size:60px;""> </div>","null","FL","learning/Slide1.JPG","That was a tob.","","",""
"image-keyboard-response","9","293535","0.0-5.0-0.1","FL","e4msx463h0","1366","768","0","1","0","5f1f04c1604e3508877cf62a","","null","","","","","","","learning/Slide2.JPG","null","","","","","",""
"html-keyboard-response","10","294688","0.0-5.0-1.1","FL","e4msx463h0","1366","768","0","1","0","5f1f04c1604e3508877cf62a","","null","","","learningBlock1","","","","That was a wug.","null","","","","","",""
"html-keyboard-response","11","295691","0.0-5.0-2.1","FL","e4msx463h0","1366","768","0","1","0","5f1f04c1604e3508877cf62a","","null","","","learningBlock1","","","","<div style=""font-size:60px;""> </div>","null","FL","learning/Slide2.JPG","That was a wug.","","",""
"image-keyboard-response","12","295868","0.0-5.0-0.2","FL","e4msx463h0","1366","768","0","1","0","5f1f04c1604e3508877cf62a","","null","","","","","","","learning/Slide3.JPG","null","","","","","",""
"html-keyboard-response","13","297020","0.0-5.0-1.2","FL","e4msx463h0","1366","768","0","1","0","5f1f04c1604e3508877cf62a","","null","","","learningBlock1","","","","That was a bim.","null","","","","","",""
"html-keyboard-response","14","298021","0.0-5.0-2.2","FL","e4msx463h0","1366","768","0","1","0","5f1f04c1604e3508877cf62a","","null","","","learningBlock1","","","","<div style=""font-size:60px;""> </div>","null","FL","learning/Slide3.JPG","That was a bim.","","",""
"image-keyboard-response","15","298198","0.0-5.0-0.3","FL","e4msx463h0","1366","768","0","1","0","5f1f04c1604e3508877cf62a","","null","","","","","","","learning/Slide4.JPG","null","","","","","",""
"html-keyboard-response","16","299352","0.0-5.0-1.3","FL","e4msx463h0","1366","768","0","1","0","5f1f04c1604e3508877cf62a","","null","","","learningBlock1","","","","That was a dep.","null","","","","","",""
"html-keyboard-response","17","300354","0.0-5.0-2.3","FL","e4msx463h0","1366","768","0","1","0","5f1f04c1604e3508877cf62a","","null","","","learningBlock1","","","","<div style=""font-size:60px;""> </div>","null","FL","learning/Slide4.JPG","That was a dep.","","",""
"image-keyboard-response","18","300531","0.0-5.0-0.4","FL","e4msx463h0","1366","768","0","1","0","5f1f04c1604e3508877cf62a","","null","","","","","","","learning/Slide5.JPG","null","","","","","",""
"html-keyboard-response","19","301684","0.0-5.0-1.4","FL","e4msx463h0","1366","768","0","1","0","5f1f04c1604e3508877cf62a","","null","","","learningBlock1","","","","That was a wug.","null","","","","","",""
"html-keyboard-response","20","302686","0.0-5.0-2.4","FL","e4msx463h0","1366","768","0","1","0","5f1f04c1604e3508877cf62a","","null","","","learningBlock1","","","","<div style=""font-size:60px;""> </div>","null","FL","learning/Slide5.JPG","That was a wug.","","",""
"image-keyboard-response","21","302862","0.0-5.0-0.5","FL","e4msx463h0","1366","768","0","1","0","5f1f04c1604e3508877cf62a","","null","","","","","","","learning/Slide6.JPG","null","","","","","",""
"html-keyboard-response","22","304015","0.0-5.0-1.5","FL","e4msx463h0","1366","768","0","1","0","5f1f04c1604e3508877cf62a","","null","","","learningBlock1","","","","That was a dep.","null","","","","","",""
"html-keyboard-response","23","305018","0.0-5.0-2.5","FL","e4msx463h0","1366","768","0","1","0","5f1f04c1604e3508877cf62a","","null","","","learningBlock1","","","","<div style=""font-size:60px;""> </div>","null","FL","learning/Slide6.JPG","That was a dep.","","",""
"image-keyboard-response","24","305196","0.0-5.0-0.6","FL","e4msx463h0","1366","768","0","1","0","5f1f04c1604e3508877cf62a","","null","","","","","","","learning/Slide7.JPG","null","","","","","",""
"html-keyboard-response","25","306348","0.0-5.0-1.6","FL","e4msx463h0","1366","768","0","1","0","5f1f04c1604e3508877cf62a","","null","","","learningBlock1","","","","That was a wug.","null","","","","","",""
"html-keyboard-response","26","307350","0.0-5.0-2.6","FL","e4msx463h0","1366","768","0","1","0","5f1f04c1604e3508877cf62a","","null","","","learningBlock1","","","","<div style=""font-size:60px;""> </div>","null","FL","learning/Slide7.JPG","That was a wug.","","",""
"image-keyboard-response","27","307527","0.0-5.0-0.7","FL","e4msx463h0","1366","768","0","1","0","5f1f04c1604e3508877cf62a","","null","","","","","","","learning/Slide8.JPG","null","","","","","",""
"html-keyboard-response","28","308682","0.0-5.0-1.7","FL","e4msx463h0","1366","768","0","1","0","5f1f04c1604e3508877cf62a","","null","","","learningBlock1","","","","That was a bim.","null","","","","","",""
"html-keyboard-response","29","309685","0.0-5.0-2.7","FL","e4msx463h0","1366","768","0","1","0","5f1f04c1604e3508877cf62a","","null","","","learningBlock1","","","","<div style=""font-size:60px;""> </div>","null","FL","learning/Slide8.JPG","That was a bim.","","",""
"image-keyboard-response","30","309862","0.0-5.0-0.8","FL","e4msx463h0","1366","768","0","1","0","5f1f04c1604e3508877cf62a","","null","","","","","","","learning/Slide9.JPG","null","","","","","",""
"html-keyboard-response","31","311014","0.0-5.0-1.8","FL","e4msx463h0","1366","768","0","1","0","5f1f04c1604e3508877cf62a","","null","","","learningBlock1","","","","That was a wug.","null","","","","","",""
"html-keyboard-response","32","312017","0.0-5.0-2.8","FL","e4msx463h0","1366","768","0","1","0","5f1f04c1604e3508877cf62a","","null","","","learningBlock1","","","","<div style=""font-size:60px;""> </div>","null","FL","learning/Slide9.JPG","That was a wug.","","",""
"image-keyboard-response","33","312194","0.0-5.0-0.9","FL","e4msx463h0","1366","768","0","1","0","5f1f04c1604e3508877cf62a","","null","","","","","","","learning/Slide10.JPG","null","","","","","",""
"html-keyboard-response","34","313347","0.0-5.0-1.9","FL","e4msx463h0","1366","768","0","1","0","5f1f04c1604e3508877cf62a","","null","","","learningBlock1","","","","That was a dep.","null","","","","","",""
"html-keyboard-response","35","314349","0.0-5.0-2.9","FL","e4msx463h0","1366","768","0","1","0","5f1f04c1604e3508877cf62a","","null","","","learningBlock1","","","","<div style=""font-size:60px;""> </div>","null","FL","learning/Slide10.JPG","That was a dep.","","",""
"image-keyboard-response","36","314527","0.0-5.0-0.10","FL","e4msx463h0","1366","768","0","1","0","5f1f04c1604e3508877cf62a","","null","","","","","","","learning/Slide11.JPG","null","","","","","",""
"html-keyboard-response","37","315679","0.0-5.0-1.10","FL","e4msx463h0","1366","768","0","1","0","5f1f04c1604e3508877cf62a","","null","","","learningBlock1","","","","That was a tob.","null","","","","","",""
"html-keyboard-response","38","316682","0.0-5.0-2.10","FL","e4msx463h0","1366","768","0","1","0","5f1f04c1604e3508877cf62a","","null","","","learningBlock1","","","","<div style=""font-size:60px;""> </div>","null","FL","learning/Slide11.JPG","That was a tob.","","",""
"image-keyboard-response","39","316863","0.0-5.0-0.11","FL","e4msx463h0","1366","768","0","1","0","5f1f04c1604e3508877cf62a","","null","","","","","","","learning/Slide12.JPG","null","","","","","",""
"html-keyboard-response","40","318016","0.0-5.0-1.11","FL","e4msx463h0","1366","768","0","1","0","5f1f04c1604e3508877cf62a","","null","","","learningBlock1","","","","That was a dep.","null","","","","","",""
"html-keyboard-response","41","319017","0.0-5.0-2.11","FL","e4msx463h0","1366","768","0","1","0","5f1f04c1604e3508877cf62a","","null","","","learningBlock1","","","","<div style=""font-size:60px;""> </div>","null","FL","learning/Slide12.JPG","That was a dep.","","",""
"image-keyboard-response","42","319194","0.0-5.0-0.12","FL","e4msx463h0","1366","768","0","1","0","5f1f04c1604e3508877cf62a","","null","","","","","","","learning/Slide13.JPG","null","","","","","",""
"html-keyboard-response","43","320345","0.0-5.0-1.12","FL","e4msx463h0","1366","768","0","1","0","5f1f04c1604e3508877cf62a","","null","","","learningBlock1","","","","That was a bim.","null","","","","","",""
"html-keyboard-response","44","321346","0.0-5.0-2.12","FL","e4msx463h0","1366","768","0","1","0","5f1f04c1604e3508877cf62a","","null","","","learningBlock1","","","","<div style=""font-size:60px;""> </div>","null","FL","learning/Slide13.JPG","That was a bim.","","",""
"image-keyboard-response","45","321522","0.0-5.0-0.13","FL","e4msx463h0","1366","768","0","1","0","5f1f04c1604e3508877cf62a","","null","","","","","","","learning/Slide14.JPG","null","","","","","",""
"html-keyboard-response","46","322675","0.0-5.0-1.13","FL","e4msx463h0","1366","768","0","1","0","5f1f04c1604e3508877cf62a","","null","","","learningBlock1","","","","That was a wug.","null","","","","","",""
"html-keyboard-response","47","323676","0.0-5.0-2.13","FL","e4msx463h0","1366","768","0","1","0","5f1f04c1604e3508877cf62a","","null","","","learningBlock1","","","","<div style=""font-size:60px;""> </div>","null","FL","learning/Slide14.JPG","That was a wug.","","",""
"image-keyboard-response","48","323853","0.0-5.0-0.14","FL","e4msx463h0","1366","768","0","1","0","5f1f04c1604e3508877cf62a","","null","","","","","","","learning/Slide15.JPG","null","","","","","",""
"html-keyboard-response","49","325006","0.0-5.0-1.14","FL","e4msx463h0","1366","768","0","1","0","5f1f04c1604e3508877cf62a","","null","","","learningBlock1","","","","That was a tob.","null","","","","","",""
"html-keyboard-response","50","326008","0.0-5.0-2.14","FL","e4msx463h0","1366","768","0","1","0","5f1f04c1604e3508877cf62a","","null","","","learningBlock1","","","","<div style=""font-size:60px;""> </div>","null","FL","learning/Slide15.JPG","That was a tob.","","",""
"image-keyboard-response","51","326184","0.0-5.0-0.15","FL","e4msx463h0","1366","768","0","1","0","5f1f04c1604e3508877cf62a","","null","","","","","","","learning/Slide16.JPG","null","","","","","",""
"html-keyboard-response","52","327338","0.0-5.0-1.15","FL","e4msx463h0","1366","768","0","1","0","5f1f04c1604e3508877cf62a","","null","","","learningBlock1","","","","That was a dep.","null","","","","","",""
"html-keyboard-response","53","328339","0.0-5.0-2.15","FL","e4msx463h0","1366","768","0","1","0","5f1f04c1604e3508877cf62a","","null","","","learningBlock1","","","","<div style=""font-size:60px;""> </div>","null","FL","learning/Slide16.JPG","That was a dep.","","",""
"image-keyboard-response","54","328516","0.0-5.0-0.16","FL","e4msx463h0","1366","768","0","1","0","5f1f04c1604e3508877cf62a","","null","","","","","","","learning/Slide17.JPG","null","","","","","",""
"html-keyboard-response","55","329668","0.0-5.0-1.16","FL","e4msx463h0","1366","768","0","1","0","5f1f04c1604e3508877cf62a","","null","","","learningBlock1","","","","That was a bim.","null","","","","","",""
"html-keyboard-response","56","330670","0.0-5.0-2.16","FL","e4msx463h0","1366","768","0","1","0","5f1f04c1604e3508877cf62a","","null","","","learningBlock1","","","","<div style=""font-size:60px;""> </div>","null","FL","learning/Slide17.JPG","That was a bim.","","",""
"image-keyboard-response","57","330846","0.0-5.0-0.17","FL","e4msx463h0","1366","768","0","1","0","5f1f04c1604e3508877cf62a","","null","","","","","","","learning/Slide18.JPG","null","","","","","",""
"html-keyboard-response","58","331998","0.0-5.0-1.17","FL","e4msx463h0","1366","768","0","1","0","5f1f04c1604e3508877cf62a","","null","","","learningBlock1","","","","That was a tob.","null","","","","","",""
"html-keyboard-response","59","333000","0.0-5.0-2.17","FL","e4msx463h0","1366","768","0","1","0","5f1f04c1604e3508877cf62a","","null","","","learningBlock1","","","","<div style=""font-size:60px;""> </div>","null","FL","learning/Slide18.JPG","That was a tob.","","",""
"image-keyboard-response","60","333176","0.0-5.0-0.18","FL","e4msx463h0","1366","768","0","1","0","5f1f04c1604e3508877cf62a","","null","","","","","","","learning/Slide19.JPG","null","","","","","",""
"html-keyboard-response","61","334328","0.0-5.0-1.18","FL","e4msx463h0","1366","768","0","1","0","5f1f04c1604e3508877cf62a","","null","","","learningBlock1","","","","That was a wug.","null","","","","","",""
"html-keyboard-response","62","335329","0.0-5.0-2.18","FL","e4msx463h0","1366","768","0","1","0","5f1f04c1604e3508877cf62a","","null","","","learningBlock1","","","","<div style=""font-size:60px;""> </div>","null","FL","learning/Slide19.JPG","That was a wug.","","",""
"image-keyboard-response","63","335505","0.0-5.0-0.19","FL","e4msx463h0","1366","768","0","1","0","5f1f04c1604e3508877cf62a","","null","","","","","","","learning/Slide20.JPG","null","","","","","",""
"html-keyboard-response","64","336658","0.0-5.0-1.19","FL","e4msx463h0","1366","768","0","1","0","5f1f04c1604e3508877cf62a","","null","","","learningBlock1","","","","That was a bim.","null","","","","","",""
"html-keyboard-response","65","337660","0.0-5.0-2.19","FL","e4msx463h0","1366","768","0","1","0","5f1f04c1604e3508877cf62a","","null","","","learningBlock1","","","","<div style=""font-size:60px;""> </div>","null","FL","learning/Slide20.JPG","That was a bim.","","",""
"image-keyboard-response","66","337836","0.0-5.0-0.20","FL","e4msx463h0","1366","768","0","1","0","5f1f04c1604e3508877cf62a","","null","","","","","","","learning/Slide21.JPG","null","","","","","",""
"html-keyboard-response","67","338988","0.0-5.0-1.20","FL","e4msx463h0","1366","768","0","1","0","5f1f04c1604e3508877cf62a","","null","","","learningBlock1","","","","That was a dep.","null","","","","","",""
"html-keyboard-response","68","339990","0.0-5.0-2.20","FL","e4msx463h0","1366","768","0","1","0","5f1f04c1604e3508877cf62a","","null","","","learningBlock1","","","","<div style=""font-size:60px;""> </div>","null","FL","learning/Slide21.JPG","That was a dep.","","",""
"image-keyboard-response","69","340167","0.0-5.0-0.21","FL","e4msx463h0","1366","768","0","1","0","5f1f04c1604e3508877cf62a","","null","","","","","","","learning/Slide22.JPG","null","","","","","",""
"html-keyboard-response","70","341320","0.0-5.0-1.21","FL","e4msx463h0","1366","768","0","1","0","5f1f04c1604e3508877cf62a","","null","","","learningBlock1","","","","That was a bim.","null","","","","","",""
"html-keyboard-response","71","342322","0.0-5.0-2.21","FL","e4msx463h0","1366","768","0","1","0","5f1f04c1604e3508877cf62a","","null","","","learningBlock1","","","","<div style=""font-size:60px;""> </div>","null","FL","learning/Slide22.JPG","That was a bim.","","",""
"image-keyboard-response","72","342498","0.0-5.0-0.22","FL","e4msx463h0","1366","768","0","1","0","5f1f04c1604e3508877cf62a","","null","","","","","","","learning/Slide23.JPG","null","","","","","",""
"html-keyboard-response","73","343651","0.0-5.0-1.22","FL","e4msx463h0","1366","768","0","1","0","5f1f04c1604e3508877cf62a","","null","","","learningBlock1","","","","That was a tob.","null","","","","","",""
"html-keyboard-response","74","344653","0.0-5.0-2.22","FL","e4msx463h0","1366","768","0","1","0","5f1f04c1604e3508877cf62a","","null","","","learningBlock1","","","","<div style=""font-size:60px;""> </div>","null","FL","learning/Slide23.JPG","That was a tob.","","",""
"image-keyboard-response","75","344829","0.0-5.0-0.23","FL","e4msx463h0","1366","768","0","1","0","5f1f04c1604e3508877cf62a","","null","","","","","","","learning/Slide24.JPG","null","","","","","",""
"html-keyboard-response","76","345983","0.0-5.0-1.23","FL","e4msx463h0","1366","768","0","1","0","5f1f04c1604e3508877cf62a","","null","","","learningBlock1","","","","That was a wug.","null","","","","","",""
"html-keyboard-response","77","346984","0.0-5.0-2.23","FL","e4msx463h0","1366","768","0","1","0","5f1f04c1604e3508877cf62a","","null","","","learningBlock1","","","","<div style=""font-size:60px;""> </div>","null","FL","learning/Slide24.JPG","That was a wug.","","",""
"image-keyboard-response","78","347160","0.0-5.0-0.24","FL","e4msx463h0","1366","768","0","1","0","5f1f04c1604e3508877cf62a","","null","","","","","","","learning/Slide25.JPG","null","","","","","",""
"html-keyboard-response","79","348312","0.0-5.0-1.24","FL","e4msx463h0","1366","768","0","1","0","5f1f04c1604e3508877cf62a","","null","","","learningBlock1","","","","That was a dep.","null","","","","","",""
"html-keyboard-response","80","349313","0.0-5.0-2.24","FL","e4msx463h0","1366","768","0","1","0","5f1f04c1604e3508877cf62a","","null","","","learningBlock1","","","","<div style=""font-size:60px;""> </div>","null","FL","learning/Slide25.JPG","That was a dep.","","",""
"image-keyboard-response","81","349489","0.0-5.0-0.25","FL","e4msx463h0","1366","768","0","1","0","5f1f04c1604e3508877cf62a","","null","","","","","","","learning/Slide26.JPG","null","","","","","",""
"html-keyboard-response","82","350642","0.0-5.0-1.25","FL","e4msx463h0","1366","768","0","1","0","5f1f04c1604e3508877cf62a","","null","","","learningBlock1","","","","That was a wug.","null","","","","","",""
"html-keyboard-response","83","351645","0.0-5.0-2.25","FL","e4msx463h0","1366","768","0","1","0","5f1f04c1604e3508877cf62a","","null","","","learningBlock1","","","","<div style=""font-size:60px;""> </div>","null","FL","learning/Slide26.JPG","That was a wug.","","",""
"image-keyboard-response","84","351821","0.0-5.0-0.26","FL","e4msx463h0","1366","768","0","1","0","5f1f04c1604e3508877cf62a","","null","","","","","","","learning/Slide27.JPG","null","","","","","",""
"html-keyboard-response","85","352974","0.0-5.0-1.26","FL","e4msx463h0","1366","768","0","1","0","5f1f04c1604e3508877cf62a","","null","","","learningBlock1","","","","That was a bim.","null","","","","","",""
"html-keyboard-response","86","353975","0.0-5.0-2.26","FL","e4msx463h0","1366","768","0","1","0","5f1f04c1604e3508877cf62a","","null","","","learningBlock1","","","","<div style=""font-size:60px;""> </div>","null","FL","learning/Slide27.JPG","That was a bim.","","",""
"image-keyboard-response","87","354151","0.0-5.0-0.27","FL","e4msx463h0","1366","768","0","1","0","5f1f04c1604e3508877cf62a","","null","","","","","","","learning/Slide28.JPG","null","","","","","",""
"html-keyboard-response","88","355303","0.0-5.0-1.27","FL","e4msx463h0","1366","768","0","1","0","5f1f04c1604e3508877cf62a","","null","","","learningBlock1","","","","That was a dep.","null","","","","","",""
"html-keyboard-response","89","356304","0.0-5.0-2.27","FL","e4msx463h0","1366","768","0","1","0","5f1f04c1604e3508877cf62a","","null","","","learningBlock1","","","","<div style=""font-size:60px;""> </div>","null","FL","learning/Slide28.JPG","That was a dep.","","",""
"image-keyboard-response","90","356482","0.0-5.0-0.28","FL","e4msx463h0","1366","768","0","1","0","5f1f04c1604e3508877cf62a","","null","","","","","","","learning/Slide29.JPG","null","","","","","",""
"html-keyboard-response","91","357636","0.0-5.0-1.28","FL","e4msx463h0","1366","768","0","1","0","5f1f04c1604e3508877cf62a","","null","","","learningBlock1","","","","That was a tob.","null","","","","","",""
"html-keyboard-response","92","358637","0.0-5.0-2.28","FL","e4msx463h0","1366","768","0","1","0","5f1f04c1604e3508877cf62a","","null","","","learningBlock1","","","","<div style=""font-size:60px;""> </div>","null","FL","learning/Slide29.JPG","That was a tob.","","",""
"image-keyboard-response","93","358813","0.0-5.0-0.29","FL","e4msx463h0","1366","768","0","1","0","5f1f04c1604e3508877cf62a","","null","","","","","","","learning/Slide30.JPG","null","","","","","",""
"html-keyboard-response","94","359967","0.0-5.0-1.29","FL","e4msx463h0","1366","768","0","1","0","5f1f04c1604e3508877cf62a","","null","","","learningBlock1","","","","That was a dep.","null","","","","","",""
"html-keyboard-response","95","360969","0.0-5.0-2.29","FL","e4msx463h0","1366","768","0","1","0","5f1f04c1604e3508877cf62a","","null","","","learningBlock1","","","","<div style=""font-size:60px;""> </div>","null","FL","learning/Slide30.JPG","That was a dep.","","",""
"image-keyboard-response","96","361144","0.0-5.0-0.30","FL","e4msx463h0","1366","768","0","1","0","5f1f04c1604e3508877cf62a","","null","","","","","","","learning/Slide31.JPG","null","","","","","",""
"html-keyboard-response","97","362296","0.0-5.0-1.30","FL","e4msx463h0","1366","768","0","1","0","5f1f04c1604e3508877cf62a","","null","","","learningBlock1","","","","That was a wug.","null","","","","","",""
"html-keyboard-response","98","363297","0.0-5.0-2.30","FL","e4msx463h0","1366","768","0","1","0","5f1f04c1604e3508877cf62a","","null","","","learningBlock1","","","","<div style=""font-size:60px;""> </div>","null","FL","learning/Slide31.JPG","That was a wug.","","",""
"image-keyboard-response","99","363474","0.0-5.0-0.31","FL","e4msx463h0","1366","768","0","1","0","5f1f04c1604e3508877cf62a","","null","","","","","","","learning/Slide32.JPG","null","","","","","",""
"html-keyboard-response","100","364626","0.0-5.0-1.31","FL","e4msx463h0","1366","768","0","1","0","5f1f04c1604e3508877cf62a","","null","","","learningBlock1","","","","That was a tob.","null","","","","","",""
"html-keyboard-response","101","365628","0.0-5.0-2.31","FL","e4msx463h0","1366","768","0","1","0","5f1f04c1604e3508877cf62a","","null","","","learningBlock1","","","","<div style=""font-size:60px;""> </div>","null","FL","learning/Slide32.JPG","That was a tob.","","",""
"image-keyboard-response","102","365806","0.0-5.0-0.32","FL","e4msx463h0","1366","768","0","1","0","5f1f04c1604e3508877cf62a","","null","","","","","","","learning/Slide33.JPG","null","","","","","",""
"html-keyboard-response","103","366959","0.0-5.0-1.32","FL","e4msx463h0","1366","768","0","1","0","5f1f04c1604e3508877cf62a","","null","","","learningBlock1","","","","That was a bim.","null","","","","","",""
"html-keyboard-response","104","367960","0.0-5.0-2.32","FL","e4msx463h0","1366","768","0","1","0","5f1f04c1604e3508877cf62a","","null","","","learningBlock1","","","","<div style=""font-size:60px;""> </div>","null","FL","learning/Slide33.JPG","That was a bim.","","",""
"image-keyboard-response","105","368137","0.0-5.0-0.33","FL","e4msx463h0","1366","768","0","1","0","5f1f04c1604e3508877cf62a","","null","","","","","","","learning/Slide34.JPG","null","","","","","",""
"html-keyboard-response","106","369289","0.0-5.0-1.33","FL","e4msx463h0","1366","768","0","1","0","5f1f04c1604e3508877cf62a","","null","","","learningBlock1","","","","That was a tob.","null","","","","","",""
"html-keyboard-response","107","370291","0.0-5.0-2.33","FL","e4msx463h0","1366","768","0","1","0","5f1f04c1604e3508877cf62a","","null","","","learningBlock1","","","","<div style=""font-size:60px;""> </div>","null","FL","learning/Slide34.JPG","That was a tob.","","",""
"image-keyboard-response","108","370466","0.0-5.0-0.34","FL","e4msx463h0","1366","768","0","1","0","5f1f04c1604e3508877cf62a","","null","","","","","","","learning/Slide35.JPG","null","","","","","",""
"html-keyboard-response","109","371620","0.0-5.0-1.34","FL","e4msx463h0","1366","768","0","1","0","5f1f04c1604e3508877cf62a","","null","","","learningBlock1","","","","That was a bim.","null","","","","","",""
"html-keyboard-response","110","372622","0.0-5.0-2.34","FL","e4msx463h0","1366","768","0","1","0","5f1f04c1604e3508877cf62a","","null","","","learningBlock1","","","","<div style=""font-size:60px;""> </div>","null","FL","learning/Slide35.JPG","That was a bim.","","",""
"image-keyboard-response","111","372800","0.0-5.0-0.35","FL","e4msx463h0","1366","768","0","1","0","5f1f04c1604e3508877cf62a","","null","","","","","","","learning/Slide36.JPG","null","","","","","",""
"html-keyboard-response","112","373953","0.0-5.0-1.35","FL","e4msx463h0","1366","768","0","1","0","5f1f04c1604e3508877cf62a","","null","","","learningBlock1","","","","That was a dep.","null","","","","","",""
"html-keyboard-response","113","374954","0.0-5.0-2.35","FL","e4msx463h0","1366","768","0","1","0","5f1f04c1604e3508877cf62a","","null","","","learningBlock1","","","","<div style=""font-size:60px;""> </div>","null","FL","learning/Slide36.JPG","That was a dep.","","",""
"image-keyboard-response","114","375130","0.0-5.0-0.36","FL","e4msx463h0","1366","768","0","1","0","5f1f04c1604e3508877cf62a","","null","","","","","","","learning/Slide37.JPG","null","","","","","",""
"html-keyboard-response","115","376283","0.0-5.0-1.36","FL","e4msx463h0","1366","768","0","1","0","5f1f04c1604e3508877cf62a","","null","","","learningBlock1","","","","That was a tob.","null","","","","","",""
"html-keyboard-response","116","377285","0.0-5.0-2.36","FL","e4msx463h0","1366","768","0","1","0","5f1f04c1604e3508877cf62a","","null","","","learningBlock1","","","","<div style=""font-size:60px;""> </div>","null","FL","learning/Slide37.JPG","That was a tob.","","",""
"image-keyboard-response","117","377462","0.0-5.0-0.37","FL","e4msx463h0","1366","768","0","1","0","5f1f04c1604e3508877cf62a","","null","","","","","","","learning/Slide38.JPG","null","","","","","",""
"html-keyboard-response","118","378615","0.0-5.0-1.37","FL","e4msx463h0","1366","768","0","1","0","5f1f04c1604e3508877cf62a","","null","","","learningBlock1","","","","That was a wug.","null","","","","","",""
"html-keyboard-response","119","379619","0.0-5.0-2.37","FL","e4msx463h0","1366","768","0","1","0","5f1f04c1604e3508877cf62a","","null","","","learningBlock1","","","","<div style=""font-size:60px;""> </div>","null","FL","learning/Slide38.JPG","That was a wug.","","",""
"image-keyboard-response","120","379796","0.0-5.0-0.38","FL","e4msx463h0","1366","768","0","1","0","5f1f04c1604e3508877cf62a","","null","","","","","","","learning/Slide39.JPG","null","","","","","",""
"html-keyboard-response","121","380950","0.0-5.0-1.38","FL","e4msx463h0","1366","768","0","1","0","5f1f04c1604e3508877cf62a","","null","","","learningBlock1","","","","That was a bim.","null","","","","","",""
"html-keyboard-response","122","381952","0.0-5.0-2.38","FL","e4msx463h0","1366","768","0","1","0","5f1f04c1604e3508877cf62a","","null","","","learningBlock1","","","","<div style=""font-size:60px;""> </div>","null","FL","learning/Slide39.JPG","That was a bim.","","",""
"image-keyboard-response","123","382130","0.0-5.0-0.39","FL","e4msx463h0","1366","768","0","1","0","5f1f04c1604e3508877cf62a","","null","","","","","","","learning/Slide40.JPG","null","","","","","",""
"html-keyboard-response","124","383283","0.0-5.0-1.39","FL","e4msx463h0","1366","768","0","1","0","5f1f04c1604e3508877cf62a","","null","","","learningBlock1","","","","That was a tob.","null","","","","","",""
"html-keyboard-response","125","384284","0.0-5.0-2.39","FL","e4msx463h0","1366","768","0","1","0","5f1f04c1604e3508877cf62a","","null","","","learningBlock1","","","","<div style=""font-size:60px;""> </div>","null","FL","learning/Slide40.JPG","That was a tob.","","",""
"image-keyboard-response","126","384462","0.0-5.0-0.40","FL","e4msx463h0","1366","768","0","1","0","5f1f04c1604e3508877cf62a","","null","","","","","","","learning/Slide41.JPG","null","","","","","",""
"html-keyboard-response","127","385616","0.0-5.0-1.40","FL","e4msx463h0","1366","768","0","1","0","5f1f04c1604e3508877cf62a","","null","","","learningBlock1","","","","That was a bim.","null","","","","","",""
"html-keyboard-response","128","386618","0.0-5.0-2.40","FL","e4msx463h0","1366","768","0","1","0","5f1f04c1604e3508877cf62a","","null","","","learningBlock1","","","","<div style=""font-size:60px;""> </div>","null","FL","learning/Slide41.JPG","That was a bim.","","",""
"image-keyboard-response","129","386796","0.0-5.0-0.41","FL","e4msx463h0","1366","768","0","1","0","5f1f04c1604e3508877cf62a","","null","","","","","","","learning/Slide42.JPG","null","","","","","",""
"html-keyboard-response","130","387949","0.0-5.0-1.41","FL","e4msx463h0","1366","768","0","1","0","5f1f04c1604e3508877cf62a","","null","","","learningBlock1","","","","That was a dep.","null","","","","","",""
"html-keyboard-response","131","388951","0.0-5.0-2.41","FL","e4msx463h0","1366","768","0","1","0","5f1f04c1604e3508877cf62a","","null","","","learningBlock1","","","","<div style=""font-size:60px;""> </div>","null","FL","learning/Slide42.JPG","That was a dep.","","",""
"image-keyboard-response","132","389130","0.0-5.0-0.42","FL","e4msx463h0","1366","768","0","1","0","5f1f04c1604e3508877cf62a","","null","","","","","","","learning/Slide43.JPG","null","","","","","",""
"html-keyboard-response","133","390283","0.0-5.0-1.42","FL","e4msx463h0","1366","768","0","1","0","5f1f04c1604e3508877cf62a","","null","","","learningBlock1","","","","That was a wug.","null","","","","","",""
"html-keyboard-response","134","391284","0.0-5.0-2.42","FL","e4msx463h0","1366","768","0","1","0","5f1f04c1604e3508877cf62a","","null","","","learningBlock1","","","","<div style=""font-size:60px;""> </div>","null","FL","learning/Slide43.JPG","That was a wug.","","",""
"image-keyboard-response","135","391461","0.0-5.0-0.43","FL","e4msx463h0","1366","768","0","1","0","5f1f04c1604e3508877cf62a","","null","","","","","","","learning/Slide44.JPG","null","","","","","",""
"html-keyboard-response","136","392615","0.0-5.0-1.43","FL","e4msx463h0","1366","768","0","1","0","5f1f04c1604e3508877cf62a","","null","","","learningBlock1","","","","That was a bim.","null","","","","","",""
"html-keyboard-response","137","393617","0.0-5.0-2.43","FL","e4msx463h0","1366","768","0","1","0","5f1f04c1604e3508877cf62a","","null","","","learningBlock1","","","","<div style=""font-size:60px;""> </div>","null","FL","learning/Slide44.JPG","That was a bim.","","",""
"image-keyboard-response","138","393793","0.0-5.0-0.44","FL","e4msx463h0","1366","768","0","1","0","5f1f04c1604e3508877cf62a","","null","","","","","","","learning/Slide45.JPG","null","","","","","",""
"html-keyboard-response","139","394946","0.0-5.0-1.44","FL","e4msx463h0","1366","768","0","1","0","5f1f04c1604e3508877cf62a","","null","","","learningBlock1","","","","That was a wug.","null","","","","","",""
"html-keyboard-response","140","395947","0.0-5.0-2.44","FL","e4msx463h0","1366","768","0","1","0","5f1f04c1604e3508877cf62a","","null","","","learningBlock1","","","","<div style=""font-size:60px;""> </div>","null","FL","learning/Slide45.JPG","That was a wug.","","",""
"image-keyboard-response","141","396124","0.0-5.0-0.45","FL","e4msx463h0","1366","768","0","1","0","5f1f04c1604e3508877cf62a","","null","","","","","","","learning/Slide46.JPG","null","","","","","",""
"html-keyboard-response","142","397278","0.0-5.0-1.45","FL","e4msx463h0","1366","768","0","1","0","5f1f04c1604e3508877cf62a","","null","","","learningBlock1","","","","That was a dep.","null","","","","","",""
"html-keyboard-response","143","398280","0.0-5.0-2.45","FL","e4msx463h0","1366","768","0","1","0","5f1f04c1604e3508877cf62a","","null","","","learningBlock1","","","","<div style=""font-size:60px;""> </div>","null","FL","learning/Slide46.JPG","That was a dep.","","",""
"image-keyboard-response","144","398462","0.0-5.0-0.46","FL","e4msx463h0","1366","768","0","1","0","5f1f04c1604e3508877cf62a","","null","","","","","","","learning/Slide47.JPG","null","","","","","",""
"html-keyboard-response","145","399616","0.0-5.0-1.46","FL","e4msx463h0","1366","768","0","1","0","5f1f04c1604e3508877cf62a","","null","","","learningBlock1","","","","That was a tob.","null","","","","","",""
"html-keyboard-response","146","400618","0.0-5.0-2.46","FL","e4msx463h0","1366","768","0","1","0","5f1f04c1604e3508877cf62a","","null","","","learningBlock1","","","","<div style=""font-size:60px;""> </div>","null","FL","learning/Slide47.JPG","That was a tob.","","",""
"image-keyboard-response","147","400794","0.0-5.0-0.47","FL","e4msx463h0","1366","768","0","1","0","5f1f04c1604e3508877cf62a","","null","","","","","","","learning/Slide48.JPG","null","","","","","",""
"html-keyboard-response","148","401947","0.0-5.0-1.47","FL","e4msx463h0","1366","768","0","1","0","5f1f04c1604e3508877cf62a","","null","","","learningBlock1","","","","That was a bim.","null","","","","","",""
"html-keyboard-response","149","402949","0.0-5.0-2.47","FL","e4msx463h0","1366","768","0","1","0","5f1f04c1604e3508877cf62a","","null","","","learningBlock1","","","","<div style=""font-size:60px;""> </div>","null","FL","learning/Slide48.JPG","That was a bim.","","",""
"image-keyboard-response","150","403126","0.0-5.0-0.48","FL","e4msx463h0","1366","768","0","1","0","5f1f04c1604e3508877cf62a","","null","","","","","","","learning/Slide49.JPG","null","","","","","",""
"html-keyboard-response","151","404279","0.0-5.0-1.48","FL","e4msx463h0","1366","768","0","1","0","5f1f04c1604e3508877cf62a","","null","","","learningBlock1","","","","That was a dep.","null","","","","","",""
"html-keyboard-response","152","405281","0.0-5.0-2.48","FL","e4msx463h0","1366","768","0","1","0","5f1f04c1604e3508877cf62a","","null","","","learningBlock1","","","","<div style=""font-size:60px;""> </div>","null","FL","learning/Slide49.JPG","That was a dep.","","",""
"image-keyboard-response","153","405459","0.0-5.0-0.49","FL","e4msx463h0","1366","768","0","1","0","5f1f04c1604e3508877cf62a","","null","","","","","","","learning/Slide50.JPG","null","","","","","",""
"html-keyboard-response","154","406612","0.0-5.0-1.49","FL","e4msx463h0","1366","768","0","1","0","5f1f04c1604e3508877cf62a","","null","","","learningBlock1","","","","That was a tob.","null","","","","","",""
"html-keyboard-response","155","407614","0.0-5.0-2.49","FL","e4msx463h0","1366","768","0","1","0","5f1f04c1604e3508877cf62a","","null","","","learningBlock1","","","","<div style=""font-size:60px;""> </div>","null","FL","learning/Slide50.JPG","That was a tob.","","",""
"image-keyboard-response","156","407791","0.0-5.0-0.50","FL","e4msx463h0","1366","768","0","1","0","5f1f04c1604e3508877cf62a","","null","","","","","","","learning/Slide51.JPG","null","","","","","",""
"html-keyboard-response","157","408944","0.0-5.0-1.50","FL","e4msx463h0","1366","768","0","1","0","5f1f04c1604e3508877cf62a","","null","","","learningBlock1","","","","That was a bim.","null","","","","","",""
"html-keyboard-response","158","409946","0.0-5.0-2.50","FL","e4msx463h0","1366","768","0","1","0","5f1f04c1604e3508877cf62a","","null","","","learningBlock1","","","","<div style=""font-size:60px;""> </div>","null","FL","learning/Slide51.JPG","That was a bim.","","",""
"image-keyboard-response","159","410122","0.0-5.0-0.51","FL","e4msx463h0","1366","768","0","1","0","5f1f04c1604e3508877cf62a","","null","","","","","","","learning/Slide52.JPG","null","","","","","",""
"html-keyboard-response","160","411274","0.0-5.0-1.51","FL","e4msx463h0","1366","768","0","1","0","5f1f04c1604e3508877cf62a","","null","","","learningBlock1","","","","That was a wug.","null","","","","","",""
"html-keyboard-response","161","412276","0.0-5.0-2.51","FL","e4msx463h0","1366","768","0","1","0","5f1f04c1604e3508877cf62a","","null","","","learningBlock1","","","","<div style=""font-size:60px;""> </div>","null","FL","learning/Slide52.JPG","That was a wug.","","",""
"image-keyboard-response","162","412453","0.0-5.0-0.52","FL","e4msx463h0","1366","768","0","1","0","5f1f04c1604e3508877cf62a","","null","","","","","","","learning/Slide53.JPG","null","","","","","",""
"html-keyboard-response","163","413606","0.0-5.0-1.52","FL","e4msx463h0","1366","768","0","1","0","5f1f04c1604e3508877cf62a","","null","","","learningBlock1","","","","That was a tob.","null","","","","","",""
"html-keyboard-response","164","414607","0.0-5.0-2.52","FL","e4msx463h0","1366","768","0","1","0","5f1f04c1604e3508877cf62a","","null","","","learningBlock1","","","","<div style=""font-size:60px;""> </div>","null","FL","learning/Slide53.JPG","That was a tob.","","",""
"image-keyboard-response","165","414783","0.0-5.0-0.53","FL","e4msx463h0","1366","768","0","1","0","5f1f04c1604e3508877cf62a","","null","","","","","","","learning/Slide54.JPG","null","","","","","",""
"html-keyboard-response","166","415937","0.0-5.0-1.53","FL","e4msx463h0","1366","768","0","1","0","5f1f04c1604e3508877cf62a","","null","","","learningBlock1","","","","That was a dep.","null","","","","","",""
"html-keyboard-response","167","416939","0.0-5.0-2.53","FL","e4msx463h0","1366","768","0","1","0","5f1f04c1604e3508877cf62a","","null","","","learningBlock1","","","","<div style=""font-size:60px;""> </div>","null","FL","learning/Slide54.JPG","That was a dep.","","",""
"image-keyboard-response","168","417115","0.0-5.0-0.54","FL","e4msx463h0","1366","768","0","1","0","5f1f04c1604e3508877cf62a","","null","","","","","","","learning/Slide55.JPG","null","","","","","",""
"html-keyboard-response","169","418267","0.0-5.0-1.54","FL","e4msx463h0","1366","768","0","1","0","5f1f04c1604e3508877cf62a","","null","","","learningBlock1","","","","That was a bim.","null","","","","","",""
"html-keyboard-response","170","419269","0.0-5.0-2.54","FL","e4msx463h0","1366","768","0","1","0","5f1f04c1604e3508877cf62a","","null","","","learningBlock1","","","","<div style=""font-size:60px;""> </div>","null","FL","learning/Slide55.JPG","That was a bim.","","",""
"image-keyboard-response","171","419447","0.0-5.0-0.55","FL","e4msx463h0","1366","768","0","1","0","5f1f04c1604e3508877cf62a","","null","","","","","","","learning/Slide56.JPG","null","","","","","",""
"html-keyboard-response","172","420599","0.0-5.0-1.55","FL","e4msx463h0","1366","768","0","1","0","5f1f04c1604e3508877cf62a","","null","","","learningBlock1","","","","That was a tob.","null","","","","","",""
"html-keyboard-response","173","421602","0.0-5.0-2.55","FL","e4msx463h0","1366","768","0","1","0","5f1f04c1604e3508877cf62a","","null","","","learningBlock1","","","","<div style=""font-size:60px;""> </div>","null","FL","learning/Slide56.JPG","That was a tob.","","",""
"image-keyboard-response","174","421779","0.0-5.0-0.56","FL","e4msx463h0","1366","768","0","1","0","5f1f04c1604e3508877cf62a","","null","","","","","","","learning/Slide57.JPG","null","","","","","",""
"html-keyboard-response","175","422931","0.0-5.0-1.56","FL","e4msx463h0","1366","768","0","1","0","5f1f04c1604e3508877cf62a","","null","","","learningBlock1","","","","That was a dep.","null","","","","","",""
"html-keyboard-response","176","423933","0.0-5.0-2.56","FL","e4msx463h0","1366","768","0","1","0","5f1f04c1604e3508877cf62a","","null","","","learningBlock1","","","","<div style=""font-size:60px;""> </div>","null","FL","learning/Slide57.JPG","That was a dep.","","",""
"image-keyboard-response","177","424109","0.0-5.0-0.57","FL","e4msx463h0","1366","768","0","1","0","5f1f04c1604e3508877cf62a","","null","","","","","","","learning/Slide58.JPG","null","","","","","",""
"html-keyboard-response","178","425261","0.0-5.0-1.57","FL","e4msx463h0","1366","768","0","1","0","5f1f04c1604e3508877cf62a","","null","","","learningBlock1","","","","That was a wug.","null","","","","","",""
"html-keyboard-response","179","426263","0.0-5.0-2.57","FL","e4msx463h0","1366","768","0","1","0","5f1f04c1604e3508877cf62a","","null","","","learningBlock1","","","","<div style=""font-size:60px;""> </div>","null","FL","learning/Slide58.JPG","That was a wug.","","",""
"image-keyboard-response","180","426439","0.0-5.0-0.58","FL","e4msx463h0","1366","768","0","1","0","5f1f04c1604e3508877cf62a","","null","","","","","","","learning/Slide59.JPG","null","","","","","",""
"html-keyboard-response","181","427590","0.0-5.0-1.58","FL","e4msx463h0","1366","768","0","1","0","5f1f04c1604e3508877cf62a","","null","","","learningBlock1","","","","That was a dep.","null","","","","","",""
"html-keyboard-response","182","428592","0.0-5.0-2.58","FL","e4msx463h0","1366","768","0","1","0","5f1f04c1604e3508877cf62a","","null","","","learningBlock1","","","","<div style=""font-size:60px;""> </div>","null","FL","learning/Slide59.JPG","That was a dep.","","",""
"image-keyboard-response","183","428768","0.0-5.0-0.59","FL","e4msx463h0","1366","768","0","1","0","5f1f04c1604e3508877cf62a","","null","","","","","","","learning/Slide60.JPG","null","","","","","",""
"html-keyboard-response","184","429921","0.0-5.0-1.59","FL","e4msx463h0","1366","768","0","1","0","5f1f04c1604e3508877cf62a","","null","","","learningBlock1","","","","That was a wug.","null","","","","","",""
"html-keyboard-response","185","430922","0.0-5.0-2.59","FL","e4msx463h0","1366","768","0","1","0","5f1f04c1604e3508877cf62a","","null","","","learningBlock1","","","","<div style=""font-size:60px;""> </div>","null","FL","learning/Slide60.JPG","That was a wug.","","",""
"image-keyboard-response","186","431099","0.0-5.0-0.60","FL","e4msx463h0","1366","768","0","1","0","5f1f04c1604e3508877cf62a","","null","","","","","","","learning/Slide61.JPG","null","","","","","",""
"html-keyboard-response","187","432251","0.0-5.0-1.60","FL","e4msx463h0","1366","768","0","1","0","5f1f04c1604e3508877cf62a","","null","","","learningBlock1","","","","That was a bim.","null","","","","","",""
"html-keyboard-response","188","433254","0.0-5.0-2.60","FL","e4msx463h0","1366","768","0","1","0","5f1f04c1604e3508877cf62a","","null","","","learningBlock1","","","","<div style=""font-size:60px;""> </div>","null","FL","learning/Slide61.JPG","That was a bim.","","",""
"image-keyboard-response","189","433430","0.0-5.0-0.61","FL","e4msx463h0","1366","768","0","1","0","5f1f04c1604e3508877cf62a","","null","","","","","","","learning/Slide62.JPG","null","","","","","",""
"html-keyboard-response","190","434583","0.0-5.0-1.61","FL","e4msx463h0","1366","768","0","1","0","5f1f04c1604e3508877cf62a","","null","","","learningBlock1","","","","That was a dep.","null","","","","","",""
"html-keyboard-response","191","435585","0.0-5.0-2.61","FL","e4msx463h0","1366","768","0","1","0","5f1f04c1604e3508877cf62a","","null","","","learningBlock1","","","","<div style=""font-size:60px;""> </div>","null","FL","learning/Slide62.JPG","That was a dep.","","",""
"image-keyboard-response","192","435761","0.0-5.0-0.62","FL","e4msx463h0","1366","768","0","1","0","5f1f04c1604e3508877cf62a","","null","","","","","","","learning/Slide63.JPG","null","","","","","",""
"html-keyboard-response","193","436913","0.0-5.0-1.62","FL","e4msx463h0","1366","768","0","1","0","5f1f04c1604e3508877cf62a","","null","","","learningBlock1","","","","That was a bim.","null","","","","","",""
"html-keyboard-response","194","437915","0.0-5.0-2.62","FL","e4msx463h0","1366","768","0","1","0","5f1f04c1604e3508877cf62a","","null","","","learningBlock1","","","","<div style=""font-size:60px;""> </div>","null","FL","learning/Slide63.JPG","That was a bim.","","",""
"image-keyboard-response","195","438092","0.0-5.0-0.63","FL","e4msx463h0","1366","768","0","1","0","5f1f04c1604e3508877cf62a","","null","","","","","","","learning/Slide64.JPG","null","","","","","",""
"html-keyboard-response","196","439244","0.0-5.0-1.63","FL","e4msx463h0","1366","768","0","1","0","5f1f04c1604e3508877cf62a","","null","","","learningBlock1","","","","That was a tob.","null","","","","","",""
"html-keyboard-response","197","440245","0.0-5.0-2.63","FL","e4msx463h0","1366","768","0","1","0","5f1f04c1604e3508877cf62a","","null","","","learningBlock1","","","","<div style=""font-size:60px;""> </div>","null","FL","learning/Slide64.JPG","That was a tob.","","",""
"image-keyboard-response","198","440422","0.0-5.0-0.64","FL","e4msx463h0","1366","768","0","1","0","5f1f04c1604e3508877cf62a","","null","","","","","","","learning/Slide65.JPG","null","","","","","",""
"html-keyboard-response","199","441576","0.0-5.0-1.64","FL","e4msx463h0","1366","768","0","1","0","5f1f04c1604e3508877cf62a","","null","","","learningBlock1","","","","That was a wug.","null","","","","","",""
"html-keyboard-response","200","442579","0.0-5.0-2.64","FL","e4msx463h0","1366","768","0","1","0","5f1f04c1604e3508877cf62a","","null","","","learningBlock1","","","","<div style=""font-size:60px;""> </div>","null","FL","learning/Slide65.JPG","That was a wug.","","",""
"image-keyboard-response","201","442756","0.0-5.0-0.65","FL","e4msx463h0","1366","768","0","1","0","5f1f04c1604e3508877cf62a","","null","","","","","","","learning/Slide66.JPG","null","","","","","",""
"html-keyboard-response","202","443907","0.0-5.0-1.65","FL","e4msx463h0","1366","768","0","1","0","5f1f04c1604e3508877cf62a","","null","","","learningBlock1","","","","That was a dep.","null","","","","","",""
"html-keyboard-response","203","444909","0.0-5.0-2.65","FL","e4msx463h0","1366","768","0","1","0","5f1f04c1604e3508877cf62a","","null","","","learningBlock1","","","","<div style=""font-size:60px;""> </div>","null","FL","learning/Slide66.JPG","That was a dep.","","",""
"image-keyboard-response","204","445085","0.0-5.0-0.66","FL","e4msx463h0","1366","768","0","1","0","5f1f04c1604e3508877cf62a","","null","","","","","","","learning/Slide67.JPG","null","","","","","",""
"html-keyboard-response","205","446239","0.0-5.0-1.66","FL","e4msx463h0","1366","768","0","1","0","5f1f04c1604e3508877cf62a","","null","","","learningBlock1","","","","That was a tob.","null","","","","","",""
"html-keyboard-response","206","447241","0.0-5.0-2.66","FL","e4msx463h0","1366","768","0","1","0","5f1f04c1604e3508877cf62a","","null","","","learningBlock1","","","","<div style=""font-size:60px;""> </div>","null","FL","learning/Slide67.JPG","That was a tob.","","",""
"image-keyboard-response","207","447418","0.0-5.0-0.67","FL","e4msx463h0","1366","768","0","1","0","5f1f04c1604e3508877cf62a","","null","","","","","","","learning/Slide68.JPG","null","","","","","",""
"html-keyboard-response","208","448571","0.0-5.0-1.67","FL","e4msx463h0","1366","768","0","1","0","5f1f04c1604e3508877cf62a","","null","","","learningBlock1","","","","That was a wug.","null","","","","","",""
"html-keyboard-response","209","449573","0.0-5.0-2.67","FL","e4msx463h0","1366","768","0","1","0","5f1f04c1604e3508877cf62a","","null","","","learningBlock1","","","","<div style=""font-size:60px;""> </div>","null","FL","learning/Slide68.JPG","That was a wug.","","",""
"image-keyboard-response","210","449750","0.0-5.0-0.68","FL","e4msx463h0","1366","768","0","1","0","5f1f04c1604e3508877cf62a","","null","","","","","","","learning/Slide69.JPG","null","","","","","",""
"html-keyboard-response","211","450902","0.0-5.0-1.68","FL","e4msx463h0","1366","768","0","1","0","5f1f04c1604e3508877cf62a","","null","","","learningBlock1","","","","That was a tob.","null","","","","","",""
"html-keyboard-response","212","451903","0.0-5.0-2.68","FL","e4msx463h0","1366","768","0","1","0","5f1f04c1604e3508877cf62a","","null","","","learningBlock1","","","","<div style=""font-size:60px;""> </div>","null","FL","learning/Slide69.JPG","That was a tob.","","",""
"image-keyboard-response","213","452080","0.0-5.0-0.69","FL","e4msx463h0","1366","768","0","1","0","5f1f04c1604e3508877cf62a","","null","","","","","","","learning/Slide70.JPG","null","","","","","",""
"html-keyboard-response","214","453233","0.0-5.0-1.69","FL","e4msx463h0","1366","768","0","1","0","5f1f04c1604e3508877cf62a","","null","","","learningBlock1","","","","That was a dep.","null","","","","","",""
"html-keyboard-response","215","454235","0.0-5.0-2.69","FL","e4msx463h0","1366","768","0","1","0","5f1f04c1604e3508877cf62a","","null","","","learningBlock1","","","","<div style=""font-size:60px;""> </div>","null","FL","learning/Slide70.JPG","That was a dep.","","",""
"image-keyboard-response","216","454412","0.0-5.0-0.70","FL","e4msx463h0","1366","768","0","1","0","5f1f04c1604e3508877cf62a","","null","","","","","","","learning/Slide71.JPG","null","","","","","",""
"html-keyboard-response","217","455565","0.0-5.0-1.70","FL","e4msx463h0","1366","768","0","1","0","5f1f04c1604e3508877cf62a","","null","","","learningBlock1","","","","That was a wug.","null","","","","","",""
"html-keyboard-response","218","456566","0.0-5.0-2.70","FL","e4msx463h0","1366","768","0","1","0","5f1f04c1604e3508877cf62a","","null","","","learningBlock1","","","","<div style=""font-size:60px;""> </div>","null","FL","learning/Slide71.JPG","That was a wug.","","",""
"image-keyboard-response","219","456742","0.0-5.0-0.71","FL","e4msx463h0","1366","768","0","1","0","5f1f04c1604e3508877cf62a","","null","","","","","","","learning/Slide72.JPG","null","","","","","",""
"html-keyboard-response","220","457895","0.0-5.0-1.71","FL","e4msx463h0","1366","768","0","1","0","5f1f04c1604e3508877cf62a","","null","","","learningBlock1","","","","That was a bim.","null","","","","","",""
"html-keyboard-response","221","458896","0.0-5.0-2.71","FL","e4msx463h0","1366","768","0","1","0","5f1f04c1604e3508877cf62a","","null","","","learningBlock1","","","","<div style=""font-size:60px;""> </div>","null","FL","learning/Slide72.JPG","That was a bim.","","",""
"image-keyboard-response","222","459072","0.0-5.0-0.72","FL","e4msx463h0","1366","768","0","1","0","5f1f04c1604e3508877cf62a","","null","","","","","","","learning/Slide73.JPG","null","","","","","",""
"html-keyboard-response","223","460225","0.0-5.0-1.72","FL","e4msx463h0","1366","768","0","1","0","5f1f04c1604e3508877cf62a","","null","","","learningBlock1","","","","That was a wug.","null","","","","","",""
"html-keyboard-response","224","461227","0.0-5.0-2.72","FL","e4msx463h0","1366","768","0","1","0","5f1f04c1604e3508877cf62a","","null","","","learningBlock1","","","","<div style=""font-size:60px;""> </div>","null","FL","learning/Slide73.JPG","That was a wug.","","",""
"image-keyboard-response","225","461404","0.0-5.0-0.73","FL","e4msx463h0","1366","768","0","1","0","5f1f04c1604e3508877cf62a","","null","","","","","","","learning/Slide74.JPG","null","","","","","",""
"html-keyboard-response","226","462555","0.0-5.0-1.73","FL","e4msx463h0","1366","768","0","1","0","5f1f04c1604e3508877cf62a","","null","","","learningBlock1","","","","That was a dep.","null","","","","","",""
"html-keyboard-response","227","463558","0.0-5.0-2.73","FL","e4msx463h0","1366","768","0","1","0","5f1f04c1604e3508877cf62a","","null","","","learningBlock1","","","","<div style=""font-size:60px;""> </div>","null","FL","learning/Slide74.JPG","That was a dep.","","",""
"image-keyboard-response","228","463737","0.0-5.0-0.74","FL","e4msx463h0","1366","768","0","1","0","5f1f04c1604e3508877cf62a","","null","","","","","","","learning/Slide75.JPG","null","","","","","",""
"html-keyboard-response","229","464890","0.0-5.0-1.74","FL","e4msx463h0","1366","768","0","1","0","5f1f04c1604e3508877cf62a","","null","","","learningBlock1","","","","That was a tob.","null","","","","","",""
"html-keyboard-response","230","465893","0.0-5.0-2.74","FL","e4msx463h0","1366","768","0","1","0","5f1f04c1604e3508877cf62a","","null","","","learningBlock1","","","","<div style=""font-size:60px;""> </div>","null","FL","learning/Slide75.JPG","That was a tob.","","",""
"image-keyboard-response","231","466069","0.0-5.0-0.75","FL","e4msx463h0","1366","768","0","1","0","5f1f04c1604e3508877cf62a","","null","","","","","","","learning/Slide76.JPG","null","","","","","",""
"html-keyboard-response","232","467221","0.0-5.0-1.75","FL","e4msx463h0","1366","768","0","1","0","5f1f04c1604e3508877cf62a","","null","","","learningBlock1","","","","That was a bim.","null","","","","","",""
"html-keyboard-response","233","468222","0.0-5.0-2.75","FL","e4msx463h0","1366","768","0","1","0","5f1f04c1604e3508877cf62a","","null","","","learningBlock1","","","","<div style=""font-size:60px;""> </div>","null","FL","learning/Slide76.JPG","That was a bim.","","",""
"image-keyboard-response","234","468399","0.0-5.0-0.76","FL","e4msx463h0","1366","768","0","1","0","5f1f04c1604e3508877cf62a","","null","","","","","","","learning/Slide77.JPG","null","","","","","",""
"html-keyboard-response","235","469551","0.0-5.0-1.76","FL","e4msx463h0","1366","768","0","1","0","5f1f04c1604e3508877cf62a","","null","","","learningBlock1","","","","That was a tob.","null","","","","","",""
"html-keyboard-response","236","470553","0.0-5.0-2.76","FL","e4msx463h0","1366","768","0","1","0","5f1f04c1604e3508877cf62a","","null","","","learningBlock1","","","","<div style=""font-size:60px;""> </div>","null","FL","learning/Slide77.JPG","That was a tob.","","",""
"image-keyboard-response","237","470730","0.0-5.0-0.77","FL","e4msx463h0","1366","768","0","1","0","5f1f04c1604e3508877cf62a","","null","","","","","","","learning/Slide78.JPG","null","","","","","",""
"html-keyboard-response","238","471884","0.0-5.0-1.77","FL","e4msx463h0","1366","768","0","1","0","5f1f04c1604e3508877cf62a","","null","","","learningBlock1","","","","That was a wug.","null","","","","","",""
"html-keyboard-response","239","472886","0.0-5.0-2.77","FL","e4msx463h0","1366","768","0","1","0","5f1f04c1604e3508877cf62a","","null","","","learningBlock1","","","","<div style=""font-size:60px;""> </div>","null","FL","learning/Slide78.JPG","That was a wug.","","",""
"image-keyboard-response","240","473063","0.0-5.0-0.78","FL","e4msx463h0","1366","768","0","1","0","5f1f04c1604e3508877cf62a","","null","","","","","","","learning/Slide79.JPG","null","","","","","",""
"html-keyboard-response","241","474216","0.0-5.0-1.78","FL","e4msx463h0","1366","768","0","1","0","5f1f04c1604e3508877cf62a","","null","","","learningBlock1","","","","That was a bim.","null","","","","","",""
"html-keyboard-response","242","475219","0.0-5.0-2.78","FL","e4msx463h0","1366","768","0","1","0","5f1f04c1604e3508877cf62a","","null","","","learningBlock1","","","","<div style=""font-size:60px;""> </div>","null","FL","learning/Slide79.JPG","That was a bim.","","",""
"image-keyboard-response","243","475395","0.0-5.0-0.79","FL","e4msx463h0","1366","768","0","1","0","5f1f04c1604e3508877cf62a","","null","","","","","","","learning/Slide80.JPG","null","","","","","",""
"html-keyboard-response","244","476548","0.0-5.0-1.79","FL","e4msx463h0","1366","768","0","1","0","5f1f04c1604e3508877cf62a","","null","","","learningBlock1","","","","That was a tob.","null","","","","","",""
"html-keyboard-response","245","477549","0.0-5.0-2.79","FL","e4msx463h0","1366","768","0","1","0","5f1f04c1604e3508877cf62a","","null","","","learningBlock1","","","","<div style=""font-size:60px;""> </div>","null","FL","learning/Slide80.JPG","That was a tob.","","",""
"instructions","246","482206","0.0-6.0","FL","e4msx463h0","1366","768","0","1","0","5f1f04c1604e3508877cf62a","","NA","","[{""page_index"":0,""viewing_time"":4655.544999986887}]","instructions","","","","","","","","","","",""
"image-keyboard-response","247","482383","0.0-7.0-0.0","FL","e4msx463h0","1366","768","0","1","0","5f1f04c1604e3508877cf62a","","null","","","","","","","learning/Slide81.JPG","null","","","","","",""
"html-keyboard-response","248","483536","0.0-7.0-1.0","FL","e4msx463h0","1366","768","0","1","0","5f1f04c1604e3508877cf62a","","null","","","learningBlock2","","","","That was a wug.","null","","","","","",""
"html-keyboard-response","249","484538","0.0-7.0-2.0","FL","e4msx463h0","1366","768","0","1","0","5f1f04c1604e3508877cf62a","","null","","","learningBlock2","","","","<div style=""font-size:60px;""> </div>","null","FL","learning/Slide81.JPG","That was a wug.","","",""
"image-keyboard-response","250","484714","0.0-7.0-0.1","FL","e4msx463h0","1366","768","0","1","0","5f1f04c1604e3508877cf62a","","null","","","","","","","learning/Slide82.JPG","null","","","","","",""
"html-keyboard-response","251","485868","0.0-7.0-1.1","FL","e4msx463h0","1366","768","0","1","0","5f1f04c1604e3508877cf62a","","null","","","learningBlock2","","","","That was a bim.","null","","","","","",""
"html-keyboard-response","252","486869","0.0-7.0-2.1","FL","e4msx463h0","1366","768","0","1","0","5f1f04c1604e3508877cf62a","","null","","","learningBlock2","","","","<div style=""font-size:60px;""> </div>","null","FL","learning/Slide82.JPG","That was a bim.","","",""
"image-keyboard-response","253","487046","0.0-7.0-0.2","FL","e4msx463h0","1366","768","0","1","0","5f1f04c1604e3508877cf62a","","null","","","","","","","learning/Slide83.JPG","null","","","","","",""
"html-keyboard-response","254","488198","0.0-7.0-1.2","FL","e4msx463h0","1366","768","0","1","0","5f1f04c1604e3508877cf62a","","null","","","learningBlock2","","","","That was a wug.","null","","","","","",""
"html-keyboard-response","255","489199","0.0-7.0-2.2","FL","e4msx463h0","1366","768","0","1","0","5f1f04c1604e3508877cf62a","","null","","","learningBlock2","","","","<div style=""font-size:60px;""> </div>","null","FL","learning/Slide83.JPG","That was a wug.","","",""
"image-keyboard-response","256","489376","0.0-7.0-0.3","FL","e4msx463h0","1366","768","0","1","0","5f1f04c1604e3508877cf62a","","null","","","","","","","learning/Slide84.JPG","null","","","","","",""
"html-keyboard-response","257","490527","0.0-7.0-1.3","FL","e4msx463h0","1366","768","0","1","0","5f1f04c1604e3508877cf62a","","null","","","learningBlock2","","","","That was a dep.","null","","","","","",""
"html-keyboard-response","258","491528","0.0-7.0-2.3","FL","e4msx463h0","1366","768","0","1","0","5f1f04c1604e3508877cf62a","","null","","","learningBlock2","","","","<div style=""font-size:60px;""> </div>","null","FL","learning/Slide84.JPG","That was a dep.","","",""
"image-keyboard-response","259","491704","0.0-7.0-0.4","FL","e4msx463h0","1366","768","0","1","0","5f1f04c1604e3508877cf62a","","null","","","","","","","learning/Slide85.JPG","null","","","","","",""
"html-keyboard-response","260","492857","0.0-7.0-1.4","FL","e4msx463h0","1366","768","0","1","0","5f1f04c1604e3508877cf62a","","null","","","learningBlock2","","","","That was a bim.","null","","","","","",""
"html-keyboard-response","261","493858","0.0-7.0-2.4","FL","e4msx463h0","1366","768","0","1","0","5f1f04c1604e3508877cf62a","","null","","","learningBlock2","","","","<div style=""font-size:60px;""> </div>","null","FL","learning/Slide85.JPG","That was a bim.","","",""
"image-keyboard-response","262","494035","0.0-7.0-0.5","FL","e4msx463h0","1366","768","0","1","0","5f1f04c1604e3508877cf62a","","null","","","","","","","learning/Slide86.JPG","null","","","","","",""
"html-keyboard-response","263","495187","0.0-7.0-1.5","FL","e4msx463h0","1366","768","0","1","0","5f1f04c1604e3508877cf62a","","null","","","learningBlock2","","","","That was a tob.","null","","","","","",""
"html-keyboard-response","264","496191","0.0-7.0-2.5","FL","e4msx463h0","1366","768","0","1","0","5f1f04c1604e3508877cf62a","","null","","","learningBlock2","","","","<div style=""font-size:60px;""> </div>","null","FL","learning/Slide86.JPG","That was a tob.","","",""
"image-keyboard-response","265","496369","0.0-7.0-0.6","FL","e4msx463h0","1366","768","0","1","0","5f1f04c1604e3508877cf62a","","null","","","","","","","learning/Slide87.JPG","null","","","","","",""
"html-keyboard-response","266","497522","0.0-7.0-1.6","FL","e4msx463h0","1366","768","0","1","0","5f1f04c1604e3508877cf62a","","null","","","learningBlock2","","","","That was a wug.","null","","","","","",""
"html-keyboard-response","267","498524","0.0-7.0-2.6","FL","e4msx463h0","1366","768","0","1","0","5f1f04c1604e3508877cf62a","","null","","","learningBlock2","","","","<div style=""font-size:60px;""> </div>","null","FL","learning/Slide87.JPG","That was a wug.","","",""
"image-keyboard-response","268","498700","0.0-7.0-0.7","FL","e4msx463h0","1366","768","0","1","0","5f1f04c1604e3508877cf62a","","null","","","","","","","learning/Slide88.JPG","null","","","","","",""
"html-keyboard-response","269","499854","0.0-7.0-1.7","FL","e4msx463h0","1366","768","0","1","0","5f1f04c1604e3508877cf62a","","null","","","learningBlock2","","","","That was a tob.","null","","","","","",""
"html-keyboard-response","270","500857","0.0-7.0-2.7","FL","e4msx463h0","1366","768","0","1","0","5f1f04c1604e3508877cf62a","","null","","","learningBlock2","","","","<div style=""font-size:60px;""> </div>","null","FL","learning/Slide88.JPG","That was a tob.","","",""
"image-keyboard-response","271","501035","0.0-7.0-0.8","FL","e4msx463h0","1366","768","0","1","0","5f1f04c1604e3508877cf62a","","null","","","","","","","learning/Slide89.JPG","null","","","","","",""
"html-keyboard-response","272","502188","0.0-7.0-1.8","FL","e4msx463h0","1366","768","0","1","0","5f1f04c1604e3508877cf62a","","null","","","learningBlock2","","","","That was a bim.","null","","","","","",""
"html-keyboard-response","273","503190","0.0-7.0-2.8","FL","e4msx463h0","1366","768","0","1","0","5f1f04c1604e3508877cf62a","","null","","","learningBlock2","","","","<div style=""font-size:60px;""> </div>","null","FL","learning/Slide89.JPG","That was a bim.","","",""
"image-keyboard-response","274","503369","0.0-7.0-0.9","FL","e4msx463h0","1366","768","0","1","0","5f1f04c1604e3508877cf62a","","null","","","","","","","learning/Slide90.JPG","null","","","","","",""
"html-keyboard-response","275","504521","0.0-7.0-1.9","FL","e4msx463h0","1366","768","0","1","0","5f1f04c1604e3508877cf62a","","null","","","learningBlock2","","","","That was a dep.","null","","","","","",""
"html-keyboard-response","276","505522","0.0-7.0-2.9","FL","e4msx463h0","1366","768","0","1","0","5f1f04c1604e3508877cf62a","","null","","","learningBlock2","","","","<div style=""font-size:60px;""> </div>","null","FL","learning/Slide90.JPG","That was a dep.","","",""
"image-keyboard-response","277","505698","0.0-7.0-0.10","FL","e4msx463h0","1366","768","0","1","0","5f1f04c1604e3508877cf62a","","null","","","","","","","learning/Slide91.JPG","null","","","","","",""
"html-keyboard-response","278","506851","0.0-7.0-1.10","FL","e4msx463h0","1366","768","0","1","0","5f1f04c1604e3508877cf62a","","null","","","learningBlock2","","","","That was a wug.","null","","","","","",""
"html-keyboard-response","279","507853","0.0-7.0-2.10","FL","e4msx463h0","1366","768","0","1","0","5f1f04c1604e3508877cf62a","","null","","","learningBlock2","","","","<div style=""font-size:60px;""> </div>","null","FL","learning/Slide91.JPG","That was a wug.","","",""
"image-keyboard-response","280","508029","0.0-7.0-0.11","FL","e4msx463h0","1366","768","0","1","0","5f1f04c1604e3508877cf62a","","null","","","","","","","learning/Slide92.JPG","null","","","","","",""
"html-keyboard-response","281","509182","0.0-7.0-1.11","FL","e4msx463h0","1366","768","0","1","0","5f1f04c1604e3508877cf62a","","null","","","learningBlock2","","","","That was a tob.","null","","","","","",""
"html-keyboard-response","282","510184","0.0-7.0-2.11","FL","e4msx463h0","1366","768","0","1","0","5f1f04c1604e3508877cf62a","","null","","","learningBlock2","","","","<div style=""font-size:60px;""> </div>","null","FL","learning/Slide92.JPG","That was a tob.","","",""
"image-keyboard-response","283","510361","0.0-7.0-0.12","FL","e4msx463h0","1366","768","0","1","0","5f1f04c1604e3508877cf62a","","null","","","","","","","learning/Slide93.JPG","null","","","","","",""
"html-keyboard-response","284","511512","0.0-7.0-1.12","FL","e4msx463h0","1366","768","0","1","0","5f1f04c1604e3508877cf62a","","null","","","learningBlock2","","","","That was a bim.","null","","","","","",""
"html-keyboard-response","285","512514","0.0-7.0-2.12","FL","e4msx463h0","1366","768","0","1","0","5f1f04c1604e3508877cf62a","","null","","","learningBlock2","","","","<div style=""font-size:60px;""> </div>","null","FL","learning/Slide93.JPG","That was a bim.","","",""
"image-keyboard-response","286","512690","0.0-7.0-0.13","FL","e4msx463h0","1366","768","0","1","0","5f1f04c1604e3508877cf62a","","null","","","","","","","learning/Slide94.JPG","null","","","","","",""
"html-keyboard-response","287","513843","0.0-7.0-1.13","FL","e4msx463h0","1366","768","0","1","0","5f1f04c1604e3508877cf62a","","null","","","learningBlock2","","","","That was a tob.","null","","","","","",""
"html-keyboard-response","288","514845","0.0-7.0-2.13","FL","e4msx463h0","1366","768","0","1","0","5f1f04c1604e3508877cf62a","","null","","","learningBlock2","","","","<div style=""font-size:60px;""> </div>","null","FL","learning/Slide94.JPG","That was a tob.","","",""
"image-keyboard-response","289","515021","0.0-7.0-0.14","FL","e4msx463h0","1366","768","0","1","0","5f1f04c1604e3508877cf62a","","null","","","","","","","learning/Slide95.JPG","null","","","","","",""
"html-keyboard-response","290","516175","0.0-7.0-1.14","FL","e4msx463h0","1366","768","0","1","0","5f1f04c1604e3508877cf62a","","null","","","learningBlock2","","","","That was a wug.","null","","","","","",""
"html-keyboard-response","291","517177","0.0-7.0-2.14","FL","e4msx463h0","1366","768","0","1","0","5f1f04c1604e3508877cf62a","","null","","","learningBlock2","","","","<div style=""font-size:60px;""> </div>","null","FL","learning/Slide95.JPG","That was a wug.","","",""
"image-keyboard-response","292","517354","0.0-7.0-0.15","FL","e4msx463h0","1366","768","0","1","0","5f1f04c1604e3508877cf62a","","null","","","","","","","learning/Slide96.JPG","null","","","","","",""
"html-keyboard-response","293","518505","0.0-7.0-1.15","FL","e4msx463h0","1366","768","0","1","0","5f1f04c1604e3508877cf62a","","null","","","learningBlock2","","","","That was a tob.","null","","","","","",""
"html-keyboard-response","294","519508","0.0-7.0-2.15","FL","e4msx463h0","1366","768","0","1","0","5f1f04c1604e3508877cf62a","","null","","","learningBlock2","","","","<div style=""font-size:60px;""> </div>","null","FL","learning/Slide96.JPG","That was a tob.","","",""
"image-keyboard-response","295","519684","0.0-7.0-0.16","FL","e4msx463h0","1366","768","0","1","0","5f1f04c1604e3508877cf62a","","null","","","","","","","learning/Slide97.JPG","null","","","","","",""
"html-keyboard-response","296","520836","0.0-7.0-1.16","FL","e4msx463h0","1366","768","0","1","0","5f1f04c1604e3508877cf62a","","null","","","learningBlock2","","","","That was a dep.","null","","","","","",""
"html-keyboard-response","297","521839","0.0-7.0-2.16","FL","e4msx463h0","1366","768","0","1","0","5f1f04c1604e3508877cf62a","","null","","","learningBlock2","","","","<div style=""font-size:60px;""> </div>","null","FL","learning/Slide97.JPG","That was a dep.","","",""
"image-keyboard-response","298","522016","0.0-7.0-0.17","FL","e4msx463h0","1366","768","0","1","0","5f1f04c1604e3508877cf62a","","null","","","","","","","learning/Slide98.JPG","null","","","","","",""
"html-keyboard-response","299","523171","0.0-7.0-1.17","FL","e4msx463h0","1366","768","0","1","0","5f1f04c1604e3508877cf62a","","null","","","learningBlock2","","","","That was a bim.","null","","","","","",""
"html-keyboard-response","300","524173","0.0-7.0-2.17","FL","e4msx463h0","1366","768","0","1","0","5f1f04c1604e3508877cf62a","","null","","","learningBlock2","","","","<div style=""font-size:60px;""> </div>","null","FL","learning/Slide98.JPG","That was a bim.","","",""
"image-keyboard-response","301","524350","0.0-7.0-0.18","FL","e4msx463h0","1366","768","0","1","0","5f1f04c1604e3508877cf62a","","null","","","","","","","learning/Slide99.JPG","null","","","","","",""
"html-keyboard-response","302","525502","0.0-7.0-1.18","FL","e4msx463h0","1366","768","0","1","0","5f1f04c1604e3508877cf62a","","null","","","learningBlock2","","","","That was a dep.","null","","","","","",""
"html-keyboard-response","303","526503","0.0-7.0-2.18","FL","e4msx463h0","1366","768","0","1","0","5f1f04c1604e3508877cf62a","","null","","","learningBlock2","","","","<div style=""font-size:60px;""> </div>","null","FL","learning/Slide99.JPG","That was a dep.","","",""
"image-keyboard-response","304","526680","0.0-7.0-0.19","FL","e4msx463h0","1366","768","0","1","0","5f1f04c1604e3508877cf62a","","null","","","","","","","learning/Slide100.JPG","null","","","","","",""
"html-keyboard-response","305","527832","0.0-7.0-1.19","FL","e4msx463h0","1366","768","0","1","0","5f1f04c1604e3508877cf62a","","null","","","learningBlock2","","","","That was a bim.","null","","","","","",""
"html-keyboard-response","306","528833","0.0-7.0-2.19","FL","e4msx463h0","1366","768","0","1","0","5f1f04c1604e3508877cf62a","","null","","","learningBlock2","","","","<div style=""font-size:60px;""> </div>","null","FL","learning/Slide100.JPG","That was a bim.","","",""
"image-keyboard-response","307","529009","0.0-7.0-0.20","FL","e4msx463h0","1366","768","0","1","0","5f1f04c1604e3508877cf62a","","null","","","","","","","learning/Slide101.JPG","null","","","","","",""
"html-keyboard-response","308","530161","0.0-7.0-1.20","FL","e4msx463h0","1366","768","0","1","0","5f1f04c1604e3508877cf62a","","null","","","learningBlock2","","","","That was a tob.","null","","","","","",""
"html-keyboard-response","309","531162","0.0-7.0-2.20","FL","e4msx463h0","1366","768","0","1","0","5f1f04c1604e3508877cf62a","","null","","","learningBlock2","","","","<div style=""font-size:60px;""> </div>","null","FL","learning/Slide101.JPG","That was a tob.","","",""
"image-keyboard-response","310","531339","0.0-7.0-0.21","FL","e4msx463h0","1366","768","0","1","0","5f1f04c1604e3508877cf62a","","null","","","","","","","learning/Slide102.JPG","null","","","","","",""
"html-keyboard-response","311","532491","0.0-7.0-1.21","FL","e4msx463h0","1366","768","0","1","0","5f1f04c1604e3508877cf62a","","null","","","learningBlock2","","","","That was a bim.","null","","","","","",""
"html-keyboard-response","312","533493","0.0-7.0-2.21","FL","e4msx463h0","1366","768","0","1","0","5f1f04c1604e3508877cf62a","","null","","","learningBlock2","","","","<div style=""font-size:60px;""> </div>","null","FL","learning/Slide102.JPG","That was a bim.","","",""
"image-keyboard-response","313","533669","0.0-7.0-0.22","FL","e4msx463h0","1366","768","0","1","0","5f1f04c1604e3508877cf62a","","null","","","","","","","learning/Slide103.JPG","null","","","","","",""
"html-keyboard-response","314","534822","0.0-7.0-1.22","FL","e4msx463h0","1366","768","0","1","0","5f1f04c1604e3508877cf62a","","null","","","learningBlock2","","","","That was a dep.","null","","","","","",""
"html-keyboard-response","315","535823","0.0-7.0-2.22","FL","e4msx463h0","1366","768","0","1","0","5f1f04c1604e3508877cf62a","","null","","","learningBlock2","","","","<div style=""font-size:60px;""> </div>","null","FL","learning/Slide103.JPG","That was a dep.","","",""
"image-keyboard-response","316","535999","0.0-7.0-0.23","FL","e4msx463h0","1366","768","0","1","0","5f1f04c1604e3508877cf62a","","null","","","","","","","learning/Slide104.JPG","null","","","","","",""
"html-keyboard-response","317","537151","0.0-7.0-1.23","FL","e4msx463h0","1366","768","0","1","0","5f1f04c1604e3508877cf62a","","null","","","learningBlock2","","","","That was a tob.","null","","","","","",""
"html-keyboard-response","318","538153","0.0-7.0-2.23","FL","e4msx463h0","1366","768","0","1","0","5f1f04c1604e3508877cf62a","","null","","","learningBlock2","","","","<div style=""font-size:60px;""> </div>","null","FL","learning/Slide104.JPG","That was a tob.","","",""
"image-keyboard-response","319","538330","0.0-7.0-0.24","FL","e4msx463h0","1366","768","0","1","0","5f1f04c1604e3508877cf62a","","null","","","","","","","learning/Slide105.JPG","null","","","","","",""
"html-keyboard-response","320","539483","0.0-7.0-1.24","FL","e4msx463h0","1366","768","0","1","0","5f1f04c1604e3508877cf62a","","null","","","learningBlock2","","","","That was a dep.","null","","","","","",""
"html-keyboard-response","321","540488","0.0-7.0-2.24","FL","e4msx463h0","1366","768","0","1","0","5f1f04c1604e3508877cf62a","","null","","","learningBlock2","","","","<div style=""font-size:60px;""> </div>","null","FL","learning/Slide105.JPG","That was a dep.","","",""
"image-keyboard-response","322","540664","0.0-7.0-0.25","FL","e4msx463h0","1366","768","0","1","0","5f1f04c1604e3508877cf62a","","null","","","","","","","learning/Slide106.JPG","null","","","","","",""
"html-keyboard-response","323","541817","0.0-7.0-1.25","FL","e4msx463h0","1366","768","0","1","0","5f1f04c1604e3508877cf62a","","null","","","learningBlock2","","","","That was a wug.","null","","","","","",""
"html-keyboard-response","324","542819","0.0-7.0-2.25","FL","e4msx463h0","1366","768","0","1","0","5f1f04c1604e3508877cf62a","","null","","","learningBlock2","","","","<div style=""font-size:60px;""> </div>","null","FL","learning/Slide106.JPG","That was a wug.","","",""
"image-keyboard-response","325","542997","0.0-7.0-0.26","FL","e4msx463h0","1366","768","0","1","0","5f1f04c1604e3508877cf62a","","null","","","","","","","learning/Slide107.JPG","null","","","","","",""
"html-keyboard-response","326","544149","0.0-7.0-1.26","FL","e4msx463h0","1366","768","0","1","0","5f1f04c1604e3508877cf62a","","null","","","learningBlock2","","","","That was a bim.","null","","","","","",""
"html-keyboard-response","327","545151","0.0-7.0-2.26","FL","e4msx463h0","1366","768","0","1","0","5f1f04c1604e3508877cf62a","","null","","","learningBlock2","","","","<div style=""font-size:60px;""> </div>","null","FL","learning/Slide107.JPG","That was a bim.","","",""
"image-keyboard-response","328","545328","0.0-7.0-0.27","FL","e4msx463h0","1366","768","0","1","0","5f1f04c1604e3508877cf62a","","null","","","","","","","learning/Slide108.JPG","null","","","","","",""
"html-keyboard-response","329","546481","0.0-7.0-1.27","FL","e4msx463h0","1366","768","0","1","0","5f1f04c1604e3508877cf62a","","null","","","learningBlock2","","","","That was a dep.","null","","","","","",""
"html-keyboard-response","330","547483","0.0-7.0-2.27","FL","e4msx463h0","1366","768","0","1","0","5f1f04c1604e3508877cf62a","","null","","","learningBlock2","","","","<div style=""font-size:60px;""> </div>","null","FL","learning/Slide108.JPG","That was a dep.","","",""
"image-keyboard-response","331","547661","0.0-7.0-0.28","FL","e4msx463h0","1366","768","0","1","0","5f1f04c1604e3508877cf62a","","null","","","","","","","learning/Slide109.JPG","null","","","","","",""
"html-keyboard-response","332","548813","0.0-7.0-1.28","FL","e4msx463h0","1366","768","0","1","0","5f1f04c1604e3508877cf62a","","null","","","learningBlock2","","","","That was a wug.","null","","","","","",""
"html-keyboard-response","333","549815","0.0-7.0-2.28","FL","e4msx463h0","1366","768","0","1","0","5f1f04c1604e3508877cf62a","","null","","","learningBlock2","","","","<div style=""font-size:60px;""> </div>","null","FL","learning/Slide109.JPG","That was a wug.","","",""
"image-keyboard-response","334","549991","0.0-7.0-0.29","FL","e4msx463h0","1366","768","0","1","0","5f1f04c1604e3508877cf62a","","null","","","","","","","learning/Slide110.JPG","null","","","","","",""
"html-keyboard-response","335","551143","0.0-7.0-1.29","FL","e4msx463h0","1366","768","0","1","0","5f1f04c1604e3508877cf62a","","null","","","learningBlock2","","","","That was a bim.","null","","","","","",""
"html-keyboard-response","336","552146","0.0-7.0-2.29","FL","e4msx463h0","1366","768","0","1","0","5f1f04c1604e3508877cf62a","","null","","","learningBlock2","","","","<div style=""font-size:60px;""> </div>","null","FL","learning/Slide110.JPG","That was a bim.","","",""
"image-keyboard-response","337","552323","0.0-7.0-0.30","FL","e4msx463h0","1366","768","0","1","0","5f1f04c1604e3508877cf62a","","null","","","","","","","learning/Slide111.JPG","null","","","","","",""
"html-keyboard-response","338","553476","0.0-7.0-1.30","FL","e4msx463h0","1366","768","0","1","0","5f1f04c1604e3508877cf62a","","null","","","learningBlock2","","","","That was a tob.","null","","","","","",""
"html-keyboard-response","339","554477","0.0-7.0-2.30","FL","e4msx463h0","1366","768","0","1","0","5f1f04c1604e3508877cf62a","","null","","","learningBlock2","","","","<div style=""font-size:60px;""> </div>","null","FL","learning/Slide111.JPG","That was a tob.","","",""
"image-keyboard-response","340","554654","0.0-7.0-0.31","FL","e4msx463h0","1366","768","0","1","0","5f1f04c1604e3508877cf62a","","null","","","","","","","learning/Slide112.JPG","null","","","","","",""
"html-keyboard-response","341","555806","0.0-7.0-1.31","FL","e4msx463h0","1366","768","0","1","0","5f1f04c1604e3508877cf62a","","null","","","learningBlock2","","","","That was a wug.","null","","","","","",""
"html-keyboard-response","342","556808","0.0-7.0-2.31","FL","e4msx463h0","1366","768","0","1","0","5f1f04c1604e3508877cf62a","","null","","","learningBlock2","","","","<div style=""font-size:60px;""> </div>","null","FL","learning/Slide112.JPG","That was a wug.","","",""
"image-keyboard-response","343","556984","0.0-7.0-0.32","FL","e4msx463h0","1366","768","0","1","0","5f1f04c1604e3508877cf62a","","null","","","","","","","learning/Slide113.JPG","null","","","","","",""
"html-keyboard-response","344","558136","0.0-7.0-1.32","FL","e4msx463h0","1366","768","0","1","0","5f1f04c1604e3508877cf62a","","null","","","learningBlock2","","","","That was a tob.","null","","","","","",""
"html-keyboard-response","345","559139","0.0-7.0-2.32","FL","e4msx463h0","1366","768","0","1","0","5f1f04c1604e3508877cf62a","","null","","","learningBlock2","","","","<div style=""font-size:60px;""> </div>","null","FL","learning/Slide113.JPG","That was a tob.","","",""
"image-keyboard-response","346","559315","0.0-7.0-0.33","FL","e4msx463h0","1366","768","0","1","0","5f1f04c1604e3508877cf62a","","null","","","","","","","learning/Slide114.JPG","null","","","","","",""
"html-keyboard-response","347","560466","0.0-7.0-1.33","FL","e4msx463h0","1366","768","0","1","0","5f1f04c1604e3508877cf62a","","null","","","learningBlock2","","","","That was a wug.","null","","","","","",""
"html-keyboard-response","348","561468","0.0-7.0-2.33","FL","e4msx463h0","1366","768","0","1","0","5f1f04c1604e3508877cf62a","","null","","","learningBlock2","","","","<div style=""font-size:60px;""> </div>","null","FL","learning/Slide114.JPG","That was a wug.","","",""
"image-keyboard-response","349","561645","0.0-7.0-0.34","FL","e4msx463h0","1366","768","0","1","0","5f1f04c1604e3508877cf62a","","null","","","","","","","learning/Slide115.JPG","null","","","","","",""
"html-keyboard-response","350","562797","0.0-7.0-1.34","FL","e4msx463h0","1366","768","0","1","0","5f1f04c1604e3508877cf62a","","null","","","learningBlock2","","","","That was a bim.","null","","","","","",""
"html-keyboard-response","351","563798","0.0-7.0-2.34","FL","e4msx463h0","1366","768","0","1","0","5f1f04c1604e3508877cf62a","","null","","","learningBlock2","","","","<div style=""font-size:60px;""> </div>","null","FL","learning/Slide115.JPG","That was a bim.","","",""
"image-keyboard-response","352","563975","0.0-7.0-0.35","FL","e4msx463h0","1366","768","0","1","0","5f1f04c1604e3508877cf62a","","null","","","","","","","learning/Slide116.JPG","null","","","","","",""
"html-keyboard-response","353","565127","0.0-7.0-1.35","FL","e4msx463h0","1366","768","0","1","0","5f1f04c1604e3508877cf62a","","null","","","learningBlock2","","","","That was a dep.","null","","","","","",""
"html-keyboard-response","354","566129","0.0-7.0-2.35","FL","e4msx463h0","1366","768","0","1","0","5f1f04c1604e3508877cf62a","","null","","","learningBlock2","","","","<div style=""font-size:60px;""> </div>","null","FL","learning/Slide116.JPG","That was a dep.","","",""
"image-keyboard-response","355","566305","0.0-7.0-0.36","FL","e4msx463h0","1366","768","0","1","0","5f1f04c1604e3508877cf62a","","null","","","","","","","learning/Slide117.JPG","null","","","","","",""
"html-keyboard-response","356","567459","0.0-7.0-1.36","FL","e4msx463h0","1366","768","0","1","0","5f1f04c1604e3508877cf62a","","null","","","learningBlock2","","","","That was a tob.","null","","","","","",""
"html-keyboard-response","357","568461","0.0-7.0-2.36","FL","e4msx463h0","1366","768","0","1","0","5f1f04c1604e3508877cf62a","","null","","","learningBlock2","","","","<div style=""font-size:60px;""> </div>","null","FL","learning/Slide117.JPG","That was a tob.","","",""
"image-keyboard-response","358","568638","0.0-7.0-0.37","FL","e4msx463h0","1366","768","0","1","0","5f1f04c1604e3508877cf62a","","null","","","","","","","learning/Slide118.JPG","null","","","","","",""
"html-keyboard-response","359","569790","0.0-7.0-1.37","FL","e4msx463h0","1366","768","0","1","0","5f1f04c1604e3508877cf62a","","null","","","learningBlock2","","","","That was a dep.","null","","","","","",""
"html-keyboard-response","360","570792","0.0-7.0-2.37","FL","e4msx463h0","1366","768","0","1","0","5f1f04c1604e3508877cf62a","","null","","","learningBlock2","","","","<div style=""font-size:60px;""> </div>","null","FL","learning/Slide118.JPG","That was a dep.","","",""
"image-keyboard-response","361","570969","0.0-7.0-0.38","FL","e4msx463h0","1366","768","0","1","0","5f1f04c1604e3508877cf62a","","null","","","","","","","learning/Slide119.JPG","null","","","","","",""
"html-keyboard-response","362","572122","0.0-7.0-1.38","FL","e4msx463h0","1366","768","0","1","0","5f1f04c1604e3508877cf62a","","null","","","learningBlock2","","","","That was a wug.","null","","","","","",""
"html-keyboard-response","363","573123","0.0-7.0-2.38","FL","e4msx463h0","1366","768","0","1","0","5f1f04c1604e3508877cf62a","","null","","","learningBlock2","","","","<div style=""font-size:60px;""> </div>","null","FL","learning/Slide119.JPG","That was a wug.","","",""
"image-keyboard-response","364","573300","0.0-7.0-0.39","FL","e4msx463h0","1366","768","0","1","0","5f1f04c1604e3508877cf62a","","null","","","","","","","learning/Slide120.JPG","null","","","","","",""
"html-keyboard-response","365","574451","0.0-7.0-1.39","FL","e4msx463h0","1366","768","0","1","0","5f1f04c1604e3508877cf62a","","null","","","learningBlock2","","","","That was a dep.","null","","","","","",""
"html-keyboard-response","366","575452","0.0-7.0-2.39","FL","e4msx463h0","1366","768","0","1","0","5f1f04c1604e3508877cf62a","","null","","","learningBlock2","","","","<div style=""font-size:60px;""> </div>","null","FL","learning/Slide120.JPG","That was a dep.","","",""
"image-keyboard-response","367","575628","0.0-7.0-0.40","FL","e4msx463h0","1366","768","0","1","0","5f1f04c1604e3508877cf62a","","null","","","","","","","learning/Slide121.JPG","null","","","","","",""
"html-keyboard-response","368","576781","0.0-7.0-1.40","FL","e4msx463h0","1366","768","0","1","0","5f1f04c1604e3508877cf62a","","null","","","learningBlock2","","","","That was a bim.","null","","","","","",""
"html-keyboard-response","369","577784","0.0-7.0-2.40","FL","e4msx463h0","1366","768","0","1","0","5f1f04c1604e3508877cf62a","","null","","","learningBlock2","","","","<div style=""font-size:60px;""> </div>","null","FL","learning/Slide121.JPG","That was a bim.","","",""
"image-keyboard-response","370","577962","0.0-7.0-0.41","FL","e4msx463h0","1366","768","0","1","0","5f1f04c1604e3508877cf62a","","null","","","","","","","learning/Slide122.JPG","null","","","","","",""
"html-keyboard-response","371","579115","0.0-7.0-1.41","FL","e4msx463h0","1366","768","0","1","0","5f1f04c1604e3508877cf62a","","null","","","learningBlock2","","","","That was a wug.","null","","","","","",""
"html-keyboard-response","372","580116","0.0-7.0-2.41","FL","e4msx463h0","1366","768","0","1","0","5f1f04c1604e3508877cf62a","","null","","","learningBlock2","","","","<div style=""font-size:60px;""> </div>","null","FL","learning/Slide122.JPG","That was a wug.","","",""
"image-keyboard-response","373","580292","0.0-7.0-0.42","FL","e4msx463h0","1366","768","0","1","0","5f1f04c1604e3508877cf62a","","null","","","","","","","learning/Slide123.JPG","null","","","","","",""
"html-keyboard-response","374","581445","0.0-7.0-1.42","FL","e4msx463h0","1366","768","0","1","0","5f1f04c1604e3508877cf62a","","null","","","learningBlock2","","","","That was a bim.","null","","","","","",""
"html-keyboard-response","375","582446","0.0-7.0-2.42","FL","e4msx463h0","1366","768","0","1","0","5f1f04c1604e3508877cf62a","","null","","","learningBlock2","","","","<div style=""font-size:60px;""> </div>","null","FL","learning/Slide123.JPG","That was a bim.","","",""
"image-keyboard-response","376","582624","0.0-7.0-0.43","FL","e4msx463h0","1366","768","0","1","0","5f1f04c1604e3508877cf62a","","null","","","","","","","learning/Slide124.JPG","null","","","","","",""
"html-keyboard-response","377","583776","0.0-7.0-1.43","FL","e4msx463h0","1366","768","0","1","0","5f1f04c1604e3508877cf62a","","null","","","learningBlock2","","","","That was a tob.","null","","","","","",""
"html-keyboard-response","378","584778","0.0-7.0-2.43","FL","e4msx463h0","1366","768","0","1","0","5f1f04c1604e3508877cf62a","","null","","","learningBlock2","","","","<div style=""font-size:60px;""> </div>","null","FL","learning/Slide124.JPG","That was a tob.","","",""
"image-keyboard-response","379","584954","0.0-7.0-0.44","FL","e4msx463h0","1366","768","0","1","0","5f1f04c1604e3508877cf62a","","null","","","","","","","learning/Slide125.JPG","null","","","","","",""
"html-keyboard-response","380","586106","0.0-7.0-1.44","FL","e4msx463h0","1366","768","0","1","0","5f1f04c1604e3508877cf62a","","null","","","learningBlock2","","","","That was a bim.","null","","","","","",""
"html-keyboard-response","381","587109","0.0-7.0-2.44","FL","e4msx463h0","1366","768","0","1","0","5f1f04c1604e3508877cf62a","","null","","","learningBlock2","","","","<div style=""font-size:60px;""> </div>","null","FL","learning/Slide125.JPG","That was a bim.","","",""
"image-keyboard-response","382","587286","0.0-7.0-0.45","FL","e4msx463h0","1366","768","0","1","0","5f1f04c1604e3508877cf62a","","null","","","","","","","learning/Slide126.JPG","null","","","","","",""
"html-keyboard-response","383","588438","0.0-7.0-1.45","FL","e4msx463h0","1366","768","0","1","0","5f1f04c1604e3508877cf62a","","null","","","learningBlock2","","","","That was a tob.","null","","","","","",""
"html-keyboard-response","384","589440","0.0-7.0-2.45","FL","e4msx463h0","1366","768","0","1","0","5f1f04c1604e3508877cf62a","","null","","","learningBlock2","","","","<div style=""font-size:60px;""> </div>","null","FL","learning/Slide126.JPG","That was a tob.","","",""
"image-keyboard-response","385","589616","0.0-7.0-0.46","FL","e4msx463h0","1366","768","0","1","0","5f1f04c1604e3508877cf62a","","null","","","","","","","learning/Slide127.JPG","null","","","","","",""
"html-keyboard-response","386","590770","0.0-7.0-1.46","FL","e4msx463h0","1366","768","0","1","0","5f1f04c1604e3508877cf62a","","null","","","learningBlock2","","","","That was a dep.","null","","","","","",""
"html-keyboard-response","387","591772","0.0-7.0-2.46","FL","e4msx463h0","1366","768","0","1","0","5f1f04c1604e3508877cf62a","","null","","","learningBlock2","","","","<div style=""font-size:60px;""> </div>","null","FL","learning/Slide127.JPG","That was a dep.","","",""
"image-keyboard-response","388","591948","0.0-7.0-0.47","FL","e4msx463h0","1366","768","0","1","0","5f1f04c1604e3508877cf62a","","null","","","","","","","learning/Slide128.JPG","null","","","","","",""
"html-keyboard-response","389","593102","0.0-7.0-1.47","FL","e4msx463h0","1366","768","0","1","0","5f1f04c1604e3508877cf62a","","null","","","learningBlock2","","","","That was a wug.","null","","","","","",""
"html-keyboard-response","390","594103","0.0-7.0-2.47","FL","e4msx463h0","1366","768","0","1","0","5f1f04c1604e3508877cf62a","","null","","","learningBlock2","","","","<div style=""font-size:60px;""> </div>","null","FL","learning/Slide128.JPG","That was a wug.","","",""
"image-keyboard-response","391","594280","0.0-7.0-0.48","FL","e4msx463h0","1366","768","0","1","0","5f1f04c1604e3508877cf62a","","null","","","","","","","learning/Slide129.JPG","null","","","","","",""
"html-keyboard-response","392","595432","0.0-7.0-1.48","FL","e4msx463h0","1366","768","0","1","0","5f1f04c1604e3508877cf62a","","null","","","learningBlock2","","","","That was a tob.","null","","","","","",""
"html-keyboard-response","393","596434","0.0-7.0-2.48","FL","e4msx463h0","1366","768","0","1","0","5f1f04c1604e3508877cf62a","","null","","","learningBlock2","","","","<div style=""font-size:60px;""> </div>","null","FL","learning/Slide129.JPG","That was a tob.","","",""
"image-keyboard-response","394","596610","0.0-7.0-0.49","FL","e4msx463h0","1366","768","0","1","0","5f1f04c1604e3508877cf62a","","null","","","","","","","learning/Slide130.JPG","null","","","","","",""
"html-keyboard-response","395","597762","0.0-7.0-1.49","FL","e4msx463h0","1366","768","0","1","0","5f1f04c1604e3508877cf62a","","null","","","learningBlock2","","","","That was a wug.","null","","","","","",""
"html-keyboard-response","396","598765","0.0-7.0-2.49","FL","e4msx463h0","1366","768","0","1","0","5f1f04c1604e3508877cf62a","","null","","","learningBlock2","","","","<div style=""font-size:60px;""> </div>","null","FL","learning/Slide130.JPG","That was a wug.","","",""
"image-keyboard-response","397","598943","0.0-7.0-0.50","FL","e4msx463h0","1366","768","0","1","0","5f1f04c1604e3508877cf62a","","null","","","","","","","learning/Slide131.JPG","null","","","","","",""
"html-keyboard-response","398","600095","0.0-7.0-1.50","FL","e4msx463h0","1366","768","0","1","0","5f1f04c1604e3508877cf62a","","null","","","learningBlock2","","","","That was a bim.","null","","","","","",""
"html-keyboard-response","399","601097","0.0-7.0-2.50","FL","e4msx463h0","1366","768","0","1","0","5f1f04c1604e3508877cf62a","","null","","","learningBlock2","","","","<div style=""font-size:60px;""> </div>","null","FL","learning/Slide131.JPG","That was a bim.","","",""
"image-keyboard-response","400","601275","0.0-7.0-0.51","FL","e4msx463h0","1366","768","0","1","0","5f1f04c1604e3508877cf62a","","null","","","","","","","learning/Slide132.JPG","null","","","","","",""
"html-keyboard-response","401","602428","0.0-7.0-1.51","FL","e4msx463h0","1366","768","0","1","0","5f1f04c1604e3508877cf62a","","null","","","learningBlock2","","","","That was a dep.","null","","","","","",""
"html-keyboard-response","402","603430","0.0-7.0-2.51","FL","e4msx463h0","1366","768","0","1","0","5f1f04c1604e3508877cf62a","","null","","","learningBlock2","","","","<div style=""font-size:60px;""> </div>","null","FL","learning/Slide132.JPG","That was a dep.","","",""
"image-keyboard-response","403","603607","0.0-7.0-0.52","FL","e4msx463h0","1366","768","0","1","0","5f1f04c1604e3508877cf62a","","null","","","","","","","learning/Slide133.JPG","null","","","","","",""
"html-keyboard-response","404","604760","0.0-7.0-1.52","FL","e4msx463h0","1366","768","0","1","0","5f1f04c1604e3508877cf62a","","null","","","learningBlock2","","","","That was a tob.","null","","","","","",""
"html-keyboard-response","405","605762","0.0-7.0-2.52","FL","e4msx463h0","1366","768","0","1","0","5f1f04c1604e3508877cf62a","","null","","","learningBlock2","","","","<div style=""font-size:60px;""> </div>","null","FL","learning/Slide133.JPG","That was a tob.","","",""
"image-keyboard-response","406","605938","0.0-7.0-0.53","FL","e4msx463h0","1366","768","0","1","0","5f1f04c1604e3508877cf62a","","null","","","","","","","learning/Slide134.JPG","null","","","","","",""
"html-keyboard-response","407","607091","0.0-7.0-1.53","FL","e4msx463h0","1366","768","0","1","0","5f1f04c1604e3508877cf62a","","null","","","learningBlock2","","","","That was a dep.","null","","","","","",""
"html-keyboard-response","408","608093","0.0-7.0-2.53","FL","e4msx463h0","1366","768","0","1","0","5f1f04c1604e3508877cf62a","","null","","","learningBlock2","","","","<div style=""font-size:60px;""> </div>","null","FL","learning/Slide134.JPG","That was a dep.","","",""
"image-keyboard-response","409","608270","0.0-7.0-0.54","FL","e4msx463h0","1366","768","0","1","0","5f1f04c1604e3508877cf62a","","null","","","","","","","learning/Slide135.JPG","null","","","","","",""
"html-keyboard-response","410","609424","0.0-7.0-1.54","FL","e4msx463h0","1366","768","0","1","0","5f1f04c1604e3508877cf62a","","null","","","learningBlock2","","","","That was a tob.","null","","","","","",""
"html-keyboard-response","411","610426","0.0-7.0-2.54","FL","e4msx463h0","1366","768","0","1","0","5f1f04c1604e3508877cf62a","","null","","","learningBlock2","","","","<div style=""font-size:60px;""> </div>","null","FL","learning/Slide135.JPG","That was a tob.","","",""
"image-keyboard-response","412","610602","0.0-7.0-0.55","FL","e4msx463h0","1366","768","0","1","0","5f1f04c1604e3508877cf62a","","null","","","","","","","learning/Slide136.JPG","null","","","","","",""
"html-keyboard-response","413","611754","0.0-7.0-1.55","FL","e4msx463h0","1366","768","0","1","0","5f1f04c1604e3508877cf62a","","null","","","learningBlock2","","","","That was a wug.","null","","","","","",""
"html-keyboard-response","414","612756","0.0-7.0-2.55","FL","e4msx463h0","1366","768","0","1","0","5f1f04c1604e3508877cf62a","","null","","","learningBlock2","","","","<div style=""font-size:60px;""> </div>","null","FL","learning/Slide136.JPG","That was a wug.","","",""
"image-keyboard-response","415","612933","0.0-7.0-0.56","FL","e4msx463h0","1366","768","0","1","0","5f1f04c1604e3508877cf62a","","null","","","","","","","learning/Slide137.JPG","null","","","","","",""
"html-keyboard-response","416","614086","0.0-7.0-1.56","FL","e4msx463h0","1366","768","0","1","0","5f1f04c1604e3508877cf62a","","null","","","learningBlock2","","","","That was a tob.","null","","","","","",""
"html-keyboard-response","417","615088","0.0-7.0-2.56","FL","e4msx463h0","1366","768","0","1","0","5f1f04c1604e3508877cf62a","","null","","","learningBlock2","","","","<div style=""font-size:60px;""> </div>","null","FL","learning/Slide137.JPG","That was a tob.","","",""
"image-keyboard-response","418","615264","0.0-7.0-0.57","FL","e4msx463h0","1366","768","0","1","0","5f1f04c1604e3508877cf62a","","null","","","","","","","learning/Slide138.JPG","null","","","","","",""
"html-keyboard-response","419","616418","0.0-7.0-1.57","FL","e4msx463h0","1366","768","0","1","0","5f1f04c1604e3508877cf62a","","null","","","learningBlock2","","","","That was a bim.","null","","","","","",""
"html-keyboard-response","420","617420","0.0-7.0-2.57","FL","e4msx463h0","1366","768","0","1","0","5f1f04c1604e3508877cf62a","","null","","","learningBlock2","","","","<div style=""font-size:60px;""> </div>","null","FL","learning/Slide138.JPG","That was a bim.","","",""
"image-keyboard-response","421","617597","0.0-7.0-0.58","FL","e4msx463h0","1366","768","0","1","0","5f1f04c1604e3508877cf62a","","null","","","","","","","learning/Slide139.JPG","null","","","","","",""
"html-keyboard-response","422","618749","0.0-7.0-1.58","FL","e4msx463h0","1366","768","0","1","0","5f1f04c1604e3508877cf62a","","null","","","learningBlock2","","","","That was a wug.","null","","","","","",""
"html-keyboard-response","423","619751","0.0-7.0-2.58","FL","e4msx463h0","1366","768","0","1","0","5f1f04c1604e3508877cf62a","","null","","","learningBlock2","","","","<div style=""font-size:60px;""> </div>","null","FL","learning/Slide139.JPG","That was a wug.","","",""
"image-keyboard-response","424","619927","0.0-7.0-0.59","FL","e4msx463h0","1366","768","0","1","0","5f1f04c1604e3508877cf62a","","null","","","","","","","learning/Slide140.JPG","null","","","","","",""
"html-keyboard-response","425","621080","0.0-7.0-1.59","FL","e4msx463h0","1366","768","0","1","0","5f1f04c1604e3508877cf62a","","null","","","learningBlock2","","","","That was a dep.","null","","","","","",""
"html-keyboard-response","426","622083","0.0-7.0-2.59","FL","e4msx463h0","1366","768","0","1","0","5f1f04c1604e3508877cf62a","","null","","","learningBlock2","","","","<div style=""font-size:60px;""> </div>","null","FL","learning/Slide140.JPG","That was a dep.","","",""
"image-keyboard-response","427","622259","0.0-7.0-0.60","FL","e4msx463h0","1366","768","0","1","0","5f1f04c1604e3508877cf62a","","null","","","","","","","learning/Slide141.JPG","null","","","","","",""
"html-keyboard-response","428","623411","0.0-7.0-1.60","FL","e4msx463h0","1366","768","0","1","0","5f1f04c1604e3508877cf62a","","null","","","learningBlock2","","","","That was a tob.","null","","","","","",""
"html-keyboard-response","429","624413","0.0-7.0-2.60","FL","e4msx463h0","1366","768","0","1","0","5f1f04c1604e3508877cf62a","","null","","","learningBlock2","","","","<div style=""font-size:60px;""> </div>","null","FL","learning/Slide141.JPG","That was a tob.","","",""
"image-keyboard-response","430","624590","0.0-7.0-0.61","FL","e4msx463h0","1366","768","0","1","0","5f1f04c1604e3508877cf62a","","null","","","","","","","learning/Slide142.JPG","null","","","","","",""
"html-keyboard-response","431","625742","0.0-7.0-1.61","FL","e4msx463h0","1366","768","0","1","0","5f1f04c1604e3508877cf62a","","null","","","learningBlock2","","","","That was a wug.","null","","","","","",""
"html-keyboard-response","432","626743","0.0-7.0-2.61","FL","e4msx463h0","1366","768","0","1","0","5f1f04c1604e3508877cf62a","","null","","","learningBlock2","","","","<div style=""font-size:60px;""> </div>","null","FL","learning/Slide142.JPG","That was a wug.","","",""
"image-keyboard-response","433","626919","0.0-7.0-0.62","FL","e4msx463h0","1366","768","0","1","0","5f1f04c1604e3508877cf62a","","null","","","","","","","learning/Slide143.JPG","null","","","","","",""
"html-keyboard-response","434","628071","0.0-7.0-1.62","FL","e4msx463h0","1366","768","0","1","0","5f1f04c1604e3508877cf62a","","null","","","learningBlock2","","","","That was a bim.","null","","","","","",""
"html-keyboard-response","435","629072","0.0-7.0-2.62","FL","e4msx463h0","1366","768","0","1","0","5f1f04c1604e3508877cf62a","","null","","","learningBlock2","","","","<div style=""font-size:60px;""> </div>","null","FL","learning/Slide143.JPG","That was a bim.","","",""
"image-keyboard-response","436","629249","0.0-7.0-0.63","FL","e4msx463h0","1366","768","0","1","0","5f1f04c1604e3508877cf62a","","null","","","","","","","learning/Slide144.JPG","null","","","","","",""
