"trial_type","trial_index","time_elapsed","internal_node_id","condition","subject","screen_width","screen_height","attention","distraction","conscientious","prolificID","success","rt","url","view_history","test_part","final_height_px","final_width_px","scale_factor","stimulus","key_press","learningType","presentedImage","presentedLabel","button_pressed","response","responses"
"pavlovia","0","3","0.0-0.0","FL","5g2fbehb04","1920","1080","0","1","0","591a1f4800a5650001276188","","","","","","","","","","","","","","","",""
"fullscreen","1","4550","0.0-1.0","FL","5g2fbehb04","1920","1080","0","1","0","591a1f4800a5650001276188","true","","","","","","","","","","","","","","",""
"external-html","2","8086","0.0-2.0-0.0","FL","5g2fbehb04","1920","1080","0","1","0","591a1f4800a5650001276188","","3506","text/information_english.html","","","","","","","","","","","","",""
"external-html","3","12517","0.0-2.0-1.0","FL","5g2fbehb04","1920","1080","0","1","0","591a1f4800a5650001276188","","4400","text/consent_english.html","","","","","","","","","","","","",""
"instructions","4","25229","0.0-3.0","FL","5g2fbehb04","1920","1080","0","1","0","591a1f4800a5650001276188","","NA","","[{""page_index"":0,""viewing_time"":4154},{""page_index"":1,""viewing_time"":8557}]","instructions","","","","","","","","","","",""
"resize","5","64060","0.0-4.0","FL","5g2fbehb04","1920","1080","0","1","0","591a1f4800a5650001276188","","","","","","","296","1.8793650793650793","","","","","","","",""
"image-keyboard-response","6","64250","0.0-5.0-0.0","FL","5g2fbehb04","1920","1080","0","1","0","591a1f4800a5650001276188","","null","","","","","","","learning/Slide1.JPG","null","","","","","",""
"html-keyboard-response","7","65420","0.0-5.0-1.0","FL","5g2fbehb04","1920","1080","0","1","0","591a1f4800a5650001276188","","null","","","learningBlock1","","","","That was a tob.","null","","","","","",""
"html-keyboard-response","8","66440","0.0-5.0-2.0","FL","5g2fbehb04","1920","1080","0","1","0","591a1f4800a5650001276188","","null","","","learningBlock1","","","","<div style=""font-size:60px;""> </div>","null","FL","learning/Slide1.JPG","That was a tob.","","",""
"image-keyboard-response","9","66620","0.0-5.0-0.1","FL","5g2fbehb04","1920","1080","0","1","0","591a1f4800a5650001276188","","null","","","","","","","learning/Slide2.JPG","null","","","","","",""
"html-keyboard-response","10","67800","0.0-5.0-1.1","FL","5g2fbehb04","1920","1080","0","1","0","591a1f4800a5650001276188","","null","","","learningBlock1","","","","That was a wug.","null","","","","","",""
"html-keyboard-response","11","68819","0.0-5.0-2.1","FL","5g2fbehb04","1920","1080","0","1","0","591a1f4800a5650001276188","","null","","","learningBlock1","","","","<div style=""font-size:60px;""> </div>","null","FL","learning/Slide2.JPG","That was a wug.","","",""
"image-keyboard-response","12","68999","0.0-5.0-0.2","FL","5g2fbehb04","1920","1080","0","1","0","591a1f4800a5650001276188","","null","","","","","","","learning/Slide3.JPG","null","","","","","",""
"html-keyboard-response","13","70180","0.0-5.0-1.2","FL","5g2fbehb04","1920","1080","0","1","0","591a1f4800a5650001276188","","null","","","learningBlock1","","","","That was a bim.","null","","","","","",""
"html-keyboard-response","14","71200","0.0-5.0-2.2","FL","5g2fbehb04","1920","1080","0","1","0","591a1f4800a5650001276188","","null","","","learningBlock1","","","","<div style=""font-size:60px;""> </div>","null","FL","learning/Slide3.JPG","That was a bim.","","",""
"image-keyboard-response","15","71379","0.0-5.0-0.3","FL","5g2fbehb04","1920","1080","0","1","0","591a1f4800a5650001276188","","null","","","","","","","learning/Slide4.JPG","null","","","","","",""
"html-keyboard-response","16","72556","0.0-5.0-1.3","FL","5g2fbehb04","1920","1080","0","1","0","591a1f4800a5650001276188","","null","","","learningBlock1","","","","That was a dep.","null","","","","","",""
"html-keyboard-response","17","73560","0.0-5.0-2.3","FL","5g2fbehb04","1920","1080","0","1","0","591a1f4800a5650001276188","","null","","","learningBlock1","","","","<div style=""font-size:60px;""> </div>","null","FL","learning/Slide4.JPG","That was a dep.","","",""
"image-keyboard-response","18","73739","0.0-5.0-0.4","FL","5g2fbehb04","1920","1080","0","1","0","591a1f4800a5650001276188","","null","","","","","","","learning/Slide5.JPG","null","","","","","",""
"html-keyboard-response","19","74910","0.0-5.0-1.4","FL","5g2fbehb04","1920","1080","0","1","0","591a1f4800a5650001276188","","null","","","learningBlock1","","","","That was a wug.","null","","","","","",""
"html-keyboard-response","20","75929","0.0-5.0-2.4","FL","5g2fbehb04","1920","1080","0","1","0","591a1f4800a5650001276188","","null","","","learningBlock1","","","","<div style=""font-size:60px;""> </div>","null","FL","learning/Slide5.JPG","That was a wug.","","",""
"image-keyboard-response","21","76110","0.0-5.0-0.5","FL","5g2fbehb04","1920","1080","0","1","0","591a1f4800a5650001276188","","null","","","","","","","learning/Slide6.JPG","null","","","","","",""
"html-keyboard-response","22","77289","0.0-5.0-1.5","FL","5g2fbehb04","1920","1080","0","1","0","591a1f4800a5650001276188","","null","","","learningBlock1","","","","That was a dep.","null","","","","","",""
"html-keyboard-response","23","78299","0.0-5.0-2.5","FL","5g2fbehb04","1920","1080","0","1","0","591a1f4800a5650001276188","","null","","","learningBlock1","","","","<div style=""font-size:60px;""> </div>","null","FL","learning/Slide6.JPG","That was a dep.","","",""
"image-keyboard-response","24","78489","0.0-5.0-0.6","FL","5g2fbehb04","1920","1080","0","1","0","591a1f4800a5650001276188","","null","","","","","","","learning/Slide7.JPG","null","","","","","",""
"html-keyboard-response","25","79670","0.0-5.0-1.6","FL","5g2fbehb04","1920","1080","0","1","0","591a1f4800a5650001276188","","null","","","learningBlock1","","","","That was a wug.","null","","","","","",""
"html-keyboard-response","26","80688","0.0-5.0-2.6","FL","5g2fbehb04","1920","1080","0","1","0","591a1f4800a5650001276188","","null","","","learningBlock1","","","","<div style=""font-size:60px;""> </div>","null","FL","learning/Slide7.JPG","That was a wug.","","",""
"image-keyboard-response","27","80869","0.0-5.0-0.7","FL","5g2fbehb04","1920","1080","0","1","0","591a1f4800a5650001276188","","null","","","","","","","learning/Slide8.JPG","null","","","","","",""
"html-keyboard-response","28","82039","0.0-5.0-1.7","FL","5g2fbehb04","1920","1080","0","1","0","591a1f4800a5650001276188","","null","","","learningBlock1","","","","That was a bim.","null","","","","","",""
"html-keyboard-response","29","83049","0.0-5.0-2.7","FL","5g2fbehb04","1920","1080","0","1","0","591a1f4800a5650001276188","","null","","","learningBlock1","","","","<div style=""font-size:60px;""> </div>","null","FL","learning/Slide8.JPG","That was a bim.","","",""
"image-keyboard-response","30","83229","0.0-5.0-0.8","FL","5g2fbehb04","1920","1080","0","1","0","591a1f4800a5650001276188","","null","","","","","","","learning/Slide9.JPG","null","","","","","",""
"html-keyboard-response","31","84410","0.0-5.0-1.8","FL","5g2fbehb04","1920","1080","0","1","0","591a1f4800a5650001276188","","null","","","learningBlock1","","","","That was a wug.","null","","","","","",""
"html-keyboard-response","32","85429","0.0-5.0-2.8","FL","5g2fbehb04","1920","1080","0","1","0","591a1f4800a5650001276188","","null","","","learningBlock1","","","","<div style=""font-size:60px;""> </div>","null","FL","learning/Slide9.JPG","That was a wug.","","",""
"image-keyboard-response","33","85609","0.0-5.0-0.9","FL","5g2fbehb04","1920","1080","0","1","0","591a1f4800a5650001276188","","null","","","","","","","learning/Slide10.JPG","null","","","","","",""
"html-keyboard-response","34","86779","0.0-5.0-1.9","FL","5g2fbehb04","1920","1080","0","1","0","591a1f4800a5650001276188","","null","","","learningBlock1","","","","That was a dep.","null","","","","","",""
"html-keyboard-response","35","87800","0.0-5.0-2.9","FL","5g2fbehb04","1920","1080","0","1","0","591a1f4800a5650001276188","","null","","","learningBlock1","","","","<div style=""font-size:60px;""> </div>","null","FL","learning/Slide10.JPG","That was a dep.","","",""
"image-keyboard-response","36","87980","0.0-5.0-0.10","FL","5g2fbehb04","1920","1080","0","1","0","591a1f4800a5650001276188","","null","","","","","","","learning/Slide11.JPG","null","","","","","",""
"html-keyboard-response","37","89140","0.0-5.0-1.10","FL","5g2fbehb04","1920","1080","0","1","0","591a1f4800a5650001276188","","null","","","learningBlock1","","","","That was a tob.","null","","","","","",""
"html-keyboard-response","38","90159","0.0-5.0-2.10","FL","5g2fbehb04","1920","1080","0","1","0","591a1f4800a5650001276188","","null","","","learningBlock1","","","","<div style=""font-size:60px;""> </div>","null","FL","learning/Slide11.JPG","That was a tob.","","",""
"image-keyboard-response","39","90339","0.0-5.0-0.11","FL","5g2fbehb04","1920","1080","0","1","0","591a1f4800a5650001276188","","null","","","","","","","learning/Slide12.JPG","null","","","","","",""
"html-keyboard-response","40","91500","0.0-5.0-1.11","FL","5g2fbehb04","1920","1080","0","1","0","591a1f4800a5650001276188","","null","","","learningBlock1","","","","That was a dep.","null","","","","","",""
"html-keyboard-response","41","92510","0.0-5.0-2.11","FL","5g2fbehb04","1920","1080","0","1","0","591a1f4800a5650001276188","","null","","","learningBlock1","","","","<div style=""font-size:60px;""> </div>","null","FL","learning/Slide12.JPG","That was a dep.","","",""
"image-keyboard-response","42","92690","0.0-5.0-0.12","FL","5g2fbehb04","1920","1080","0","1","0","591a1f4800a5650001276188","","null","","","","","","","learning/Slide13.JPG","null","","","","","",""
"html-keyboard-response","43","93870","0.0-5.0-1.12","FL","5g2fbehb04","1920","1080","0","1","0","591a1f4800a5650001276188","","null","","","learningBlock1","","","","That was a bim.","null","","","","","",""
"html-keyboard-response","44","94869","0.0-5.0-2.12","FL","5g2fbehb04","1920","1080","0","1","0","591a1f4800a5650001276188","","null","","","learningBlock1","","","","<div style=""font-size:60px;""> </div>","null","FL","learning/Slide13.JPG","That was a bim.","","",""
"image-keyboard-response","45","95049","0.0-5.0-0.13","FL","5g2fbehb04","1920","1080","0","1","0","591a1f4800a5650001276188","","null","","","","","","","learning/Slide14.JPG","null","","","","","",""
"html-keyboard-response","46","96229","0.0-5.0-1.13","FL","5g2fbehb04","1920","1080","0","1","0","591a1f4800a5650001276188","","null","","","learningBlock1","","","","That was a wug.","null","","","","","",""
"html-keyboard-response","47","97240","0.0-5.0-2.13","FL","5g2fbehb04","1920","1080","0","1","0","591a1f4800a5650001276188","","null","","","learningBlock1","","","","<div style=""font-size:60px;""> </div>","null","FL","learning/Slide14.JPG","That was a wug.","","",""
"image-keyboard-response","48","97419","0.0-5.0-0.14","FL","5g2fbehb04","1920","1080","0","1","0","591a1f4800a5650001276188","","null","","","","","","","learning/Slide15.JPG","null","","","","","",""
"html-keyboard-response","49","98589","0.0-5.0-1.14","FL","5g2fbehb04","1920","1080","0","1","0","591a1f4800a5650001276188","","null","","","learningBlock1","","","","That was a tob.","null","","","","","",""
"html-keyboard-response","50","99609","0.0-5.0-2.14","FL","5g2fbehb04","1920","1080","0","1","0","591a1f4800a5650001276188","","null","","","learningBlock1","","","","<div style=""font-size:60px;""> </div>","null","FL","learning/Slide15.JPG","That was a tob.","","",""
"image-keyboard-response","51","99809","0.0-5.0-0.15","FL","5g2fbehb04","1920","1080","0","1","0","591a1f4800a5650001276188","","null","","","","","","","learning/Slide16.JPG","null","","","","","",""
"html-keyboard-response","52","100979","0.0-5.0-1.15","FL","5g2fbehb04","1920","1080","0","1","0","591a1f4800a5650001276188","","null","","","learningBlock1","","","","That was a dep.","null","","","","","",""
"html-keyboard-response","53","101989","0.0-5.0-2.15","FL","5g2fbehb04","1920","1080","0","1","0","591a1f4800a5650001276188","","null","","","learningBlock1","","","","<div style=""font-size:60px;""> </div>","null","FL","learning/Slide16.JPG","That was a dep.","","",""
"image-keyboard-response","54","102170","0.0-5.0-0.16","FL","5g2fbehb04","1920","1080","0","1","0","591a1f4800a5650001276188","","null","","","","","","","learning/Slide17.JPG","null","","","","","",""
"html-keyboard-response","55","103350","0.0-5.0-1.16","FL","5g2fbehb04","1920","1080","0","1","0","591a1f4800a5650001276188","","null","","","learningBlock1","","","","That was a bim.","null","","","","","",""
"html-keyboard-response","56","104369","0.0-5.0-2.16","FL","5g2fbehb04","1920","1080","0","1","0","591a1f4800a5650001276188","","null","","","learningBlock1","","","","<div style=""font-size:60px;""> </div>","null","FL","learning/Slide17.JPG","That was a bim.","","",""
"image-keyboard-response","57","104550","0.0-5.0-0.17","FL","5g2fbehb04","1920","1080","0","1","0","591a1f4800a5650001276188","","null","","","","","","","learning/Slide18.JPG","null","","","","","",""
"html-keyboard-response","58","105710","0.0-5.0-1.17","FL","5g2fbehb04","1920","1080","0","1","0","591a1f4800a5650001276188","","null","","","learningBlock1","","","","That was a tob.","null","","","","","",""
"html-keyboard-response","59","106728","0.0-5.0-2.17","FL","5g2fbehb04","1920","1080","0","1","0","591a1f4800a5650001276188","","null","","","learningBlock1","","","","<div style=""font-size:60px;""> </div>","null","FL","learning/Slide18.JPG","That was a tob.","","",""
"image-keyboard-response","60","106910","0.0-5.0-0.18","FL","5g2fbehb04","1920","1080","0","1","0","591a1f4800a5650001276188","","null","","","","","","","learning/Slide19.JPG","null","","","","","",""
"html-keyboard-response","61","108089","0.0-5.0-1.18","FL","5g2fbehb04","1920","1080","0","1","0","591a1f4800a5650001276188","","null","","","learningBlock1","","","","That was a wug.","null","","","","","",""
"html-keyboard-response","62","109109","0.0-5.0-2.18","FL","5g2fbehb04","1920","1080","0","1","0","591a1f4800a5650001276188","","null","","","learningBlock1","","","","<div style=""font-size:60px;""> </div>","null","FL","learning/Slide19.JPG","That was a wug.","","",""
"image-keyboard-response","63","109289","0.0-5.0-0.19","FL","5g2fbehb04","1920","1080","0","1","0","591a1f4800a5650001276188","","null","","","","","","","learning/Slide20.JPG","null","","","","","",""
"html-keyboard-response","64","110450","0.0-5.0-1.19","FL","5g2fbehb04","1920","1080","0","1","0","591a1f4800a5650001276188","","null","","","learningBlock1","","","","That was a bim.","null","","","","","",""
"html-keyboard-response","65","111470","0.0-5.0-2.19","FL","5g2fbehb04","1920","1080","0","1","0","591a1f4800a5650001276188","","null","","","learningBlock1","","","","<div style=""font-size:60px;""> </div>","null","FL","learning/Slide20.JPG","That was a bim.","","",""
"image-keyboard-response","66","111650","0.0-5.0-0.20","FL","5g2fbehb04","1920","1080","0","1","0","591a1f4800a5650001276188","","null","","","","","","","learning/Slide21.JPG","null","","","","","",""
"html-keyboard-response","67","112820","0.0-5.0-1.20","FL","5g2fbehb04","1920","1080","0","1","0","591a1f4800a5650001276188","","null","","","learningBlock1","","","","That was a dep.","null","","","","","",""
"html-keyboard-response","68","113839","0.0-5.0-2.20","FL","5g2fbehb04","1920","1080","0","1","0","591a1f4800a5650001276188","","null","","","learningBlock1","","","","<div style=""font-size:60px;""> </div>","null","FL","learning/Slide21.JPG","That was a dep.","","",""
"image-keyboard-response","69","114019","0.0-5.0-0.21","FL","5g2fbehb04","1920","1080","0","1","0","591a1f4800a5650001276188","","null","","","","","","","learning/Slide22.JPG","null","","","","","",""
"html-keyboard-response","70","115180","0.0-5.0-1.21","FL","5g2fbehb04","1920","1080","0","1","0","591a1f4800a5650001276188","","null","","","learningBlock1","","","","That was a bim.","null","","","","","",""
"html-keyboard-response","71","116200","0.0-5.0-2.21","FL","5g2fbehb04","1920","1080","0","1","0","591a1f4800a5650001276188","","null","","","learningBlock1","","","","<div style=""font-size:60px;""> </div>","null","FL","learning/Slide22.JPG","That was a bim.","","",""
"image-keyboard-response","72","116379","0.0-5.0-0.22","FL","5g2fbehb04","1920","1080","0","1","0","591a1f4800a5650001276188","","null","","","","","","","learning/Slide23.JPG","null","","","","","",""
"html-keyboard-response","73","117559","0.0-5.0-1.22","FL","5g2fbehb04","1920","1080","0","1","0","591a1f4800a5650001276188","","null","","","learningBlock1","","","","That was a tob.","null","","","","","",""
"html-keyboard-response","74","118579","0.0-5.0-2.22","FL","5g2fbehb04","1920","1080","0","1","0","591a1f4800a5650001276188","","null","","","learningBlock1","","","","<div style=""font-size:60px;""> </div>","null","FL","learning/Slide23.JPG","That was a tob.","","",""
"image-keyboard-response","75","118759","0.0-5.0-0.23","FL","5g2fbehb04","1920","1080","0","1","0","591a1f4800a5650001276188","","null","","","","","","","learning/Slide24.JPG","null","","","","","",""
"html-keyboard-response","76","119929","0.0-5.0-1.23","FL","5g2fbehb04","1920","1080","0","1","0","591a1f4800a5650001276188","","null","","","learningBlock1","","","","That was a wug.","null","","","","","",""
"html-keyboard-response","77","120930","0.0-5.0-2.23","FL","5g2fbehb04","1920","1080","0","1","0","591a1f4800a5650001276188","","null","","","learningBlock1","","","","<div style=""font-size:60px;""> </div>","null","FL","learning/Slide24.JPG","That was a wug.","","",""
"image-keyboard-response","78","121110","0.0-5.0-0.24","FL","5g2fbehb04","1920","1080","0","1","0","591a1f4800a5650001276188","","null","","","","","","","learning/Slide25.JPG","null","","","","","",""
"html-keyboard-response","79","122280","0.0-5.0-1.24","FL","5g2fbehb04","1920","1080","0","1","0","591a1f4800a5650001276188","","null","","","learningBlock1","","","","That was a dep.","null","","","","","",""
"html-keyboard-response","80","123289","0.0-5.0-2.24","FL","5g2fbehb04","1920","1080","0","1","0","591a1f4800a5650001276188","","null","","","learningBlock1","","","","<div style=""font-size:60px;""> </div>","null","FL","learning/Slide25.JPG","That was a dep.","","",""
"image-keyboard-response","81","123470","0.0-5.0-0.25","FL","5g2fbehb04","1920","1080","0","1","0","591a1f4800a5650001276188","","null","","","","","","","learning/Slide26.JPG","null","","","","","",""
"html-keyboard-response","82","124630","0.0-5.0-1.25","FL","5g2fbehb04","1920","1080","0","1","0","591a1f4800a5650001276188","","null","","","learningBlock1","","","","That was a wug.","null","","","","","",""
"html-keyboard-response","83","125630","0.0-5.0-2.25","FL","5g2fbehb04","1920","1080","0","1","0","591a1f4800a5650001276188","","null","","","learningBlock1","","","","<div style=""font-size:60px;""> </div>","null","FL","learning/Slide26.JPG","That was a wug.","","",""
"image-keyboard-response","84","125806","0.0-5.0-0.26","FL","5g2fbehb04","1920","1080","0","1","0","591a1f4800a5650001276188","","null","","","","","","","learning/Slide27.JPG","null","","","","","",""
"html-keyboard-response","85","126980","0.0-5.0-1.26","FL","5g2fbehb04","1920","1080","0","1","0","591a1f4800a5650001276188","","null","","","learningBlock1","","","","That was a bim.","null","","","","","",""
"html-keyboard-response","86","127999","0.0-5.0-2.26","FL","5g2fbehb04","1920","1080","0","1","0","591a1f4800a5650001276188","","null","","","learningBlock1","","","","<div style=""font-size:60px;""> </div>","null","FL","learning/Slide27.JPG","That was a bim.","","",""
"image-keyboard-response","87","128190","0.0-5.0-0.27","FL","5g2fbehb04","1920","1080","0","1","0","591a1f4800a5650001276188","","null","","","","","","","learning/Slide28.JPG","null","","","","","",""
"html-keyboard-response","88","129370","0.0-5.0-1.27","FL","5g2fbehb04","1920","1080","0","1","0","591a1f4800a5650001276188","","null","","","learningBlock1","","","","That was a dep.","null","","","","","",""
"html-keyboard-response","89","130380","0.0-5.0-2.27","FL","5g2fbehb04","1920","1080","0","1","0","591a1f4800a5650001276188","","null","","","learningBlock1","","","","<div style=""font-size:60px;""> </div>","null","FL","learning/Slide28.JPG","That was a dep.","","",""
"image-keyboard-response","90","130560","0.0-5.0-0.28","FL","5g2fbehb04","1920","1080","0","1","0","591a1f4800a5650001276188","","null","","","","","","","learning/Slide29.JPG","null","","","","","",""
"html-keyboard-response","91","131719","0.0-5.0-1.28","FL","5g2fbehb04","1920","1080","0","1","0","591a1f4800a5650001276188","","null","","","learningBlock1","","","","That was a tob.","null","","","","","",""
"html-keyboard-response","92","132729","0.0-5.0-2.28","FL","5g2fbehb04","1920","1080","0","1","0","591a1f4800a5650001276188","","null","","","learningBlock1","","","","<div style=""font-size:60px;""> </div>","null","FL","learning/Slide29.JPG","That was a tob.","","",""
"image-keyboard-response","93","132909","0.0-5.0-0.29","FL","5g2fbehb04","1920","1080","0","1","0","591a1f4800a5650001276188","","null","","","","","","","learning/Slide30.JPG","null","","","","","",""
"html-keyboard-response","94","134079","0.0-5.0-1.29","FL","5g2fbehb04","1920","1080","0","1","0","591a1f4800a5650001276188","","null","","","learningBlock1","","","","That was a dep.","null","","","","","",""
"html-keyboard-response","95","135089","0.0-5.0-2.29","FL","5g2fbehb04","1920","1080","0","1","0","591a1f4800a5650001276188","","null","","","learningBlock1","","","","<div style=""font-size:60px;""> </div>","null","FL","learning/Slide30.JPG","That was a dep.","","",""
"image-keyboard-response","96","135269","0.0-5.0-0.30","FL","5g2fbehb04","1920","1080","0","1","0","591a1f4800a5650001276188","","null","","","","","","","learning/Slide31.JPG","null","","","","","",""
"html-keyboard-response","97","136427","0.0-5.0-1.30","FL","5g2fbehb04","1920","1080","0","1","0","591a1f4800a5650001276188","","null","","","learningBlock1","","","","That was a wug.","null","","","","","",""
"html-keyboard-response","98","137440","0.0-5.0-2.30","FL","5g2fbehb04","1920","1080","0","1","0","591a1f4800a5650001276188","","null","","","learningBlock1","","","","<div style=""font-size:60px;""> </div>","null","FL","learning/Slide31.JPG","That was a wug.","","",""
"image-keyboard-response","99","137619","0.0-5.0-0.31","FL","5g2fbehb04","1920","1080","0","1","0","591a1f4800a5650001276188","","null","","","","","","","learning/Slide32.JPG","null","","","","","",""
"html-keyboard-response","100","138790","0.0-5.0-1.31","FL","5g2fbehb04","1920","1080","0","1","0","591a1f4800a5650001276188","","null","","","learningBlock1","","","","That was a tob.","null","","","","","",""
"html-keyboard-response","101","139800","0.0-5.0-2.31","FL","5g2fbehb04","1920","1080","0","1","0","591a1f4800a5650001276188","","null","","","learningBlock1","","","","<div style=""font-size:60px;""> </div>","null","FL","learning/Slide32.JPG","That was a tob.","","",""
"image-keyboard-response","102","139980","0.0-5.0-0.32","FL","5g2fbehb04","1920","1080","0","1","0","591a1f4800a5650001276188","","null","","","","","","","learning/Slide33.JPG","null","","","","","",""
"html-keyboard-response","103","141139","0.0-5.0-1.32","FL","5g2fbehb04","1920","1080","0","1","0","591a1f4800a5650001276188","","null","","","learningBlock1","","","","That was a bim.","null","","","","","",""
"html-keyboard-response","104","142160","0.0-5.0-2.32","FL","5g2fbehb04","1920","1080","0","1","0","591a1f4800a5650001276188","","null","","","learningBlock1","","","","<div style=""font-size:60px;""> </div>","null","FL","learning/Slide33.JPG","That was a bim.","","",""
"image-keyboard-response","105","142336","0.0-5.0-0.33","FL","5g2fbehb04","1920","1080","0","1","0","591a1f4800a5650001276188","","null","","","","","","","learning/Slide34.JPG","null","","","","","",""
"html-keyboard-response","106","143519","0.0-5.0-1.33","FL","5g2fbehb04","1920","1080","0","1","0","591a1f4800a5650001276188","","null","","","learningBlock1","","","","That was a tob.","null","","","","","",""
"html-keyboard-response","107","144529","0.0-5.0-2.33","FL","5g2fbehb04","1920","1080","0","1","0","591a1f4800a5650001276188","","null","","","learningBlock1","","","","<div style=""font-size:60px;""> </div>","null","FL","learning/Slide34.JPG","That was a tob.","","",""
"image-keyboard-response","108","144709","0.0-5.0-0.34","FL","5g2fbehb04","1920","1080","0","1","0","591a1f4800a5650001276188","","null","","","","","","","learning/Slide35.JPG","null","","","","","",""
"html-keyboard-response","109","145890","0.0-5.0-1.34","FL","5g2fbehb04","1920","1080","0","1","0","591a1f4800a5650001276188","","null","","","learningBlock1","","","","That was a bim.","null","","","","","",""
"html-keyboard-response","110","146909","0.0-5.0-2.34","FL","5g2fbehb04","1920","1080","0","1","0","591a1f4800a5650001276188","","null","","","learningBlock1","","","","<div style=""font-size:60px;""> </div>","null","FL","learning/Slide35.JPG","That was a bim.","","",""
"image-keyboard-response","111","147090","0.0-5.0-0.35","FL","5g2fbehb04","1920","1080","0","1","0","591a1f4800a5650001276188","","null","","","","","","","learning/Slide36.JPG","null","","","","","",""
"html-keyboard-response","112","148249","0.0-5.0-1.35","FL","5g2fbehb04","1920","1080","0","1","0","591a1f4800a5650001276188","","null","","","learningBlock1","","","","That was a dep.","null","","","","","",""
"html-keyboard-response","113","149259","0.0-5.0-2.35","FL","5g2fbehb04","1920","1080","0","1","0","591a1f4800a5650001276188","","null","","","learningBlock1","","","","<div style=""font-size:60px;""> </div>","null","FL","learning/Slide36.JPG","That was a dep.","","",""
"image-keyboard-response","114","149440","0.0-5.0-0.36","FL","5g2fbehb04","1920","1080","0","1","0","591a1f4800a5650001276188","","null","","","","","","","learning/Slide37.JPG","null","","","","","",""
"html-keyboard-response","115","150599","0.0-5.0-1.36","FL","5g2fbehb04","1920","1080","0","1","0","591a1f4800a5650001276188","","null","","","learningBlock1","","","","That was a tob.","null","","","","","",""
"html-keyboard-response","116","151609","0.0-5.0-2.36","FL","5g2fbehb04","1920","1080","0","1","0","591a1f4800a5650001276188","","null","","","learningBlock1","","","","<div style=""font-size:60px;""> </div>","null","FL","learning/Slide37.JPG","That was a tob.","","",""
"image-keyboard-response","117","151789","0.0-5.0-0.37","FL","5g2fbehb04","1920","1080","0","1","0","591a1f4800a5650001276188","","null","","","","","","","learning/Slide38.JPG","null","","","","","",""
"html-keyboard-response","118","152969","0.0-5.0-1.37","FL","5g2fbehb04","1920","1080","0","1","0","591a1f4800a5650001276188","","null","","","learningBlock1","","","","That was a wug.","null","","","","","",""
"html-keyboard-response","119","153979","0.0-5.0-2.37","FL","5g2fbehb04","1920","1080","0","1","0","591a1f4800a5650001276188","","null","","","learningBlock1","","","","<div style=""font-size:60px;""> </div>","null","FL","learning/Slide38.JPG","That was a wug.","","",""
"image-keyboard-response","120","154160","0.0-5.0-0.38","FL","5g2fbehb04","1920","1080","0","1","0","591a1f4800a5650001276188","","null","","","","","","","learning/Slide39.JPG","null","","","","","",""
"html-keyboard-response","121","155320","0.0-5.0-1.38","FL","5g2fbehb04","1920","1080","0","1","0","591a1f4800a5650001276188","","null","","","learningBlock1","","","","That was a bim.","null","","","","","",""
"html-keyboard-response","122","156330","0.0-5.0-2.38","FL","5g2fbehb04","1920","1080","0","1","0","591a1f4800a5650001276188","","null","","","learningBlock1","","","","<div style=""font-size:60px;""> </div>","null","FL","learning/Slide39.JPG","That was a bim.","","",""
"image-keyboard-response","123","156510","0.0-5.0-0.39","FL","5g2fbehb04","1920","1080","0","1","0","591a1f4800a5650001276188","","null","","","","","","","learning/Slide40.JPG","null","","","","","",""
"html-keyboard-response","124","157674","0.0-5.0-1.39","FL","5g2fbehb04","1920","1080","0","1","0","591a1f4800a5650001276188","","null","","","learningBlock1","","","","That was a tob.","null","","","","","",""
"html-keyboard-response","125","158679","0.0-5.0-2.39","FL","5g2fbehb04","1920","1080","0","1","0","591a1f4800a5650001276188","","null","","","learningBlock1","","","","<div style=""font-size:60px;""> </div>","null","FL","learning/Slide40.JPG","That was a tob.","","",""
"image-keyboard-response","126","158859","0.0-5.0-0.40","FL","5g2fbehb04","1920","1080","0","1","0","591a1f4800a5650001276188","","null","","","","","","","learning/Slide41.JPG","null","","","","","",""
"html-keyboard-response","127","160019","0.0-5.0-1.40","FL","5g2fbehb04","1920","1080","0","1","0","591a1f4800a5650001276188","","null","","","learningBlock1","","","","That was a bim.","null","","","","","",""
"html-keyboard-response","128","161040","0.0-5.0-2.40","FL","5g2fbehb04","1920","1080","0","1","0","591a1f4800a5650001276188","","null","","","learningBlock1","","","","<div style=""font-size:60px;""> </div>","null","FL","learning/Slide41.JPG","That was a bim.","","",""
"image-keyboard-response","129","161220","0.0-5.0-0.41","FL","5g2fbehb04","1920","1080","0","1","0","591a1f4800a5650001276188","","null","","","","","","","learning/Slide42.JPG","null","","","","","",""
"html-keyboard-response","130","162380","0.0-5.0-1.41","FL","5g2fbehb04","1920","1080","0","1","0","591a1f4800a5650001276188","","null","","","learningBlock1","","","","That was a dep.","null","","","","","",""
"html-keyboard-response","131","163389","0.0-5.0-2.41","FL","5g2fbehb04","1920","1080","0","1","0","591a1f4800a5650001276188","","null","","","learningBlock1","","","","<div style=""font-size:60px;""> </div>","null","FL","learning/Slide42.JPG","That was a dep.","","",""
"image-keyboard-response","132","163570","0.0-5.0-0.42","FL","5g2fbehb04","1920","1080","0","1","0","591a1f4800a5650001276188","","null","","","","","","","learning/Slide43.JPG","null","","","","","",""
"html-keyboard-response","133","164750","0.0-5.0-1.42","FL","5g2fbehb04","1920","1080","0","1","0","591a1f4800a5650001276188","","null","","","learningBlock1","","","","That was a wug.","null","","","","","",""
"html-keyboard-response","134","165770","0.0-5.0-2.42","FL","5g2fbehb04","1920","1080","0","1","0","591a1f4800a5650001276188","","null","","","learningBlock1","","","","<div style=""font-size:60px;""> </div>","null","FL","learning/Slide43.JPG","That was a wug.","","",""
"image-keyboard-response","135","165949","0.0-5.0-0.43","FL","5g2fbehb04","1920","1080","0","1","0","591a1f4800a5650001276188","","null","","","","","","","learning/Slide44.JPG","null","","","","","",""
"html-keyboard-response","136","167130","0.0-5.0-1.43","FL","5g2fbehb04","1920","1080","0","1","0","591a1f4800a5650001276188","","null","","","learningBlock1","","","","That was a bim.","null","","","","","",""
"html-keyboard-response","137","168150","0.0-5.0-2.43","FL","5g2fbehb04","1920","1080","0","1","0","591a1f4800a5650001276188","","null","","","learningBlock1","","","","<div style=""font-size:60px;""> </div>","null","FL","learning/Slide44.JPG","That was a bim.","","",""
"image-keyboard-response","138","168329","0.0-5.0-0.44","FL","5g2fbehb04","1920","1080","0","1","0","591a1f4800a5650001276188","","null","","","","","","","learning/Slide45.JPG","null","","","","","",""
"html-keyboard-response","139","169499","0.0-5.0-1.44","FL","5g2fbehb04","1920","1080","0","1","0","591a1f4800a5650001276188","","null","","","learningBlock1","","","","That was a wug.","null","","","","","",""
"html-keyboard-response","140","170510","0.0-5.0-2.44","FL","5g2fbehb04","1920","1080","0","1","0","591a1f4800a5650001276188","","null","","","learningBlock1","","","","<div style=""font-size:60px;""> </div>","null","FL","learning/Slide45.JPG","That was a wug.","","",""
"image-keyboard-response","141","170689","0.0-5.0-0.45","FL","5g2fbehb04","1920","1080","0","1","0","591a1f4800a5650001276188","","null","","","","","","","learning/Slide46.JPG","null","","","","","",""
"html-keyboard-response","142","171849","0.0-5.0-1.45","FL","5g2fbehb04","1920","1080","0","1","0","591a1f4800a5650001276188","","null","","","learningBlock1","","","","That was a dep.","null","","","","","",""
"html-keyboard-response","143","172870","0.0-5.0-2.45","FL","5g2fbehb04","1920","1080","0","1","0","591a1f4800a5650001276188","","null","","","learningBlock1","","","","<div style=""font-size:60px;""> </div>","null","FL","learning/Slide46.JPG","That was a dep.","","",""
"image-keyboard-response","144","173050","0.0-5.0-0.46","FL","5g2fbehb04","1920","1080","0","1","0","591a1f4800a5650001276188","","null","","","","","","","learning/Slide47.JPG","null","","","","","",""
"html-keyboard-response","145","174229","0.0-5.0-1.46","FL","5g2fbehb04","1920","1080","0","1","0","591a1f4800a5650001276188","","null","","","learningBlock1","","","","That was a tob.","null","","","","","",""
"html-keyboard-response","146","175250","0.0-5.0-2.46","FL","5g2fbehb04","1920","1080","0","1","0","591a1f4800a5650001276188","","null","","","learningBlock1","","","","<div style=""font-size:60px;""> </div>","null","FL","learning/Slide47.JPG","That was a tob.","","",""
"image-keyboard-response","147","175429","0.0-5.0-0.47","FL","5g2fbehb04","1920","1080","0","1","0","591a1f4800a5650001276188","","null","","","","","","","learning/Slide48.JPG","null","","","","","",""
"html-keyboard-response","148","176600","0.0-5.0-1.47","FL","5g2fbehb04","1920","1080","0","1","0","591a1f4800a5650001276188","","null","","","learningBlock1","","","","That was a bim.","null","","","","","",""
"html-keyboard-response","149","177620","0.0-5.0-2.47","FL","5g2fbehb04","1920","1080","0","1","0","591a1f4800a5650001276188","","null","","","learningBlock1","","","","<div style=""font-size:60px;""> </div>","null","FL","learning/Slide48.JPG","That was a bim.","","",""
"image-keyboard-response","150","177809","0.0-5.0-0.48","FL","5g2fbehb04","1920","1080","0","1","0","591a1f4800a5650001276188","","null","","","","","","","learning/Slide49.JPG","null","","","","","",""
"html-keyboard-response","151","178980","0.0-5.0-1.48","FL","5g2fbehb04","1920","1080","0","1","0","591a1f4800a5650001276188","","null","","","learningBlock1","","","","That was a dep.","null","","","","","",""
"html-keyboard-response","152","179988","0.0-5.0-2.48","FL","5g2fbehb04","1920","1080","0","1","0","591a1f4800a5650001276188","","null","","","learningBlock1","","","","<div style=""font-size:60px;""> </div>","null","FL","learning/Slide49.JPG","That was a dep.","","",""
"image-keyboard-response","153","180169","0.0-5.0-0.49","FL","5g2fbehb04","1920","1080","0","1","0","591a1f4800a5650001276188","","null","","","","","","","learning/Slide50.JPG","null","","","","","",""
"html-keyboard-response","154","181349","0.0-5.0-1.49","FL","5g2fbehb04","1920","1080","0","1","0","591a1f4800a5650001276188","","null","","","learningBlock1","","","","That was a tob.","null","","","","","",""
"html-keyboard-response","155","182370","0.0-5.0-2.49","FL","5g2fbehb04","1920","1080","0","1","0","591a1f4800a5650001276188","","null","","","learningBlock1","","","","<div style=""font-size:60px;""> </div>","null","FL","learning/Slide50.JPG","That was a tob.","","",""
"image-keyboard-response","156","182550","0.0-5.0-0.50","FL","5g2fbehb04","1920","1080","0","1","0","591a1f4800a5650001276188","","null","","","","","","","learning/Slide51.JPG","null","","","","","",""
"html-keyboard-response","157","183730","0.0-5.0-1.50","FL","5g2fbehb04","1920","1080","0","1","0","591a1f4800a5650001276188","","null","","","learningBlock1","","","","That was a bim.","null","","","","","",""
"html-keyboard-response","158","184749","0.0-5.0-2.50","FL","5g2fbehb04","1920","1080","0","1","0","591a1f4800a5650001276188","","null","","","learningBlock1","","","","<div style=""font-size:60px;""> </div>","null","FL","learning/Slide51.JPG","That was a bim.","","",""
"image-keyboard-response","159","184939","0.0-5.0-0.51","FL","5g2fbehb04","1920","1080","0","1","0","591a1f4800a5650001276188","","null","","","","","","","learning/Slide52.JPG","null","","","","","",""
"html-keyboard-response","160","186090","0.0-5.0-1.51","FL","5g2fbehb04","1920","1080","0","1","0","591a1f4800a5650001276188","","null","","","learningBlock1","","","","That was a wug.","null","","","","","",""
"html-keyboard-response","161","187109","0.0-5.0-2.51","FL","5g2fbehb04","1920","1080","0","1","0","591a1f4800a5650001276188","","null","","","learningBlock1","","","","<div style=""font-size:60px;""> </div>","null","FL","learning/Slide52.JPG","That was a wug.","","",""
"image-keyboard-response","162","187289","0.0-5.0-0.52","FL","5g2fbehb04","1920","1080","0","1","0","591a1f4800a5650001276188","","null","","","","","","","learning/Slide53.JPG","null","","","","","",""
"html-keyboard-response","163","188470","0.0-5.0-1.52","FL","5g2fbehb04","1920","1080","0","1","0","591a1f4800a5650001276188","","null","","","learningBlock1","","","","That was a tob.","null","","","","","",""
"html-keyboard-response","164","189480","0.0-5.0-2.52","FL","5g2fbehb04","1920","1080","0","1","0","591a1f4800a5650001276188","","null","","","learningBlock1","","","","<div style=""font-size:60px;""> </div>","null","FL","learning/Slide53.JPG","That was a tob.","","",""
"image-keyboard-response","165","189660","0.0-5.0-0.53","FL","5g2fbehb04","1920","1080","0","1","0","591a1f4800a5650001276188","","null","","","","","","","learning/Slide54.JPG","null","","","","","",""
"html-keyboard-response","166","190830","0.0-5.0-1.53","FL","5g2fbehb04","1920","1080","0","1","0","591a1f4800a5650001276188","","null","","","learningBlock1","","","","That was a dep.","null","","","","","",""
"html-keyboard-response","167","191850","0.0-5.0-2.53","FL","5g2fbehb04","1920","1080","0","1","0","591a1f4800a5650001276188","","null","","","learningBlock1","","","","<div style=""font-size:60px;""> </div>","null","FL","learning/Slide54.JPG","That was a dep.","","",""
"image-keyboard-response","168","192030","0.0-5.0-0.54","FL","5g2fbehb04","1920","1080","0","1","0","591a1f4800a5650001276188","","null","","","","","","","learning/Slide55.JPG","null","","","","","",""
"html-keyboard-response","169","193189","0.0-5.0-1.54","FL","5g2fbehb04","1920","1080","0","1","0","591a1f4800a5650001276188","","null","","","learningBlock1","","","","That was a bim.","null","","","","","",""
"html-keyboard-response","170","194210","0.0-5.0-2.54","FL","5g2fbehb04","1920","1080","0","1","0","591a1f4800a5650001276188","","null","","","learningBlock1","","","","<div style=""font-size:60px;""> </div>","null","FL","learning/Slide55.JPG","That was a bim.","","",""
"image-keyboard-response","171","194400","0.0-5.0-0.55","FL","5g2fbehb04","1920","1080","0","1","0","591a1f4800a5650001276188","","null","","","","","","","learning/Slide56.JPG","null","","","","","",""
"html-keyboard-response","172","195579","0.0-5.0-1.55","FL","5g2fbehb04","1920","1080","0","1","0","591a1f4800a5650001276188","","null","","","learningBlock1","","","","That was a tob.","null","","","","","",""
"html-keyboard-response","173","196580","0.0-5.0-2.55","FL","5g2fbehb04","1920","1080","0","1","0","591a1f4800a5650001276188","","null","","","learningBlock1","","","","<div style=""font-size:60px;""> </div>","null","FL","learning/Slide56.JPG","That was a tob.","","",""
"image-keyboard-response","174","196759","0.0-5.0-0.56","FL","5g2fbehb04","1920","1080","0","1","0","591a1f4800a5650001276188","","null","","","","","","","learning/Slide57.JPG","null","","","","","",""
"html-keyboard-response","175","197940","0.0-5.0-1.56","FL","5g2fbehb04","1920","1080","0","1","0","591a1f4800a5650001276188","","null","","","learningBlock1","","","","That was a dep.","null","","","","","",""
"html-keyboard-response","176","198960","0.0-5.0-2.56","FL","5g2fbehb04","1920","1080","0","1","0","591a1f4800a5650001276188","","null","","","learningBlock1","","","","<div style=""font-size:60px;""> </div>","null","FL","learning/Slide57.JPG","That was a dep.","","",""
"image-keyboard-response","177","199140","0.0-5.0-0.57","FL","5g2fbehb04","1920","1080","0","1","0","591a1f4800a5650001276188","","null","","","","","","","learning/Slide58.JPG","null","","","","","",""
"html-keyboard-response","178","200319","0.0-5.0-1.57","FL","5g2fbehb04","1920","1080","0","1","0","591a1f4800a5650001276188","","null","","","learningBlock1","","","","That was a wug.","null","","","","","",""
"html-keyboard-response","179","201319","0.0-5.0-2.57","FL","5g2fbehb04","1920","1080","0","1","0","591a1f4800a5650001276188","","null","","","learningBlock1","","","","<div style=""font-size:60px;""> </div>","null","FL","learning/Slide58.JPG","That was a wug.","","",""
"image-keyboard-response","180","201499","0.0-5.0-0.58","FL","5g2fbehb04","1920","1080","0","1","0","591a1f4800a5650001276188","","null","","","","","","","learning/Slide59.JPG","null","","","","","",""
"html-keyboard-response","181","202669","0.0-5.0-1.58","FL","5g2fbehb04","1920","1080","0","1","0","591a1f4800a5650001276188","","null","","","learningBlock1","","","","That was a dep.","null","","","","","",""
"html-keyboard-response","182","203669","0.0-5.0-2.58","FL","5g2fbehb04","1920","1080","0","1","0","591a1f4800a5650001276188","","null","","","learningBlock1","","","","<div style=""font-size:60px;""> </div>","null","FL","learning/Slide59.JPG","That was a dep.","","",""
"image-keyboard-response","183","203849","0.0-5.0-0.59","FL","5g2fbehb04","1920","1080","0","1","0","591a1f4800a5650001276188","","null","","","","","","","learning/Slide60.JPG","null","","","","","",""
"html-keyboard-response","184","205010","0.0-5.0-1.59","FL","5g2fbehb04","1920","1080","0","1","0","591a1f4800a5650001276188","","null","","","learningBlock1","","","","That was a wug.","null","","","","","",""
"html-keyboard-response","185","206030","0.0-5.0-2.59","FL","5g2fbehb04","1920","1080","0","1","0","591a1f4800a5650001276188","","null","","","learningBlock1","","","","<div style=""font-size:60px;""> </div>","null","FL","learning/Slide60.JPG","That was a wug.","","",""
"image-keyboard-response","186","206210","0.0-5.0-0.60","FL","5g2fbehb04","1920","1080","0","1","0","591a1f4800a5650001276188","","null","","","","","","","learning/Slide61.JPG","null","","","","","",""
"html-keyboard-response","187","207379","0.0-5.0-1.60","FL","5g2fbehb04","1920","1080","0","1","0","591a1f4800a5650001276188","","null","","","learningBlock1","","","","That was a bim.","null","","","","","",""
"html-keyboard-response","188","208389","0.0-5.0-2.60","FL","5g2fbehb04","1920","1080","0","1","0","591a1f4800a5650001276188","","null","","","learningBlock1","","","","<div style=""font-size:60px;""> </div>","null","FL","learning/Slide61.JPG","That was a bim.","","",""
"image-keyboard-response","189","208569","0.0-5.0-0.61","FL","5g2fbehb04","1920","1080","0","1","0","591a1f4800a5650001276188","","null","","","","","","","learning/Slide62.JPG","null","","","","","",""
"html-keyboard-response","190","209730","0.0-5.0-1.61","FL","5g2fbehb04","1920","1080","0","1","0","591a1f4800a5650001276188","","null","","","learningBlock1","","","","That was a dep.","null","","","","","",""
"html-keyboard-response","191","210750","0.0-5.0-2.61","FL","5g2fbehb04","1920","1080","0","1","0","591a1f4800a5650001276188","","null","","","learningBlock1","","","","<div style=""font-size:60px;""> </div>","null","FL","learning/Slide62.JPG","That was a dep.","","",""
"image-keyboard-response","192","210929","0.0-5.0-0.62","FL","5g2fbehb04","1920","1080","0","1","0","591a1f4800a5650001276188","","null","","","","","","","learning/Slide63.JPG","null","","","","","",""
"html-keyboard-response","193","212090","0.0-5.0-1.62","FL","5g2fbehb04","1920","1080","0","1","0","591a1f4800a5650001276188","","null","","","learningBlock1","","","","That was a bim.","null","","","","","",""
"html-keyboard-response","194","213110","0.0-5.0-2.62","FL","5g2fbehb04","1920","1080","0","1","0","591a1f4800a5650001276188","","null","","","learningBlock1","","","","<div style=""font-size:60px;""> </div>","null","FL","learning/Slide63.JPG","That was a bim.","","",""
"image-keyboard-response","195","213290","0.0-5.0-0.63","FL","5g2fbehb04","1920","1080","0","1","0","591a1f4800a5650001276188","","null","","","","","","","learning/Slide64.JPG","null","","","","","",""
"html-keyboard-response","196","214456","0.0-5.0-1.63","FL","5g2fbehb04","1920","1080","0","1","0","591a1f4800a5650001276188","","null","","","learningBlock1","","","","That was a tob.","null","","","","","",""
"html-keyboard-response","197","215479","0.0-5.0-2.63","FL","5g2fbehb04","1920","1080","0","1","0","591a1f4800a5650001276188","","null","","","learningBlock1","","","","<div style=""font-size:60px;""> </div>","null","FL","learning/Slide64.JPG","That was a tob.","","",""
"image-keyboard-response","198","215655","0.0-5.0-0.64","FL","5g2fbehb04","1920","1080","0","1","0","591a1f4800a5650001276188","","null","","","","","","","learning/Slide65.JPG","null","","","","","",""
"html-keyboard-response","199","216830","0.0-5.0-1.64","FL","5g2fbehb04","1920","1080","0","1","0","591a1f4800a5650001276188","","null","","","learningBlock1","","","","That was a wug.","null","","","","","",""
"html-keyboard-response","200","217849","0.0-5.0-2.64","FL","5g2fbehb04","1920","1080","0","1","0","591a1f4800a5650001276188","","null","","","learningBlock1","","","","<div style=""font-size:60px;""> </div>","null","FL","learning/Slide65.JPG","That was a wug.","","",""
"image-keyboard-response","201","218030","0.0-5.0-0.65","FL","5g2fbehb04","1920","1080","0","1","0","591a1f4800a5650001276188","","null","","","","","","","learning/Slide66.JPG","null","","","","","",""
"html-keyboard-response","202","219208","0.0-5.0-1.65","FL","5g2fbehb04","1920","1080","0","1","0","591a1f4800a5650001276188","","null","","","learningBlock1","","","","That was a dep.","null","","","","","",""
"html-keyboard-response","203","220220","0.0-5.0-2.65","FL","5g2fbehb04","1920","1080","0","1","0","591a1f4800a5650001276188","","null","","","learningBlock1","","","","<div style=""font-size:60px;""> </div>","null","FL","learning/Slide66.JPG","That was a dep.","","",""
"image-keyboard-response","204","220400","0.0-5.0-0.66","FL","5g2fbehb04","1920","1080","0","1","0","591a1f4800a5650001276188","","null","","","","","","","learning/Slide67.JPG","null","","","","","",""
"html-keyboard-response","205","221580","0.0-5.0-1.66","FL","5g2fbehb04","1920","1080","0","1","0","591a1f4800a5650001276188","","null","","","learningBlock1","","","","That was a tob.","null","","","","","",""
"html-keyboard-response","206","222600","0.0-5.0-2.66","FL","5g2fbehb04","1920","1080","0","1","0","591a1f4800a5650001276188","","null","","","learningBlock1","","","","<div style=""font-size:60px;""> </div>","null","FL","learning/Slide67.JPG","That was a tob.","","",""
"image-keyboard-response","207","222780","0.0-5.0-0.67","FL","5g2fbehb04","1920","1080","0","1","0","591a1f4800a5650001276188","","null","","","","","","","learning/Slide68.JPG","null","","","","","",""
"html-keyboard-response","208","223950","0.0-5.0-1.67","FL","5g2fbehb04","1920","1080","0","1","0","591a1f4800a5650001276188","","null","","","learningBlock1","","","","That was a wug.","null","","","","","",""
"html-keyboard-response","209","224959","0.0-5.0-2.67","FL","5g2fbehb04","1920","1080","0","1","0","591a1f4800a5650001276188","","null","","","learningBlock1","","","","<div style=""font-size:60px;""> </div>","null","FL","learning/Slide68.JPG","That was a wug.","","",""
"image-keyboard-response","210","225139","0.0-5.0-0.68","FL","5g2fbehb04","1920","1080","0","1","0","591a1f4800a5650001276188","","null","","","","","","","learning/Slide69.JPG","null","","","","","",""
"html-keyboard-response","211","226299","0.0-5.0-1.68","FL","5g2fbehb04","1920","1080","0","1","0","591a1f4800a5650001276188","","null","","","learningBlock1","","","","That was a tob.","null","","","","","",""
"html-keyboard-response","212","227309","0.0-5.0-2.68","FL","5g2fbehb04","1920","1080","0","1","0","591a1f4800a5650001276188","","null","","","learningBlock1","","","","<div style=""font-size:60px;""> </div>","null","FL","learning/Slide69.JPG","That was a tob.","","",""
"image-keyboard-response","213","227489","0.0-5.0-0.69","FL","5g2fbehb04","1920","1080","0","1","0","591a1f4800a5650001276188","","null","","","","","","","learning/Slide70.JPG","null","","","","","",""
"html-keyboard-response","214","228659","0.0-5.0-1.69","FL","5g2fbehb04","1920","1080","0","1","0","591a1f4800a5650001276188","","null","","","learningBlock1","","","","That was a dep.","null","","","","","",""
"html-keyboard-response","215","229680","0.0-5.0-2.69","FL","5g2fbehb04","1920","1080","0","1","0","591a1f4800a5650001276188","","null","","","learningBlock1","","","","<div style=""font-size:60px;""> </div>","null","FL","learning/Slide70.JPG","That was a dep.","","",""
"image-keyboard-response","216","229859","0.0-5.0-0.70","FL","5g2fbehb04","1920","1080","0","1","0","591a1f4800a5650001276188","","null","","","","","","","learning/Slide71.JPG","null","","","","","",""
"html-keyboard-response","217","231029","0.0-5.0-1.70","FL","5g2fbehb04","1920","1080","0","1","0","591a1f4800a5650001276188","","null","","","learningBlock1","","","","That was a wug.","null","","","","","",""
"html-keyboard-response","218","232039","0.0-5.0-2.70","FL","5g2fbehb04","1920","1080","0","1","0","591a1f4800a5650001276188","","null","","","learningBlock1","","","","<div style=""font-size:60px;""> </div>","null","FL","learning/Slide71.JPG","That was a wug.","","",""
"image-keyboard-response","219","232220","0.0-5.0-0.71","FL","5g2fbehb04","1920","1080","0","1","0","591a1f4800a5650001276188","","null","","","","","","","learning/Slide72.JPG","null","","","","","",""
"html-keyboard-response","220","233379","0.0-5.0-1.71","FL","5g2fbehb04","1920","1080","0","1","0","591a1f4800a5650001276188","","null","","","learningBlock1","","","","That was a bim.","null","","","","","",""
"html-keyboard-response","221","234400","0.0-5.0-2.71","FL","5g2fbehb04","1920","1080","0","1","0","591a1f4800a5650001276188","","null","","","learningBlock1","","","","<div style=""font-size:60px;""> </div>","null","FL","learning/Slide72.JPG","That was a bim.","","",""
"image-keyboard-response","222","234579","0.0-5.0-0.72","FL","5g2fbehb04","1920","1080","0","1","0","591a1f4800a5650001276188","","null","","","","","","","learning/Slide73.JPG","null","","","","","",""
"html-keyboard-response","223","235759","0.0-5.0-1.72","FL","5g2fbehb04","1920","1080","0","1","0","591a1f4800a5650001276188","","null","","","learningBlock1","","","","That was a wug.","null","","","","","",""
"html-keyboard-response","224","236760","0.0-5.0-2.72","FL","5g2fbehb04","1920","1080","0","1","0","591a1f4800a5650001276188","","null","","","learningBlock1","","","","<div style=""font-size:60px;""> </div>","null","FL","learning/Slide73.JPG","That was a wug.","","",""
"image-keyboard-response","225","236940","0.0-5.0-0.73","FL","5g2fbehb04","1920","1080","0","1","0","591a1f4800a5650001276188","","null","","","","","","","learning/Slide74.JPG","null","","","","","",""
"html-keyboard-response","226","238110","0.0-5.0-1.73","FL","5g2fbehb04","1920","1080","0","1","0","591a1f4800a5650001276188","","null","","","learningBlock1","","","","That was a dep.","null","","","","","",""
"html-keyboard-response","227","239119","0.0-5.0-2.73","FL","5g2fbehb04","1920","1080","0","1","0","591a1f4800a5650001276188","","null","","","learningBlock1","","","","<div style=""font-size:60px;""> </div>","null","FL","learning/Slide74.JPG","That was a dep.","","",""
"image-keyboard-response","228","239299","0.0-5.0-0.74","FL","5g2fbehb04","1920","1080","0","1","0","591a1f4800a5650001276188","","null","","","","","","","learning/Slide75.JPG","null","","","","","",""
"html-keyboard-response","229","240479","0.0-5.0-1.74","FL","5g2fbehb04","1920","1080","0","1","0","591a1f4800a5650001276188","","null","","","learningBlock1","","","","That was a tob.","null","","","","","",""
"html-keyboard-response","230","241500","0.0-5.0-2.74","FL","5g2fbehb04","1920","1080","0","1","0","591a1f4800a5650001276188","","null","","","learningBlock1","","","","<div style=""font-size:60px;""> </div>","null","FL","learning/Slide75.JPG","That was a tob.","","",""
"image-keyboard-response","231","241680","0.0-5.0-0.75","FL","5g2fbehb04","1920","1080","0","1","0","591a1f4800a5650001276188","","null","","","","","","","learning/Slide76.JPG","null","","","","","",""
"html-keyboard-response","232","242840","0.0-5.0-1.75","FL","5g2fbehb04","1920","1080","0","1","0","591a1f4800a5650001276188","","null","","","learningBlock1","","","","That was a bim.","null","","","","","",""
"html-keyboard-response","233","243860","0.0-5.0-2.75","FL","5g2fbehb04","1920","1080","0","1","0","591a1f4800a5650001276188","","null","","","learningBlock1","","","","<div style=""font-size:60px;""> </div>","null","FL","learning/Slide76.JPG","That was a bim.","","",""
"image-keyboard-response","234","244039","0.0-5.0-0.76","FL","5g2fbehb04","1920","1080","0","1","0","591a1f4800a5650001276188","","null","","","","","","","learning/Slide77.JPG","null","","","","","",""
"html-keyboard-response","235","245209","0.0-5.0-1.76","FL","5g2fbehb04","1920","1080","0","1","0","591a1f4800a5650001276188","","null","","","learningBlock1","","","","That was a tob.","null","","","","","",""
"html-keyboard-response","236","246219","0.0-5.0-2.76","FL","5g2fbehb04","1920","1080","0","1","0","591a1f4800a5650001276188","","null","","","learningBlock1","","","","<div style=""font-size:60px;""> </div>","null","FL","learning/Slide77.JPG","That was a tob.","","",""
"image-keyboard-response","237","246410","0.0-5.0-0.77","FL","5g2fbehb04","1920","1080","0","1","0","591a1f4800a5650001276188","","null","","","","","","","learning/Slide78.JPG","null","","","","","",""
"html-keyboard-response","238","247590","0.0-5.0-1.77","FL","5g2fbehb04","1920","1080","0","1","0","591a1f4800a5650001276188","","null","","","learningBlock1","","","","That was a wug.","null","","","","","",""
"html-keyboard-response","239","248607","0.0-5.0-2.77","FL","5g2fbehb04","1920","1080","0","1","0","591a1f4800a5650001276188","","null","","","learningBlock1","","","","<div style=""font-size:60px;""> </div>","null","FL","learning/Slide78.JPG","That was a wug.","","",""
"image-keyboard-response","240","248790","0.0-5.0-0.78","FL","5g2fbehb04","1920","1080","0","1","0","591a1f4800a5650001276188","","null","","","","","","","learning/Slide79.JPG","null","","","","","",""
"html-keyboard-response","241","249969","0.0-5.0-1.78","FL","5g2fbehb04","1920","1080","0","1","0","591a1f4800a5650001276188","","null","","","learningBlock1","","","","That was a bim.","null","","","","","",""
"html-keyboard-response","242","250980","0.0-5.0-2.78","FL","5g2fbehb04","1920","1080","0","1","0","591a1f4800a5650001276188","","null","","","learningBlock1","","","","<div style=""font-size:60px;""> </div>","null","FL","learning/Slide79.JPG","That was a bim.","","",""
"image-keyboard-response","243","251160","0.0-5.0-0.79","FL","5g2fbehb04","1920","1080","0","1","0","591a1f4800a5650001276188","","null","","","","","","","learning/Slide80.JPG","null","","","","","",""
"html-keyboard-response","244","252330","0.0-5.0-1.79","FL","5g2fbehb04","1920","1080","0","1","0","591a1f4800a5650001276188","","null","","","learningBlock1","","","","That was a tob.","null","","","","","",""
"html-keyboard-response","245","253349","0.0-5.0-2.79","FL","5g2fbehb04","1920","1080","0","1","0","591a1f4800a5650001276188","","null","","","learningBlock1","","","","<div style=""font-size:60px;""> </div>","null","FL","learning/Slide80.JPG","That was a tob.","","",""
"instructions","246","289221","0.0-6.0","FL","5g2fbehb04","1920","1080","0","1","0","591a1f4800a5650001276188","","NA","","[{""page_index"":0,""viewing_time"":35871}]","instructions","","","","","","","","","","",""
"image-keyboard-response","247","289410","0.0-7.0-0.0","FL","5g2fbehb04","1920","1080","0","1","0","591a1f4800a5650001276188","","null","","","","","","","learning/Slide81.JPG","null","","","","","",""
"html-keyboard-response","248","290569","0.0-7.0-1.0","FL","5g2fbehb04","1920","1080","0","1","0","591a1f4800a5650001276188","","null","","","learningBlock2","","","","That was a wug.","null","","","","","",""
"html-keyboard-response","249","291569","0.0-7.0-2.0","FL","5g2fbehb04","1920","1080","0","1","0","591a1f4800a5650001276188","","null","","","learningBlock2","","","","<div style=""font-size:60px;""> </div>","null","FL","learning/Slide81.JPG","That was a wug.","","",""
"image-keyboard-response","250","291750","0.0-7.0-0.1","FL","5g2fbehb04","1920","1080","0","1","0","591a1f4800a5650001276188","","null","","","","","","","learning/Slide82.JPG","null","","","","","",""
"html-keyboard-response","251","292929","0.0-7.0-1.1","FL","5g2fbehb04","1920","1080","0","1","0","591a1f4800a5650001276188","","null","","","learningBlock2","","","","That was a bim.","null","","","","","",""
"html-keyboard-response","252","293939","0.0-7.0-2.1","FL","5g2fbehb04","1920","1080","0","1","0","591a1f4800a5650001276188","","null","","","learningBlock2","","","","<div style=""font-size:60px;""> </div>","null","FL","learning/Slide82.JPG","That was a bim.","","",""
"image-keyboard-response","253","294119","0.0-7.0-0.2","FL","5g2fbehb04","1920","1080","0","1","0","591a1f4800a5650001276188","","null","","","","","","","learning/Slide83.JPG","null","","","","","",""
"html-keyboard-response","254","295279","0.0-7.0-1.2","FL","5g2fbehb04","1920","1080","0","1","0","591a1f4800a5650001276188","","null","","","learningBlock2","","","","That was a wug.","null","","","","","",""
"html-keyboard-response","255","296280","0.0-7.0-2.2","FL","5g2fbehb04","1920","1080","0","1","0","591a1f4800a5650001276188","","null","","","learningBlock2","","","","<div style=""font-size:60px;""> </div>","null","FL","learning/Slide83.JPG","That was a wug.","","",""
"image-keyboard-response","256","296460","0.0-7.0-0.3","FL","5g2fbehb04","1920","1080","0","1","0","591a1f4800a5650001276188","","null","","","","","","","learning/Slide84.JPG","null","","","","","",""
"html-keyboard-response","257","297640","0.0-7.0-1.3","FL","5g2fbehb04","1920","1080","0","1","0","591a1f4800a5650001276188","","null","","","learningBlock2","","","","That was a dep.","null","","","","","",""
"html-keyboard-response","258","298659","0.0-7.0-2.3","FL","5g2fbehb04","1920","1080","0","1","0","591a1f4800a5650001276188","","null","","","learningBlock2","","","","<div style=""font-size:60px;""> </div>","null","FL","learning/Slide84.JPG","That was a dep.","","",""
"image-keyboard-response","259","298849","0.0-7.0-0.4","FL","5g2fbehb04","1920","1080","0","1","0","591a1f4800a5650001276188","","null","","","","","","","learning/Slide85.JPG","null","","","","","",""
"html-keyboard-response","260","300040","0.0-7.0-1.4","FL","5g2fbehb04","1920","1080","0","1","0","591a1f4800a5650001276188","","null","","","learningBlock2","","","","That was a bim.","null","","","","","",""
"html-keyboard-response","261","301059","0.0-7.0-2.4","FL","5g2fbehb04","1920","1080","0","1","0","591a1f4800a5650001276188","","null","","","learningBlock2","","","","<div style=""font-size:60px;""> </div>","null","FL","learning/Slide85.JPG","That was a bim.","","",""
"image-keyboard-response","262","301239","0.0-7.0-0.5","FL","5g2fbehb04","1920","1080","0","1","0","591a1f4800a5650001276188","","null","","","","","","","learning/Slide86.JPG","null","","","","","",""
"html-keyboard-response","263","302420","0.0-7.0-1.5","FL","5g2fbehb04","1920","1080","0","1","0","591a1f4800a5650001276188","","null","","","learningBlock2","","","","That was a tob.","null","","","","","",""
"html-keyboard-response","264","303429","0.0-7.0-2.5","FL","5g2fbehb04","1920","1080","0","1","0","591a1f4800a5650001276188","","null","","","learningBlock2","","","","<div style=""font-size:60px;""> </div>","null","FL","learning/Slide86.JPG","That was a tob.","","",""
"image-keyboard-response","265","303610","0.0-7.0-0.6","FL","5g2fbehb04","1920","1080","0","1","0","591a1f4800a5650001276188","","null","","","","","","","learning/Slide87.JPG","null","","","","","",""
"html-keyboard-response","266","304770","0.0-7.0-1.6","FL","5g2fbehb04","1920","1080","0","1","0","591a1f4800a5650001276188","","null","","","learningBlock2","","","","That was a wug.","null","","","","","",""
"html-keyboard-response","267","305789","0.0-7.0-2.6","FL","5g2fbehb04","1920","1080","0","1","0","591a1f4800a5650001276188","","null","","","learningBlock2","","","","<div style=""font-size:60px;""> </div>","null","FL","learning/Slide87.JPG","That was a wug.","","",""
"image-keyboard-response","268","305970","0.0-7.0-0.7","FL","5g2fbehb04","1920","1080","0","1","0","591a1f4800a5650001276188","","null","","","","","","","learning/Slide88.JPG","null","","","","","",""
"html-keyboard-response","269","307130","0.0-7.0-1.7","FL","5g2fbehb04","1920","1080","0","1","0","591a1f4800a5650001276188","","null","","","learningBlock2","","","","That was a tob.","null","","","","","",""
"html-keyboard-response","270","308149","0.0-7.0-2.7","FL","5g2fbehb04","1920","1080","0","1","0","591a1f4800a5650001276188","","null","","","learningBlock2","","","","<div style=""font-size:60px;""> </div>","null","FL","learning/Slide88.JPG","That was a tob.","","",""
"image-keyboard-response","271","308330","0.0-7.0-0.8","FL","5g2fbehb04","1920","1080","0","1","0","591a1f4800a5650001276188","","null","","","","","","","learning/Slide89.JPG","null","","","","","",""
"html-keyboard-response","272","309489","0.0-7.0-1.8","FL","5g2fbehb04","1920","1080","0","1","0","591a1f4800a5650001276188","","null","","","learningBlock2","","","","That was a bim.","null","","","","","",""
"html-keyboard-response","273","310507","0.0-7.0-2.8","FL","5g2fbehb04","1920","1080","0","1","0","591a1f4800a5650001276188","","null","","","learningBlock2","","","","<div style=""font-size:60px;""> </div>","null","FL","learning/Slide89.JPG","That was a bim.","","",""
"image-keyboard-response","274","310689","0.0-7.0-0.9","FL","5g2fbehb04","1920","1080","0","1","0","591a1f4800a5650001276188","","null","","","","","","","learning/Slide90.JPG","null","","","","","",""
"html-keyboard-response","275","311860","0.0-7.0-1.9","FL","5g2fbehb04","1920","1080","0","1","0","591a1f4800a5650001276188","","null","","","learningBlock2","","","","That was a dep.","null","","","","","",""
"html-keyboard-response","276","312879","0.0-7.0-2.9","FL","5g2fbehb04","1920","1080","0","1","0","591a1f4800a5650001276188","","null","","","learningBlock2","","","","<div style=""font-size:60px;""> </div>","null","FL","learning/Slide90.JPG","That was a dep.","","",""
"image-keyboard-response","277","313060","0.0-7.0-0.10","FL","5g2fbehb04","1920","1080","0","1","0","591a1f4800a5650001276188","","null","","","","","","","learning/Slide91.JPG","null","","","","","",""
"html-keyboard-response","278","314229","0.0-7.0-1.10","FL","5g2fbehb04","1920","1080","0","1","0","591a1f4800a5650001276188","","null","","","learningBlock2","","","","That was a wug.","null","","","","","",""
"html-keyboard-response","279","315230","0.0-7.0-2.10","FL","5g2fbehb04","1920","1080","0","1","0","591a1f4800a5650001276188","","null","","","learningBlock2","","","","<div style=""font-size:60px;""> </div>","null","FL","learning/Slide91.JPG","That was a wug.","","",""
"image-keyboard-response","280","315419","0.0-7.0-0.11","FL","5g2fbehb04","1920","1080","0","1","0","591a1f4800a5650001276188","","null","","","","","","","learning/Slide92.JPG","null","","","","","",""
"html-keyboard-response","281","316590","0.0-7.0-1.11","FL","5g2fbehb04","1920","1080","0","1","0","591a1f4800a5650001276188","","null","","","learningBlock2","","","","That was a tob.","null","","","","","",""
"html-keyboard-response","282","317609","0.0-7.0-2.11","FL","5g2fbehb04","1920","1080","0","1","0","591a1f4800a5650001276188","","null","","","learningBlock2","","","","<div style=""font-size:60px;""> </div>","null","FL","learning/Slide92.JPG","That was a tob.","","",""
"image-keyboard-response","283","317790","0.0-7.0-0.12","FL","5g2fbehb04","1920","1080","0","1","0","591a1f4800a5650001276188","","null","","","","","","","learning/Slide93.JPG","null","","","","","",""
"html-keyboard-response","284","318970","0.0-7.0-1.12","FL","5g2fbehb04","1920","1080","0","1","0","591a1f4800a5650001276188","","null","","","learningBlock2","","","","That was a bim.","null","","","","","",""
"html-keyboard-response","285","319969","0.0-7.0-2.12","FL","5g2fbehb04","1920","1080","0","1","0","591a1f4800a5650001276188","","null","","","learningBlock2","","","","<div style=""font-size:60px;""> </div>","null","FL","learning/Slide93.JPG","That was a bim.","","",""
"image-keyboard-response","286","320149","0.0-7.0-0.13","FL","5g2fbehb04","1920","1080","0","1","0","591a1f4800a5650001276188","","null","","","","","","","learning/Slide94.JPG","null","","","","","",""
"html-keyboard-response","287","321310","0.0-7.0-1.13","FL","5g2fbehb04","1920","1080","0","1","0","591a1f4800a5650001276188","","null","","","learningBlock2","","","","That was a tob.","null","","","","","",""
"html-keyboard-response","288","322326","0.0-7.0-2.13","FL","5g2fbehb04","1920","1080","0","1","0","591a1f4800a5650001276188","","null","","","learningBlock2","","","","<div style=""font-size:60px;""> </div>","null","FL","learning/Slide94.JPG","That was a tob.","","",""
"image-keyboard-response","289","322509","0.0-7.0-0.14","FL","5g2fbehb04","1920","1080","0","1","0","591a1f4800a5650001276188","","null","","","","","","","learning/Slide95.JPG","null","","","","","",""
"html-keyboard-response","290","323689","0.0-7.0-1.14","FL","5g2fbehb04","1920","1080","0","1","0","591a1f4800a5650001276188","","null","","","learningBlock2","","","","That was a wug.","null","","","","","",""
"html-keyboard-response","291","324710","0.0-7.0-2.14","FL","5g2fbehb04","1920","1080","0","1","0","591a1f4800a5650001276188","","null","","","learningBlock2","","","","<div style=""font-size:60px;""> </div>","null","FL","learning/Slide95.JPG","That was a wug.","","",""
"image-keyboard-response","292","324900","0.0-7.0-0.15","FL","5g2fbehb04","1920","1080","0","1","0","591a1f4800a5650001276188","","null","","","","","","","learning/Slide96.JPG","null","","","","","",""
"html-keyboard-response","293","326079","0.0-7.0-1.15","FL","5g2fbehb04","1920","1080","0","1","0","591a1f4800a5650001276188","","null","","","learningBlock2","","","","That was a tob.","null","","","","","",""
"html-keyboard-response","294","327099","0.0-7.0-2.15","FL","5g2fbehb04","1920","1080","0","1","0","591a1f4800a5650001276188","","null","","","learningBlock2","","","","<div style=""font-size:60px;""> </div>","null","FL","learning/Slide96.JPG","That was a tob.","","",""
"image-keyboard-response","295","327279","0.0-7.0-0.16","FL","5g2fbehb04","1920","1080","0","1","0","591a1f4800a5650001276188","","null","","","","","","","learning/Slide97.JPG","null","","","","","",""
"html-keyboard-response","296","328449","0.0-7.0-1.16","FL","5g2fbehb04","1920","1080","0","1","0","591a1f4800a5650001276188","","null","","","learningBlock2","","","","That was a dep.","null","","","","","",""
"html-keyboard-response","297","329459","0.0-7.0-2.16","FL","5g2fbehb04","1920","1080","0","1","0","591a1f4800a5650001276188","","null","","","learningBlock2","","","","<div style=""font-size:60px;""> </div>","null","FL","learning/Slide97.JPG","That was a dep.","","",""
"image-keyboard-response","298","329639","0.0-7.0-0.17","FL","5g2fbehb04","1920","1080","0","1","0","591a1f4800a5650001276188","","null","","","","","","","learning/Slide98.JPG","null","","","","","",""
"html-keyboard-response","299","330809","0.0-7.0-1.17","FL","5g2fbehb04","1920","1080","0","1","0","591a1f4800a5650001276188","","null","","","learningBlock2","","","","That was a bim.","null","","","","","",""
"html-keyboard-response","300","331829","0.0-7.0-2.17","FL","5g2fbehb04","1920","1080","0","1","0","591a1f4800a5650001276188","","null","","","learningBlock2","","","","<div style=""font-size:60px;""> </div>","null","FL","learning/Slide98.JPG","That was a bim.","","",""
"image-keyboard-response","301","332010","0.0-7.0-0.18","FL","5g2fbehb04","1920","1080","0","1","0","591a1f4800a5650001276188","","null","","","","","","","learning/Slide99.JPG","null","","","","","",""
"html-keyboard-response","302","333169","0.0-7.0-1.18","FL","5g2fbehb04","1920","1080","0","1","0","591a1f4800a5650001276188","","null","","","learningBlock2","","","","That was a dep.","null","","","","","",""
"html-keyboard-response","303","334190","0.0-7.0-2.18","FL","5g2fbehb04","1920","1080","0","1","0","591a1f4800a5650001276188","","null","","","learningBlock2","","","","<div style=""font-size:60px;""> </div>","null","FL","learning/Slide99.JPG","That was a dep.","","",""
"image-keyboard-response","304","334369","0.0-7.0-0.19","FL","5g2fbehb04","1920","1080","0","1","0","591a1f4800a5650001276188","","null","","","","","","","learning/Slide100.JPG","null","","","","","",""
"html-keyboard-response","305","335539","0.0-7.0-1.19","FL","5g2fbehb04","1920","1080","0","1","0","591a1f4800a5650001276188","","null","","","learningBlock2","","","","That was a bim.","null","","","","","",""
"html-keyboard-response","306","336548","0.0-7.0-2.19","FL","5g2fbehb04","1920","1080","0","1","0","591a1f4800a5650001276188","","null","","","learningBlock2","","","","<div style=""font-size:60px;""> </div>","null","FL","learning/Slide100.JPG","That was a bim.","","",""
"image-keyboard-response","307","336729","0.0-7.0-0.20","FL","5g2fbehb04","1920","1080","0","1","0","591a1f4800a5650001276188","","null","","","","","","","learning/Slide101.JPG","null","","","","","",""
"html-keyboard-response","308","337909","0.0-7.0-1.20","FL","5g2fbehb04","1920","1080","0","1","0","591a1f4800a5650001276188","","null","","","learningBlock2","","","","That was a tob.","null","","","","","",""
"html-keyboard-response","309","338929","0.0-7.0-2.20","FL","5g2fbehb04","1920","1080","0","1","0","591a1f4800a5650001276188","","null","","","learningBlock2","","","","<div style=""font-size:60px;""> </div>","null","FL","learning/Slide101.JPG","That was a tob.","","",""
"image-keyboard-response","310","339109","0.0-7.0-0.21","FL","5g2fbehb04","1920","1080","0","1","0","591a1f4800a5650001276188","","null","","","","","","","learning/Slide102.JPG","null","","","","","",""
"html-keyboard-response","311","340290","0.0-7.0-1.21","FL","5g2fbehb04","1920","1080","0","1","0","591a1f4800a5650001276188","","null","","","learningBlock2","","","","That was a bim.","null","","","","","",""
"html-keyboard-response","312","341309","0.0-7.0-2.21","FL","5g2fbehb04","1920","1080","0","1","0","591a1f4800a5650001276188","","null","","","learningBlock2","","","","<div style=""font-size:60px;""> </div>","null","FL","learning/Slide102.JPG","That was a bim.","","",""
"image-keyboard-response","313","341489","0.0-7.0-0.22","FL","5g2fbehb04","1920","1080","0","1","0","591a1f4800a5650001276188","","null","","","","","","","learning/Slide103.JPG","null","","","","","",""
"html-keyboard-response","314","342659","0.0-7.0-1.22","FL","5g2fbehb04","1920","1080","0","1","0","591a1f4800a5650001276188","","null","","","learningBlock2","","","","That was a dep.","null","","","","","",""
"html-keyboard-response","315","343680","0.0-7.0-2.22","FL","5g2fbehb04","1920","1080","0","1","0","591a1f4800a5650001276188","","null","","","learningBlock2","","","","<div style=""font-size:60px;""> </div>","null","FL","learning/Slide103.JPG","That was a dep.","","",""
"image-keyboard-response","316","343860","0.0-7.0-0.23","FL","5g2fbehb04","1920","1080","0","1","0","591a1f4800a5650001276188","","null","","","","","","","learning/Slide104.JPG","null","","","","","",""
"html-keyboard-response","317","345020","0.0-7.0-1.23","FL","5g2fbehb04","1920","1080","0","1","0","591a1f4800a5650001276188","","null","","","learningBlock2","","","","That was a tob.","null","","","","","",""
"html-keyboard-response","318","346040","0.0-7.0-2.23","FL","5g2fbehb04","1920","1080","0","1","0","591a1f4800a5650001276188","","null","","","learningBlock2","","","","<div style=""font-size:60px;""> </div>","null","FL","learning/Slide104.JPG","That was a tob.","","",""
"image-keyboard-response","319","346219","0.0-7.0-0.24","FL","5g2fbehb04","1920","1080","0","1","0","591a1f4800a5650001276188","","null","","","","","","","learning/Slide105.JPG","null","","","","","",""
"html-keyboard-response","320","347389","0.0-7.0-1.24","FL","5g2fbehb04","1920","1080","0","1","0","591a1f4800a5650001276188","","null","","","learningBlock2","","","","That was a dep.","null","","","","","",""
"html-keyboard-response","321","348409","0.0-7.0-2.24","FL","5g2fbehb04","1920","1080","0","1","0","591a1f4800a5650001276188","","null","","","learningBlock2","","","","<div style=""font-size:60px;""> </div>","null","FL","learning/Slide105.JPG","That was a dep.","","",""
"image-keyboard-response","322","348590","0.0-7.0-0.25","FL","5g2fbehb04","1920","1080","0","1","0","591a1f4800a5650001276188","","null","","","","","","","learning/Slide106.JPG","null","","","","","",""
"html-keyboard-response","323","349749","0.0-7.0-1.25","FL","5g2fbehb04","1920","1080","0","1","0","591a1f4800a5650001276188","","null","","","learningBlock2","","","","That was a wug.","null","","","","","",""
"html-keyboard-response","324","350759","0.0-7.0-2.25","FL","5g2fbehb04","1920","1080","0","1","0","591a1f4800a5650001276188","","null","","","learningBlock2","","","","<div style=""font-size:60px;""> </div>","null","FL","learning/Slide106.JPG","That was a wug.","","",""
"image-keyboard-response","325","350940","0.0-7.0-0.26","FL","5g2fbehb04","1920","1080","0","1","0","591a1f4800a5650001276188","","null","","","","","","","learning/Slide107.JPG","null","","","","","",""
"html-keyboard-response","326","352120","0.0-7.0-1.26","FL","5g2fbehb04","1920","1080","0","1","0","591a1f4800a5650001276188","","null","","","learningBlock2","","","","That was a bim.","null","","","","","",""
"html-keyboard-response","327","353139","0.0-7.0-2.26","FL","5g2fbehb04","1920","1080","0","1","0","591a1f4800a5650001276188","","null","","","learningBlock2","","","","<div style=""font-size:60px;""> </div>","null","FL","learning/Slide107.JPG","That was a bim.","","",""
"image-keyboard-response","328","353319","0.0-7.0-0.27","FL","5g2fbehb04","1920","1080","0","1","0","591a1f4800a5650001276188","","null","","","","","","","learning/Slide108.JPG","null","","","","","",""
"html-keyboard-response","329","354480","0.0-7.0-1.27","FL","5g2fbehb04","1920","1080","0","1","0","591a1f4800a5650001276188","","null","","","learningBlock2","","","","That was a dep.","null","","","","","",""
"html-keyboard-response","330","355500","0.0-7.0-2.27","FL","5g2fbehb04","1920","1080","0","1","0","591a1f4800a5650001276188","","null","","","learningBlock2","","","","<div style=""font-size:60px;""> </div>","null","FL","learning/Slide108.JPG","That was a dep.","","",""
"image-keyboard-response","331","355679","0.0-7.0-0.28","FL","5g2fbehb04","1920","1080","0","1","0","591a1f4800a5650001276188","","null","","","","","","","learning/Slide109.JPG","null","","","","","",""
"html-keyboard-response","332","356860","0.0-7.0-1.28","FL","5g2fbehb04","1920","1080","0","1","0","591a1f4800a5650001276188","","null","","","learningBlock2","","","","That was a wug.","null","","","","","",""
"html-keyboard-response","333","357879","0.0-7.0-2.28","FL","5g2fbehb04","1920","1080","0","1","0","591a1f4800a5650001276188","","null","","","learningBlock2","","","","<div style=""font-size:60px;""> </div>","null","FL","learning/Slide109.JPG","That was a wug.","","",""
"image-keyboard-response","334","358059","0.0-7.0-0.29","FL","5g2fbehb04","1920","1080","0","1","0","591a1f4800a5650001276188","","null","","","","","","","learning/Slide110.JPG","null","","","","","",""
"html-keyboard-response","335","359230","0.0-7.0-1.29","FL","5g2fbehb04","1920","1080","0","1","0","591a1f4800a5650001276188","","null","","","learningBlock2","","","","That was a bim.","null","","","","","",""
"html-keyboard-response","336","360250","0.0-7.0-2.29","FL","5g2fbehb04","1920","1080","0","1","0","591a1f4800a5650001276188","","null","","","learningBlock2","","","","<div style=""font-size:60px;""> </div>","null","FL","learning/Slide110.JPG","That was a bim.","","",""
"image-keyboard-response","337","360429","0.0-7.0-0.30","FL","5g2fbehb04","1920","1080","0","1","0","591a1f4800a5650001276188","","null","","","","","","","learning/Slide111.JPG","null","","","","","",""
"html-keyboard-response","338","361599","0.0-7.0-1.30","FL","5g2fbehb04","1920","1080","0","1","0","591a1f4800a5650001276188","","null","","","learningBlock2","","","","That was a tob.","null","","","","","",""
"html-keyboard-response","339","362619","0.0-7.0-2.30","FL","5g2fbehb04","1920","1080","0","1","0","591a1f4800a5650001276188","","null","","","learningBlock2","","","","<div style=""font-size:60px;""> </div>","null","FL","learning/Slide111.JPG","That was a tob.","","",""
"image-keyboard-response","340","362800","0.0-7.0-0.31","FL","5g2fbehb04","1920","1080","0","1","0","591a1f4800a5650001276188","","null","","","","","","","learning/Slide112.JPG","null","","","","","",""
"html-keyboard-response","341","363970","0.0-7.0-1.31","FL","5g2fbehb04","1920","1080","0","1","0","591a1f4800a5650001276188","","null","","","learningBlock2","","","","That was a wug.","null","","","","","",""
"html-keyboard-response","342","364980","0.0-7.0-2.31","FL","5g2fbehb04","1920","1080","0","1","0","591a1f4800a5650001276188","","null","","","learningBlock2","","","","<div style=""font-size:60px;""> </div>","null","FL","learning/Slide112.JPG","That was a wug.","","",""
"image-keyboard-response","343","365160","0.0-7.0-0.32","FL","5g2fbehb04","1920","1080","0","1","0","591a1f4800a5650001276188","","null","","","","","","","learning/Slide113.JPG","null","","","","","",""
"html-keyboard-response","344","366319","0.0-7.0-1.32","FL","5g2fbehb04","1920","1080","0","1","0","591a1f4800a5650001276188","","null","","","learningBlock2","","","","That was a tob.","null","","","","","",""
"html-keyboard-response","345","367339","0.0-7.0-2.32","FL","5g2fbehb04","1920","1080","0","1","0","591a1f4800a5650001276188","","null","","","learningBlock2","","","","<div style=""font-size:60px;""> </div>","null","FL","learning/Slide113.JPG","That was a tob.","","",""
"image-keyboard-response","346","367520","0.0-7.0-0.33","FL","5g2fbehb04","1920","1080","0","1","0","591a1f4800a5650001276188","","null","","","","","","","learning/Slide114.JPG","null","","","","","",""
"html-keyboard-response","347","368690","0.0-7.0-1.33","FL","5g2fbehb04","1920","1080","0","1","0","591a1f4800a5650001276188","","null","","","learningBlock2","","","","That was a wug.","null","","","","","",""
"html-keyboard-response","348","369699","0.0-7.0-2.33","FL","5g2fbehb04","1920","1080","0","1","0","591a1f4800a5650001276188","","null","","","learningBlock2","","","","<div style=""font-size:60px;""> </div>","null","FL","learning/Slide114.JPG","That was a wug.","","",""
"image-keyboard-response","349","369879","0.0-7.0-0.34","FL","5g2fbehb04","1920","1080","0","1","0","591a1f4800a5650001276188","","null","","","","","","","learning/Slide115.JPG","null","","","","","",""
"html-keyboard-response","350","371049","0.0-7.0-1.34","FL","5g2fbehb04","1920","1080","0","1","0","591a1f4800a5650001276188","","null","","","learningBlock2","","","","That was a bim.","null","","","","","",""
"html-keyboard-response","351","372070","0.0-7.0-2.34","FL","5g2fbehb04","1920","1080","0","1","0","591a1f4800a5650001276188","","null","","","learningBlock2","","","","<div style=""font-size:60px;""> </div>","null","FL","learning/Slide115.JPG","That was a bim.","","",""
"image-keyboard-response","352","372260","0.0-7.0-0.35","FL","5g2fbehb04","1920","1080","0","1","0","591a1f4800a5650001276188","","null","","","","","","","learning/Slide116.JPG","null","","","","","",""
"html-keyboard-response","353","373429","0.0-7.0-1.35","FL","5g2fbehb04","1920","1080","0","1","0","591a1f4800a5650001276188","","null","","","learningBlock2","","","","That was a dep.","null","","","","","",""
"html-keyboard-response","354","374449","0.0-7.0-2.35","FL","5g2fbehb04","1920","1080","0","1","0","591a1f4800a5650001276188","","null","","","learningBlock2","","","","<div style=""font-size:60px;""> </div>","null","FL","learning/Slide116.JPG","That was a dep.","","",""
"image-keyboard-response","355","374630","0.0-7.0-0.36","FL","5g2fbehb04","1920","1080","0","1","0","591a1f4800a5650001276188","","null","","","","","","","learning/Slide117.JPG","null","","","","","",""
"html-keyboard-response","356","375790","0.0-7.0-1.36","FL","5g2fbehb04","1920","1080","0","1","0","591a1f4800a5650001276188","","null","","","learningBlock2","","","","That was a tob.","null","","","","","",""
"html-keyboard-response","357","376790","0.0-7.0-2.36","FL","5g2fbehb04","1920","1080","0","1","0","591a1f4800a5650001276188","","null","","","learningBlock2","","","","<div style=""font-size:60px;""> </div>","null","FL","learning/Slide117.JPG","That was a tob.","","",""
"image-keyboard-response","358","376970","0.0-7.0-0.37","FL","5g2fbehb04","1920","1080","0","1","0","591a1f4800a5650001276188","","null","","","","","","","learning/Slide118.JPG","null","","","","","",""
"html-keyboard-response","359","378150","0.0-7.0-1.37","FL","5g2fbehb04","1920","1080","0","1","0","591a1f4800a5650001276188","","null","","","learningBlock2","","","","That was a dep.","null","","","","","",""
"html-keyboard-response","360","379169","0.0-7.0-2.37","FL","5g2fbehb04","1920","1080","0","1","0","591a1f4800a5650001276188","","null","","","learningBlock2","","","","<div style=""font-size:60px;""> </div>","null","FL","learning/Slide118.JPG","That was a dep.","","",""
"image-keyboard-response","361","379349","0.0-7.0-0.38","FL","5g2fbehb04","1920","1080","0","1","0","591a1f4800a5650001276188","","null","","","","","","","learning/Slide119.JPG","null","","","","","",""
"html-keyboard-response","362","380509","0.0-7.0-1.38","FL","5g2fbehb04","1920","1080","0","1","0","591a1f4800a5650001276188","","null","","","learningBlock2","","","","That was a wug.","null","","","","","",""
"html-keyboard-response","363","381515","0.0-7.0-2.38","FL","5g2fbehb04","1920","1080","0","1","0","591a1f4800a5650001276188","","null","","","learningBlock2","","","","<div style=""font-size:60px;""> </div>","null","FL","learning/Slide119.JPG","That was a wug.","","",""
"image-keyboard-response","364","381699","0.0-7.0-0.39","FL","5g2fbehb04","1920","1080","0","1","0","591a1f4800a5650001276188","","null","","","","","","","learning/Slide120.JPG","null","","","","","",""
"html-keyboard-response","365","382859","0.0-7.0-1.39","FL","5g2fbehb04","1920","1080","0","1","0","591a1f4800a5650001276188","","null","","","learningBlock2","","","","That was a dep.","null","","","","","",""
"html-keyboard-response","366","383869","0.0-7.0-2.39","FL","5g2fbehb04","1920","1080","0","1","0","591a1f4800a5650001276188","","null","","","learningBlock2","","","","<div style=""font-size:60px;""> </div>","null","FL","learning/Slide120.JPG","That was a dep.","","",""
"image-keyboard-response","367","384049","0.0-7.0-0.40","FL","5g2fbehb04","1920","1080","0","1","0","591a1f4800a5650001276188","","null","","","","","","","learning/Slide121.JPG","null","","","","","",""
"html-keyboard-response","368","385219","0.0-7.0-1.40","FL","5g2fbehb04","1920","1080","0","1","0","591a1f4800a5650001276188","","null","","","learningBlock2","","","","That was a bim.","null","","","","","",""
"html-keyboard-response","369","386239","0.0-7.0-2.40","FL","5g2fbehb04","1920","1080","0","1","0","591a1f4800a5650001276188","","null","","","learningBlock2","","","","<div style=""font-size:60px;""> </div>","null","FL","learning/Slide121.JPG","That was a bim.","","",""
"image-keyboard-response","370","386419","0.0-7.0-0.41","FL","5g2fbehb04","1920","1080","0","1","0","591a1f4800a5650001276188","","null","","","","","","","learning/Slide122.JPG","null","","","","","",""
"html-keyboard-response","371","387579","0.0-7.0-1.41","FL","5g2fbehb04","1920","1080","0","1","0","591a1f4800a5650001276188","","null","","","learningBlock2","","","","That was a wug.","null","","","","","",""
"html-keyboard-response","372","388590","0.0-7.0-2.41","FL","5g2fbehb04","1920","1080","0","1","0","591a1f4800a5650001276188","","null","","","learningBlock2","","","","<div style=""font-size:60px;""> </div>","null","FL","learning/Slide122.JPG","That was a wug.","","",""
"image-keyboard-response","373","388769","0.0-7.0-0.42","FL","5g2fbehb04","1920","1080","0","1","0","591a1f4800a5650001276188","","null","","","","","","","learning/Slide123.JPG","null","","","","","",""
"html-keyboard-response","374","389939","0.0-7.0-1.42","FL","5g2fbehb04","1920","1080","0","1","0","591a1f4800a5650001276188","","null","","","learningBlock2","","","","That was a bim.","null","","","","","",""
"html-keyboard-response","375","390955","0.0-7.0-2.42","FL","5g2fbehb04","1920","1080","0","1","0","591a1f4800a5650001276188","","null","","","learningBlock2","","","","<div style=""font-size:60px;""> </div>","null","FL","learning/Slide123.JPG","That was a bim.","","",""
"image-keyboard-response","376","391140","0.0-7.0-0.43","FL","5g2fbehb04","1920","1080","0","1","0","591a1f4800a5650001276188","","null","","","","","","","learning/Slide124.JPG","null","","","","","",""
"html-keyboard-response","377","392309","0.0-7.0-1.43","FL","5g2fbehb04","1920","1080","0","1","0","591a1f4800a5650001276188","","null","","","learningBlock2","","","","That was a tob.","null","","","","","",""
"html-keyboard-response","378","393330","0.0-7.0-2.43","FL","5g2fbehb04","1920","1080","0","1","0","591a1f4800a5650001276188","","null","","","learningBlock2","","","","<div style=""font-size:60px;""> </div>","null","FL","learning/Slide124.JPG","That was a tob.","","",""
"image-keyboard-response","379","393509","0.0-7.0-0.44","FL","5g2fbehb04","1920","1080","0","1","0","591a1f4800a5650001276188","","null","","","","","","","learning/Slide125.JPG","null","","","","","",""
"html-keyboard-response","380","394670","0.0-7.0-1.44","FL","5g2fbehb04","1920","1080","0","1","0","591a1f4800a5650001276188","","null","","","learningBlock2","","","","That was a bim.","null","","","","","",""
"html-keyboard-response","381","395680","0.0-7.0-2.44","FL","5g2fbehb04","1920","1080","0","1","0","591a1f4800a5650001276188","","null","","","learningBlock2","","","","<div style=""font-size:60px;""> </div>","null","FL","learning/Slide125.JPG","That was a bim.","","",""
"image-keyboard-response","382","395856","0.0-7.0-0.45","FL","5g2fbehb04","1920","1080","0","1","0","591a1f4800a5650001276188","","null","","","","","","","learning/Slide126.JPG","null","","","","","",""
"html-keyboard-response","383","397029","0.0-7.0-1.45","FL","5g2fbehb04","1920","1080","0","1","0","591a1f4800a5650001276188","","null","","","learningBlock2","","","","That was a tob.","null","","","","","",""
"html-keyboard-response","384","398039","0.0-7.0-2.45","FL","5g2fbehb04","1920","1080","0","1","0","591a1f4800a5650001276188","","null","","","learningBlock2","","","","<div style=""font-size:60px;""> </div>","null","FL","learning/Slide126.JPG","That was a tob.","","",""
"image-keyboard-response","385","398220","0.0-7.0-0.46","FL","5g2fbehb04","1920","1080","0","1","0","591a1f4800a5650001276188","","null","","","","","","","learning/Slide127.JPG","null","","","","","",""
"html-keyboard-response","386","399384","0.0-7.0-1.46","FL","5g2fbehb04","1920","1080","0","1","0","591a1f4800a5650001276188","","null","","","learningBlock2","","","","That was a dep.","null","","","","","",""
"html-keyboard-response","387","400387","0.0-7.0-2.46","FL","5g2fbehb04","1920","1080","0","1","0","591a1f4800a5650001276188","","null","","","learningBlock2","","","","<div style=""font-size:60px;""> </div>","null","FL","learning/Slide127.JPG","That was a dep.","","",""
"image-keyboard-response","388","400570","0.0-7.0-0.47","FL","5g2fbehb04","1920","1080","0","1","0","591a1f4800a5650001276188","","null","","","","","","","learning/Slide128.JPG","null","","","","","",""
"html-keyboard-response","389","401739","0.0-7.0-1.47","FL","5g2fbehb04","1920","1080","0","1","0","591a1f4800a5650001276188","","null","","","learningBlock2","","","","That was a wug.","null","","","","","",""
"html-keyboard-response","390","402749","0.0-7.0-2.47","FL","5g2fbehb04","1920","1080","0","1","0","591a1f4800a5650001276188","","null","","","learningBlock2","","","","<div style=""font-size:60px;""> </div>","null","FL","learning/Slide128.JPG","That was a wug.","","",""
"image-keyboard-response","391","402929","0.0-7.0-0.48","FL","5g2fbehb04","1920","1080","0","1","0","591a1f4800a5650001276188","","null","","","","","","","learning/Slide129.JPG","null","","","","","",""
"html-keyboard-response","392","404089","0.0-7.0-1.48","FL","5g2fbehb04","1920","1080","0","1","0","591a1f4800a5650001276188","","null","","","learningBlock2","","","","That was a tob.","null","","","","","",""
"html-keyboard-response","393","405100","0.0-7.0-2.48","FL","5g2fbehb04","1920","1080","0","1","0","591a1f4800a5650001276188","","null","","","learningBlock2","","","","<div style=""font-size:60px;""> </div>","null","FL","learning/Slide129.JPG","That was a tob.","","",""
"image-keyboard-response","394","405279","0.0-7.0-0.49","FL","5g2fbehb04","1920","1080","0","1","0","591a1f4800a5650001276188","","null","","","","","","","learning/Slide130.JPG","null","","","","","",""
"html-keyboard-response","395","406440","0.0-7.0-1.49","FL","5g2fbehb04","1920","1080","0","1","0","591a1f4800a5650001276188","","null","","","learningBlock2","","","","That was a wug.","null","","","","","",""
"html-keyboard-response","396","407460","0.0-7.0-2.49","FL","5g2fbehb04","1920","1080","0","1","0","591a1f4800a5650001276188","","null","","","learningBlock2","","","","<div style=""font-size:60px;""> </div>","null","FL","learning/Slide130.JPG","That was a wug.","","",""
"image-keyboard-response","397","407640","0.0-7.0-0.50","FL","5g2fbehb04","1920","1080","0","1","0","591a1f4800a5650001276188","","null","","","","","","","learning/Slide131.JPG","null","","","","","",""
"html-keyboard-response","398","408809","0.0-7.0-1.50","FL","5g2fbehb04","1920","1080","0","1","0","591a1f4800a5650001276188","","null","","","learningBlock2","","","","That was a bim.","null","","","","","",""
"html-keyboard-response","399","409819","0.0-7.0-2.50","FL","5g2fbehb04","1920","1080","0","1","0","591a1f4800a5650001276188","","null","","","learningBlock2","","","","<div style=""font-size:60px;""> </div>","null","FL","learning/Slide131.JPG","That was a bim.","","",""
"image-keyboard-response","400","410000","0.0-7.0-0.51","FL","5g2fbehb04","1920","1080","0","1","0","591a1f4800a5650001276188","","null","","","","","","","learning/Slide132.JPG","null","","","","","",""
"html-keyboard-response","401","411169","0.0-7.0-1.51","FL","5g2fbehb04","1920","1080","0","1","0","591a1f4800a5650001276188","","null","","","learningBlock2","","","","That was a dep.","null","","","","","",""
"html-keyboard-response","402","412169","0.0-7.0-2.51","FL","5g2fbehb04","1920","1080","0","1","0","591a1f4800a5650001276188","","null","","","learningBlock2","","","","<div style=""font-size:60px;""> </div>","null","FL","learning/Slide132.JPG","That was a dep.","","",""
"image-keyboard-response","403","412350","0.0-7.0-0.52","FL","5g2fbehb04","1920","1080","0","1","0","591a1f4800a5650001276188","","null","","","","","","","learning/Slide133.JPG","null","","","","","",""
"html-keyboard-response","404","413523","0.0-7.0-1.52","FL","5g2fbehb04","1920","1080","0","1","0","591a1f4800a5650001276188","","null","","","learningBlock2","","","","That was a tob.","null","","","","","",""
"html-keyboard-response","405","414539","0.0-7.0-2.52","FL","5g2fbehb04","1920","1080","0","1","0","591a1f4800a5650001276188","","null","","","learningBlock2","","","","<div style=""font-size:60px;""> </div>","null","FL","learning/Slide133.JPG","That was a tob.","","",""
"image-keyboard-response","406","414720","0.0-7.0-0.53","FL","5g2fbehb04","1920","1080","0","1","0","591a1f4800a5650001276188","","null","","","","","","","learning/Slide134.JPG","null","","","","","",""
"html-keyboard-response","407","415899","0.0-7.0-1.53","FL","5g2fbehb04","1920","1080","0","1","0","591a1f4800a5650001276188","","null","","","learningBlock2","","","","That was a dep.","null","","","","","",""
"html-keyboard-response","408","416919","0.0-7.0-2.53","FL","5g2fbehb04","1920","1080","0","1","0","591a1f4800a5650001276188","","null","","","learningBlock2","","","","<div style=""font-size:60px;""> </div>","null","FL","learning/Slide134.JPG","That was a dep.","","",""
"image-keyboard-response","409","417099","0.0-7.0-0.54","FL","5g2fbehb04","1920","1080","0","1","0","591a1f4800a5650001276188","","null","","","","","","","learning/Slide135.JPG","null","","","","","",""
"html-keyboard-response","410","418259","0.0-7.0-1.54","FL","5g2fbehb04","1920","1080","0","1","0","591a1f4800a5650001276188","","null","","","learningBlock2","","","","That was a tob.","null","","","","","",""
"html-keyboard-response","411","419279","0.0-7.0-2.54","FL","5g2fbehb04","1920","1080","0","1","0","591a1f4800a5650001276188","","null","","","learningBlock2","","","","<div style=""font-size:60px;""> </div>","null","FL","learning/Slide135.JPG","That was a tob.","","",""
"image-keyboard-response","412","419459","0.0-7.0-0.55","FL","5g2fbehb04","1920","1080","0","1","0","591a1f4800a5650001276188","","null","","","","","","","learning/Slide136.JPG","null","","","","","",""
"html-keyboard-response","413","420619","0.0-7.0-1.55","FL","5g2fbehb04","1920","1080","0","1","0","591a1f4800a5650001276188","","null","","","learningBlock2","","","","That was a wug.","null","","","","","",""
"html-keyboard-response","414","421639","0.0-7.0-2.55","FL","5g2fbehb04","1920","1080","0","1","0","591a1f4800a5650001276188","","null","","","learningBlock2","","","","<div style=""font-size:60px;""> </div>","null","FL","learning/Slide136.JPG","That was a wug.","","",""
"image-keyboard-response","415","421819","0.0-7.0-0.56","FL","5g2fbehb04","1920","1080","0","1","0","591a1f4800a5650001276188","","null","","","","","","","learning/Slide137.JPG","null","","","","","",""
"html-keyboard-response","416","422979","0.0-7.0-1.56","FL","5g2fbehb04","1920","1080","0","1","0","591a1f4800a5650001276188","","null","","","learningBlock2","","","","That was a tob.","null","","","","","",""
"html-keyboard-response","417","424000","0.0-7.0-2.56","FL","5g2fbehb04","1920","1080","0","1","0","591a1f4800a5650001276188","","null","","","learningBlock2","","","","<div style=""font-size:60px;""> </div>","null","FL","learning/Slide137.JPG","That was a tob.","","",""
"image-keyboard-response","418","424179","0.0-7.0-0.57","FL","5g2fbehb04","1920","1080","0","1","0","591a1f4800a5650001276188","","null","","","","","","","learning/Slide138.JPG","null","","","","","",""
"html-keyboard-response","419","425360","0.0-7.0-1.57","FL","5g2fbehb04","1920","1080","0","1","0","591a1f4800a5650001276188","","null","","","learningBlock2","","","","That was a bim.","null","","","","","",""
"html-keyboard-response","420","426379","0.0-7.0-2.57","FL","5g2fbehb04","1920","1080","0","1","0","591a1f4800a5650001276188","","null","","","learningBlock2","","","","<div style=""font-size:60px;""> </div>","null","FL","learning/Slide138.JPG","That was a bim.","","",""
"image-keyboard-response","421","426559","0.0-7.0-0.58","FL","5g2fbehb04","1920","1080","0","1","0","591a1f4800a5650001276188","","null","","","","","","","learning/Slide139.JPG","null","","","","","",""
"html-keyboard-response","422","427739","0.0-7.0-1.58","FL","5g2fbehb04","1920","1080","0","1","0","591a1f4800a5650001276188","","null","","","learningBlock2","","","","That was a wug.","null","","","","","",""
"html-keyboard-response","423","428759","0.0-7.0-2.58","FL","5g2fbehb04","1920","1080","0","1","0","591a1f4800a5650001276188","","null","","","learningBlock2","","","","<div style=""font-size:60px;""> </div>","null","FL","learning/Slide139.JPG","That was a wug.","","",""
"image-keyboard-response","424","428950","0.0-7.0-0.59","FL","5g2fbehb04","1920","1080","0","1","0","591a1f4800a5650001276188","","null","","","","","","","learning/Slide140.JPG","null","","","","","",""
"html-keyboard-response","425","430130","0.0-7.0-1.59","FL","5g2fbehb04","1920","1080","0","1","0","591a1f4800a5650001276188","","null","","","learningBlock2","","","","That was a dep.","null","","","","","",""
"html-keyboard-response","426","431150","0.0-7.0-2.59","FL","5g2fbehb04","1920","1080","0","1","0","591a1f4800a5650001276188","","null","","","learningBlock2","","","","<div style=""font-size:60px;""> </div>","null","FL","learning/Slide140.JPG","That was a dep.","","",""
"image-keyboard-response","427","431330","0.0-7.0-0.60","FL","5g2fbehb04","1920","1080","0","1","0","591a1f4800a5650001276188","","null","","","","","","","learning/Slide141.JPG","null","","","","","",""
"html-keyboard-response","428","432499","0.0-7.0-1.60","FL","5g2fbehb04","1920","1080","0","1","0","591a1f4800a5650001276188","","null","","","learningBlock2","","","","That was a tob.","null","","","","","",""
"html-keyboard-response","429","433509","0.0-7.0-2.60","FL","5g2fbehb04","1920","1080","0","1","0","591a1f4800a5650001276188","","null","","","learningBlock2","","","","<div style=""font-size:60px;""> </div>","null","FL","learning/Slide141.JPG","That was a tob.","","",""
"image-keyboard-response","430","433690","0.0-7.0-0.61","FL","5g2fbehb04","1920","1080","0","1","0","591a1f4800a5650001276188","","null","","","","","","","learning/Slide142.JPG","null","","","","","",""
"html-keyboard-response","431","434849","0.0-7.0-1.61","FL","5g2fbehb04","1920","1080","0","1","0","591a1f4800a5650001276188","","null","","","learningBlock2","","","","That was a wug.","null","","","","","",""
"html-keyboard-response","432","435859","0.0-7.0-2.61","FL","5g2fbehb04","1920","1080","0","1","0","591a1f4800a5650001276188","","null","","","learningBlock2","","","","<div style=""font-size:60px;""> </div>","null","FL","learning/Slide142.JPG","That was a wug.","","",""
"image-keyboard-response","433","436039","0.0-7.0-0.62","FL","5g2fbehb04","1920","1080","0","1","0","591a1f4800a5650001276188","","null","","","","","","","learning/Slide143.JPG","null","","","","","",""
"html-keyboard-response","434","437199","0.0-7.0-1.62","FL","5g2fbehb04","1920","1080","0","1","0","591a1f4800a5650001276188","","null","","","learningBlock2","","","","That was a bim.","null","","","","","",""
"html-keyboard-response","435","438219","0.0-7.0-2.62","FL","5g2fbehb04","1920","1080","0","1","0","591a1f4800a5650001276188","","null","","","learningBlock2","","","","<div style=""font-size:60px;""> </div>","null","FL","learning/Slide143.JPG","That was a bim.","","",""
