"trial_type","trial_index","time_elapsed","internal_node_id","condition","subject","screen_width","screen_height","attention","distraction","conscientious","prolificID","success","rt","url","view_history","test_part","final_height_px","final_width_px","scale_factor","stimulus","key_press","learningType","presentedImage","presentedLabel","button_pressed","response","responses"
"pavlovia","0","31","0.0-0.0","FL","xu8vthdm2k","1418","798","0","1","0","5f85eb74d99dd00d735c107f","","","","","","","","","","","","","","","",""
"fullscreen","1","13619","0.0-1.0","FL","xu8vthdm2k","1418","798","0","1","0","5f85eb74d99dd00d735c107f","true","","","","","","","","","","","","","","",""
"external-html","2","20668","0.0-2.0-0.0","FL","xu8vthdm2k","1418","798","0","1","0","5f85eb74d99dd00d735c107f","","7007.489999989048","text/information_english.html","","","","","","","","","","","","",""
"external-html","3","27772","0.0-2.0-1.0","FL","xu8vthdm2k","1418","798","0","1","0","5f85eb74d99dd00d735c107f","","7067.769999965094","text/consent_english.html","","","","","","","","","","","","",""
"instructions","4","50339","0.0-3.0","FL","xu8vthdm2k","1418","798","0","1","0","5f85eb74d99dd00d735c107f","","NA","","[{""page_index"":0,""viewing_time"":10260.484999977052},{""page_index"":1,""viewing_time"":12305.67000003066}]","instructions","","","","","","","","","","",""
"resize","5","97503","0.0-4.0","FL","xu8vthdm2k","1418","798","0","1","0","5f85eb74d99dd00d735c107f","","","","","","","404","2.5650793650793653","","","","","","","",""
"image-keyboard-response","6","97681","0.0-5.0-0.0","FL","xu8vthdm2k","1418","798","0","1","0","5f85eb74d99dd00d735c107f","","null","","","","","","","learning/Slide1.JPG","null","","","","","",""
"html-keyboard-response","7","98835","0.0-5.0-1.0","FL","xu8vthdm2k","1418","798","0","1","0","5f85eb74d99dd00d735c107f","","null","","","learningBlock1","","","","That was a tob.","null","","","","","",""
"html-keyboard-response","8","99837","0.0-5.0-2.0","FL","xu8vthdm2k","1418","798","0","1","0","5f85eb74d99dd00d735c107f","","null","","","learningBlock1","","","","<div style=""font-size:60px;""> </div>","null","FL","learning/Slide1.JPG","That was a tob.","","",""
"image-keyboard-response","9","100014","0.0-5.0-0.1","FL","xu8vthdm2k","1418","798","0","1","0","5f85eb74d99dd00d735c107f","","null","","","","","","","learning/Slide2.JPG","null","","","","","",""
"html-keyboard-response","10","101167","0.0-5.0-1.1","FL","xu8vthdm2k","1418","798","0","1","0","5f85eb74d99dd00d735c107f","","null","","","learningBlock1","","","","That was a wug.","null","","","","","",""
"html-keyboard-response","11","102168","0.0-5.0-2.1","FL","xu8vthdm2k","1418","798","0","1","0","5f85eb74d99dd00d735c107f","","null","","","learningBlock1","","","","<div style=""font-size:60px;""> </div>","null","FL","learning/Slide2.JPG","That was a wug.","","",""
"image-keyboard-response","12","102345","0.0-5.0-0.2","FL","xu8vthdm2k","1418","798","0","1","0","5f85eb74d99dd00d735c107f","","null","","","","","","","learning/Slide3.JPG","null","","","","","",""
"html-keyboard-response","13","103498","0.0-5.0-1.2","FL","xu8vthdm2k","1418","798","0","1","0","5f85eb74d99dd00d735c107f","","null","","","learningBlock1","","","","That was a bim.","null","","","","","",""
"html-keyboard-response","14","104499","0.0-5.0-2.2","FL","xu8vthdm2k","1418","798","0","1","0","5f85eb74d99dd00d735c107f","","null","","","learningBlock1","","","","<div style=""font-size:60px;""> </div>","null","FL","learning/Slide3.JPG","That was a bim.","","",""
"image-keyboard-response","15","104678","0.0-5.0-0.3","FL","xu8vthdm2k","1418","798","0","1","0","5f85eb74d99dd00d735c107f","","null","","","","","","","learning/Slide4.JPG","null","","","","","",""
"html-keyboard-response","16","105831","0.0-5.0-1.3","FL","xu8vthdm2k","1418","798","0","1","0","5f85eb74d99dd00d735c107f","","null","","","learningBlock1","","","","That was a dep.","null","","","","","",""
"html-keyboard-response","17","106833","0.0-5.0-2.3","FL","xu8vthdm2k","1418","798","0","1","0","5f85eb74d99dd00d735c107f","","null","","","learningBlock1","","","","<div style=""font-size:60px;""> </div>","null","FL","learning/Slide4.JPG","That was a dep.","","",""
"image-keyboard-response","18","107009","0.0-5.0-0.4","FL","xu8vthdm2k","1418","798","0","1","0","5f85eb74d99dd00d735c107f","","null","","","","","","","learning/Slide5.JPG","null","","","","","",""
"html-keyboard-response","19","108160","0.0-5.0-1.4","FL","xu8vthdm2k","1418","798","0","1","0","5f85eb74d99dd00d735c107f","","null","","","learningBlock1","","","","That was a wug.","null","","","","","",""
"html-keyboard-response","20","109162","0.0-5.0-2.4","FL","xu8vthdm2k","1418","798","0","1","0","5f85eb74d99dd00d735c107f","","null","","","learningBlock1","","","","<div style=""font-size:60px;""> </div>","null","FL","learning/Slide5.JPG","That was a wug.","","",""
"image-keyboard-response","21","109339","0.0-5.0-0.5","FL","xu8vthdm2k","1418","798","0","1","0","5f85eb74d99dd00d735c107f","","null","","","","","","","learning/Slide6.JPG","null","","","","","",""
"html-keyboard-response","22","110492","0.0-5.0-1.5","FL","xu8vthdm2k","1418","798","0","1","0","5f85eb74d99dd00d735c107f","","null","","","learningBlock1","","","","That was a dep.","null","","","","","",""
"html-keyboard-response","23","111493","0.0-5.0-2.5","FL","xu8vthdm2k","1418","798","0","1","0","5f85eb74d99dd00d735c107f","","null","","","learningBlock1","","","","<div style=""font-size:60px;""> </div>","null","FL","learning/Slide6.JPG","That was a dep.","","",""
"image-keyboard-response","24","111671","0.0-5.0-0.6","FL","xu8vthdm2k","1418","798","0","1","0","5f85eb74d99dd00d735c107f","","null","","","","","","","learning/Slide7.JPG","null","","","","","",""
"html-keyboard-response","25","112822","0.0-5.0-1.6","FL","xu8vthdm2k","1418","798","0","1","0","5f85eb74d99dd00d735c107f","","null","","","learningBlock1","","","","That was a wug.","null","","","","","",""
"html-keyboard-response","26","113824","0.0-5.0-2.6","FL","xu8vthdm2k","1418","798","0","1","0","5f85eb74d99dd00d735c107f","","null","","","learningBlock1","","","","<div style=""font-size:60px;""> </div>","null","FL","learning/Slide7.JPG","That was a wug.","","",""
"image-keyboard-response","27","114001","0.0-5.0-0.7","FL","xu8vthdm2k","1418","798","0","1","0","5f85eb74d99dd00d735c107f","","null","","","","","","","learning/Slide8.JPG","null","","","","","",""
"html-keyboard-response","28","115153","0.0-5.0-1.7","FL","xu8vthdm2k","1418","798","0","1","0","5f85eb74d99dd00d735c107f","","null","","","learningBlock1","","","","That was a bim.","null","","","","","",""
"html-keyboard-response","29","116157","0.0-5.0-2.7","FL","xu8vthdm2k","1418","798","0","1","0","5f85eb74d99dd00d735c107f","","null","","","learningBlock1","","","","<div style=""font-size:60px;""> </div>","null","FL","learning/Slide8.JPG","That was a bim.","","",""
"image-keyboard-response","30","116333","0.0-5.0-0.8","FL","xu8vthdm2k","1418","798","0","1","0","5f85eb74d99dd00d735c107f","","null","","","","","","","learning/Slide9.JPG","null","","","","","",""
"html-keyboard-response","31","117486","0.0-5.0-1.8","FL","xu8vthdm2k","1418","798","0","1","0","5f85eb74d99dd00d735c107f","","null","","","learningBlock1","","","","That was a wug.","null","","","","","",""
"html-keyboard-response","32","118487","0.0-5.0-2.8","FL","xu8vthdm2k","1418","798","0","1","0","5f85eb74d99dd00d735c107f","","null","","","learningBlock1","","","","<div style=""font-size:60px;""> </div>","null","FL","learning/Slide9.JPG","That was a wug.","","",""
"image-keyboard-response","33","118664","0.0-5.0-0.9","FL","xu8vthdm2k","1418","798","0","1","0","5f85eb74d99dd00d735c107f","","null","","","","","","","learning/Slide10.JPG","null","","","","","",""
"html-keyboard-response","34","119817","0.0-5.0-1.9","FL","xu8vthdm2k","1418","798","0","1","0","5f85eb74d99dd00d735c107f","","null","","","learningBlock1","","","","That was a dep.","null","","","","","",""
"html-keyboard-response","35","120832","0.0-5.0-2.9","FL","xu8vthdm2k","1418","798","0","1","0","5f85eb74d99dd00d735c107f","","null","","","learningBlock1","","","","<div style=""font-size:60px;""> </div>","null","FL","learning/Slide10.JPG","That was a dep.","","",""
"image-keyboard-response","36","121009","0.0-5.0-0.10","FL","xu8vthdm2k","1418","798","0","1","0","5f85eb74d99dd00d735c107f","","null","","","","","","","learning/Slide11.JPG","null","","","","","",""
"html-keyboard-response","37","122161","0.0-5.0-1.10","FL","xu8vthdm2k","1418","798","0","1","0","5f85eb74d99dd00d735c107f","","null","","","learningBlock1","","","","That was a tob.","null","","","","","",""
"html-keyboard-response","38","123162","0.0-5.0-2.10","FL","xu8vthdm2k","1418","798","0","1","0","5f85eb74d99dd00d735c107f","","null","","","learningBlock1","","","","<div style=""font-size:60px;""> </div>","null","FL","learning/Slide11.JPG","That was a tob.","","",""
"image-keyboard-response","39","123339","0.0-5.0-0.11","FL","xu8vthdm2k","1418","798","0","1","0","5f85eb74d99dd00d735c107f","","null","","","","","","","learning/Slide12.JPG","null","","","","","",""
"html-keyboard-response","40","124492","0.0-5.0-1.11","FL","xu8vthdm2k","1418","798","0","1","0","5f85eb74d99dd00d735c107f","","null","","","learningBlock1","","","","That was a dep.","null","","","","","",""
"html-keyboard-response","41","125494","0.0-5.0-2.11","FL","xu8vthdm2k","1418","798","0","1","0","5f85eb74d99dd00d735c107f","","null","","","learningBlock1","","","","<div style=""font-size:60px;""> </div>","null","FL","learning/Slide12.JPG","That was a dep.","","",""
"image-keyboard-response","42","125671","0.0-5.0-0.12","FL","xu8vthdm2k","1418","798","0","1","0","5f85eb74d99dd00d735c107f","","null","","","","","","","learning/Slide13.JPG","null","","","","","",""
"html-keyboard-response","43","126824","0.0-5.0-1.12","FL","xu8vthdm2k","1418","798","0","1","0","5f85eb74d99dd00d735c107f","","null","","","learningBlock1","","","","That was a bim.","null","","","","","",""
"html-keyboard-response","44","127827","0.0-5.0-2.12","FL","xu8vthdm2k","1418","798","0","1","0","5f85eb74d99dd00d735c107f","","null","","","learningBlock1","","","","<div style=""font-size:60px;""> </div>","null","FL","learning/Slide13.JPG","That was a bim.","","",""
"image-keyboard-response","45","128005","0.0-5.0-0.13","FL","xu8vthdm2k","1418","798","0","1","0","5f85eb74d99dd00d735c107f","","null","","","","","","","learning/Slide14.JPG","null","","","","","",""
"html-keyboard-response","46","129157","0.0-5.0-1.13","FL","xu8vthdm2k","1418","798","0","1","0","5f85eb74d99dd00d735c107f","","null","","","learningBlock1","","","","That was a wug.","null","","","","","",""
"html-keyboard-response","47","130159","0.0-5.0-2.13","FL","xu8vthdm2k","1418","798","0","1","0","5f85eb74d99dd00d735c107f","","null","","","learningBlock1","","","","<div style=""font-size:60px;""> </div>","null","FL","learning/Slide14.JPG","That was a wug.","","",""
"image-keyboard-response","48","130335","0.0-5.0-0.14","FL","xu8vthdm2k","1418","798","0","1","0","5f85eb74d99dd00d735c107f","","null","","","","","","","learning/Slide15.JPG","null","","","","","",""
"html-keyboard-response","49","131488","0.0-5.0-1.14","FL","xu8vthdm2k","1418","798","0","1","0","5f85eb74d99dd00d735c107f","","null","","","learningBlock1","","","","That was a tob.","null","","","","","",""
"html-keyboard-response","50","132490","0.0-5.0-2.14","FL","xu8vthdm2k","1418","798","0","1","0","5f85eb74d99dd00d735c107f","","null","","","learningBlock1","","","","<div style=""font-size:60px;""> </div>","null","FL","learning/Slide15.JPG","That was a tob.","","",""
"image-keyboard-response","51","132668","0.0-5.0-0.15","FL","xu8vthdm2k","1418","798","0","1","0","5f85eb74d99dd00d735c107f","","null","","","","","","","learning/Slide16.JPG","null","","","","","",""
"html-keyboard-response","52","133820","0.0-5.0-1.15","FL","xu8vthdm2k","1418","798","0","1","0","5f85eb74d99dd00d735c107f","","null","","","learningBlock1","","","","That was a dep.","null","","","","","",""
"html-keyboard-response","53","134821","0.0-5.0-2.15","FL","xu8vthdm2k","1418","798","0","1","0","5f85eb74d99dd00d735c107f","","null","","","learningBlock1","","","","<div style=""font-size:60px;""> </div>","null","FL","learning/Slide16.JPG","That was a dep.","","",""
"image-keyboard-response","54","134998","0.0-5.0-0.16","FL","xu8vthdm2k","1418","798","0","1","0","5f85eb74d99dd00d735c107f","","null","","","","","","","learning/Slide17.JPG","null","","","","","",""
"html-keyboard-response","55","136151","0.0-5.0-1.16","FL","xu8vthdm2k","1418","798","0","1","0","5f85eb74d99dd00d735c107f","","null","","","learningBlock1","","","","That was a bim.","null","","","","","",""
"html-keyboard-response","56","137152","0.0-5.0-2.16","FL","xu8vthdm2k","1418","798","0","1","0","5f85eb74d99dd00d735c107f","","null","","","learningBlock1","","","","<div style=""font-size:60px;""> </div>","null","FL","learning/Slide17.JPG","That was a bim.","","",""
"image-keyboard-response","57","137329","0.0-5.0-0.17","FL","xu8vthdm2k","1418","798","0","1","0","5f85eb74d99dd00d735c107f","","null","","","","","","","learning/Slide18.JPG","null","","","","","",""
"html-keyboard-response","58","138481","0.0-5.0-1.17","FL","xu8vthdm2k","1418","798","0","1","0","5f85eb74d99dd00d735c107f","","null","","","learningBlock1","","","","That was a tob.","null","","","","","",""
"html-keyboard-response","59","139482","0.0-5.0-2.17","FL","xu8vthdm2k","1418","798","0","1","0","5f85eb74d99dd00d735c107f","","null","","","learningBlock1","","","","<div style=""font-size:60px;""> </div>","null","FL","learning/Slide18.JPG","That was a tob.","","",""
"image-keyboard-response","60","139659","0.0-5.0-0.18","FL","xu8vthdm2k","1418","798","0","1","0","5f85eb74d99dd00d735c107f","","null","","","","","","","learning/Slide19.JPG","null","","","","","",""
"html-keyboard-response","61","140811","0.0-5.0-1.18","FL","xu8vthdm2k","1418","798","0","1","0","5f85eb74d99dd00d735c107f","","null","","","learningBlock1","","","","That was a wug.","null","","","","","",""
"html-keyboard-response","62","141814","0.0-5.0-2.18","FL","xu8vthdm2k","1418","798","0","1","0","5f85eb74d99dd00d735c107f","","null","","","learningBlock1","","","","<div style=""font-size:60px;""> </div>","null","FL","learning/Slide19.JPG","That was a wug.","","",""
"image-keyboard-response","63","141991","0.0-5.0-0.19","FL","xu8vthdm2k","1418","798","0","1","0","5f85eb74d99dd00d735c107f","","null","","","","","","","learning/Slide20.JPG","null","","","","","",""
"html-keyboard-response","64","143143","0.0-5.0-1.19","FL","xu8vthdm2k","1418","798","0","1","0","5f85eb74d99dd00d735c107f","","null","","","learningBlock1","","","","That was a bim.","null","","","","","",""
"html-keyboard-response","65","144145","0.0-5.0-2.19","FL","xu8vthdm2k","1418","798","0","1","0","5f85eb74d99dd00d735c107f","","null","","","learningBlock1","","","","<div style=""font-size:60px;""> </div>","null","FL","learning/Slide20.JPG","That was a bim.","","",""
"image-keyboard-response","66","144322","0.0-5.0-0.20","FL","xu8vthdm2k","1418","798","0","1","0","5f85eb74d99dd00d735c107f","","null","","","","","","","learning/Slide21.JPG","null","","","","","",""
"html-keyboard-response","67","145474","0.0-5.0-1.20","FL","xu8vthdm2k","1418","798","0","1","0","5f85eb74d99dd00d735c107f","","null","","","learningBlock1","","","","That was a dep.","null","","","","","",""
"html-keyboard-response","68","146477","0.0-5.0-2.20","FL","xu8vthdm2k","1418","798","0","1","0","5f85eb74d99dd00d735c107f","","null","","","learningBlock1","","","","<div style=""font-size:60px;""> </div>","null","FL","learning/Slide21.JPG","That was a dep.","","",""
"image-keyboard-response","69","146655","0.0-5.0-0.21","FL","xu8vthdm2k","1418","798","0","1","0","5f85eb74d99dd00d735c107f","","null","","","","","","","learning/Slide22.JPG","null","","","","","",""
"html-keyboard-response","70","147809","0.0-5.0-1.21","FL","xu8vthdm2k","1418","798","0","1","0","5f85eb74d99dd00d735c107f","","null","","","learningBlock1","","","","That was a bim.","null","","","","","",""
"html-keyboard-response","71","148810","0.0-5.0-2.21","FL","xu8vthdm2k","1418","798","0","1","0","5f85eb74d99dd00d735c107f","","null","","","learningBlock1","","","","<div style=""font-size:60px;""> </div>","null","FL","learning/Slide22.JPG","That was a bim.","","",""
"image-keyboard-response","72","148989","0.0-5.0-0.22","FL","xu8vthdm2k","1418","798","0","1","0","5f85eb74d99dd00d735c107f","","null","","","","","","","learning/Slide23.JPG","null","","","","","",""
"html-keyboard-response","73","150141","0.0-5.0-1.22","FL","xu8vthdm2k","1418","798","0","1","0","5f85eb74d99dd00d735c107f","","null","","","learningBlock1","","","","That was a tob.","null","","","","","",""
"html-keyboard-response","74","151142","0.0-5.0-2.22","FL","xu8vthdm2k","1418","798","0","1","0","5f85eb74d99dd00d735c107f","","null","","","learningBlock1","","","","<div style=""font-size:60px;""> </div>","null","FL","learning/Slide23.JPG","That was a tob.","","",""
"image-keyboard-response","75","151319","0.0-5.0-0.23","FL","xu8vthdm2k","1418","798","0","1","0","5f85eb74d99dd00d735c107f","","null","","","","","","","learning/Slide24.JPG","null","","","","","",""
"html-keyboard-response","76","152471","0.0-5.0-1.23","FL","xu8vthdm2k","1418","798","0","1","0","5f85eb74d99dd00d735c107f","","null","","","learningBlock1","","","","That was a wug.","null","","","","","",""
"html-keyboard-response","77","153473","0.0-5.0-2.23","FL","xu8vthdm2k","1418","798","0","1","0","5f85eb74d99dd00d735c107f","","null","","","learningBlock1","","","","<div style=""font-size:60px;""> </div>","null","FL","learning/Slide24.JPG","That was a wug.","","",""
"image-keyboard-response","78","153651","0.0-5.0-0.24","FL","xu8vthdm2k","1418","798","0","1","0","5f85eb74d99dd00d735c107f","","null","","","","","","","learning/Slide25.JPG","null","","","","","",""
"html-keyboard-response","79","154803","0.0-5.0-1.24","FL","xu8vthdm2k","1418","798","0","1","0","5f85eb74d99dd00d735c107f","","null","","","learningBlock1","","","","That was a dep.","null","","","","","",""
"html-keyboard-response","80","155805","0.0-5.0-2.24","FL","xu8vthdm2k","1418","798","0","1","0","5f85eb74d99dd00d735c107f","","null","","","learningBlock1","","","","<div style=""font-size:60px;""> </div>","null","FL","learning/Slide25.JPG","That was a dep.","","",""
"image-keyboard-response","81","155982","0.0-5.0-0.25","FL","xu8vthdm2k","1418","798","0","1","0","5f85eb74d99dd00d735c107f","","null","","","","","","","learning/Slide26.JPG","null","","","","","",""
"html-keyboard-response","82","157134","0.0-5.0-1.25","FL","xu8vthdm2k","1418","798","0","1","0","5f85eb74d99dd00d735c107f","","null","","","learningBlock1","","","","That was a wug.","null","","","","","",""
"html-keyboard-response","83","158136","0.0-5.0-2.25","FL","xu8vthdm2k","1418","798","0","1","0","5f85eb74d99dd00d735c107f","","null","","","learningBlock1","","","","<div style=""font-size:60px;""> </div>","null","FL","learning/Slide26.JPG","That was a wug.","","",""
"image-keyboard-response","84","158312","0.0-5.0-0.26","FL","xu8vthdm2k","1418","798","0","1","0","5f85eb74d99dd00d735c107f","","null","","","","","","","learning/Slide27.JPG","null","","","","","",""
"html-keyboard-response","85","159464","0.0-5.0-1.26","FL","xu8vthdm2k","1418","798","0","1","0","5f85eb74d99dd00d735c107f","","null","","","learningBlock1","","","","That was a bim.","null","","","","","",""
"html-keyboard-response","86","160467","0.0-5.0-2.26","FL","xu8vthdm2k","1418","798","0","1","0","5f85eb74d99dd00d735c107f","","null","","","learningBlock1","","","","<div style=""font-size:60px;""> </div>","null","FL","learning/Slide27.JPG","That was a bim.","","",""
"image-keyboard-response","87","160644","0.0-5.0-0.27","FL","xu8vthdm2k","1418","798","0","1","0","5f85eb74d99dd00d735c107f","","null","","","","","","","learning/Slide28.JPG","null","","","","","",""
"html-keyboard-response","88","161798","0.0-5.0-1.27","FL","xu8vthdm2k","1418","798","0","1","0","5f85eb74d99dd00d735c107f","","null","","","learningBlock1","","","","That was a dep.","null","","","","","",""
"html-keyboard-response","89","162799","0.0-5.0-2.27","FL","xu8vthdm2k","1418","798","0","1","0","5f85eb74d99dd00d735c107f","","null","","","learningBlock1","","","","<div style=""font-size:60px;""> </div>","null","FL","learning/Slide28.JPG","That was a dep.","","",""
"image-keyboard-response","90","162976","0.0-5.0-0.28","FL","xu8vthdm2k","1418","798","0","1","0","5f85eb74d99dd00d735c107f","","null","","","","","","","learning/Slide29.JPG","null","","","","","",""
"html-keyboard-response","91","164129","0.0-5.0-1.28","FL","xu8vthdm2k","1418","798","0","1","0","5f85eb74d99dd00d735c107f","","null","","","learningBlock1","","","","That was a tob.","null","","","","","",""
"html-keyboard-response","92","165130","0.0-5.0-2.28","FL","xu8vthdm2k","1418","798","0","1","0","5f85eb74d99dd00d735c107f","","null","","","learningBlock1","","","","<div style=""font-size:60px;""> </div>","null","FL","learning/Slide29.JPG","That was a tob.","","",""
"image-keyboard-response","93","165308","0.0-5.0-0.29","FL","xu8vthdm2k","1418","798","0","1","0","5f85eb74d99dd00d735c107f","","null","","","","","","","learning/Slide30.JPG","null","","","","","",""
"html-keyboard-response","94","166460","0.0-5.0-1.29","FL","xu8vthdm2k","1418","798","0","1","0","5f85eb74d99dd00d735c107f","","null","","","learningBlock1","","","","That was a dep.","null","","","","","",""
"html-keyboard-response","95","167463","0.0-5.0-2.29","FL","xu8vthdm2k","1418","798","0","1","0","5f85eb74d99dd00d735c107f","","null","","","learningBlock1","","","","<div style=""font-size:60px;""> </div>","null","FL","learning/Slide30.JPG","That was a dep.","","",""
"image-keyboard-response","96","167640","0.0-5.0-0.30","FL","xu8vthdm2k","1418","798","0","1","0","5f85eb74d99dd00d735c107f","","null","","","","","","","learning/Slide31.JPG","null","","","","","",""
"html-keyboard-response","97","168792","0.0-5.0-1.30","FL","xu8vthdm2k","1418","798","0","1","0","5f85eb74d99dd00d735c107f","","null","","","learningBlock1","","","","That was a wug.","null","","","","","",""
"html-keyboard-response","98","169794","0.0-5.0-2.30","FL","xu8vthdm2k","1418","798","0","1","0","5f85eb74d99dd00d735c107f","","null","","","learningBlock1","","","","<div style=""font-size:60px;""> </div>","null","FL","learning/Slide31.JPG","That was a wug.","","",""
"image-keyboard-response","99","169972","0.0-5.0-0.31","FL","xu8vthdm2k","1418","798","0","1","0","5f85eb74d99dd00d735c107f","","null","","","","","","","learning/Slide32.JPG","null","","","","","",""
"html-keyboard-response","100","171125","0.0-5.0-1.31","FL","xu8vthdm2k","1418","798","0","1","0","5f85eb74d99dd00d735c107f","","null","","","learningBlock1","","","","That was a tob.","null","","","","","",""
"html-keyboard-response","101","172128","0.0-5.0-2.31","FL","xu8vthdm2k","1418","798","0","1","0","5f85eb74d99dd00d735c107f","","null","","","learningBlock1","","","","<div style=""font-size:60px;""> </div>","null","FL","learning/Slide32.JPG","That was a tob.","","",""
"image-keyboard-response","102","172304","0.0-5.0-0.32","FL","xu8vthdm2k","1418","798","0","1","0","5f85eb74d99dd00d735c107f","","null","","","","","","","learning/Slide33.JPG","null","","","","","",""
"html-keyboard-response","103","173457","0.0-5.0-1.32","FL","xu8vthdm2k","1418","798","0","1","0","5f85eb74d99dd00d735c107f","","null","","","learningBlock1","","","","That was a bim.","null","","","","","",""
"html-keyboard-response","104","174458","0.0-5.0-2.32","FL","xu8vthdm2k","1418","798","0","1","0","5f85eb74d99dd00d735c107f","","null","","","learningBlock1","","","","<div style=""font-size:60px;""> </div>","null","FL","learning/Slide33.JPG","That was a bim.","","",""
"image-keyboard-response","105","174635","0.0-5.0-0.33","FL","xu8vthdm2k","1418","798","0","1","0","5f85eb74d99dd00d735c107f","","null","","","","","","","learning/Slide34.JPG","null","","","","","",""
"html-keyboard-response","106","175788","0.0-5.0-1.33","FL","xu8vthdm2k","1418","798","0","1","0","5f85eb74d99dd00d735c107f","","null","","","learningBlock1","","","","That was a tob.","null","","","","","",""
"html-keyboard-response","107","176790","0.0-5.0-2.33","FL","xu8vthdm2k","1418","798","0","1","0","5f85eb74d99dd00d735c107f","","null","","","learningBlock1","","","","<div style=""font-size:60px;""> </div>","null","FL","learning/Slide34.JPG","That was a tob.","","",""
"image-keyboard-response","108","176969","0.0-5.0-0.34","FL","xu8vthdm2k","1418","798","0","1","0","5f85eb74d99dd00d735c107f","","null","","","","","","","learning/Slide35.JPG","null","","","","","",""
"html-keyboard-response","109","178123","0.0-5.0-1.34","FL","xu8vthdm2k","1418","798","0","1","0","5f85eb74d99dd00d735c107f","","null","","","learningBlock1","","","","That was a bim.","null","","","","","",""
"html-keyboard-response","110","179125","0.0-5.0-2.34","FL","xu8vthdm2k","1418","798","0","1","0","5f85eb74d99dd00d735c107f","","null","","","learningBlock1","","","","<div style=""font-size:60px;""> </div>","null","FL","learning/Slide35.JPG","That was a bim.","","",""
"image-keyboard-response","111","179302","0.0-5.0-0.35","FL","xu8vthdm2k","1418","798","0","1","0","5f85eb74d99dd00d735c107f","","null","","","","","","","learning/Slide36.JPG","null","","","","","",""
"html-keyboard-response","112","180455","0.0-5.0-1.35","FL","xu8vthdm2k","1418","798","0","1","0","5f85eb74d99dd00d735c107f","","null","","","learningBlock1","","","","That was a dep.","null","","","","","",""
"html-keyboard-response","113","181457","0.0-5.0-2.35","FL","xu8vthdm2k","1418","798","0","1","0","5f85eb74d99dd00d735c107f","","null","","","learningBlock1","","","","<div style=""font-size:60px;""> </div>","null","FL","learning/Slide36.JPG","That was a dep.","","",""
"image-keyboard-response","114","181634","0.0-5.0-0.36","FL","xu8vthdm2k","1418","798","0","1","0","5f85eb74d99dd00d735c107f","","null","","","","","","","learning/Slide37.JPG","null","","","","","",""
"html-keyboard-response","115","182786","0.0-5.0-1.36","FL","xu8vthdm2k","1418","798","0","1","0","5f85eb74d99dd00d735c107f","","null","","","learningBlock1","","","","That was a tob.","null","","","","","",""
"html-keyboard-response","116","183788","0.0-5.0-2.36","FL","xu8vthdm2k","1418","798","0","1","0","5f85eb74d99dd00d735c107f","","null","","","learningBlock1","","","","<div style=""font-size:60px;""> </div>","null","FL","learning/Slide37.JPG","That was a tob.","","",""
"image-keyboard-response","117","183965","0.0-5.0-0.37","FL","xu8vthdm2k","1418","798","0","1","0","5f85eb74d99dd00d735c107f","","null","","","","","","","learning/Slide38.JPG","null","","","","","",""
"html-keyboard-response","118","185119","0.0-5.0-1.37","FL","xu8vthdm2k","1418","798","0","1","0","5f85eb74d99dd00d735c107f","","null","","","learningBlock1","","","","That was a wug.","null","","","","","",""
"html-keyboard-response","119","186120","0.0-5.0-2.37","FL","xu8vthdm2k","1418","798","0","1","0","5f85eb74d99dd00d735c107f","","null","","","learningBlock1","","","","<div style=""font-size:60px;""> </div>","null","FL","learning/Slide38.JPG","That was a wug.","","",""
"image-keyboard-response","120","186297","0.0-5.0-0.38","FL","xu8vthdm2k","1418","798","0","1","0","5f85eb74d99dd00d735c107f","","null","","","","","","","learning/Slide39.JPG","null","","","","","",""
"html-keyboard-response","121","187452","0.0-5.0-1.38","FL","xu8vthdm2k","1418","798","0","1","0","5f85eb74d99dd00d735c107f","","null","","","learningBlock1","","","","That was a bim.","null","","","","","",""
"html-keyboard-response","122","188454","0.0-5.0-2.38","FL","xu8vthdm2k","1418","798","0","1","0","5f85eb74d99dd00d735c107f","","null","","","learningBlock1","","","","<div style=""font-size:60px;""> </div>","null","FL","learning/Slide39.JPG","That was a bim.","","",""
"image-keyboard-response","123","188631","0.0-5.0-0.39","FL","xu8vthdm2k","1418","798","0","1","0","5f85eb74d99dd00d735c107f","","null","","","","","","","learning/Slide40.JPG","null","","","","","",""
"html-keyboard-response","124","189783","0.0-5.0-1.39","FL","xu8vthdm2k","1418","798","0","1","0","5f85eb74d99dd00d735c107f","","null","","","learningBlock1","","","","That was a tob.","null","","","","","",""
"html-keyboard-response","125","190788","0.0-5.0-2.39","FL","xu8vthdm2k","1418","798","0","1","0","5f85eb74d99dd00d735c107f","","null","","","learningBlock1","","","","<div style=""font-size:60px;""> </div>","null","FL","learning/Slide40.JPG","That was a tob.","","",""
"image-keyboard-response","126","190964","0.0-5.0-0.40","FL","xu8vthdm2k","1418","798","0","1","0","5f85eb74d99dd00d735c107f","","null","","","","","","","learning/Slide41.JPG","null","","","","","",""
"html-keyboard-response","127","192117","0.0-5.0-1.40","FL","xu8vthdm2k","1418","798","0","1","0","5f85eb74d99dd00d735c107f","","null","","","learningBlock1","","","","That was a bim.","null","","","","","",""
"html-keyboard-response","128","193119","0.0-5.0-2.40","FL","xu8vthdm2k","1418","798","0","1","0","5f85eb74d99dd00d735c107f","","null","","","learningBlock1","","","","<div style=""font-size:60px;""> </div>","null","FL","learning/Slide41.JPG","That was a bim.","","",""
"image-keyboard-response","129","193298","0.0-5.0-0.41","FL","xu8vthdm2k","1418","798","0","1","0","5f85eb74d99dd00d735c107f","","null","","","","","","","learning/Slide42.JPG","null","","","","","",""
"html-keyboard-response","130","194452","0.0-5.0-1.41","FL","xu8vthdm2k","1418","798","0","1","0","5f85eb74d99dd00d735c107f","","null","","","learningBlock1","","","","That was a dep.","null","","","","","",""
"html-keyboard-response","131","195454","0.0-5.0-2.41","FL","xu8vthdm2k","1418","798","0","1","0","5f85eb74d99dd00d735c107f","","null","","","learningBlock1","","","","<div style=""font-size:60px;""> </div>","null","FL","learning/Slide42.JPG","That was a dep.","","",""
"image-keyboard-response","132","195630","0.0-5.0-0.42","FL","xu8vthdm2k","1418","798","0","1","0","5f85eb74d99dd00d735c107f","","null","","","","","","","learning/Slide43.JPG","null","","","","","",""
"html-keyboard-response","133","196783","0.0-5.0-1.42","FL","xu8vthdm2k","1418","798","0","1","0","5f85eb74d99dd00d735c107f","","null","","","learningBlock1","","","","That was a wug.","null","","","","","",""
"html-keyboard-response","134","197785","0.0-5.0-2.42","FL","xu8vthdm2k","1418","798","0","1","0","5f85eb74d99dd00d735c107f","","null","","","learningBlock1","","","","<div style=""font-size:60px;""> </div>","null","FL","learning/Slide43.JPG","That was a wug.","","",""
"image-keyboard-response","135","197961","0.0-5.0-0.43","FL","xu8vthdm2k","1418","798","0","1","0","5f85eb74d99dd00d735c107f","","null","","","","","","","learning/Slide44.JPG","null","","","","","",""
"html-keyboard-response","136","199114","0.0-5.0-1.43","FL","xu8vthdm2k","1418","798","0","1","0","5f85eb74d99dd00d735c107f","","null","","","learningBlock1","","","","That was a bim.","null","","","","","",""
"html-keyboard-response","137","200115","0.0-5.0-2.43","FL","xu8vthdm2k","1418","798","0","1","0","5f85eb74d99dd00d735c107f","","null","","","learningBlock1","","","","<div style=""font-size:60px;""> </div>","null","FL","learning/Slide44.JPG","That was a bim.","","",""
"image-keyboard-response","138","200292","0.0-5.0-0.44","FL","xu8vthdm2k","1418","798","0","1","0","5f85eb74d99dd00d735c107f","","null","","","","","","","learning/Slide45.JPG","null","","","","","",""
"html-keyboard-response","139","201445","0.0-5.0-1.44","FL","xu8vthdm2k","1418","798","0","1","0","5f85eb74d99dd00d735c107f","","null","","","learningBlock1","","","","That was a wug.","null","","","","","",""
"html-keyboard-response","140","202445","0.0-5.0-2.44","FL","xu8vthdm2k","1418","798","0","1","0","5f85eb74d99dd00d735c107f","","null","","","learningBlock1","","","","<div style=""font-size:60px;""> </div>","null","FL","learning/Slide45.JPG","That was a wug.","","",""
"image-keyboard-response","141","202622","0.0-5.0-0.45","FL","xu8vthdm2k","1418","798","0","1","0","5f85eb74d99dd00d735c107f","","null","","","","","","","learning/Slide46.JPG","null","","","","","",""
"html-keyboard-response","142","203775","0.0-5.0-1.45","FL","xu8vthdm2k","1418","798","0","1","0","5f85eb74d99dd00d735c107f","","null","","","learningBlock1","","","","That was a dep.","null","","","","","",""
"html-keyboard-response","143","204777","0.0-5.0-2.45","FL","xu8vthdm2k","1418","798","0","1","0","5f85eb74d99dd00d735c107f","","null","","","learningBlock1","","","","<div style=""font-size:60px;""> </div>","null","FL","learning/Slide46.JPG","That was a dep.","","",""
"image-keyboard-response","144","204953","0.0-5.0-0.46","FL","xu8vthdm2k","1418","798","0","1","0","5f85eb74d99dd00d735c107f","","null","","","","","","","learning/Slide47.JPG","null","","","","","",""
"html-keyboard-response","145","206105","0.0-5.0-1.46","FL","xu8vthdm2k","1418","798","0","1","0","5f85eb74d99dd00d735c107f","","null","","","learningBlock1","","","","That was a tob.","null","","","","","",""
"html-keyboard-response","146","207107","0.0-5.0-2.46","FL","xu8vthdm2k","1418","798","0","1","0","5f85eb74d99dd00d735c107f","","null","","","learningBlock1","","","","<div style=""font-size:60px;""> </div>","null","FL","learning/Slide47.JPG","That was a tob.","","",""
"image-keyboard-response","147","207284","0.0-5.0-0.47","FL","xu8vthdm2k","1418","798","0","1","0","5f85eb74d99dd00d735c107f","","null","","","","","","","learning/Slide48.JPG","null","","","","","",""
"html-keyboard-response","148","208435","0.0-5.0-1.47","FL","xu8vthdm2k","1418","798","0","1","0","5f85eb74d99dd00d735c107f","","null","","","learningBlock1","","","","That was a bim.","null","","","","","",""
"html-keyboard-response","149","209437","0.0-5.0-2.47","FL","xu8vthdm2k","1418","798","0","1","0","5f85eb74d99dd00d735c107f","","null","","","learningBlock1","","","","<div style=""font-size:60px;""> </div>","null","FL","learning/Slide48.JPG","That was a bim.","","",""
"image-keyboard-response","150","209614","0.0-5.0-0.48","FL","xu8vthdm2k","1418","798","0","1","0","5f85eb74d99dd00d735c107f","","null","","","","","","","learning/Slide49.JPG","null","","","","","",""
"html-keyboard-response","151","210768","0.0-5.0-1.48","FL","xu8vthdm2k","1418","798","0","1","0","5f85eb74d99dd00d735c107f","","null","","","learningBlock1","","","","That was a dep.","null","","","","","",""
"html-keyboard-response","152","211771","0.0-5.0-2.48","FL","xu8vthdm2k","1418","798","0","1","0","5f85eb74d99dd00d735c107f","","null","","","learningBlock1","","","","<div style=""font-size:60px;""> </div>","null","FL","learning/Slide49.JPG","That was a dep.","","",""
"image-keyboard-response","153","211949","0.0-5.0-0.49","FL","xu8vthdm2k","1418","798","0","1","0","5f85eb74d99dd00d735c107f","","null","","","","","","","learning/Slide50.JPG","null","","","","","",""
"html-keyboard-response","154","213105","0.0-5.0-1.49","FL","xu8vthdm2k","1418","798","0","1","0","5f85eb74d99dd00d735c107f","","null","","","learningBlock1","","","","That was a tob.","null","","","","","",""
"html-keyboard-response","155","214107","0.0-5.0-2.49","FL","xu8vthdm2k","1418","798","0","1","0","5f85eb74d99dd00d735c107f","","null","","","learningBlock1","","","","<div style=""font-size:60px;""> </div>","null","FL","learning/Slide50.JPG","That was a tob.","","",""
"image-keyboard-response","156","214284","0.0-5.0-0.50","FL","xu8vthdm2k","1418","798","0","1","0","5f85eb74d99dd00d735c107f","","null","","","","","","","learning/Slide51.JPG","null","","","","","",""
"html-keyboard-response","157","215439","0.0-5.0-1.50","FL","xu8vthdm2k","1418","798","0","1","0","5f85eb74d99dd00d735c107f","","null","","","learningBlock1","","","","That was a bim.","null","","","","","",""
"html-keyboard-response","158","216441","0.0-5.0-2.50","FL","xu8vthdm2k","1418","798","0","1","0","5f85eb74d99dd00d735c107f","","null","","","learningBlock1","","","","<div style=""font-size:60px;""> </div>","null","FL","learning/Slide51.JPG","That was a bim.","","",""
"image-keyboard-response","159","216617","0.0-5.0-0.51","FL","xu8vthdm2k","1418","798","0","1","0","5f85eb74d99dd00d735c107f","","null","","","","","","","learning/Slide52.JPG","null","","","","","",""
"html-keyboard-response","160","217771","0.0-5.0-1.51","FL","xu8vthdm2k","1418","798","0","1","0","5f85eb74d99dd00d735c107f","","null","","","learningBlock1","","","","That was a wug.","null","","","","","",""
"html-keyboard-response","161","218773","0.0-5.0-2.51","FL","xu8vthdm2k","1418","798","0","1","0","5f85eb74d99dd00d735c107f","","null","","","learningBlock1","","","","<div style=""font-size:60px;""> </div>","null","FL","learning/Slide52.JPG","That was a wug.","","",""
"image-keyboard-response","162","218949","0.0-5.0-0.52","FL","xu8vthdm2k","1418","798","0","1","0","5f85eb74d99dd00d735c107f","","null","","","","","","","learning/Slide53.JPG","null","","","","","",""
"html-keyboard-response","163","220101","0.0-5.0-1.52","FL","xu8vthdm2k","1418","798","0","1","0","5f85eb74d99dd00d735c107f","","null","","","learningBlock1","","","","That was a tob.","null","","","","","",""
"html-keyboard-response","164","221103","0.0-5.0-2.52","FL","xu8vthdm2k","1418","798","0","1","0","5f85eb74d99dd00d735c107f","","null","","","learningBlock1","","","","<div style=""font-size:60px;""> </div>","null","FL","learning/Slide53.JPG","That was a tob.","","",""
"image-keyboard-response","165","221280","0.0-5.0-0.53","FL","xu8vthdm2k","1418","798","0","1","0","5f85eb74d99dd00d735c107f","","null","","","","","","","learning/Slide54.JPG","null","","","","","",""
"html-keyboard-response","166","222431","0.0-5.0-1.53","FL","xu8vthdm2k","1418","798","0","1","0","5f85eb74d99dd00d735c107f","","null","","","learningBlock1","","","","That was a dep.","null","","","","","",""
"html-keyboard-response","167","223433","0.0-5.0-2.53","FL","xu8vthdm2k","1418","798","0","1","0","5f85eb74d99dd00d735c107f","","null","","","learningBlock1","","","","<div style=""font-size:60px;""> </div>","null","FL","learning/Slide54.JPG","That was a dep.","","",""
"image-keyboard-response","168","223609","0.0-5.0-0.54","FL","xu8vthdm2k","1418","798","0","1","0","5f85eb74d99dd00d735c107f","","null","","","","","","","learning/Slide55.JPG","null","","","","","",""
"html-keyboard-response","169","224761","0.0-5.0-1.54","FL","xu8vthdm2k","1418","798","0","1","0","5f85eb74d99dd00d735c107f","","null","","","learningBlock1","","","","That was a bim.","null","","","","","",""
"html-keyboard-response","170","225762","0.0-5.0-2.54","FL","xu8vthdm2k","1418","798","0","1","0","5f85eb74d99dd00d735c107f","","null","","","learningBlock1","","","","<div style=""font-size:60px;""> </div>","null","FL","learning/Slide55.JPG","That was a bim.","","",""
"image-keyboard-response","171","225940","0.0-5.0-0.55","FL","xu8vthdm2k","1418","798","0","1","0","5f85eb74d99dd00d735c107f","","null","","","","","","","learning/Slide56.JPG","null","","","","","",""
"html-keyboard-response","172","227094","0.0-5.0-1.55","FL","xu8vthdm2k","1418","798","0","1","0","5f85eb74d99dd00d735c107f","","null","","","learningBlock1","","","","That was a tob.","null","","","","","",""
"html-keyboard-response","173","228098","0.0-5.0-2.55","FL","xu8vthdm2k","1418","798","0","1","0","5f85eb74d99dd00d735c107f","","null","","","learningBlock1","","","","<div style=""font-size:60px;""> </div>","null","FL","learning/Slide56.JPG","That was a tob.","","",""
"image-keyboard-response","174","228275","0.0-5.0-0.56","FL","xu8vthdm2k","1418","798","0","1","0","5f85eb74d99dd00d735c107f","","null","","","","","","","learning/Slide57.JPG","null","","","","","",""
"html-keyboard-response","175","229428","0.0-5.0-1.56","FL","xu8vthdm2k","1418","798","0","1","0","5f85eb74d99dd00d735c107f","","null","","","learningBlock1","","","","That was a dep.","null","","","","","",""
"html-keyboard-response","176","230430","0.0-5.0-2.56","FL","xu8vthdm2k","1418","798","0","1","0","5f85eb74d99dd00d735c107f","","null","","","learningBlock1","","","","<div style=""font-size:60px;""> </div>","null","FL","learning/Slide57.JPG","That was a dep.","","",""
"image-keyboard-response","177","230606","0.0-5.0-0.57","FL","xu8vthdm2k","1418","798","0","1","0","5f85eb74d99dd00d735c107f","","null","","","","","","","learning/Slide58.JPG","null","","","","","",""
"html-keyboard-response","178","231758","0.0-5.0-1.57","FL","xu8vthdm2k","1418","798","0","1","0","5f85eb74d99dd00d735c107f","","null","","","learningBlock1","","","","That was a wug.","null","","","","","",""
"html-keyboard-response","179","232759","0.0-5.0-2.57","FL","xu8vthdm2k","1418","798","0","1","0","5f85eb74d99dd00d735c107f","","null","","","learningBlock1","","","","<div style=""font-size:60px;""> </div>","null","FL","learning/Slide58.JPG","That was a wug.","","",""
"image-keyboard-response","180","232938","0.0-5.0-0.58","FL","xu8vthdm2k","1418","798","0","1","0","5f85eb74d99dd00d735c107f","","null","","","","","","","learning/Slide59.JPG","null","","","","","",""
"html-keyboard-response","181","234094","0.0-5.0-1.58","FL","xu8vthdm2k","1418","798","0","1","0","5f85eb74d99dd00d735c107f","","null","","","learningBlock1","","","","That was a dep.","null","","","","","",""
"html-keyboard-response","182","235097","0.0-5.0-2.58","FL","xu8vthdm2k","1418","798","0","1","0","5f85eb74d99dd00d735c107f","","null","","","learningBlock1","","","","<div style=""font-size:60px;""> </div>","null","FL","learning/Slide59.JPG","That was a dep.","","",""
"image-keyboard-response","183","235275","0.0-5.0-0.59","FL","xu8vthdm2k","1418","798","0","1","0","5f85eb74d99dd00d735c107f","","null","","","","","","","learning/Slide60.JPG","null","","","","","",""
"html-keyboard-response","184","236428","0.0-5.0-1.59","FL","xu8vthdm2k","1418","798","0","1","0","5f85eb74d99dd00d735c107f","","null","","","learningBlock1","","","","That was a wug.","null","","","","","",""
"html-keyboard-response","185","237429","0.0-5.0-2.59","FL","xu8vthdm2k","1418","798","0","1","0","5f85eb74d99dd00d735c107f","","null","","","learningBlock1","","","","<div style=""font-size:60px;""> </div>","null","FL","learning/Slide60.JPG","That was a wug.","","",""
"image-keyboard-response","186","237605","0.0-5.0-0.60","FL","xu8vthdm2k","1418","798","0","1","0","5f85eb74d99dd00d735c107f","","null","","","","","","","learning/Slide61.JPG","null","","","","","",""
"html-keyboard-response","187","238759","0.0-5.0-1.60","FL","xu8vthdm2k","1418","798","0","1","0","5f85eb74d99dd00d735c107f","","null","","","learningBlock1","","","","That was a bim.","null","","","","","",""
"html-keyboard-response","188","239761","0.0-5.0-2.60","FL","xu8vthdm2k","1418","798","0","1","0","5f85eb74d99dd00d735c107f","","null","","","learningBlock1","","","","<div style=""font-size:60px;""> </div>","null","FL","learning/Slide61.JPG","That was a bim.","","",""
"image-keyboard-response","189","239939","0.0-5.0-0.61","FL","xu8vthdm2k","1418","798","0","1","0","5f85eb74d99dd00d735c107f","","null","","","","","","","learning/Slide62.JPG","null","","","","","",""
"html-keyboard-response","190","241092","0.0-5.0-1.61","FL","xu8vthdm2k","1418","798","0","1","0","5f85eb74d99dd00d735c107f","","null","","","learningBlock1","","","","That was a dep.","null","","","","","",""
"html-keyboard-response","191","242093","0.0-5.0-2.61","FL","xu8vthdm2k","1418","798","0","1","0","5f85eb74d99dd00d735c107f","","null","","","learningBlock1","","","","<div style=""font-size:60px;""> </div>","null","FL","learning/Slide62.JPG","That was a dep.","","",""
"image-keyboard-response","192","242270","0.0-5.0-0.62","FL","xu8vthdm2k","1418","798","0","1","0","5f85eb74d99dd00d735c107f","","null","","","","","","","learning/Slide63.JPG","null","","","","","",""
"html-keyboard-response","193","243423","0.0-5.0-1.62","FL","xu8vthdm2k","1418","798","0","1","0","5f85eb74d99dd00d735c107f","","null","","","learningBlock1","","","","That was a bim.","null","","","","","",""
"html-keyboard-response","194","244424","0.0-5.0-2.62","FL","xu8vthdm2k","1418","798","0","1","0","5f85eb74d99dd00d735c107f","","null","","","learningBlock1","","","","<div style=""font-size:60px;""> </div>","null","FL","learning/Slide63.JPG","That was a bim.","","",""
"image-keyboard-response","195","244600","0.0-5.0-0.63","FL","xu8vthdm2k","1418","798","0","1","0","5f85eb74d99dd00d735c107f","","null","","","","","","","learning/Slide64.JPG","null","","","","","",""
"html-keyboard-response","196","245753","0.0-5.0-1.63","FL","xu8vthdm2k","1418","798","0","1","0","5f85eb74d99dd00d735c107f","","null","","","learningBlock1","","","","That was a tob.","null","","","","","",""
"html-keyboard-response","197","246754","0.0-5.0-2.63","FL","xu8vthdm2k","1418","798","0","1","0","5f85eb74d99dd00d735c107f","","null","","","learningBlock1","","","","<div style=""font-size:60px;""> </div>","null","FL","learning/Slide64.JPG","That was a tob.","","",""
"image-keyboard-response","198","246931","0.0-5.0-0.64","FL","xu8vthdm2k","1418","798","0","1","0","5f85eb74d99dd00d735c107f","","null","","","","","","","learning/Slide65.JPG","null","","","","","",""
"html-keyboard-response","199","248083","0.0-5.0-1.64","FL","xu8vthdm2k","1418","798","0","1","0","5f85eb74d99dd00d735c107f","","null","","","learningBlock1","","","","That was a wug.","null","","","","","",""
"html-keyboard-response","200","249084","0.0-5.0-2.64","FL","xu8vthdm2k","1418","798","0","1","0","5f85eb74d99dd00d735c107f","","null","","","learningBlock1","","","","<div style=""font-size:60px;""> </div>","null","FL","learning/Slide65.JPG","That was a wug.","","",""
"image-keyboard-response","201","249261","0.0-5.0-0.65","FL","xu8vthdm2k","1418","798","0","1","0","5f85eb74d99dd00d735c107f","","null","","","","","","","learning/Slide66.JPG","null","","","","","",""
"html-keyboard-response","202","250414","0.0-5.0-1.65","FL","xu8vthdm2k","1418","798","0","1","0","5f85eb74d99dd00d735c107f","","null","","","learningBlock1","","","","That was a dep.","null","","","","","",""
"html-keyboard-response","203","251416","0.0-5.0-2.65","FL","xu8vthdm2k","1418","798","0","1","0","5f85eb74d99dd00d735c107f","","null","","","learningBlock1","","","","<div style=""font-size:60px;""> </div>","null","FL","learning/Slide66.JPG","That was a dep.","","",""
"image-keyboard-response","204","251593","0.0-5.0-0.66","FL","xu8vthdm2k","1418","798","0","1","0","5f85eb74d99dd00d735c107f","","null","","","","","","","learning/Slide67.JPG","null","","","","","",""
"html-keyboard-response","205","252745","0.0-5.0-1.66","FL","xu8vthdm2k","1418","798","0","1","0","5f85eb74d99dd00d735c107f","","null","","","learningBlock1","","","","That was a tob.","null","","","","","",""
"html-keyboard-response","206","253748","0.0-5.0-2.66","FL","xu8vthdm2k","1418","798","0","1","0","5f85eb74d99dd00d735c107f","","null","","","learningBlock1","","","","<div style=""font-size:60px;""> </div>","null","FL","learning/Slide67.JPG","That was a tob.","","",""
"image-keyboard-response","207","253925","0.0-5.0-0.67","FL","xu8vthdm2k","1418","798","0","1","0","5f85eb74d99dd00d735c107f","","null","","","","","","","learning/Slide68.JPG","null","","","","","",""
"html-keyboard-response","208","255078","0.0-5.0-1.67","FL","xu8vthdm2k","1418","798","0","1","0","5f85eb74d99dd00d735c107f","","null","","","learningBlock1","","","","That was a wug.","null","","","","","",""
"html-keyboard-response","209","256080","0.0-5.0-2.67","FL","xu8vthdm2k","1418","798","0","1","0","5f85eb74d99dd00d735c107f","","null","","","learningBlock1","","","","<div style=""font-size:60px;""> </div>","null","FL","learning/Slide68.JPG","That was a wug.","","",""
"image-keyboard-response","210","256258","0.0-5.0-0.68","FL","xu8vthdm2k","1418","798","0","1","0","5f85eb74d99dd00d735c107f","","null","","","","","","","learning/Slide69.JPG","null","","","","","",""
"html-keyboard-response","211","257410","0.0-5.0-1.68","FL","xu8vthdm2k","1418","798","0","1","0","5f85eb74d99dd00d735c107f","","null","","","learningBlock1","","","","That was a tob.","null","","","","","",""
"html-keyboard-response","212","258411","0.0-5.0-2.68","FL","xu8vthdm2k","1418","798","0","1","0","5f85eb74d99dd00d735c107f","","null","","","learningBlock1","","","","<div style=""font-size:60px;""> </div>","null","FL","learning/Slide69.JPG","That was a tob.","","",""
"image-keyboard-response","213","258590","0.0-5.0-0.69","FL","xu8vthdm2k","1418","798","0","1","0","5f85eb74d99dd00d735c107f","","null","","","","","","","learning/Slide70.JPG","null","","","","","",""
"html-keyboard-response","214","259741","0.0-5.0-1.69","FL","xu8vthdm2k","1418","798","0","1","0","5f85eb74d99dd00d735c107f","","null","","","learningBlock1","","","","That was a dep.","null","","","","","",""
"html-keyboard-response","215","260744","0.0-5.0-2.69","FL","xu8vthdm2k","1418","798","0","1","0","5f85eb74d99dd00d735c107f","","null","","","learningBlock1","","","","<div style=""font-size:60px;""> </div>","null","FL","learning/Slide70.JPG","That was a dep.","","",""
"image-keyboard-response","216","260921","0.0-5.0-0.70","FL","xu8vthdm2k","1418","798","0","1","0","5f85eb74d99dd00d735c107f","","null","","","","","","","learning/Slide71.JPG","null","","","","","",""
"html-keyboard-response","217","262073","0.0-5.0-1.70","FL","xu8vthdm2k","1418","798","0","1","0","5f85eb74d99dd00d735c107f","","null","","","learningBlock1","","","","That was a wug.","null","","","","","",""
"html-keyboard-response","218","263074","0.0-5.0-2.70","FL","xu8vthdm2k","1418","798","0","1","0","5f85eb74d99dd00d735c107f","","null","","","learningBlock1","","","","<div style=""font-size:60px;""> </div>","null","FL","learning/Slide71.JPG","That was a wug.","","",""
"image-keyboard-response","219","263251","0.0-5.0-0.71","FL","xu8vthdm2k","1418","798","0","1","0","5f85eb74d99dd00d735c107f","","null","","","","","","","learning/Slide72.JPG","null","","","","","",""
"html-keyboard-response","220","264403","0.0-5.0-1.71","FL","xu8vthdm2k","1418","798","0","1","0","5f85eb74d99dd00d735c107f","","null","","","learningBlock1","","","","That was a bim.","null","","","","","",""
"html-keyboard-response","221","265404","0.0-5.0-2.71","FL","xu8vthdm2k","1418","798","0","1","0","5f85eb74d99dd00d735c107f","","null","","","learningBlock1","","","","<div style=""font-size:60px;""> </div>","null","FL","learning/Slide72.JPG","That was a bim.","","",""
"image-keyboard-response","222","265580","0.0-5.0-0.72","FL","xu8vthdm2k","1418","798","0","1","0","5f85eb74d99dd00d735c107f","","null","","","","","","","learning/Slide73.JPG","null","","","","","",""
"html-keyboard-response","223","266732","0.0-5.0-1.72","FL","xu8vthdm2k","1418","798","0","1","0","5f85eb74d99dd00d735c107f","","null","","","learningBlock1","","","","That was a wug.","null","","","","","",""
"html-keyboard-response","224","267735","0.0-5.0-2.72","FL","xu8vthdm2k","1418","798","0","1","0","5f85eb74d99dd00d735c107f","","null","","","learningBlock1","","","","<div style=""font-size:60px;""> </div>","null","FL","learning/Slide73.JPG","That was a wug.","","",""
"image-keyboard-response","225","267911","0.0-5.0-0.73","FL","xu8vthdm2k","1418","798","0","1","0","5f85eb74d99dd00d735c107f","","null","","","","","","","learning/Slide74.JPG","null","","","","","",""
"html-keyboard-response","226","269062","0.0-5.0-1.73","FL","xu8vthdm2k","1418","798","0","1","0","5f85eb74d99dd00d735c107f","","null","","","learningBlock1","","","","That was a dep.","null","","","","","",""
"html-keyboard-response","227","270064","0.0-5.0-2.73","FL","xu8vthdm2k","1418","798","0","1","0","5f85eb74d99dd00d735c107f","","null","","","learningBlock1","","","","<div style=""font-size:60px;""> </div>","null","FL","learning/Slide74.JPG","That was a dep.","","",""
"image-keyboard-response","228","270257","0.0-5.0-0.74","FL","xu8vthdm2k","1418","798","0","1","0","5f85eb74d99dd00d735c107f","","null","","","","","","","learning/Slide75.JPG","null","","","","","",""
"html-keyboard-response","229","271409","0.0-5.0-1.74","FL","xu8vthdm2k","1418","798","0","1","0","5f85eb74d99dd00d735c107f","","null","","","learningBlock1","","","","That was a tob.","null","","","","","",""
"html-keyboard-response","230","272411","0.0-5.0-2.74","FL","xu8vthdm2k","1418","798","0","1","0","5f85eb74d99dd00d735c107f","","null","","","learningBlock1","","","","<div style=""font-size:60px;""> </div>","null","FL","learning/Slide75.JPG","That was a tob.","","",""
"image-keyboard-response","231","272587","0.0-5.0-0.75","FL","xu8vthdm2k","1418","798","0","1","0","5f85eb74d99dd00d735c107f","","null","","","","","","","learning/Slide76.JPG","null","","","","","",""
"html-keyboard-response","232","273740","0.0-5.0-1.75","FL","xu8vthdm2k","1418","798","0","1","0","5f85eb74d99dd00d735c107f","","null","","","learningBlock1","","","","That was a bim.","null","","","","","",""
"html-keyboard-response","233","274741","0.0-5.0-2.75","FL","xu8vthdm2k","1418","798","0","1","0","5f85eb74d99dd00d735c107f","","null","","","learningBlock1","","","","<div style=""font-size:60px;""> </div>","null","FL","learning/Slide76.JPG","That was a bim.","","",""
"image-keyboard-response","234","274918","0.0-5.0-0.76","FL","xu8vthdm2k","1418","798","0","1","0","5f85eb74d99dd00d735c107f","","null","","","","","","","learning/Slide77.JPG","null","","","","","",""
"html-keyboard-response","235","276070","0.0-5.0-1.76","FL","xu8vthdm2k","1418","798","0","1","0","5f85eb74d99dd00d735c107f","","null","","","learningBlock1","","","","That was a tob.","null","","","","","",""
"html-keyboard-response","236","277071","0.0-5.0-2.76","FL","xu8vthdm2k","1418","798","0","1","0","5f85eb74d99dd00d735c107f","","null","","","learningBlock1","","","","<div style=""font-size:60px;""> </div>","null","FL","learning/Slide77.JPG","That was a tob.","","",""
"image-keyboard-response","237","277248","0.0-5.0-0.77","FL","xu8vthdm2k","1418","798","0","1","0","5f85eb74d99dd00d735c107f","","null","","","","","","","learning/Slide78.JPG","null","","","","","",""
"html-keyboard-response","238","278401","0.0-5.0-1.77","FL","xu8vthdm2k","1418","798","0","1","0","5f85eb74d99dd00d735c107f","","null","","","learningBlock1","","","","That was a wug.","null","","","","","",""
"html-keyboard-response","239","279403","0.0-5.0-2.77","FL","xu8vthdm2k","1418","798","0","1","0","5f85eb74d99dd00d735c107f","","null","","","learningBlock1","","","","<div style=""font-size:60px;""> </div>","null","FL","learning/Slide78.JPG","That was a wug.","","",""
"image-keyboard-response","240","279579","0.0-5.0-0.78","FL","xu8vthdm2k","1418","798","0","1","0","5f85eb74d99dd00d735c107f","","null","","","","","","","learning/Slide79.JPG","null","","","","","",""
"html-keyboard-response","241","280731","0.0-5.0-1.78","FL","xu8vthdm2k","1418","798","0","1","0","5f85eb74d99dd00d735c107f","","null","","","learningBlock1","","","","That was a bim.","null","","","","","",""
"html-keyboard-response","242","281734","0.0-5.0-2.78","FL","xu8vthdm2k","1418","798","0","1","0","5f85eb74d99dd00d735c107f","","null","","","learningBlock1","","","","<div style=""font-size:60px;""> </div>","null","FL","learning/Slide79.JPG","That was a bim.","","",""
"image-keyboard-response","243","281910","0.0-5.0-0.79","FL","xu8vthdm2k","1418","798","0","1","0","5f85eb74d99dd00d735c107f","","null","","","","","","","learning/Slide80.JPG","null","","","","","",""
"html-keyboard-response","244","283063","0.0-5.0-1.79","FL","xu8vthdm2k","1418","798","0","1","0","5f85eb74d99dd00d735c107f","","null","","","learningBlock1","","","","That was a tob.","null","","","","","",""
"html-keyboard-response","245","284064","0.0-5.0-2.79","FL","xu8vthdm2k","1418","798","0","1","0","5f85eb74d99dd00d735c107f","","null","","","learningBlock1","","","","<div style=""font-size:60px;""> </div>","null","FL","learning/Slide80.JPG","That was a tob.","","",""
"instructions","246","286161","0.0-6.0","FL","xu8vthdm2k","1418","798","0","1","0","5f85eb74d99dd00d735c107f","","NA","","[{""page_index"":0,""viewing_time"":2096.929999999702}]","instructions","","","","","","","","","","",""
"image-keyboard-response","247","286339","0.0-7.0-0.0","FL","xu8vthdm2k","1418","798","0","1","0","5f85eb74d99dd00d735c107f","","null","","","","","","","learning/Slide81.JPG","null","","","","","",""
"html-keyboard-response","248","287491","0.0-7.0-1.0","FL","xu8vthdm2k","1418","798","0","1","0","5f85eb74d99dd00d735c107f","","null","","","learningBlock2","","","","That was a wug.","null","","","","","",""
"html-keyboard-response","249","288493","0.0-7.0-2.0","FL","xu8vthdm2k","1418","798","0","1","0","5f85eb74d99dd00d735c107f","","null","","","learningBlock2","","","","<div style=""font-size:60px;""> </div>","null","FL","learning/Slide81.JPG","That was a wug.","","",""
"image-keyboard-response","250","288670","0.0-7.0-0.1","FL","xu8vthdm2k","1418","798","0","1","0","5f85eb74d99dd00d735c107f","","null","","","","","","","learning/Slide82.JPG","null","","","","","",""
"html-keyboard-response","251","289822","0.0-7.0-1.1","FL","xu8vthdm2k","1418","798","0","1","0","5f85eb74d99dd00d735c107f","","null","","","learningBlock2","","","","That was a bim.","null","","","","","",""
"html-keyboard-response","252","290824","0.0-7.0-2.1","FL","xu8vthdm2k","1418","798","0","1","0","5f85eb74d99dd00d735c107f","","null","","","learningBlock2","","","","<div style=""font-size:60px;""> </div>","null","FL","learning/Slide82.JPG","That was a bim.","","",""
"image-keyboard-response","253","291002","0.0-7.0-0.2","FL","xu8vthdm2k","1418","798","0","1","0","5f85eb74d99dd00d735c107f","","null","","","","","","","learning/Slide83.JPG","null","","","","","",""
"html-keyboard-response","254","292155","0.0-7.0-1.2","FL","xu8vthdm2k","1418","798","0","1","0","5f85eb74d99dd00d735c107f","","null","","","learningBlock2","","","","That was a wug.","null","","","","","",""
"html-keyboard-response","255","293156","0.0-7.0-2.2","FL","xu8vthdm2k","1418","798","0","1","0","5f85eb74d99dd00d735c107f","","null","","","learningBlock2","","","","<div style=""font-size:60px;""> </div>","null","FL","learning/Slide83.JPG","That was a wug.","","",""
"image-keyboard-response","256","293333","0.0-7.0-0.3","FL","xu8vthdm2k","1418","798","0","1","0","5f85eb74d99dd00d735c107f","","null","","","","","","","learning/Slide84.JPG","null","","","","","",""
"html-keyboard-response","257","294485","0.0-7.0-1.3","FL","xu8vthdm2k","1418","798","0","1","0","5f85eb74d99dd00d735c107f","","null","","","learningBlock2","","","","That was a dep.","null","","","","","",""
"html-keyboard-response","258","295486","0.0-7.0-2.3","FL","xu8vthdm2k","1418","798","0","1","0","5f85eb74d99dd00d735c107f","","null","","","learningBlock2","","","","<div style=""font-size:60px;""> </div>","null","FL","learning/Slide84.JPG","That was a dep.","","",""
"image-keyboard-response","259","295664","0.0-7.0-0.4","FL","xu8vthdm2k","1418","798","0","1","0","5f85eb74d99dd00d735c107f","","null","","","","","","","learning/Slide85.JPG","null","","","","","",""
"html-keyboard-response","260","296817","0.0-7.0-1.4","FL","xu8vthdm2k","1418","798","0","1","0","5f85eb74d99dd00d735c107f","","null","","","learningBlock2","","","","That was a bim.","null","","","","","",""
"html-keyboard-response","261","297819","0.0-7.0-2.4","FL","xu8vthdm2k","1418","798","0","1","0","5f85eb74d99dd00d735c107f","","null","","","learningBlock2","","","","<div style=""font-size:60px;""> </div>","null","FL","learning/Slide85.JPG","That was a bim.","","",""
"image-keyboard-response","262","297995","0.0-7.0-0.5","FL","xu8vthdm2k","1418","798","0","1","0","5f85eb74d99dd00d735c107f","","null","","","","","","","learning/Slide86.JPG","null","","","","","",""
"html-keyboard-response","263","299148","0.0-7.0-1.5","FL","xu8vthdm2k","1418","798","0","1","0","5f85eb74d99dd00d735c107f","","null","","","learningBlock2","","","","That was a tob.","null","","","","","",""
"html-keyboard-response","264","300149","0.0-7.0-2.5","FL","xu8vthdm2k","1418","798","0","1","0","5f85eb74d99dd00d735c107f","","null","","","learningBlock2","","","","<div style=""font-size:60px;""> </div>","null","FL","learning/Slide86.JPG","That was a tob.","","",""
"image-keyboard-response","265","300331","0.0-7.0-0.6","FL","xu8vthdm2k","1418","798","0","1","0","5f85eb74d99dd00d735c107f","","null","","","","","","","learning/Slide87.JPG","null","","","","","",""
"html-keyboard-response","266","301483","0.0-7.0-1.6","FL","xu8vthdm2k","1418","798","0","1","0","5f85eb74d99dd00d735c107f","","null","","","learningBlock2","","","","That was a wug.","null","","","","","",""
"html-keyboard-response","267","302487","0.0-7.0-2.6","FL","xu8vthdm2k","1418","798","0","1","0","5f85eb74d99dd00d735c107f","","null","","","learningBlock2","","","","<div style=""font-size:60px;""> </div>","null","FL","learning/Slide87.JPG","That was a wug.","","",""
"image-keyboard-response","268","302664","0.0-7.0-0.7","FL","xu8vthdm2k","1418","798","0","1","0","5f85eb74d99dd00d735c107f","","null","","","","","","","learning/Slide88.JPG","null","","","","","",""
"html-keyboard-response","269","303818","0.0-7.0-1.7","FL","xu8vthdm2k","1418","798","0","1","0","5f85eb74d99dd00d735c107f","","null","","","learningBlock2","","","","That was a tob.","null","","","","","",""
"html-keyboard-response","270","304819","0.0-7.0-2.7","FL","xu8vthdm2k","1418","798","0","1","0","5f85eb74d99dd00d735c107f","","null","","","learningBlock2","","","","<div style=""font-size:60px;""> </div>","null","FL","learning/Slide88.JPG","That was a tob.","","",""
"image-keyboard-response","271","304997","0.0-7.0-0.8","FL","xu8vthdm2k","1418","798","0","1","0","5f85eb74d99dd00d735c107f","","null","","","","","","","learning/Slide89.JPG","null","","","","","",""
"html-keyboard-response","272","306149","0.0-7.0-1.8","FL","xu8vthdm2k","1418","798","0","1","0","5f85eb74d99dd00d735c107f","","null","","","learningBlock2","","","","That was a bim.","null","","","","","",""
"html-keyboard-response","273","307151","0.0-7.0-2.8","FL","xu8vthdm2k","1418","798","0","1","0","5f85eb74d99dd00d735c107f","","null","","","learningBlock2","","","","<div style=""font-size:60px;""> </div>","null","FL","learning/Slide89.JPG","That was a bim.","","",""
"image-keyboard-response","274","307330","0.0-7.0-0.9","FL","xu8vthdm2k","1418","798","0","1","0","5f85eb74d99dd00d735c107f","","null","","","","","","","learning/Slide90.JPG","null","","","","","",""
"html-keyboard-response","275","308484","0.0-7.0-1.9","FL","xu8vthdm2k","1418","798","0","1","0","5f85eb74d99dd00d735c107f","","null","","","learningBlock2","","","","That was a dep.","null","","","","","",""
"html-keyboard-response","276","309486","0.0-7.0-2.9","FL","xu8vthdm2k","1418","798","0","1","0","5f85eb74d99dd00d735c107f","","null","","","learningBlock2","","","","<div style=""font-size:60px;""> </div>","null","FL","learning/Slide90.JPG","That was a dep.","","",""
"image-keyboard-response","277","309663","0.0-7.0-0.10","FL","xu8vthdm2k","1418","798","0","1","0","5f85eb74d99dd00d735c107f","","null","","","","","","","learning/Slide91.JPG","null","","","","","",""
"html-keyboard-response","278","310816","0.0-7.0-1.10","FL","xu8vthdm2k","1418","798","0","1","0","5f85eb74d99dd00d735c107f","","null","","","learningBlock2","","","","That was a wug.","null","","","","","",""
"html-keyboard-response","279","311818","0.0-7.0-2.10","FL","xu8vthdm2k","1418","798","0","1","0","5f85eb74d99dd00d735c107f","","null","","","learningBlock2","","","","<div style=""font-size:60px;""> </div>","null","FL","learning/Slide91.JPG","That was a wug.","","",""
"image-keyboard-response","280","311997","0.0-7.0-0.11","FL","xu8vthdm2k","1418","798","0","1","0","5f85eb74d99dd00d735c107f","","null","","","","","","","learning/Slide92.JPG","null","","","","","",""
"html-keyboard-response","281","313150","0.0-7.0-1.11","FL","xu8vthdm2k","1418","798","0","1","0","5f85eb74d99dd00d735c107f","","null","","","learningBlock2","","","","That was a tob.","null","","","","","",""
"html-keyboard-response","282","314152","0.0-7.0-2.11","FL","xu8vthdm2k","1418","798","0","1","0","5f85eb74d99dd00d735c107f","","null","","","learningBlock2","","","","<div style=""font-size:60px;""> </div>","null","FL","learning/Slide92.JPG","That was a tob.","","",""
"image-keyboard-response","283","314328","0.0-7.0-0.12","FL","xu8vthdm2k","1418","798","0","1","0","5f85eb74d99dd00d735c107f","","null","","","","","","","learning/Slide93.JPG","null","","","","","",""
"html-keyboard-response","284","315482","0.0-7.0-1.12","FL","xu8vthdm2k","1418","798","0","1","0","5f85eb74d99dd00d735c107f","","null","","","learningBlock2","","","","That was a bim.","null","","","","","",""
"html-keyboard-response","285","316484","0.0-7.0-2.12","FL","xu8vthdm2k","1418","798","0","1","0","5f85eb74d99dd00d735c107f","","null","","","learningBlock2","","","","<div style=""font-size:60px;""> </div>","null","FL","learning/Slide93.JPG","That was a bim.","","",""
"image-keyboard-response","286","316661","0.0-7.0-0.13","FL","xu8vthdm2k","1418","798","0","1","0","5f85eb74d99dd00d735c107f","","null","","","","","","","learning/Slide94.JPG","null","","","","","",""
"html-keyboard-response","287","317813","0.0-7.0-1.13","FL","xu8vthdm2k","1418","798","0","1","0","5f85eb74d99dd00d735c107f","","null","","","learningBlock2","","","","That was a tob.","null","","","","","",""
"html-keyboard-response","288","318815","0.0-7.0-2.13","FL","xu8vthdm2k","1418","798","0","1","0","5f85eb74d99dd00d735c107f","","null","","","learningBlock2","","","","<div style=""font-size:60px;""> </div>","null","FL","learning/Slide94.JPG","That was a tob.","","",""
"image-keyboard-response","289","318991","0.0-7.0-0.14","FL","xu8vthdm2k","1418","798","0","1","0","5f85eb74d99dd00d735c107f","","null","","","","","","","learning/Slide95.JPG","null","","","","","",""
"html-keyboard-response","290","320145","0.0-7.0-1.14","FL","xu8vthdm2k","1418","798","0","1","0","5f85eb74d99dd00d735c107f","","null","","","learningBlock2","","","","That was a wug.","null","","","","","",""
"html-keyboard-response","291","321147","0.0-7.0-2.14","FL","xu8vthdm2k","1418","798","0","1","0","5f85eb74d99dd00d735c107f","","null","","","learningBlock2","","","","<div style=""font-size:60px;""> </div>","null","FL","learning/Slide95.JPG","That was a wug.","","",""
"image-keyboard-response","292","321323","0.0-7.0-0.15","FL","xu8vthdm2k","1418","798","0","1","0","5f85eb74d99dd00d735c107f","","null","","","","","","","learning/Slide96.JPG","null","","","","","",""
"html-keyboard-response","293","322477","0.0-7.0-1.15","FL","xu8vthdm2k","1418","798","0","1","0","5f85eb74d99dd00d735c107f","","null","","","learningBlock2","","","","That was a tob.","null","","","","","",""
"html-keyboard-response","294","323479","0.0-7.0-2.15","FL","xu8vthdm2k","1418","798","0","1","0","5f85eb74d99dd00d735c107f","","null","","","learningBlock2","","","","<div style=""font-size:60px;""> </div>","null","FL","learning/Slide96.JPG","That was a tob.","","",""
"image-keyboard-response","295","323657","0.0-7.0-0.16","FL","xu8vthdm2k","1418","798","0","1","0","5f85eb74d99dd00d735c107f","","null","","","","","","","learning/Slide97.JPG","null","","","","","",""
"html-keyboard-response","296","324809","0.0-7.0-1.16","FL","xu8vthdm2k","1418","798","0","1","0","5f85eb74d99dd00d735c107f","","null","","","learningBlock2","","","","That was a dep.","null","","","","","",""
"html-keyboard-response","297","325811","0.0-7.0-2.16","FL","xu8vthdm2k","1418","798","0","1","0","5f85eb74d99dd00d735c107f","","null","","","learningBlock2","","","","<div style=""font-size:60px;""> </div>","null","FL","learning/Slide97.JPG","That was a dep.","","",""
"image-keyboard-response","298","325989","0.0-7.0-0.17","FL","xu8vthdm2k","1418","798","0","1","0","5f85eb74d99dd00d735c107f","","null","","","","","","","learning/Slide98.JPG","null","","","","","",""
"html-keyboard-response","299","327141","0.0-7.0-1.17","FL","xu8vthdm2k","1418","798","0","1","0","5f85eb74d99dd00d735c107f","","null","","","learningBlock2","","","","That was a bim.","null","","","","","",""
"html-keyboard-response","300","328142","0.0-7.0-2.17","FL","xu8vthdm2k","1418","798","0","1","0","5f85eb74d99dd00d735c107f","","null","","","learningBlock2","","","","<div style=""font-size:60px;""> </div>","null","FL","learning/Slide98.JPG","That was a bim.","","",""
"image-keyboard-response","301","328319","0.0-7.0-0.18","FL","xu8vthdm2k","1418","798","0","1","0","5f85eb74d99dd00d735c107f","","null","","","","","","","learning/Slide99.JPG","null","","","","","",""
"html-keyboard-response","302","329472","0.0-7.0-1.18","FL","xu8vthdm2k","1418","798","0","1","0","5f85eb74d99dd00d735c107f","","null","","","learningBlock2","","","","That was a dep.","null","","","","","",""
"html-keyboard-response","303","330475","0.0-7.0-2.18","FL","xu8vthdm2k","1418","798","0","1","0","5f85eb74d99dd00d735c107f","","null","","","learningBlock2","","","","<div style=""font-size:60px;""> </div>","null","FL","learning/Slide99.JPG","That was a dep.","","",""
"image-keyboard-response","304","330652","0.0-7.0-0.19","FL","xu8vthdm2k","1418","798","0","1","0","5f85eb74d99dd00d735c107f","","null","","","","","","","learning/Slide100.JPG","null","","","","","",""
"html-keyboard-response","305","331804","0.0-7.0-1.19","FL","xu8vthdm2k","1418","798","0","1","0","5f85eb74d99dd00d735c107f","","null","","","learningBlock2","","","","That was a bim.","null","","","","","",""
"html-keyboard-response","306","332805","0.0-7.0-2.19","FL","xu8vthdm2k","1418","798","0","1","0","5f85eb74d99dd00d735c107f","","null","","","learningBlock2","","","","<div style=""font-size:60px;""> </div>","null","FL","learning/Slide100.JPG","That was a bim.","","",""
"image-keyboard-response","307","332982","0.0-7.0-0.20","FL","xu8vthdm2k","1418","798","0","1","0","5f85eb74d99dd00d735c107f","","null","","","","","","","learning/Slide101.JPG","null","","","","","",""
"html-keyboard-response","308","334135","0.0-7.0-1.20","FL","xu8vthdm2k","1418","798","0","1","0","5f85eb74d99dd00d735c107f","","null","","","learningBlock2","","","","That was a tob.","null","","","","","",""
"html-keyboard-response","309","335137","0.0-7.0-2.20","FL","xu8vthdm2k","1418","798","0","1","0","5f85eb74d99dd00d735c107f","","null","","","learningBlock2","","","","<div style=""font-size:60px;""> </div>","null","FL","learning/Slide101.JPG","That was a tob.","","",""
"image-keyboard-response","310","335318","0.0-7.0-0.21","FL","xu8vthdm2k","1418","798","0","1","0","5f85eb74d99dd00d735c107f","","null","","","","","","","learning/Slide102.JPG","null","","","","","",""
"html-keyboard-response","311","336470","0.0-7.0-1.21","FL","xu8vthdm2k","1418","798","0","1","0","5f85eb74d99dd00d735c107f","","null","","","learningBlock2","","","","That was a bim.","null","","","","","",""
"html-keyboard-response","312","337472","0.0-7.0-2.21","FL","xu8vthdm2k","1418","798","0","1","0","5f85eb74d99dd00d735c107f","","null","","","learningBlock2","","","","<div style=""font-size:60px;""> </div>","null","FL","learning/Slide102.JPG","That was a bim.","","",""
"image-keyboard-response","313","337649","0.0-7.0-0.22","FL","xu8vthdm2k","1418","798","0","1","0","5f85eb74d99dd00d735c107f","","null","","","","","","","learning/Slide103.JPG","null","","","","","",""
"html-keyboard-response","314","338803","0.0-7.0-1.22","FL","xu8vthdm2k","1418","798","0","1","0","5f85eb74d99dd00d735c107f","","null","","","learningBlock2","","","","That was a dep.","null","","","","","",""
"html-keyboard-response","315","339805","0.0-7.0-2.22","FL","xu8vthdm2k","1418","798","0","1","0","5f85eb74d99dd00d735c107f","","null","","","learningBlock2","","","","<div style=""font-size:60px;""> </div>","null","FL","learning/Slide103.JPG","That was a dep.","","",""
"image-keyboard-response","316","339983","0.0-7.0-0.23","FL","xu8vthdm2k","1418","798","0","1","0","5f85eb74d99dd00d735c107f","","null","","","","","","","learning/Slide104.JPG","null","","","","","",""
"html-keyboard-response","317","341138","0.0-7.0-1.23","FL","xu8vthdm2k","1418","798","0","1","0","5f85eb74d99dd00d735c107f","","null","","","learningBlock2","","","","That was a tob.","null","","","","","",""
"html-keyboard-response","318","342141","0.0-7.0-2.23","FL","xu8vthdm2k","1418","798","0","1","0","5f85eb74d99dd00d735c107f","","null","","","learningBlock2","","","","<div style=""font-size:60px;""> </div>","null","FL","learning/Slide104.JPG","That was a tob.","","",""
"image-keyboard-response","319","342317","0.0-7.0-0.24","FL","xu8vthdm2k","1418","798","0","1","0","5f85eb74d99dd00d735c107f","","null","","","","","","","learning/Slide105.JPG","null","","","","","",""
"html-keyboard-response","320","343470","0.0-7.0-1.24","FL","xu8vthdm2k","1418","798","0","1","0","5f85eb74d99dd00d735c107f","","null","","","learningBlock2","","","","That was a dep.","null","","","","","",""
"html-keyboard-response","321","344472","0.0-7.0-2.24","FL","xu8vthdm2k","1418","798","0","1","0","5f85eb74d99dd00d735c107f","","null","","","learningBlock2","","","","<div style=""font-size:60px;""> </div>","null","FL","learning/Slide105.JPG","That was a dep.","","",""
"image-keyboard-response","322","344650","0.0-7.0-0.25","FL","xu8vthdm2k","1418","798","0","1","0","5f85eb74d99dd00d735c107f","","null","","","","","","","learning/Slide106.JPG","null","","","","","",""
"html-keyboard-response","323","345803","0.0-7.0-1.25","FL","xu8vthdm2k","1418","798","0","1","0","5f85eb74d99dd00d735c107f","","null","","","learningBlock2","","","","That was a wug.","null","","","","","",""
"html-keyboard-response","324","346806","0.0-7.0-2.25","FL","xu8vthdm2k","1418","798","0","1","0","5f85eb74d99dd00d735c107f","","null","","","learningBlock2","","","","<div style=""font-size:60px;""> </div>","null","FL","learning/Slide106.JPG","That was a wug.","","",""
"image-keyboard-response","325","346983","0.0-7.0-0.26","FL","xu8vthdm2k","1418","798","0","1","0","5f85eb74d99dd00d735c107f","","null","","","","","","","learning/Slide107.JPG","null","","","","","",""
"html-keyboard-response","326","348135","0.0-7.0-1.26","FL","xu8vthdm2k","1418","798","0","1","0","5f85eb74d99dd00d735c107f","","null","","","learningBlock2","","","","That was a bim.","null","","","","","",""
"html-keyboard-response","327","349137","0.0-7.0-2.26","FL","xu8vthdm2k","1418","798","0","1","0","5f85eb74d99dd00d735c107f","","null","","","learningBlock2","","","","<div style=""font-size:60px;""> </div>","null","FL","learning/Slide107.JPG","That was a bim.","","",""
"image-keyboard-response","328","349314","0.0-7.0-0.27","FL","xu8vthdm2k","1418","798","0","1","0","5f85eb74d99dd00d735c107f","","null","","","","","","","learning/Slide108.JPG","null","","","","","",""
"html-keyboard-response","329","350467","0.0-7.0-1.27","FL","xu8vthdm2k","1418","798","0","1","0","5f85eb74d99dd00d735c107f","","null","","","learningBlock2","","","","That was a dep.","null","","","","","",""
"html-keyboard-response","330","351479","0.0-7.0-2.27","FL","xu8vthdm2k","1418","798","0","1","0","5f85eb74d99dd00d735c107f","","null","","","learningBlock2","","","","<div style=""font-size:60px;""> </div>","null","FL","learning/Slide108.JPG","That was a dep.","","",""
"image-keyboard-response","331","351657","0.0-7.0-0.28","FL","xu8vthdm2k","1418","798","0","1","0","5f85eb74d99dd00d735c107f","","null","","","","","","","learning/Slide109.JPG","null","","","","","",""
"html-keyboard-response","332","352808","0.0-7.0-1.28","FL","xu8vthdm2k","1418","798","0","1","0","5f85eb74d99dd00d735c107f","","null","","","learningBlock2","","","","That was a wug.","null","","","","","",""
"html-keyboard-response","333","353811","0.0-7.0-2.28","FL","xu8vthdm2k","1418","798","0","1","0","5f85eb74d99dd00d735c107f","","null","","","learningBlock2","","","","<div style=""font-size:60px;""> </div>","null","FL","learning/Slide109.JPG","That was a wug.","","",""
"image-keyboard-response","334","353989","0.0-7.0-0.29","FL","xu8vthdm2k","1418","798","0","1","0","5f85eb74d99dd00d735c107f","","null","","","","","","","learning/Slide110.JPG","null","","","","","",""
"html-keyboard-response","335","355141","0.0-7.0-1.29","FL","xu8vthdm2k","1418","798","0","1","0","5f85eb74d99dd00d735c107f","","null","","","learningBlock2","","","","That was a bim.","null","","","","","",""
"html-keyboard-response","336","356142","0.0-7.0-2.29","FL","xu8vthdm2k","1418","798","0","1","0","5f85eb74d99dd00d735c107f","","null","","","learningBlock2","","","","<div style=""font-size:60px;""> </div>","null","FL","learning/Slide110.JPG","That was a bim.","","",""
"image-keyboard-response","337","356320","0.0-7.0-0.30","FL","xu8vthdm2k","1418","798","0","1","0","5f85eb74d99dd00d735c107f","","null","","","","","","","learning/Slide111.JPG","null","","","","","",""
"html-keyboard-response","338","357472","0.0-7.0-1.30","FL","xu8vthdm2k","1418","798","0","1","0","5f85eb74d99dd00d735c107f","","null","","","learningBlock2","","","","That was a tob.","null","","","","","",""
"html-keyboard-response","339","358474","0.0-7.0-2.30","FL","xu8vthdm2k","1418","798","0","1","0","5f85eb74d99dd00d735c107f","","null","","","learningBlock2","","","","<div style=""font-size:60px;""> </div>","null","FL","learning/Slide111.JPG","That was a tob.","","",""
"image-keyboard-response","340","358650","0.0-7.0-0.31","FL","xu8vthdm2k","1418","798","0","1","0","5f85eb74d99dd00d735c107f","","null","","","","","","","learning/Slide112.JPG","null","","","","","",""
"html-keyboard-response","341","359803","0.0-7.0-1.31","FL","xu8vthdm2k","1418","798","0","1","0","5f85eb74d99dd00d735c107f","","null","","","learningBlock2","","","","That was a wug.","null","","","","","",""
"html-keyboard-response","342","360805","0.0-7.0-2.31","FL","xu8vthdm2k","1418","798","0","1","0","5f85eb74d99dd00d735c107f","","null","","","learningBlock2","","","","<div style=""font-size:60px;""> </div>","null","FL","learning/Slide112.JPG","That was a wug.","","",""
"image-keyboard-response","343","360982","0.0-7.0-0.32","FL","xu8vthdm2k","1418","798","0","1","0","5f85eb74d99dd00d735c107f","","null","","","","","","","learning/Slide113.JPG","null","","","","","",""
"html-keyboard-response","344","362136","0.0-7.0-1.32","FL","xu8vthdm2k","1418","798","0","1","0","5f85eb74d99dd00d735c107f","","null","","","learningBlock2","","","","That was a tob.","null","","","","","",""
"html-keyboard-response","345","363137","0.0-7.0-2.32","FL","xu8vthdm2k","1418","798","0","1","0","5f85eb74d99dd00d735c107f","","null","","","learningBlock2","","","","<div style=""font-size:60px;""> </div>","null","FL","learning/Slide113.JPG","That was a tob.","","",""
"image-keyboard-response","346","363314","0.0-7.0-0.33","FL","xu8vthdm2k","1418","798","0","1","0","5f85eb74d99dd00d735c107f","","null","","","","","","","learning/Slide114.JPG","null","","","","","",""
"html-keyboard-response","347","364469","0.0-7.0-1.33","FL","xu8vthdm2k","1418","798","0","1","0","5f85eb74d99dd00d735c107f","","null","","","learningBlock2","","","","That was a wug.","null","","","","","",""
"html-keyboard-response","348","365470","0.0-7.0-2.33","FL","xu8vthdm2k","1418","798","0","1","0","5f85eb74d99dd00d735c107f","","null","","","learningBlock2","","","","<div style=""font-size:60px;""> </div>","null","FL","learning/Slide114.JPG","That was a wug.","","",""
"image-keyboard-response","349","365649","0.0-7.0-0.34","FL","xu8vthdm2k","1418","798","0","1","0","5f85eb74d99dd00d735c107f","","null","","","","","","","learning/Slide115.JPG","null","","","","","",""
"html-keyboard-response","350","366801","0.0-7.0-1.34","FL","xu8vthdm2k","1418","798","0","1","0","5f85eb74d99dd00d735c107f","","null","","","learningBlock2","","","","That was a bim.","null","","","","","",""
"html-keyboard-response","351","367803","0.0-7.0-2.34","FL","xu8vthdm2k","1418","798","0","1","0","5f85eb74d99dd00d735c107f","","null","","","learningBlock2","","","","<div style=""font-size:60px;""> </div>","null","FL","learning/Slide115.JPG","That was a bim.","","",""
"image-keyboard-response","352","367980","0.0-7.0-0.35","FL","xu8vthdm2k","1418","798","0","1","0","5f85eb74d99dd00d735c107f","","null","","","","","","","learning/Slide116.JPG","null","","","","","",""
"html-keyboard-response","353","369131","0.0-7.0-1.35","FL","xu8vthdm2k","1418","798","0","1","0","5f85eb74d99dd00d735c107f","","null","","","learningBlock2","","","","That was a dep.","null","","","","","",""
"html-keyboard-response","354","370134","0.0-7.0-2.35","FL","xu8vthdm2k","1418","798","0","1","0","5f85eb74d99dd00d735c107f","","null","","","learningBlock2","","","","<div style=""font-size:60px;""> </div>","null","FL","learning/Slide116.JPG","That was a dep.","","",""
"image-keyboard-response","355","370310","0.0-7.0-0.36","FL","xu8vthdm2k","1418","798","0","1","0","5f85eb74d99dd00d735c107f","","null","","","","","","","learning/Slide117.JPG","null","","","","","",""
"html-keyboard-response","356","371462","0.0-7.0-1.36","FL","xu8vthdm2k","1418","798","0","1","0","5f85eb74d99dd00d735c107f","","null","","","learningBlock2","","","","That was a tob.","null","","","","","",""
"html-keyboard-response","357","372464","0.0-7.0-2.36","FL","xu8vthdm2k","1418","798","0","1","0","5f85eb74d99dd00d735c107f","","null","","","learningBlock2","","","","<div style=""font-size:60px;""> </div>","null","FL","learning/Slide117.JPG","That was a tob.","","",""
"image-keyboard-response","358","372642","0.0-7.0-0.37","FL","xu8vthdm2k","1418","798","0","1","0","5f85eb74d99dd00d735c107f","","null","","","","","","","learning/Slide118.JPG","null","","","","","",""
"html-keyboard-response","359","373795","0.0-7.0-1.37","FL","xu8vthdm2k","1418","798","0","1","0","5f85eb74d99dd00d735c107f","","null","","","learningBlock2","","","","That was a dep.","null","","","","","",""
"html-keyboard-response","360","374797","0.0-7.0-2.37","FL","xu8vthdm2k","1418","798","0","1","0","5f85eb74d99dd00d735c107f","","null","","","learningBlock2","","","","<div style=""font-size:60px;""> </div>","null","FL","learning/Slide118.JPG","That was a dep.","","",""
"image-keyboard-response","361","374973","0.0-7.0-0.38","FL","xu8vthdm2k","1418","798","0","1","0","5f85eb74d99dd00d735c107f","","null","","","","","","","learning/Slide119.JPG","null","","","","","",""
"html-keyboard-response","362","376128","0.0-7.0-1.38","FL","xu8vthdm2k","1418","798","0","1","0","5f85eb74d99dd00d735c107f","","null","","","learningBlock2","","","","That was a wug.","null","","","","","",""
"html-keyboard-response","363","377130","0.0-7.0-2.38","FL","xu8vthdm2k","1418","798","0","1","0","5f85eb74d99dd00d735c107f","","null","","","learningBlock2","","","","<div style=""font-size:60px;""> </div>","null","FL","learning/Slide119.JPG","That was a wug.","","",""
"image-keyboard-response","364","377307","0.0-7.0-0.39","FL","xu8vthdm2k","1418","798","0","1","0","5f85eb74d99dd00d735c107f","","null","","","","","","","learning/Slide120.JPG","null","","","","","",""
"html-keyboard-response","365","378460","0.0-7.0-1.39","FL","xu8vthdm2k","1418","798","0","1","0","5f85eb74d99dd00d735c107f","","null","","","learningBlock2","","","","That was a dep.","null","","","","","",""
"html-keyboard-response","366","379462","0.0-7.0-2.39","FL","xu8vthdm2k","1418","798","0","1","0","5f85eb74d99dd00d735c107f","","null","","","learningBlock2","","","","<div style=""font-size:60px;""> </div>","null","FL","learning/Slide120.JPG","That was a dep.","","",""
"image-keyboard-response","367","379640","0.0-7.0-0.40","FL","xu8vthdm2k","1418","798","0","1","0","5f85eb74d99dd00d735c107f","","null","","","","","","","learning/Slide121.JPG","null","","","","","",""
"html-keyboard-response","368","380791","0.0-7.0-1.40","FL","xu8vthdm2k","1418","798","0","1","0","5f85eb74d99dd00d735c107f","","null","","","learningBlock2","","","","That was a bim.","null","","","","","",""
"html-keyboard-response","369","381793","0.0-7.0-2.40","FL","xu8vthdm2k","1418","798","0","1","0","5f85eb74d99dd00d735c107f","","null","","","learningBlock2","","","","<div style=""font-size:60px;""> </div>","null","FL","learning/Slide121.JPG","That was a bim.","","",""
"image-keyboard-response","370","381969","0.0-7.0-0.41","FL","xu8vthdm2k","1418","798","0","1","0","5f85eb74d99dd00d735c107f","","null","","","","","","","learning/Slide122.JPG","null","","","","","",""
"html-keyboard-response","371","383122","0.0-7.0-1.41","FL","xu8vthdm2k","1418","798","0","1","0","5f85eb74d99dd00d735c107f","","null","","","learningBlock2","","","","That was a wug.","null","","","","","",""
"html-keyboard-response","372","384124","0.0-7.0-2.41","FL","xu8vthdm2k","1418","798","0","1","0","5f85eb74d99dd00d735c107f","","null","","","learningBlock2","","","","<div style=""font-size:60px;""> </div>","null","FL","learning/Slide122.JPG","That was a wug.","","",""
"image-keyboard-response","373","384300","0.0-7.0-0.42","FL","xu8vthdm2k","1418","798","0","1","0","5f85eb74d99dd00d735c107f","","null","","","","","","","learning/Slide123.JPG","null","","","","","",""
"html-keyboard-response","374","385453","0.0-7.0-1.42","FL","xu8vthdm2k","1418","798","0","1","0","5f85eb74d99dd00d735c107f","","null","","","learningBlock2","","","","That was a bim.","null","","","","","",""
"html-keyboard-response","375","386454","0.0-7.0-2.42","FL","xu8vthdm2k","1418","798","0","1","0","5f85eb74d99dd00d735c107f","","null","","","learningBlock2","","","","<div style=""font-size:60px;""> </div>","null","FL","learning/Slide123.JPG","That was a bim.","","",""
"image-keyboard-response","376","386633","0.0-7.0-0.43","FL","xu8vthdm2k","1418","798","0","1","0","5f85eb74d99dd00d735c107f","","null","","","","","","","learning/Slide124.JPG","null","","","","","",""
"html-keyboard-response","377","387787","0.0-7.0-1.43","FL","xu8vthdm2k","1418","798","0","1","0","5f85eb74d99dd00d735c107f","","null","","","learningBlock2","","","","That was a tob.","null","","","","","",""
"html-keyboard-response","378","388790","0.0-7.0-2.43","FL","xu8vthdm2k","1418","798","0","1","0","5f85eb74d99dd00d735c107f","","null","","","learningBlock2","","","","<div style=""font-size:60px;""> </div>","null","FL","learning/Slide124.JPG","That was a tob.","","",""
"image-keyboard-response","379","388967","0.0-7.0-0.44","FL","xu8vthdm2k","1418","798","0","1","0","5f85eb74d99dd00d735c107f","","null","","","","","","","learning/Slide125.JPG","null","","","","","",""
"html-keyboard-response","380","390121","0.0-7.0-1.44","FL","xu8vthdm2k","1418","798","0","1","0","5f85eb74d99dd00d735c107f","","null","","","learningBlock2","","","","That was a bim.","null","","","","","",""
"html-keyboard-response","381","391122","0.0-7.0-2.44","FL","xu8vthdm2k","1418","798","0","1","0","5f85eb74d99dd00d735c107f","","null","","","learningBlock2","","","","<div style=""font-size:60px;""> </div>","null","FL","learning/Slide125.JPG","That was a bim.","","",""
"image-keyboard-response","382","391298","0.0-7.0-0.45","FL","xu8vthdm2k","1418","798","0","1","0","5f85eb74d99dd00d735c107f","","null","","","","","","","learning/Slide126.JPG","null","","","","","",""
"html-keyboard-response","383","392452","0.0-7.0-1.45","FL","xu8vthdm2k","1418","798","0","1","0","5f85eb74d99dd00d735c107f","","null","","","learningBlock2","","","","That was a tob.","null","","","","","",""
"html-keyboard-response","384","393455","0.0-7.0-2.45","FL","xu8vthdm2k","1418","798","0","1","0","5f85eb74d99dd00d735c107f","","null","","","learningBlock2","","","","<div style=""font-size:60px;""> </div>","null","FL","learning/Slide126.JPG","That was a tob.","","",""
"image-keyboard-response","385","393632","0.0-7.0-0.46","FL","xu8vthdm2k","1418","798","0","1","0","5f85eb74d99dd00d735c107f","","null","","","","","","","learning/Slide127.JPG","null","","","","","",""
"html-keyboard-response","386","394788","0.0-7.0-1.46","FL","xu8vthdm2k","1418","798","0","1","0","5f85eb74d99dd00d735c107f","","null","","","learningBlock2","","","","That was a dep.","null","","","","","",""
"html-keyboard-response","387","395790","0.0-7.0-2.46","FL","xu8vthdm2k","1418","798","0","1","0","5f85eb74d99dd00d735c107f","","null","","","learningBlock2","","","","<div style=""font-size:60px;""> </div>","null","FL","learning/Slide127.JPG","That was a dep.","","",""
"image-keyboard-response","388","395966","0.0-7.0-0.47","FL","xu8vthdm2k","1418","798","0","1","0","5f85eb74d99dd00d735c107f","","null","","","","","","","learning/Slide128.JPG","null","","","","","",""
"html-keyboard-response","389","397119","0.0-7.0-1.47","FL","xu8vthdm2k","1418","798","0","1","0","5f85eb74d99dd00d735c107f","","null","","","learningBlock2","","","","That was a wug.","null","","","","","",""
"html-keyboard-response","390","398121","0.0-7.0-2.47","FL","xu8vthdm2k","1418","798","0","1","0","5f85eb74d99dd00d735c107f","","null","","","learningBlock2","","","","<div style=""font-size:60px;""> </div>","null","FL","learning/Slide128.JPG","That was a wug.","","",""
"image-keyboard-response","391","398297","0.0-7.0-0.48","FL","xu8vthdm2k","1418","798","0","1","0","5f85eb74d99dd00d735c107f","","null","","","","","","","learning/Slide129.JPG","null","","","","","",""
"html-keyboard-response","392","399449","0.0-7.0-1.48","FL","xu8vthdm2k","1418","798","0","1","0","5f85eb74d99dd00d735c107f","","null","","","learningBlock2","","","","That was a tob.","null","","","","","",""
"html-keyboard-response","393","400450","0.0-7.0-2.48","FL","xu8vthdm2k","1418","798","0","1","0","5f85eb74d99dd00d735c107f","","null","","","learningBlock2","","","","<div style=""font-size:60px;""> </div>","null","FL","learning/Slide129.JPG","That was a tob.","","",""
"image-keyboard-response","394","400634","0.0-7.0-0.49","FL","xu8vthdm2k","1418","798","0","1","0","5f85eb74d99dd00d735c107f","","null","","","","","","","learning/Slide130.JPG","null","","","","","",""
"html-keyboard-response","395","401789","0.0-7.0-1.49","FL","xu8vthdm2k","1418","798","0","1","0","5f85eb74d99dd00d735c107f","","null","","","learningBlock2","","","","That was a wug.","null","","","","","",""
"html-keyboard-response","396","402789","0.0-7.0-2.49","FL","xu8vthdm2k","1418","798","0","1","0","5f85eb74d99dd00d735c107f","","null","","","learningBlock2","","","","<div style=""font-size:60px;""> </div>","null","FL","learning/Slide130.JPG","That was a wug.","","",""
"image-keyboard-response","397","402966","0.0-7.0-0.50","FL","xu8vthdm2k","1418","798","0","1","0","5f85eb74d99dd00d735c107f","","null","","","","","","","learning/Slide131.JPG","null","","","","","",""
"html-keyboard-response","398","404118","0.0-7.0-1.50","FL","xu8vthdm2k","1418","798","0","1","0","5f85eb74d99dd00d735c107f","","null","","","learningBlock2","","","","That was a bim.","null","","","","","",""
"html-keyboard-response","399","405120","0.0-7.0-2.50","FL","xu8vthdm2k","1418","798","0","1","0","5f85eb74d99dd00d735c107f","","null","","","learningBlock2","","","","<div style=""font-size:60px;""> </div>","null","FL","learning/Slide131.JPG","That was a bim.","","",""
"image-keyboard-response","400","405301","0.0-7.0-0.51","FL","xu8vthdm2k","1418","798","0","1","0","5f85eb74d99dd00d735c107f","","null","","","","","","","learning/Slide132.JPG","null","","","","","",""
"html-keyboard-response","401","406454","0.0-7.0-1.51","FL","xu8vthdm2k","1418","798","0","1","0","5f85eb74d99dd00d735c107f","","null","","","learningBlock2","","","","That was a dep.","null","","","","","",""
"html-keyboard-response","402","407456","0.0-7.0-2.51","FL","xu8vthdm2k","1418","798","0","1","0","5f85eb74d99dd00d735c107f","","null","","","learningBlock2","","","","<div style=""font-size:60px;""> </div>","null","FL","learning/Slide132.JPG","That was a dep.","","",""
"image-keyboard-response","403","407633","0.0-7.0-0.52","FL","xu8vthdm2k","1418","798","0","1","0","5f85eb74d99dd00d735c107f","","null","","","","","","","learning/Slide133.JPG","null","","","","","",""
"html-keyboard-response","404","408789","0.0-7.0-1.52","FL","xu8vthdm2k","1418","798","0","1","0","5f85eb74d99dd00d735c107f","","null","","","learningBlock2","","","","That was a tob.","null","","","","","",""
"html-keyboard-response","405","409792","0.0-7.0-2.52","FL","xu8vthdm2k","1418","798","0","1","0","5f85eb74d99dd00d735c107f","","null","","","learningBlock2","","","","<div style=""font-size:60px;""> </div>","null","FL","learning/Slide133.JPG","That was a tob.","","",""
"image-keyboard-response","406","409969","0.0-7.0-0.53","FL","xu8vthdm2k","1418","798","0","1","0","5f85eb74d99dd00d735c107f","","null","","","","","","","learning/Slide134.JPG","null","","","","","",""
"html-keyboard-response","407","411122","0.0-7.0-1.53","FL","xu8vthdm2k","1418","798","0","1","0","5f85eb74d99dd00d735c107f","","null","","","learningBlock2","","","","That was a dep.","null","","","","","",""
"html-keyboard-response","408","412123","0.0-7.0-2.53","FL","xu8vthdm2k","1418","798","0","1","0","5f85eb74d99dd00d735c107f","","null","","","learningBlock2","","","","<div style=""font-size:60px;""> </div>","null","FL","learning/Slide134.JPG","That was a dep.","","",""
"image-keyboard-response","409","412300","0.0-7.0-0.54","FL","xu8vthdm2k","1418","798","0","1","0","5f85eb74d99dd00d735c107f","","null","","","","","","","learning/Slide135.JPG","null","","","","","",""
"html-keyboard-response","410","413453","0.0-7.0-1.54","FL","xu8vthdm2k","1418","798","0","1","0","5f85eb74d99dd00d735c107f","","null","","","learningBlock2","","","","That was a tob.","null","","","","","",""
"html-keyboard-response","411","414455","0.0-7.0-2.54","FL","xu8vthdm2k","1418","798","0","1","0","5f85eb74d99dd00d735c107f","","null","","","learningBlock2","","","","<div style=""font-size:60px;""> </div>","null","FL","learning/Slide135.JPG","That was a tob.","","",""
"image-keyboard-response","412","414632","0.0-7.0-0.55","FL","xu8vthdm2k","1418","798","0","1","0","5f85eb74d99dd00d735c107f","","null","","","","","","","learning/Slide136.JPG","null","","","","","",""
"html-keyboard-response","413","415784","0.0-7.0-1.55","FL","xu8vthdm2k","1418","798","0","1","0","5f85eb74d99dd00d735c107f","","null","","","learningBlock2","","","","That was a wug.","null","","","","","",""
"html-keyboard-response","414","416785","0.0-7.0-2.55","FL","xu8vthdm2k","1418","798","0","1","0","5f85eb74d99dd00d735c107f","","null","","","learningBlock2","","","","<div style=""font-size:60px;""> </div>","null","FL","learning/Slide136.JPG","That was a wug.","","",""
"image-keyboard-response","415","416968","0.0-7.0-0.56","FL","xu8vthdm2k","1418","798","0","1","0","5f85eb74d99dd00d735c107f","","null","","","","","","","learning/Slide137.JPG","null","","","","","",""
"html-keyboard-response","416","418122","0.0-7.0-1.56","FL","xu8vthdm2k","1418","798","0","1","0","5f85eb74d99dd00d735c107f","","null","","","learningBlock2","","","","That was a tob.","null","","","","","",""
"html-keyboard-response","417","419123","0.0-7.0-2.56","FL","xu8vthdm2k","1418","798","0","1","0","5f85eb74d99dd00d735c107f","","null","","","learningBlock2","","","","<div style=""font-size:60px;""> </div>","null","FL","learning/Slide137.JPG","That was a tob.","","",""
"image-keyboard-response","418","419300","0.0-7.0-0.57","FL","xu8vthdm2k","1418","798","0","1","0","5f85eb74d99dd00d735c107f","","null","","","","","","","learning/Slide138.JPG","null","","","","","",""
"html-keyboard-response","419","420453","0.0-7.0-1.57","FL","xu8vthdm2k","1418","798","0","1","0","5f85eb74d99dd00d735c107f","","null","","","learningBlock2","","","","That was a bim.","null","","","","","",""
"html-keyboard-response","420","421454","0.0-7.0-2.57","FL","xu8vthdm2k","1418","798","0","1","0","5f85eb74d99dd00d735c107f","","null","","","learningBlock2","","","","<div style=""font-size:60px;""> </div>","null","FL","learning/Slide138.JPG","That was a bim.","","",""
"image-keyboard-response","421","421632","0.0-7.0-0.58","FL","xu8vthdm2k","1418","798","0","1","0","5f85eb74d99dd00d735c107f","","null","","","","","","","learning/Slide139.JPG","null","","","","","",""
"html-keyboard-response","422","422788","0.0-7.0-1.58","FL","xu8vthdm2k","1418","798","0","1","0","5f85eb74d99dd00d735c107f","","null","","","learningBlock2","","","","That was a wug.","null","","","","","",""
"html-keyboard-response","423","423790","0.0-7.0-2.58","FL","xu8vthdm2k","1418","798","0","1","0","5f85eb74d99dd00d735c107f","","null","","","learningBlock2","","","","<div style=""font-size:60px;""> </div>","null","FL","learning/Slide139.JPG","That was a wug.","","",""
"image-keyboard-response","424","423971","0.0-7.0-0.59","FL","xu8vthdm2k","1418","798","0","1","0","5f85eb74d99dd00d735c107f","","null","","","","","","","learning/Slide140.JPG","null","","","","","",""
"html-keyboard-response","425","425125","0.0-7.0-1.59","FL","xu8vthdm2k","1418","798","0","1","0","5f85eb74d99dd00d735c107f","","null","","","learningBlock2","","","","That was a dep.","null","","","","","",""
"html-keyboard-response","426","426127","0.0-7.0-2.59","FL","xu8vthdm2k","1418","798","0","1","0","5f85eb74d99dd00d735c107f","","null","","","learningBlock2","","","","<div style=""font-size:60px;""> </div>","null","FL","learning/Slide140.JPG","That was a dep.","","",""
"image-keyboard-response","427","426305","0.0-7.0-0.60","FL","xu8vthdm2k","1418","798","0","1","0","5f85eb74d99dd00d735c107f","","null","","","","","","","learning/Slide141.JPG","null","","","","","",""
"html-keyboard-response","428","427459","0.0-7.0-1.60","FL","xu8vthdm2k","1418","798","0","1","0","5f85eb74d99dd00d735c107f","","null","","","learningBlock2","","","","That was a tob.","null","","","","","",""
"html-keyboard-response","429","428460","0.0-7.0-2.60","FL","xu8vthdm2k","1418","798","0","1","0","5f85eb74d99dd00d735c107f","","null","","","learningBlock2","","","","<div style=""font-size:60px;""> </div>","null","FL","learning/Slide141.JPG","That was a tob.","","",""
"image-keyboard-response","430","428637","0.0-7.0-0.61","FL","xu8vthdm2k","1418","798","0","1","0","5f85eb74d99dd00d735c107f","","null","","","","","","","learning/Slide142.JPG","null","","","","","",""
"html-keyboard-response","431","429791","0.0-7.0-1.61","FL","xu8vthdm2k","1418","798","0","1","0","5f85eb74d99dd00d735c107f","","null","","","learningBlock2","","","","That was a wug.","null","","","","","",""
"html-keyboard-response","432","430792","0.0-7.0-2.61","FL","xu8vthdm2k","1418","798","0","1","0","5f85eb74d99dd00d735c107f","","null","","","learningBlock2","","","","<div style=""font-size:60px;""> </div>","null","FL","learning/Slide142.JPG","That was a wug.","","",""
"image-keyboard-response","433","430972","0.0-7.0-0.62","FL","xu8vthdm2k","1418","798","0","1","0","5f85eb74d99dd00d735c107f","","null","","","","","","","learning/Slide143.JPG","null","","","","","",""
"html-keyboard-response","434","432125","0.0-7.0-1.62","FL","xu8vthdm2k","1418","798","0","1","0","5f85eb74d99dd00d735c107f","","null","","","learningBlock2","","","","That was a bim.","null","","","","","",""
"html-keyboard-response","435","433128","0.0-7.0-2.62","FL","xu8vthdm2k","1418","798","0","1","0","5f85eb74d99dd00d735c107f","","null","","","learningBlock2","","","","<div style=""font-size:60px;""> </div>","null","FL","learning/Slide143.JPG","That was a bim.","","",""
"image-keyboard-response","436","433305","0.0-7.0-0.63","FL","xu8vthdm2k","1418","798","0","1","0","5f85eb74d99dd00d735c107f","","null","","","","","","","learning/Slide144.JPG","null","","","","","",""
