"trial_type","trial_index","time_elapsed","internal_node_id","condition","subject","screen_width","screen_height","attention","distraction","conscientious","prolificID","success","rt","url","view_history","test_part","final_height_px","final_width_px","scale_factor","stimulus","key_press","learningType","presentedImage","presentedLabel","button_pressed","response","responses"
"pavlovia","0","139","0.0-0.0","FL","pusqm5jv5t","2560","1440","0","1","0","5f477a85d919ec03cadfaddd","","","","","","","","","","","","","","","",""
"fullscreen","1","16149","0.0-1.0","FL","pusqm5jv5t","2560","1440","0","1","0","5f477a85d919ec03cadfaddd","true","","","","","","","","","","","","","","",""
"external-html","2","34254","0.0-2.0-0.0","FL","pusqm5jv5t","2560","1440","0","1","0","5f477a85d919ec03cadfaddd","","18031.915000000026","text/information_english.html","","","","","","","","","","","","",""
"external-html","3","58927","0.0-2.0-1.0","FL","pusqm5jv5t","2560","1440","0","1","0","5f477a85d919ec03cadfaddd","","24597.775000000183","text/consent_english.html","","","","","","","","","","","","",""
"instructions","4","134048","0.0-3.0","FL","pusqm5jv5t","2560","1440","0","1","0","5f477a85d919ec03cadfaddd","","NA","","[{""page_index"":0,""viewing_time"":5074.619999999864},{""page_index"":1,""viewing_time"":70039.7899999998}]","instructions","","","","","","","","","","",""
"resize","5","254025","0.0-4.0","FL","pusqm5jv5t","2560","1440","0","1","0","5f477a85d919ec03cadfaddd","","","","","","","1742","11.06031746031746","","","","","","","",""
"image-keyboard-response","6","254208","0.0-5.0-0.0","FL","pusqm5jv5t","2560","1440","0","1","0","5f477a85d919ec03cadfaddd","","null","","","","","","","learning/Slide1.JPG","null","","","","","",""
"html-keyboard-response","7","255361","0.0-5.0-1.0","FL","pusqm5jv5t","2560","1440","0","1","0","5f477a85d919ec03cadfaddd","","null","","","learningBlock1","","","","That was a tob.","null","","","","","",""
"html-keyboard-response","8","256364","0.0-5.0-2.0","FL","pusqm5jv5t","2560","1440","0","1","0","5f477a85d919ec03cadfaddd","","null","","","learningBlock1","","","","<div style=""font-size:60px;""> </div>","null","FL","learning/Slide1.JPG","That was a tob.","","",""
"image-keyboard-response","9","256543","0.0-5.0-0.1","FL","pusqm5jv5t","2560","1440","0","1","0","5f477a85d919ec03cadfaddd","","null","","","","","","","learning/Slide2.JPG","null","","","","","",""
"html-keyboard-response","10","257699","0.0-5.0-1.1","FL","pusqm5jv5t","2560","1440","0","1","0","5f477a85d919ec03cadfaddd","","null","","","learningBlock1","","","","That was a wug.","null","","","","","",""
"html-keyboard-response","11","258701","0.0-5.0-2.1","FL","pusqm5jv5t","2560","1440","0","1","0","5f477a85d919ec03cadfaddd","","null","","","learningBlock1","","","","<div style=""font-size:60px;""> </div>","null","FL","learning/Slide2.JPG","That was a wug.","","",""
"image-keyboard-response","12","258882","0.0-5.0-0.2","FL","pusqm5jv5t","2560","1440","0","1","0","5f477a85d919ec03cadfaddd","","null","","","","","","","learning/Slide3.JPG","null","","","","","",""
"html-keyboard-response","13","260034","0.0-5.0-1.2","FL","pusqm5jv5t","2560","1440","0","1","0","5f477a85d919ec03cadfaddd","","null","","","learningBlock1","","","","That was a bim.","null","","","","","",""
"html-keyboard-response","14","261035","0.0-5.0-2.2","FL","pusqm5jv5t","2560","1440","0","1","0","5f477a85d919ec03cadfaddd","","null","","","learningBlock1","","","","<div style=""font-size:60px;""> </div>","null","FL","learning/Slide3.JPG","That was a bim.","","",""
"image-keyboard-response","15","261213","0.0-5.0-0.3","FL","pusqm5jv5t","2560","1440","0","1","0","5f477a85d919ec03cadfaddd","","null","","","","","","","learning/Slide4.JPG","null","","","","","",""
"html-keyboard-response","16","262366","0.0-5.0-1.3","FL","pusqm5jv5t","2560","1440","0","1","0","5f477a85d919ec03cadfaddd","","null","","","learningBlock1","","","","That was a dep.","null","","","","","",""
"html-keyboard-response","17","263370","0.0-5.0-2.3","FL","pusqm5jv5t","2560","1440","0","1","0","5f477a85d919ec03cadfaddd","","null","","","learningBlock1","","","","<div style=""font-size:60px;""> </div>","null","FL","learning/Slide4.JPG","That was a dep.","","",""
"image-keyboard-response","18","263551","0.0-5.0-0.4","FL","pusqm5jv5t","2560","1440","0","1","0","5f477a85d919ec03cadfaddd","","null","","","","","","","learning/Slide5.JPG","null","","","","","",""
"html-keyboard-response","19","264704","0.0-5.0-1.4","FL","pusqm5jv5t","2560","1440","0","1","0","5f477a85d919ec03cadfaddd","","null","","","learningBlock1","","","","That was a wug.","null","","","","","",""
"html-keyboard-response","20","265705","0.0-5.0-2.4","FL","pusqm5jv5t","2560","1440","0","1","0","5f477a85d919ec03cadfaddd","","null","","","learningBlock1","","","","<div style=""font-size:60px;""> </div>","null","FL","learning/Slide5.JPG","That was a wug.","","",""
"image-keyboard-response","21","265886","0.0-5.0-0.5","FL","pusqm5jv5t","2560","1440","0","1","0","5f477a85d919ec03cadfaddd","","null","","","","","","","learning/Slide6.JPG","null","","","","","",""
"html-keyboard-response","22","267044","0.0-5.0-1.5","FL","pusqm5jv5t","2560","1440","0","1","0","5f477a85d919ec03cadfaddd","","null","","","learningBlock1","","","","That was a dep.","null","","","","","",""
"html-keyboard-response","23","268046","0.0-5.0-2.5","FL","pusqm5jv5t","2560","1440","0","1","0","5f477a85d919ec03cadfaddd","","null","","","learningBlock1","","","","<div style=""font-size:60px;""> </div>","null","FL","learning/Slide6.JPG","That was a dep.","","",""
"image-keyboard-response","24","268224","0.0-5.0-0.6","FL","pusqm5jv5t","2560","1440","0","1","0","5f477a85d919ec03cadfaddd","","null","","","","","","","learning/Slide7.JPG","null","","","","","",""
"html-keyboard-response","25","269385","0.0-5.0-1.6","FL","pusqm5jv5t","2560","1440","0","1","0","5f477a85d919ec03cadfaddd","","null","","","learningBlock1","","","","That was a wug.","null","","","","","",""
"html-keyboard-response","26","270391","0.0-5.0-2.6","FL","pusqm5jv5t","2560","1440","0","1","0","5f477a85d919ec03cadfaddd","","null","","","learningBlock1","","","","<div style=""font-size:60px;""> </div>","null","FL","learning/Slide7.JPG","That was a wug.","","",""
"image-keyboard-response","27","270572","0.0-5.0-0.7","FL","pusqm5jv5t","2560","1440","0","1","0","5f477a85d919ec03cadfaddd","","null","","","","","","","learning/Slide8.JPG","null","","","","","",""
"html-keyboard-response","28","271727","0.0-5.0-1.7","FL","pusqm5jv5t","2560","1440","0","1","0","5f477a85d919ec03cadfaddd","","null","","","learningBlock1","","","","That was a bim.","null","","","","","",""
"html-keyboard-response","29","272732","0.0-5.0-2.7","FL","pusqm5jv5t","2560","1440","0","1","0","5f477a85d919ec03cadfaddd","","null","","","learningBlock1","","","","<div style=""font-size:60px;""> </div>","null","FL","learning/Slide8.JPG","That was a bim.","","",""
"image-keyboard-response","30","272911","0.0-5.0-0.8","FL","pusqm5jv5t","2560","1440","0","1","0","5f477a85d919ec03cadfaddd","","null","","","","","","","learning/Slide9.JPG","null","","","","","",""
"html-keyboard-response","31","274071","0.0-5.0-1.8","FL","pusqm5jv5t","2560","1440","0","1","0","5f477a85d919ec03cadfaddd","","null","","","learningBlock1","","","","That was a wug.","null","","","","","",""
"html-keyboard-response","32","275076","0.0-5.0-2.8","FL","pusqm5jv5t","2560","1440","0","1","0","5f477a85d919ec03cadfaddd","","null","","","learningBlock1","","","","<div style=""font-size:60px;""> </div>","null","FL","learning/Slide9.JPG","That was a wug.","","",""
"image-keyboard-response","33","275258","0.0-5.0-0.9","FL","pusqm5jv5t","2560","1440","0","1","0","5f477a85d919ec03cadfaddd","","null","","","","","","","learning/Slide10.JPG","null","","","","","",""
"html-keyboard-response","34","276414","0.0-5.0-1.9","FL","pusqm5jv5t","2560","1440","0","1","0","5f477a85d919ec03cadfaddd","","null","","","learningBlock1","","","","That was a dep.","null","","","","","",""
"html-keyboard-response","35","277421","0.0-5.0-2.9","FL","pusqm5jv5t","2560","1440","0","1","0","5f477a85d919ec03cadfaddd","","null","","","learningBlock1","","","","<div style=""font-size:60px;""> </div>","null","FL","learning/Slide10.JPG","That was a dep.","","",""
"image-keyboard-response","36","277598","0.0-5.0-0.10","FL","pusqm5jv5t","2560","1440","0","1","0","5f477a85d919ec03cadfaddd","","null","","","","","","","learning/Slide11.JPG","null","","","","","",""
"html-keyboard-response","37","278759","0.0-5.0-1.10","FL","pusqm5jv5t","2560","1440","0","1","0","5f477a85d919ec03cadfaddd","","null","","","learningBlock1","","","","That was a tob.","null","","","","","",""
"html-keyboard-response","38","279763","0.0-5.0-2.10","FL","pusqm5jv5t","2560","1440","0","1","0","5f477a85d919ec03cadfaddd","","null","","","learningBlock1","","","","<div style=""font-size:60px;""> </div>","null","FL","learning/Slide11.JPG","That was a tob.","","",""
"image-keyboard-response","39","279944","0.0-5.0-0.11","FL","pusqm5jv5t","2560","1440","0","1","0","5f477a85d919ec03cadfaddd","","null","","","","","","","learning/Slide12.JPG","null","","","","","",""
"html-keyboard-response","40","281101","0.0-5.0-1.11","FL","pusqm5jv5t","2560","1440","0","1","0","5f477a85d919ec03cadfaddd","","null","","","learningBlock1","","","","That was a dep.","null","","","","","",""
"html-keyboard-response","41","282105","0.0-5.0-2.11","FL","pusqm5jv5t","2560","1440","0","1","0","5f477a85d919ec03cadfaddd","","null","","","learningBlock1","","","","<div style=""font-size:60px;""> </div>","null","FL","learning/Slide12.JPG","That was a dep.","","",""
"image-keyboard-response","42","282285","0.0-5.0-0.12","FL","pusqm5jv5t","2560","1440","0","1","0","5f477a85d919ec03cadfaddd","","null","","","","","","","learning/Slide13.JPG","null","","","","","",""
"html-keyboard-response","43","283446","0.0-5.0-1.12","FL","pusqm5jv5t","2560","1440","0","1","0","5f477a85d919ec03cadfaddd","","null","","","learningBlock1","","","","That was a bim.","null","","","","","",""
"html-keyboard-response","44","284450","0.0-5.0-2.12","FL","pusqm5jv5t","2560","1440","0","1","0","5f477a85d919ec03cadfaddd","","null","","","learningBlock1","","","","<div style=""font-size:60px;""> </div>","null","FL","learning/Slide13.JPG","That was a bim.","","",""
"image-keyboard-response","45","284627","0.0-5.0-0.13","FL","pusqm5jv5t","2560","1440","0","1","0","5f477a85d919ec03cadfaddd","","null","","","","","","","learning/Slide14.JPG","null","","","","","",""
"html-keyboard-response","46","285784","0.0-5.0-1.13","FL","pusqm5jv5t","2560","1440","0","1","0","5f477a85d919ec03cadfaddd","","null","","","learningBlock1","","","","That was a wug.","null","","","","","",""
"html-keyboard-response","47","286788","0.0-5.0-2.13","FL","pusqm5jv5t","2560","1440","0","1","0","5f477a85d919ec03cadfaddd","","null","","","learningBlock1","","","","<div style=""font-size:60px;""> </div>","null","FL","learning/Slide14.JPG","That was a wug.","","",""
"image-keyboard-response","48","286969","0.0-5.0-0.14","FL","pusqm5jv5t","2560","1440","0","1","0","5f477a85d919ec03cadfaddd","","null","","","","","","","learning/Slide15.JPG","null","","","","","",""
"html-keyboard-response","49","288123","0.0-5.0-1.14","FL","pusqm5jv5t","2560","1440","0","1","0","5f477a85d919ec03cadfaddd","","null","","","learningBlock1","","","","That was a tob.","null","","","","","",""
"html-keyboard-response","50","289124","0.0-5.0-2.14","FL","pusqm5jv5t","2560","1440","0","1","0","5f477a85d919ec03cadfaddd","","null","","","learningBlock1","","","","<div style=""font-size:60px;""> </div>","null","FL","learning/Slide15.JPG","That was a tob.","","",""
"image-keyboard-response","51","289305","0.0-5.0-0.15","FL","pusqm5jv5t","2560","1440","0","1","0","5f477a85d919ec03cadfaddd","","null","","","","","","","learning/Slide16.JPG","null","","","","","",""
"html-keyboard-response","52","290458","0.0-5.0-1.15","FL","pusqm5jv5t","2560","1440","0","1","0","5f477a85d919ec03cadfaddd","","null","","","learningBlock1","","","","That was a dep.","null","","","","","",""
"html-keyboard-response","53","291464","0.0-5.0-2.15","FL","pusqm5jv5t","2560","1440","0","1","0","5f477a85d919ec03cadfaddd","","null","","","learningBlock1","","","","<div style=""font-size:60px;""> </div>","null","FL","learning/Slide16.JPG","That was a dep.","","",""
"image-keyboard-response","54","291643","0.0-5.0-0.16","FL","pusqm5jv5t","2560","1440","0","1","0","5f477a85d919ec03cadfaddd","","null","","","","","","","learning/Slide17.JPG","null","","","","","",""
"html-keyboard-response","55","292801","0.0-5.0-1.16","FL","pusqm5jv5t","2560","1440","0","1","0","5f477a85d919ec03cadfaddd","","null","","","learningBlock1","","","","That was a bim.","null","","","","","",""
"html-keyboard-response","56","293807","0.0-5.0-2.16","FL","pusqm5jv5t","2560","1440","0","1","0","5f477a85d919ec03cadfaddd","","null","","","learningBlock1","","","","<div style=""font-size:60px;""> </div>","null","FL","learning/Slide17.JPG","That was a bim.","","",""
"image-keyboard-response","57","293984","0.0-5.0-0.17","FL","pusqm5jv5t","2560","1440","0","1","0","5f477a85d919ec03cadfaddd","","null","","","","","","","learning/Slide18.JPG","null","","","","","",""
"html-keyboard-response","58","295141","0.0-5.0-1.17","FL","pusqm5jv5t","2560","1440","0","1","0","5f477a85d919ec03cadfaddd","","null","","","learningBlock1","","","","That was a tob.","null","","","","","",""
"html-keyboard-response","59","296146","0.0-5.0-2.17","FL","pusqm5jv5t","2560","1440","0","1","0","5f477a85d919ec03cadfaddd","","null","","","learningBlock1","","","","<div style=""font-size:60px;""> </div>","null","FL","learning/Slide18.JPG","That was a tob.","","",""
"image-keyboard-response","60","296327","0.0-5.0-0.18","FL","pusqm5jv5t","2560","1440","0","1","0","5f477a85d919ec03cadfaddd","","null","","","","","","","learning/Slide19.JPG","null","","","","","",""
"html-keyboard-response","61","297481","0.0-5.0-1.18","FL","pusqm5jv5t","2560","1440","0","1","0","5f477a85d919ec03cadfaddd","","null","","","learningBlock1","","","","That was a wug.","null","","","","","",""
"html-keyboard-response","62","298486","0.0-5.0-2.18","FL","pusqm5jv5t","2560","1440","0","1","0","5f477a85d919ec03cadfaddd","","null","","","learningBlock1","","","","<div style=""font-size:60px;""> </div>","null","FL","learning/Slide19.JPG","That was a wug.","","",""
"image-keyboard-response","63","298665","0.0-5.0-0.19","FL","pusqm5jv5t","2560","1440","0","1","0","5f477a85d919ec03cadfaddd","","null","","","","","","","learning/Slide20.JPG","null","","","","","",""
"html-keyboard-response","64","299821","0.0-5.0-1.19","FL","pusqm5jv5t","2560","1440","0","1","0","5f477a85d919ec03cadfaddd","","null","","","learningBlock1","","","","That was a bim.","null","","","","","",""
"html-keyboard-response","65","300825","0.0-5.0-2.19","FL","pusqm5jv5t","2560","1440","0","1","0","5f477a85d919ec03cadfaddd","","null","","","learningBlock1","","","","<div style=""font-size:60px;""> </div>","null","FL","learning/Slide20.JPG","That was a bim.","","",""
"image-keyboard-response","66","301006","0.0-5.0-0.20","FL","pusqm5jv5t","2560","1440","0","1","0","5f477a85d919ec03cadfaddd","","null","","","","","","","learning/Slide21.JPG","null","","","","","",""
"html-keyboard-response","67","302163","0.0-5.0-1.20","FL","pusqm5jv5t","2560","1440","0","1","0","5f477a85d919ec03cadfaddd","","null","","","learningBlock1","","","","That was a dep.","null","","","","","",""
"html-keyboard-response","68","303167","0.0-5.0-2.20","FL","pusqm5jv5t","2560","1440","0","1","0","5f477a85d919ec03cadfaddd","","null","","","learningBlock1","","","","<div style=""font-size:60px;""> </div>","null","FL","learning/Slide21.JPG","That was a dep.","","",""
"image-keyboard-response","69","303350","0.0-5.0-0.21","FL","pusqm5jv5t","2560","1440","0","1","0","5f477a85d919ec03cadfaddd","","null","","","","","","","learning/Slide22.JPG","null","","","","","",""
"html-keyboard-response","70","304508","0.0-5.0-1.21","FL","pusqm5jv5t","2560","1440","0","1","0","5f477a85d919ec03cadfaddd","","null","","","learningBlock1","","","","That was a bim.","null","","","","","",""
"html-keyboard-response","71","305512","0.0-5.0-2.21","FL","pusqm5jv5t","2560","1440","0","1","0","5f477a85d919ec03cadfaddd","","null","","","learningBlock1","","","","<div style=""font-size:60px;""> </div>","null","FL","learning/Slide22.JPG","That was a bim.","","",""
"image-keyboard-response","72","305693","0.0-5.0-0.22","FL","pusqm5jv5t","2560","1440","0","1","0","5f477a85d919ec03cadfaddd","","null","","","","","","","learning/Slide23.JPG","null","","","","","",""
"html-keyboard-response","73","306854","0.0-5.0-1.22","FL","pusqm5jv5t","2560","1440","0","1","0","5f477a85d919ec03cadfaddd","","null","","","learningBlock1","","","","That was a tob.","null","","","","","",""
"html-keyboard-response","74","307858","0.0-5.0-2.22","FL","pusqm5jv5t","2560","1440","0","1","0","5f477a85d919ec03cadfaddd","","null","","","learningBlock1","","","","<div style=""font-size:60px;""> </div>","null","FL","learning/Slide23.JPG","That was a tob.","","",""
"image-keyboard-response","75","308039","0.0-5.0-0.23","FL","pusqm5jv5t","2560","1440","0","1","0","5f477a85d919ec03cadfaddd","","null","","","","","","","learning/Slide24.JPG","null","","","","","",""
"html-keyboard-response","76","309200","0.0-5.0-1.23","FL","pusqm5jv5t","2560","1440","0","1","0","5f477a85d919ec03cadfaddd","","null","","","learningBlock1","","","","That was a wug.","null","","","","","",""
"html-keyboard-response","77","310201","0.0-5.0-2.23","FL","pusqm5jv5t","2560","1440","0","1","0","5f477a85d919ec03cadfaddd","","null","","","learningBlock1","","","","<div style=""font-size:60px;""> </div>","null","FL","learning/Slide24.JPG","That was a wug.","","",""
"image-keyboard-response","78","310382","0.0-5.0-0.24","FL","pusqm5jv5t","2560","1440","0","1","0","5f477a85d919ec03cadfaddd","","null","","","","","","","learning/Slide25.JPG","null","","","","","",""
"html-keyboard-response","79","311540","0.0-5.0-1.24","FL","pusqm5jv5t","2560","1440","0","1","0","5f477a85d919ec03cadfaddd","","null","","","learningBlock1","","","","That was a dep.","null","","","","","",""
"html-keyboard-response","80","312543","0.0-5.0-2.24","FL","pusqm5jv5t","2560","1440","0","1","0","5f477a85d919ec03cadfaddd","","null","","","learningBlock1","","","","<div style=""font-size:60px;""> </div>","null","FL","learning/Slide25.JPG","That was a dep.","","",""
"image-keyboard-response","81","312723","0.0-5.0-0.25","FL","pusqm5jv5t","2560","1440","0","1","0","5f477a85d919ec03cadfaddd","","null","","","","","","","learning/Slide26.JPG","null","","","","","",""
"html-keyboard-response","82","313877","0.0-5.0-1.25","FL","pusqm5jv5t","2560","1440","0","1","0","5f477a85d919ec03cadfaddd","","null","","","learningBlock1","","","","That was a wug.","null","","","","","",""
"html-keyboard-response","83","314878","0.0-5.0-2.25","FL","pusqm5jv5t","2560","1440","0","1","0","5f477a85d919ec03cadfaddd","","null","","","learningBlock1","","","","<div style=""font-size:60px;""> </div>","null","FL","learning/Slide26.JPG","That was a wug.","","",""
"image-keyboard-response","84","315058","0.0-5.0-0.26","FL","pusqm5jv5t","2560","1440","0","1","0","5f477a85d919ec03cadfaddd","","null","","","","","","","learning/Slide27.JPG","null","","","","","",""
"html-keyboard-response","85","316212","0.0-5.0-1.26","FL","pusqm5jv5t","2560","1440","0","1","0","5f477a85d919ec03cadfaddd","","null","","","learningBlock1","","","","That was a bim.","null","","","","","",""
"html-keyboard-response","86","317218","0.0-5.0-2.26","FL","pusqm5jv5t","2560","1440","0","1","0","5f477a85d919ec03cadfaddd","","null","","","learningBlock1","","","","<div style=""font-size:60px;""> </div>","null","FL","learning/Slide27.JPG","That was a bim.","","",""
"image-keyboard-response","87","317396","0.0-5.0-0.27","FL","pusqm5jv5t","2560","1440","0","1","0","5f477a85d919ec03cadfaddd","","null","","","","","","","learning/Slide28.JPG","null","","","","","",""
"html-keyboard-response","88","318553","0.0-5.0-1.27","FL","pusqm5jv5t","2560","1440","0","1","0","5f477a85d919ec03cadfaddd","","null","","","learningBlock1","","","","That was a dep.","null","","","","","",""
"html-keyboard-response","89","319558","0.0-5.0-2.27","FL","pusqm5jv5t","2560","1440","0","1","0","5f477a85d919ec03cadfaddd","","null","","","learningBlock1","","","","<div style=""font-size:60px;""> </div>","null","FL","learning/Slide28.JPG","That was a dep.","","",""
"image-keyboard-response","90","319740","0.0-5.0-0.28","FL","pusqm5jv5t","2560","1440","0","1","0","5f477a85d919ec03cadfaddd","","null","","","","","","","learning/Slide29.JPG","null","","","","","",""
"html-keyboard-response","91","320899","0.0-5.0-1.28","FL","pusqm5jv5t","2560","1440","0","1","0","5f477a85d919ec03cadfaddd","","null","","","learningBlock1","","","","That was a tob.","null","","","","","",""
"html-keyboard-response","92","321900","0.0-5.0-2.28","FL","pusqm5jv5t","2560","1440","0","1","0","5f477a85d919ec03cadfaddd","","null","","","learningBlock1","","","","<div style=""font-size:60px;""> </div>","null","FL","learning/Slide29.JPG","That was a tob.","","",""
"image-keyboard-response","93","322081","0.0-5.0-0.29","FL","pusqm5jv5t","2560","1440","0","1","0","5f477a85d919ec03cadfaddd","","null","","","","","","","learning/Slide30.JPG","null","","","","","",""
"html-keyboard-response","94","323234","0.0-5.0-1.29","FL","pusqm5jv5t","2560","1440","0","1","0","5f477a85d919ec03cadfaddd","","null","","","learningBlock1","","","","That was a dep.","null","","","","","",""
"html-keyboard-response","95","324238","0.0-5.0-2.29","FL","pusqm5jv5t","2560","1440","0","1","0","5f477a85d919ec03cadfaddd","","null","","","learningBlock1","","","","<div style=""font-size:60px;""> </div>","null","FL","learning/Slide30.JPG","That was a dep.","","",""
"image-keyboard-response","96","324419","0.0-5.0-0.30","FL","pusqm5jv5t","2560","1440","0","1","0","5f477a85d919ec03cadfaddd","","null","","","","","","","learning/Slide31.JPG","null","","","","","",""
"html-keyboard-response","97","325575","0.0-5.0-1.30","FL","pusqm5jv5t","2560","1440","0","1","0","5f477a85d919ec03cadfaddd","","null","","","learningBlock1","","","","That was a wug.","null","","","","","",""
"html-keyboard-response","98","326579","0.0-5.0-2.30","FL","pusqm5jv5t","2560","1440","0","1","0","5f477a85d919ec03cadfaddd","","null","","","learningBlock1","","","","<div style=""font-size:60px;""> </div>","null","FL","learning/Slide31.JPG","That was a wug.","","",""
"image-keyboard-response","99","326756","0.0-5.0-0.31","FL","pusqm5jv5t","2560","1440","0","1","0","5f477a85d919ec03cadfaddd","","null","","","","","","","learning/Slide32.JPG","null","","","","","",""
"html-keyboard-response","100","327917","0.0-5.0-1.31","FL","pusqm5jv5t","2560","1440","0","1","0","5f477a85d919ec03cadfaddd","","null","","","learningBlock1","","","","That was a tob.","null","","","","","",""
"html-keyboard-response","101","328921","0.0-5.0-2.31","FL","pusqm5jv5t","2560","1440","0","1","0","5f477a85d919ec03cadfaddd","","null","","","learningBlock1","","","","<div style=""font-size:60px;""> </div>","null","FL","learning/Slide32.JPG","That was a tob.","","",""
"image-keyboard-response","102","329102","0.0-5.0-0.32","FL","pusqm5jv5t","2560","1440","0","1","0","5f477a85d919ec03cadfaddd","","null","","","","","","","learning/Slide33.JPG","null","","","","","",""
"html-keyboard-response","103","330257","0.0-5.0-1.32","FL","pusqm5jv5t","2560","1440","0","1","0","5f477a85d919ec03cadfaddd","","null","","","learningBlock1","","","","That was a bim.","null","","","","","",""
"html-keyboard-response","104","331258","0.0-5.0-2.32","FL","pusqm5jv5t","2560","1440","0","1","0","5f477a85d919ec03cadfaddd","","null","","","learningBlock1","","","","<div style=""font-size:60px;""> </div>","null","FL","learning/Slide33.JPG","That was a bim.","","",""
"image-keyboard-response","105","331439","0.0-5.0-0.33","FL","pusqm5jv5t","2560","1440","0","1","0","5f477a85d919ec03cadfaddd","","null","","","","","","","learning/Slide34.JPG","null","","","","","",""
"html-keyboard-response","106","332592","0.0-5.0-1.33","FL","pusqm5jv5t","2560","1440","0","1","0","5f477a85d919ec03cadfaddd","","null","","","learningBlock1","","","","That was a tob.","null","","","","","",""
"html-keyboard-response","107","333596","0.0-5.0-2.33","FL","pusqm5jv5t","2560","1440","0","1","0","5f477a85d919ec03cadfaddd","","null","","","learningBlock1","","","","<div style=""font-size:60px;""> </div>","null","FL","learning/Slide34.JPG","That was a tob.","","",""
"image-keyboard-response","108","333776","0.0-5.0-0.34","FL","pusqm5jv5t","2560","1440","0","1","0","5f477a85d919ec03cadfaddd","","null","","","","","","","learning/Slide35.JPG","null","","","","","",""
"html-keyboard-response","109","334937","0.0-5.0-1.34","FL","pusqm5jv5t","2560","1440","0","1","0","5f477a85d919ec03cadfaddd","","null","","","learningBlock1","","","","That was a bim.","null","","","","","",""
"html-keyboard-response","110","335943","0.0-5.0-2.34","FL","pusqm5jv5t","2560","1440","0","1","0","5f477a85d919ec03cadfaddd","","null","","","learningBlock1","","","","<div style=""font-size:60px;""> </div>","null","FL","learning/Slide35.JPG","That was a bim.","","",""
"image-keyboard-response","111","336125","0.0-5.0-0.35","FL","pusqm5jv5t","2560","1440","0","1","0","5f477a85d919ec03cadfaddd","","null","","","","","","","learning/Slide36.JPG","null","","","","","",""
"html-keyboard-response","112","337279","0.0-5.0-1.35","FL","pusqm5jv5t","2560","1440","0","1","0","5f477a85d919ec03cadfaddd","","null","","","learningBlock1","","","","That was a dep.","null","","","","","",""
"html-keyboard-response","113","338280","0.0-5.0-2.35","FL","pusqm5jv5t","2560","1440","0","1","0","5f477a85d919ec03cadfaddd","","null","","","learningBlock1","","","","<div style=""font-size:60px;""> </div>","null","FL","learning/Slide36.JPG","That was a dep.","","",""
"image-keyboard-response","114","338461","0.0-5.0-0.36","FL","pusqm5jv5t","2560","1440","0","1","0","5f477a85d919ec03cadfaddd","","null","","","","","","","learning/Slide37.JPG","null","","","","","",""
"html-keyboard-response","115","339614","0.0-5.0-1.36","FL","pusqm5jv5t","2560","1440","0","1","0","5f477a85d919ec03cadfaddd","","null","","","learningBlock1","","","","That was a tob.","null","","","","","",""
"html-keyboard-response","116","340615","0.0-5.0-2.36","FL","pusqm5jv5t","2560","1440","0","1","0","5f477a85d919ec03cadfaddd","","null","","","learningBlock1","","","","<div style=""font-size:60px;""> </div>","null","FL","learning/Slide37.JPG","That was a tob.","","",""
"image-keyboard-response","117","340796","0.0-5.0-0.37","FL","pusqm5jv5t","2560","1440","0","1","0","5f477a85d919ec03cadfaddd","","null","","","","","","","learning/Slide38.JPG","null","","","","","",""
"html-keyboard-response","118","341949","0.0-5.0-1.37","FL","pusqm5jv5t","2560","1440","0","1","0","5f477a85d919ec03cadfaddd","","null","","","learningBlock1","","","","That was a wug.","null","","","","","",""
"html-keyboard-response","119","342954","0.0-5.0-2.37","FL","pusqm5jv5t","2560","1440","0","1","0","5f477a85d919ec03cadfaddd","","null","","","learningBlock1","","","","<div style=""font-size:60px;""> </div>","null","FL","learning/Slide38.JPG","That was a wug.","","",""
"image-keyboard-response","120","343134","0.0-5.0-0.38","FL","pusqm5jv5t","2560","1440","0","1","0","5f477a85d919ec03cadfaddd","","null","","","","","","","learning/Slide39.JPG","null","","","","","",""
"html-keyboard-response","121","344295","0.0-5.0-1.38","FL","pusqm5jv5t","2560","1440","0","1","0","5f477a85d919ec03cadfaddd","","null","","","learningBlock1","","","","That was a bim.","null","","","","","",""
"html-keyboard-response","122","345300","0.0-5.0-2.38","FL","pusqm5jv5t","2560","1440","0","1","0","5f477a85d919ec03cadfaddd","","null","","","learningBlock1","","","","<div style=""font-size:60px;""> </div>","null","FL","learning/Slide39.JPG","That was a bim.","","",""
"image-keyboard-response","123","345476","0.0-5.0-0.39","FL","pusqm5jv5t","2560","1440","0","1","0","5f477a85d919ec03cadfaddd","","null","","","","","","","learning/Slide40.JPG","null","","","","","",""
"html-keyboard-response","124","346629","0.0-5.0-1.39","FL","pusqm5jv5t","2560","1440","0","1","0","5f477a85d919ec03cadfaddd","","null","","","learningBlock1","","","","That was a tob.","null","","","","","",""
"html-keyboard-response","125","347633","0.0-5.0-2.39","FL","pusqm5jv5t","2560","1440","0","1","0","5f477a85d919ec03cadfaddd","","null","","","learningBlock1","","","","<div style=""font-size:60px;""> </div>","null","FL","learning/Slide40.JPG","That was a tob.","","",""
"image-keyboard-response","126","347812","0.0-5.0-0.40","FL","pusqm5jv5t","2560","1440","0","1","0","5f477a85d919ec03cadfaddd","","null","","","","","","","learning/Slide41.JPG","null","","","","","",""
"html-keyboard-response","127","348972","0.0-5.0-1.40","FL","pusqm5jv5t","2560","1440","0","1","0","5f477a85d919ec03cadfaddd","","null","","","learningBlock1","","","","That was a bim.","null","","","","","",""
"html-keyboard-response","128","349976","0.0-5.0-2.40","FL","pusqm5jv5t","2560","1440","0","1","0","5f477a85d919ec03cadfaddd","","null","","","learningBlock1","","","","<div style=""font-size:60px;""> </div>","null","FL","learning/Slide41.JPG","That was a bim.","","",""
"image-keyboard-response","129","350152","0.0-5.0-0.41","FL","pusqm5jv5t","2560","1440","0","1","0","5f477a85d919ec03cadfaddd","","null","","","","","","","learning/Slide42.JPG","null","","","","","",""
"html-keyboard-response","130","351304","0.0-5.0-1.41","FL","pusqm5jv5t","2560","1440","0","1","0","5f477a85d919ec03cadfaddd","","null","","","learningBlock1","","","","That was a dep.","null","","","","","",""
"html-keyboard-response","131","352308","0.0-5.0-2.41","FL","pusqm5jv5t","2560","1440","0","1","0","5f477a85d919ec03cadfaddd","","null","","","learningBlock1","","","","<div style=""font-size:60px;""> </div>","null","FL","learning/Slide42.JPG","That was a dep.","","",""
"image-keyboard-response","132","352487","0.0-5.0-0.42","FL","pusqm5jv5t","2560","1440","0","1","0","5f477a85d919ec03cadfaddd","","null","","","","","","","learning/Slide43.JPG","null","","","","","",""
"html-keyboard-response","133","353642","0.0-5.0-1.42","FL","pusqm5jv5t","2560","1440","0","1","0","5f477a85d919ec03cadfaddd","","null","","","learningBlock1","","","","That was a wug.","null","","","","","",""
"html-keyboard-response","134","354643","0.0-5.0-2.42","FL","pusqm5jv5t","2560","1440","0","1","0","5f477a85d919ec03cadfaddd","","null","","","learningBlock1","","","","<div style=""font-size:60px;""> </div>","null","FL","learning/Slide43.JPG","That was a wug.","","",""
"image-keyboard-response","135","354824","0.0-5.0-0.43","FL","pusqm5jv5t","2560","1440","0","1","0","5f477a85d919ec03cadfaddd","","null","","","","","","","learning/Slide44.JPG","null","","","","","",""
"html-keyboard-response","136","355977","0.0-5.0-1.43","FL","pusqm5jv5t","2560","1440","0","1","0","5f477a85d919ec03cadfaddd","","null","","","learningBlock1","","","","That was a bim.","null","","","","","",""
"html-keyboard-response","137","356978","0.0-5.0-2.43","FL","pusqm5jv5t","2560","1440","0","1","0","5f477a85d919ec03cadfaddd","","null","","","learningBlock1","","","","<div style=""font-size:60px;""> </div>","null","FL","learning/Slide44.JPG","That was a bim.","","",""
"image-keyboard-response","138","357159","0.0-5.0-0.44","FL","pusqm5jv5t","2560","1440","0","1","0","5f477a85d919ec03cadfaddd","","null","","","","","","","learning/Slide45.JPG","null","","","","","",""
"html-keyboard-response","139","358313","0.0-5.0-1.44","FL","pusqm5jv5t","2560","1440","0","1","0","5f477a85d919ec03cadfaddd","","null","","","learningBlock1","","","","That was a wug.","null","","","","","",""
"html-keyboard-response","140","359313","0.0-5.0-2.44","FL","pusqm5jv5t","2560","1440","0","1","0","5f477a85d919ec03cadfaddd","","null","","","learningBlock1","","","","<div style=""font-size:60px;""> </div>","null","FL","learning/Slide45.JPG","That was a wug.","","",""
"image-keyboard-response","141","359495","0.0-5.0-0.45","FL","pusqm5jv5t","2560","1440","0","1","0","5f477a85d919ec03cadfaddd","","null","","","","","","","learning/Slide46.JPG","null","","","","","",""
"html-keyboard-response","142","360648","0.0-5.0-1.45","FL","pusqm5jv5t","2560","1440","0","1","0","5f477a85d919ec03cadfaddd","","null","","","learningBlock1","","","","That was a dep.","null","","","","","",""
"html-keyboard-response","143","361652","0.0-5.0-2.45","FL","pusqm5jv5t","2560","1440","0","1","0","5f477a85d919ec03cadfaddd","","null","","","learningBlock1","","","","<div style=""font-size:60px;""> </div>","null","FL","learning/Slide46.JPG","That was a dep.","","",""
"image-keyboard-response","144","361832","0.0-5.0-0.46","FL","pusqm5jv5t","2560","1440","0","1","0","5f477a85d919ec03cadfaddd","","null","","","","","","","learning/Slide47.JPG","null","","","","","",""
"html-keyboard-response","145","362989","0.0-5.0-1.46","FL","pusqm5jv5t","2560","1440","0","1","0","5f477a85d919ec03cadfaddd","","null","","","learningBlock1","","","","That was a tob.","null","","","","","",""
"html-keyboard-response","146","363992","0.0-5.0-2.46","FL","pusqm5jv5t","2560","1440","0","1","0","5f477a85d919ec03cadfaddd","","null","","","learningBlock1","","","","<div style=""font-size:60px;""> </div>","null","FL","learning/Slide47.JPG","That was a tob.","","",""
"image-keyboard-response","147","364173","0.0-5.0-0.47","FL","pusqm5jv5t","2560","1440","0","1","0","5f477a85d919ec03cadfaddd","","null","","","","","","","learning/Slide48.JPG","null","","","","","",""
"html-keyboard-response","148","365334","0.0-5.0-1.47","FL","pusqm5jv5t","2560","1440","0","1","0","5f477a85d919ec03cadfaddd","","null","","","learningBlock1","","","","That was a bim.","null","","","","","",""
"html-keyboard-response","149","366338","0.0-5.0-2.47","FL","pusqm5jv5t","2560","1440","0","1","0","5f477a85d919ec03cadfaddd","","null","","","learningBlock1","","","","<div style=""font-size:60px;""> </div>","null","FL","learning/Slide48.JPG","That was a bim.","","",""
"image-keyboard-response","150","366519","0.0-5.0-0.48","FL","pusqm5jv5t","2560","1440","0","1","0","5f477a85d919ec03cadfaddd","","null","","","","","","","learning/Slide49.JPG","null","","","","","",""
"html-keyboard-response","151","367680","0.0-5.0-1.48","FL","pusqm5jv5t","2560","1440","0","1","0","5f477a85d919ec03cadfaddd","","null","","","learningBlock1","","","","That was a dep.","null","","","","","",""
"html-keyboard-response","152","368684","0.0-5.0-2.48","FL","pusqm5jv5t","2560","1440","0","1","0","5f477a85d919ec03cadfaddd","","null","","","learningBlock1","","","","<div style=""font-size:60px;""> </div>","null","FL","learning/Slide49.JPG","That was a dep.","","",""
"image-keyboard-response","153","368866","0.0-5.0-0.49","FL","pusqm5jv5t","2560","1440","0","1","0","5f477a85d919ec03cadfaddd","","null","","","","","","","learning/Slide50.JPG","null","","","","","",""
"html-keyboard-response","154","370022","0.0-5.0-1.49","FL","pusqm5jv5t","2560","1440","0","1","0","5f477a85d919ec03cadfaddd","","null","","","learningBlock1","","","","That was a tob.","null","","","","","",""
"html-keyboard-response","155","371023","0.0-5.0-2.49","FL","pusqm5jv5t","2560","1440","0","1","0","5f477a85d919ec03cadfaddd","","null","","","learningBlock1","","","","<div style=""font-size:60px;""> </div>","null","FL","learning/Slide50.JPG","That was a tob.","","",""
"image-keyboard-response","156","371204","0.0-5.0-0.50","FL","pusqm5jv5t","2560","1440","0","1","0","5f477a85d919ec03cadfaddd","","null","","","","","","","learning/Slide51.JPG","null","","","","","",""
"html-keyboard-response","157","372358","0.0-5.0-1.50","FL","pusqm5jv5t","2560","1440","0","1","0","5f477a85d919ec03cadfaddd","","null","","","learningBlock1","","","","That was a bim.","null","","","","","",""
"html-keyboard-response","158","373364","0.0-5.0-2.50","FL","pusqm5jv5t","2560","1440","0","1","0","5f477a85d919ec03cadfaddd","","null","","","learningBlock1","","","","<div style=""font-size:60px;""> </div>","null","FL","learning/Slide51.JPG","That was a bim.","","",""
"image-keyboard-response","159","373541","0.0-5.0-0.51","FL","pusqm5jv5t","2560","1440","0","1","0","5f477a85d919ec03cadfaddd","","null","","","","","","","learning/Slide52.JPG","null","","","","","",""
"html-keyboard-response","160","374702","0.0-5.0-1.51","FL","pusqm5jv5t","2560","1440","0","1","0","5f477a85d919ec03cadfaddd","","null","","","learningBlock1","","","","That was a wug.","null","","","","","",""
"html-keyboard-response","161","375704","0.0-5.0-2.51","FL","pusqm5jv5t","2560","1440","0","1","0","5f477a85d919ec03cadfaddd","","null","","","learningBlock1","","","","<div style=""font-size:60px;""> </div>","null","FL","learning/Slide52.JPG","That was a wug.","","",""
"image-keyboard-response","162","375885","0.0-5.0-0.52","FL","pusqm5jv5t","2560","1440","0","1","0","5f477a85d919ec03cadfaddd","","null","","","","","","","learning/Slide53.JPG","null","","","","","",""
"html-keyboard-response","163","377044","0.0-5.0-1.52","FL","pusqm5jv5t","2560","1440","0","1","0","5f477a85d919ec03cadfaddd","","null","","","learningBlock1","","","","That was a tob.","null","","","","","",""
"html-keyboard-response","164","378050","0.0-5.0-2.52","FL","pusqm5jv5t","2560","1440","0","1","0","5f477a85d919ec03cadfaddd","","null","","","learningBlock1","","","","<div style=""font-size:60px;""> </div>","null","FL","learning/Slide53.JPG","That was a tob.","","",""
"image-keyboard-response","165","378228","0.0-5.0-0.53","FL","pusqm5jv5t","2560","1440","0","1","0","5f477a85d919ec03cadfaddd","","null","","","","","","","learning/Slide54.JPG","null","","","","","",""
"html-keyboard-response","166","379390","0.0-5.0-1.53","FL","pusqm5jv5t","2560","1440","0","1","0","5f477a85d919ec03cadfaddd","","null","","","learningBlock1","","","","That was a dep.","null","","","","","",""
"html-keyboard-response","167","380396","0.0-5.0-2.53","FL","pusqm5jv5t","2560","1440","0","1","0","5f477a85d919ec03cadfaddd","","null","","","learningBlock1","","","","<div style=""font-size:60px;""> </div>","null","FL","learning/Slide54.JPG","That was a dep.","","",""
"image-keyboard-response","168","380578","0.0-5.0-0.54","FL","pusqm5jv5t","2560","1440","0","1","0","5f477a85d919ec03cadfaddd","","null","","","","","","","learning/Slide55.JPG","null","","","","","",""
"html-keyboard-response","169","381731","0.0-5.0-1.54","FL","pusqm5jv5t","2560","1440","0","1","0","5f477a85d919ec03cadfaddd","","null","","","learningBlock1","","","","That was a bim.","null","","","","","",""
"html-keyboard-response","170","382732","0.0-5.0-2.54","FL","pusqm5jv5t","2560","1440","0","1","0","5f477a85d919ec03cadfaddd","","null","","","learningBlock1","","","","<div style=""font-size:60px;""> </div>","null","FL","learning/Slide55.JPG","That was a bim.","","",""
"image-keyboard-response","171","382909","0.0-5.0-0.55","FL","pusqm5jv5t","2560","1440","0","1","0","5f477a85d919ec03cadfaddd","","null","","","","","","","learning/Slide56.JPG","null","","","","","",""
"html-keyboard-response","172","384060","0.0-5.0-1.55","FL","pusqm5jv5t","2560","1440","0","1","0","5f477a85d919ec03cadfaddd","","null","","","learningBlock1","","","","That was a tob.","null","","","","","",""
"html-keyboard-response","173","385064","0.0-5.0-2.55","FL","pusqm5jv5t","2560","1440","0","1","0","5f477a85d919ec03cadfaddd","","null","","","learningBlock1","","","","<div style=""font-size:60px;""> </div>","null","FL","learning/Slide56.JPG","That was a tob.","","",""
"image-keyboard-response","174","385245","0.0-5.0-0.56","FL","pusqm5jv5t","2560","1440","0","1","0","5f477a85d919ec03cadfaddd","","null","","","","","","","learning/Slide57.JPG","null","","","","","",""
"html-keyboard-response","175","386402","0.0-5.0-1.56","FL","pusqm5jv5t","2560","1440","0","1","0","5f477a85d919ec03cadfaddd","","null","","","learningBlock1","","","","That was a dep.","null","","","","","",""
"html-keyboard-response","176","387406","0.0-5.0-2.56","FL","pusqm5jv5t","2560","1440","0","1","0","5f477a85d919ec03cadfaddd","","null","","","learningBlock1","","","","<div style=""font-size:60px;""> </div>","null","FL","learning/Slide57.JPG","That was a dep.","","",""
"image-keyboard-response","177","387586","0.0-5.0-0.57","FL","pusqm5jv5t","2560","1440","0","1","0","5f477a85d919ec03cadfaddd","","null","","","","","","","learning/Slide58.JPG","null","","","","","",""
"html-keyboard-response","178","388743","0.0-5.0-1.57","FL","pusqm5jv5t","2560","1440","0","1","0","5f477a85d919ec03cadfaddd","","null","","","learningBlock1","","","","That was a wug.","null","","","","","",""
"html-keyboard-response","179","389747","0.0-5.0-2.57","FL","pusqm5jv5t","2560","1440","0","1","0","5f477a85d919ec03cadfaddd","","null","","","learningBlock1","","","","<div style=""font-size:60px;""> </div>","null","FL","learning/Slide58.JPG","That was a wug.","","",""
"image-keyboard-response","180","389924","0.0-5.0-0.58","FL","pusqm5jv5t","2560","1440","0","1","0","5f477a85d919ec03cadfaddd","","null","","","","","","","learning/Slide59.JPG","null","","","","","",""
"html-keyboard-response","181","391084","0.0-5.0-1.58","FL","pusqm5jv5t","2560","1440","0","1","0","5f477a85d919ec03cadfaddd","","null","","","learningBlock1","","","","That was a dep.","null","","","","","",""
"html-keyboard-response","182","392087","0.0-5.0-2.58","FL","pusqm5jv5t","2560","1440","0","1","0","5f477a85d919ec03cadfaddd","","null","","","learningBlock1","","","","<div style=""font-size:60px;""> </div>","null","FL","learning/Slide59.JPG","That was a dep.","","",""
"image-keyboard-response","183","392268","0.0-5.0-0.59","FL","pusqm5jv5t","2560","1440","0","1","0","5f477a85d919ec03cadfaddd","","null","","","","","","","learning/Slide60.JPG","null","","","","","",""
"html-keyboard-response","184","393424","0.0-5.0-1.59","FL","pusqm5jv5t","2560","1440","0","1","0","5f477a85d919ec03cadfaddd","","null","","","learningBlock1","","","","That was a wug.","null","","","","","",""
"html-keyboard-response","185","394425","0.0-5.0-2.59","FL","pusqm5jv5t","2560","1440","0","1","0","5f477a85d919ec03cadfaddd","","null","","","learningBlock1","","","","<div style=""font-size:60px;""> </div>","null","FL","learning/Slide60.JPG","That was a wug.","","",""
"image-keyboard-response","186","394606","0.0-5.0-0.60","FL","pusqm5jv5t","2560","1440","0","1","0","5f477a85d919ec03cadfaddd","","null","","","","","","","learning/Slide61.JPG","null","","","","","",""
"html-keyboard-response","187","395759","0.0-5.0-1.60","FL","pusqm5jv5t","2560","1440","0","1","0","5f477a85d919ec03cadfaddd","","null","","","learningBlock1","","","","That was a bim.","null","","","","","",""
"html-keyboard-response","188","396765","0.0-5.0-2.60","FL","pusqm5jv5t","2560","1440","0","1","0","5f477a85d919ec03cadfaddd","","null","","","learningBlock1","","","","<div style=""font-size:60px;""> </div>","null","FL","learning/Slide61.JPG","That was a bim.","","",""
"image-keyboard-response","189","396943","0.0-5.0-0.61","FL","pusqm5jv5t","2560","1440","0","1","0","5f477a85d919ec03cadfaddd","","null","","","","","","","learning/Slide62.JPG","null","","","","","",""
"html-keyboard-response","190","398104","0.0-5.0-1.61","FL","pusqm5jv5t","2560","1440","0","1","0","5f477a85d919ec03cadfaddd","","null","","","learningBlock1","","","","That was a dep.","null","","","","","",""
"html-keyboard-response","191","399110","0.0-5.0-2.61","FL","pusqm5jv5t","2560","1440","0","1","0","5f477a85d919ec03cadfaddd","","null","","","learningBlock1","","","","<div style=""font-size:60px;""> </div>","null","FL","learning/Slide62.JPG","That was a dep.","","",""
"image-keyboard-response","192","399291","0.0-5.0-0.62","FL","pusqm5jv5t","2560","1440","0","1","0","5f477a85d919ec03cadfaddd","","null","","","","","","","learning/Slide63.JPG","null","","","","","",""
"html-keyboard-response","193","400446","0.0-5.0-1.62","FL","pusqm5jv5t","2560","1440","0","1","0","5f477a85d919ec03cadfaddd","","null","","","learningBlock1","","","","That was a bim.","null","","","","","",""
"html-keyboard-response","194","401447","0.0-5.0-2.62","FL","pusqm5jv5t","2560","1440","0","1","0","5f477a85d919ec03cadfaddd","","null","","","learningBlock1","","","","<div style=""font-size:60px;""> </div>","null","FL","learning/Slide63.JPG","That was a bim.","","",""
"image-keyboard-response","195","401628","0.0-5.0-0.63","FL","pusqm5jv5t","2560","1440","0","1","0","5f477a85d919ec03cadfaddd","","null","","","","","","","learning/Slide64.JPG","null","","","","","",""
"html-keyboard-response","196","402782","0.0-5.0-1.63","FL","pusqm5jv5t","2560","1440","0","1","0","5f477a85d919ec03cadfaddd","","null","","","learningBlock1","","","","That was a tob.","null","","","","","",""
"html-keyboard-response","197","403787","0.0-5.0-2.63","FL","pusqm5jv5t","2560","1440","0","1","0","5f477a85d919ec03cadfaddd","","null","","","learningBlock1","","","","<div style=""font-size:60px;""> </div>","null","FL","learning/Slide64.JPG","That was a tob.","","",""
"image-keyboard-response","198","403966","0.0-5.0-0.64","FL","pusqm5jv5t","2560","1440","0","1","0","5f477a85d919ec03cadfaddd","","null","","","","","","","learning/Slide65.JPG","null","","","","","",""
"html-keyboard-response","199","405126","0.0-5.0-1.64","FL","pusqm5jv5t","2560","1440","0","1","0","5f477a85d919ec03cadfaddd","","null","","","learningBlock1","","","","That was a wug.","null","","","","","",""
"html-keyboard-response","200","406130","0.0-5.0-2.64","FL","pusqm5jv5t","2560","1440","0","1","0","5f477a85d919ec03cadfaddd","","null","","","learningBlock1","","","","<div style=""font-size:60px;""> </div>","null","FL","learning/Slide65.JPG","That was a wug.","","",""
"image-keyboard-response","201","406311","0.0-5.0-0.65","FL","pusqm5jv5t","2560","1440","0","1","0","5f477a85d919ec03cadfaddd","","null","","","","","","","learning/Slide66.JPG","null","","","","","",""
"html-keyboard-response","202","407469","0.0-5.0-1.65","FL","pusqm5jv5t","2560","1440","0","1","0","5f477a85d919ec03cadfaddd","","null","","","learningBlock1","","","","That was a dep.","null","","","","","",""
"html-keyboard-response","203","408472","0.0-5.0-2.65","FL","pusqm5jv5t","2560","1440","0","1","0","5f477a85d919ec03cadfaddd","","null","","","learningBlock1","","","","<div style=""font-size:60px;""> </div>","null","FL","learning/Slide66.JPG","That was a dep.","","",""
"image-keyboard-response","204","408653","0.0-5.0-0.66","FL","pusqm5jv5t","2560","1440","0","1","0","5f477a85d919ec03cadfaddd","","null","","","","","","","learning/Slide67.JPG","null","","","","","",""
"html-keyboard-response","205","409814","0.0-5.0-1.66","FL","pusqm5jv5t","2560","1440","0","1","0","5f477a85d919ec03cadfaddd","","null","","","learningBlock1","","","","That was a tob.","null","","","","","",""
"html-keyboard-response","206","410817","0.0-5.0-2.66","FL","pusqm5jv5t","2560","1440","0","1","0","5f477a85d919ec03cadfaddd","","null","","","learningBlock1","","","","<div style=""font-size:60px;""> </div>","null","FL","learning/Slide67.JPG","That was a tob.","","",""
"image-keyboard-response","207","410999","0.0-5.0-0.67","FL","pusqm5jv5t","2560","1440","0","1","0","5f477a85d919ec03cadfaddd","","null","","","","","","","learning/Slide68.JPG","null","","","","","",""
"html-keyboard-response","208","412156","0.0-5.0-1.67","FL","pusqm5jv5t","2560","1440","0","1","0","5f477a85d919ec03cadfaddd","","null","","","learningBlock1","","","","That was a wug.","null","","","","","",""
"html-keyboard-response","209","413160","0.0-5.0-2.67","FL","pusqm5jv5t","2560","1440","0","1","0","5f477a85d919ec03cadfaddd","","null","","","learningBlock1","","","","<div style=""font-size:60px;""> </div>","null","FL","learning/Slide68.JPG","That was a wug.","","",""
"image-keyboard-response","210","413340","0.0-5.0-0.68","FL","pusqm5jv5t","2560","1440","0","1","0","5f477a85d919ec03cadfaddd","","null","","","","","","","learning/Slide69.JPG","null","","","","","",""
"html-keyboard-response","211","414496","0.0-5.0-1.68","FL","pusqm5jv5t","2560","1440","0","1","0","5f477a85d919ec03cadfaddd","","null","","","learningBlock1","","","","That was a tob.","null","","","","","",""
"html-keyboard-response","212","415498","0.0-5.0-2.68","FL","pusqm5jv5t","2560","1440","0","1","0","5f477a85d919ec03cadfaddd","","null","","","learningBlock1","","","","<div style=""font-size:60px;""> </div>","null","FL","learning/Slide69.JPG","That was a tob.","","",""
"image-keyboard-response","213","415675","0.0-5.0-0.69","FL","pusqm5jv5t","2560","1440","0","1","0","5f477a85d919ec03cadfaddd","","null","","","","","","","learning/Slide70.JPG","null","","","","","",""
"html-keyboard-response","214","416836","0.0-5.0-1.69","FL","pusqm5jv5t","2560","1440","0","1","0","5f477a85d919ec03cadfaddd","","null","","","learningBlock1","","","","That was a dep.","null","","","","","",""
"html-keyboard-response","215","417837","0.0-5.0-2.69","FL","pusqm5jv5t","2560","1440","0","1","0","5f477a85d919ec03cadfaddd","","null","","","learningBlock1","","","","<div style=""font-size:60px;""> </div>","null","FL","learning/Slide70.JPG","That was a dep.","","",""
"image-keyboard-response","216","418016","0.0-5.0-0.70","FL","pusqm5jv5t","2560","1440","0","1","0","5f477a85d919ec03cadfaddd","","null","","","","","","","learning/Slide71.JPG","null","","","","","",""
"html-keyboard-response","217","419177","0.0-5.0-1.70","FL","pusqm5jv5t","2560","1440","0","1","0","5f477a85d919ec03cadfaddd","","null","","","learningBlock1","","","","That was a wug.","null","","","","","",""
"html-keyboard-response","218","420179","0.0-5.0-2.70","FL","pusqm5jv5t","2560","1440","0","1","0","5f477a85d919ec03cadfaddd","","null","","","learningBlock1","","","","<div style=""font-size:60px;""> </div>","null","FL","learning/Slide71.JPG","That was a wug.","","",""
"image-keyboard-response","219","420360","0.0-5.0-0.71","FL","pusqm5jv5t","2560","1440","0","1","0","5f477a85d919ec03cadfaddd","","null","","","","","","","learning/Slide72.JPG","null","","","","","",""
"html-keyboard-response","220","421518","0.0-5.0-1.71","FL","pusqm5jv5t","2560","1440","0","1","0","5f477a85d919ec03cadfaddd","","null","","","learningBlock1","","","","That was a bim.","null","","","","","",""
"html-keyboard-response","221","422524","0.0-5.0-2.71","FL","pusqm5jv5t","2560","1440","0","1","0","5f477a85d919ec03cadfaddd","","null","","","learningBlock1","","","","<div style=""font-size:60px;""> </div>","null","FL","learning/Slide72.JPG","That was a bim.","","",""
"image-keyboard-response","222","422702","0.0-5.0-0.72","FL","pusqm5jv5t","2560","1440","0","1","0","5f477a85d919ec03cadfaddd","","null","","","","","","","learning/Slide73.JPG","null","","","","","",""
"html-keyboard-response","223","423863","0.0-5.0-1.72","FL","pusqm5jv5t","2560","1440","0","1","0","5f477a85d919ec03cadfaddd","","null","","","learningBlock1","","","","That was a wug.","null","","","","","",""
"html-keyboard-response","224","424866","0.0-5.0-2.72","FL","pusqm5jv5t","2560","1440","0","1","0","5f477a85d919ec03cadfaddd","","null","","","learningBlock1","","","","<div style=""font-size:60px;""> </div>","null","FL","learning/Slide73.JPG","That was a wug.","","",""
"image-keyboard-response","225","425047","0.0-5.0-0.73","FL","pusqm5jv5t","2560","1440","0","1","0","5f477a85d919ec03cadfaddd","","null","","","","","","","learning/Slide74.JPG","null","","","","","",""
"html-keyboard-response","226","426200","0.0-5.0-1.73","FL","pusqm5jv5t","2560","1440","0","1","0","5f477a85d919ec03cadfaddd","","null","","","learningBlock1","","","","That was a dep.","null","","","","","",""
"html-keyboard-response","227","427203","0.0-5.0-2.73","FL","pusqm5jv5t","2560","1440","0","1","0","5f477a85d919ec03cadfaddd","","null","","","learningBlock1","","","","<div style=""font-size:60px;""> </div>","null","FL","learning/Slide74.JPG","That was a dep.","","",""
"image-keyboard-response","228","427384","0.0-5.0-0.74","FL","pusqm5jv5t","2560","1440","0","1","0","5f477a85d919ec03cadfaddd","","null","","","","","","","learning/Slide75.JPG","null","","","","","",""
"html-keyboard-response","229","428542","0.0-5.0-1.74","FL","pusqm5jv5t","2560","1440","0","1","0","5f477a85d919ec03cadfaddd","","null","","","learningBlock1","","","","That was a tob.","null","","","","","",""
"html-keyboard-response","230","429546","0.0-5.0-2.74","FL","pusqm5jv5t","2560","1440","0","1","0","5f477a85d919ec03cadfaddd","","null","","","learningBlock1","","","","<div style=""font-size:60px;""> </div>","null","FL","learning/Slide75.JPG","That was a tob.","","",""
"image-keyboard-response","231","429727","0.0-5.0-0.75","FL","pusqm5jv5t","2560","1440","0","1","0","5f477a85d919ec03cadfaddd","","null","","","","","","","learning/Slide76.JPG","null","","","","","",""
"html-keyboard-response","232","430887","0.0-5.0-1.75","FL","pusqm5jv5t","2560","1440","0","1","0","5f477a85d919ec03cadfaddd","","null","","","learningBlock1","","","","That was a bim.","null","","","","","",""
"html-keyboard-response","233","431891","0.0-5.0-2.75","FL","pusqm5jv5t","2560","1440","0","1","0","5f477a85d919ec03cadfaddd","","null","","","learningBlock1","","","","<div style=""font-size:60px;""> </div>","null","FL","learning/Slide76.JPG","That was a bim.","","",""
"image-keyboard-response","234","432072","0.0-5.0-0.76","FL","pusqm5jv5t","2560","1440","0","1","0","5f477a85d919ec03cadfaddd","","null","","","","","","","learning/Slide77.JPG","null","","","","","",""
"html-keyboard-response","235","433230","0.0-5.0-1.76","FL","pusqm5jv5t","2560","1440","0","1","0","5f477a85d919ec03cadfaddd","","null","","","learningBlock1","","","","That was a tob.","null","","","","","",""
"html-keyboard-response","236","434234","0.0-5.0-2.76","FL","pusqm5jv5t","2560","1440","0","1","0","5f477a85d919ec03cadfaddd","","null","","","learningBlock1","","","","<div style=""font-size:60px;""> </div>","null","FL","learning/Slide77.JPG","That was a tob.","","",""
"image-keyboard-response","237","434415","0.0-5.0-0.77","FL","pusqm5jv5t","2560","1440","0","1","0","5f477a85d919ec03cadfaddd","","null","","","","","","","learning/Slide78.JPG","null","","","","","",""
"html-keyboard-response","238","435574","0.0-5.0-1.77","FL","pusqm5jv5t","2560","1440","0","1","0","5f477a85d919ec03cadfaddd","","null","","","learningBlock1","","","","That was a wug.","null","","","","","",""
"html-keyboard-response","239","436575","0.0-5.0-2.77","FL","pusqm5jv5t","2560","1440","0","1","0","5f477a85d919ec03cadfaddd","","null","","","learningBlock1","","","","<div style=""font-size:60px;""> </div>","null","FL","learning/Slide78.JPG","That was a wug.","","",""
"image-keyboard-response","240","436757","0.0-5.0-0.78","FL","pusqm5jv5t","2560","1440","0","1","0","5f477a85d919ec03cadfaddd","","null","","","","","","","learning/Slide79.JPG","null","","","","","",""
"html-keyboard-response","241","437913","0.0-5.0-1.78","FL","pusqm5jv5t","2560","1440","0","1","0","5f477a85d919ec03cadfaddd","","null","","","learningBlock1","","","","That was a bim.","null","","","","","",""
"html-keyboard-response","242","438919","0.0-5.0-2.78","FL","pusqm5jv5t","2560","1440","0","1","0","5f477a85d919ec03cadfaddd","","null","","","learningBlock1","","","","<div style=""font-size:60px;""> </div>","null","FL","learning/Slide79.JPG","That was a bim.","","",""
"image-keyboard-response","243","439101","0.0-5.0-0.79","FL","pusqm5jv5t","2560","1440","0","1","0","5f477a85d919ec03cadfaddd","","null","","","","","","","learning/Slide80.JPG","null","","","","","",""
"html-keyboard-response","244","440256","0.0-5.0-1.79","FL","pusqm5jv5t","2560","1440","0","1","0","5f477a85d919ec03cadfaddd","","null","","","learningBlock1","","","","That was a tob.","null","","","","","",""
"html-keyboard-response","245","441261","0.0-5.0-2.79","FL","pusqm5jv5t","2560","1440","0","1","0","5f477a85d919ec03cadfaddd","","null","","","learningBlock1","","","","<div style=""font-size:60px;""> </div>","null","FL","learning/Slide80.JPG","That was a tob.","","",""
"instructions","246","465875","0.0-6.0","FL","pusqm5jv5t","2560","1440","0","1","0","5f477a85d919ec03cadfaddd","","NA","","[{""page_index"":0,""viewing_time"":24613.340000000317}]","instructions","","","","","","","","","","",""
"image-keyboard-response","247","466053","0.0-7.0-0.0","FL","pusqm5jv5t","2560","1440","0","1","0","5f477a85d919ec03cadfaddd","","null","","","","","","","learning/Slide81.JPG","null","","","","","",""
"html-keyboard-response","248","467204","0.0-7.0-1.0","FL","pusqm5jv5t","2560","1440","0","1","0","5f477a85d919ec03cadfaddd","","null","","","learningBlock2","","","","That was a wug.","null","","","","","",""
"html-keyboard-response","249","468210","0.0-7.0-2.0","FL","pusqm5jv5t","2560","1440","0","1","0","5f477a85d919ec03cadfaddd","","null","","","learningBlock2","","","","<div style=""font-size:60px;""> </div>","null","FL","learning/Slide81.JPG","That was a wug.","","",""
"image-keyboard-response","250","468391","0.0-7.0-0.1","FL","pusqm5jv5t","2560","1440","0","1","0","5f477a85d919ec03cadfaddd","","null","","","","","","","learning/Slide82.JPG","null","","","","","",""
"html-keyboard-response","251","469552","0.0-7.0-1.1","FL","pusqm5jv5t","2560","1440","0","1","0","5f477a85d919ec03cadfaddd","","null","","","learningBlock2","","","","That was a bim.","null","","","","","",""
"html-keyboard-response","252","470556","0.0-7.0-2.1","FL","pusqm5jv5t","2560","1440","0","1","0","5f477a85d919ec03cadfaddd","","null","","","learningBlock2","","","","<div style=""font-size:60px;""> </div>","null","FL","learning/Slide82.JPG","That was a bim.","","",""
"image-keyboard-response","253","470736","0.0-7.0-0.2","FL","pusqm5jv5t","2560","1440","0","1","0","5f477a85d919ec03cadfaddd","","null","","","","","","","learning/Slide83.JPG","null","","","","","",""
"html-keyboard-response","254","471894","0.0-7.0-1.2","FL","pusqm5jv5t","2560","1440","0","1","0","5f477a85d919ec03cadfaddd","","null","","","learningBlock2","","","","That was a wug.","null","","","","","",""
"html-keyboard-response","255","472898","0.0-7.0-2.2","FL","pusqm5jv5t","2560","1440","0","1","0","5f477a85d919ec03cadfaddd","","null","","","learningBlock2","","","","<div style=""font-size:60px;""> </div>","null","FL","learning/Slide83.JPG","That was a wug.","","",""
"image-keyboard-response","256","473079","0.0-7.0-0.3","FL","pusqm5jv5t","2560","1440","0","1","0","5f477a85d919ec03cadfaddd","","null","","","","","","","learning/Slide84.JPG","null","","","","","",""
"html-keyboard-response","257","474239","0.0-7.0-1.3","FL","pusqm5jv5t","2560","1440","0","1","0","5f477a85d919ec03cadfaddd","","null","","","learningBlock2","","","","That was a dep.","null","","","","","",""
"html-keyboard-response","258","475243","0.0-7.0-2.3","FL","pusqm5jv5t","2560","1440","0","1","0","5f477a85d919ec03cadfaddd","","null","","","learningBlock2","","","","<div style=""font-size:60px;""> </div>","null","FL","learning/Slide84.JPG","That was a dep.","","",""
"image-keyboard-response","259","475423","0.0-7.0-0.4","FL","pusqm5jv5t","2560","1440","0","1","0","5f477a85d919ec03cadfaddd","","null","","","","","","","learning/Slide85.JPG","null","","","","","",""
"html-keyboard-response","260","476584","0.0-7.0-1.4","FL","pusqm5jv5t","2560","1440","0","1","0","5f477a85d919ec03cadfaddd","","null","","","learningBlock2","","","","That was a bim.","null","","","","","",""
"html-keyboard-response","261","477588","0.0-7.0-2.4","FL","pusqm5jv5t","2560","1440","0","1","0","5f477a85d919ec03cadfaddd","","null","","","learningBlock2","","","","<div style=""font-size:60px;""> </div>","null","FL","learning/Slide85.JPG","That was a bim.","","",""
"image-keyboard-response","262","477769","0.0-7.0-0.5","FL","pusqm5jv5t","2560","1440","0","1","0","5f477a85d919ec03cadfaddd","","null","","","","","","","learning/Slide86.JPG","null","","","","","",""
"html-keyboard-response","263","478926","0.0-7.0-1.5","FL","pusqm5jv5t","2560","1440","0","1","0","5f477a85d919ec03cadfaddd","","null","","","learningBlock2","","","","That was a tob.","null","","","","","",""
"html-keyboard-response","264","479932","0.0-7.0-2.5","FL","pusqm5jv5t","2560","1440","0","1","0","5f477a85d919ec03cadfaddd","","null","","","learningBlock2","","","","<div style=""font-size:60px;""> </div>","null","FL","learning/Slide86.JPG","That was a tob.","","",""
"image-keyboard-response","265","480110","0.0-7.0-0.6","FL","pusqm5jv5t","2560","1440","0","1","0","5f477a85d919ec03cadfaddd","","null","","","","","","","learning/Slide87.JPG","null","","","","","",""
"html-keyboard-response","266","481271","0.0-7.0-1.6","FL","pusqm5jv5t","2560","1440","0","1","0","5f477a85d919ec03cadfaddd","","null","","","learningBlock2","","","","That was a wug.","null","","","","","",""
"html-keyboard-response","267","482277","0.0-7.0-2.6","FL","pusqm5jv5t","2560","1440","0","1","0","5f477a85d919ec03cadfaddd","","null","","","learningBlock2","","","","<div style=""font-size:60px;""> </div>","null","FL","learning/Slide87.JPG","That was a wug.","","",""
"image-keyboard-response","268","482458","0.0-7.0-0.7","FL","pusqm5jv5t","2560","1440","0","1","0","5f477a85d919ec03cadfaddd","","null","","","","","","","learning/Slide88.JPG","null","","","","","",""
"html-keyboard-response","269","483613","0.0-7.0-1.7","FL","pusqm5jv5t","2560","1440","0","1","0","5f477a85d919ec03cadfaddd","","null","","","learningBlock2","","","","That was a tob.","null","","","","","",""
"html-keyboard-response","270","484619","0.0-7.0-2.7","FL","pusqm5jv5t","2560","1440","0","1","0","5f477a85d919ec03cadfaddd","","null","","","learningBlock2","","","","<div style=""font-size:60px;""> </div>","null","FL","learning/Slide88.JPG","That was a tob.","","",""
"image-keyboard-response","271","484795","0.0-7.0-0.8","FL","pusqm5jv5t","2560","1440","0","1","0","5f477a85d919ec03cadfaddd","","null","","","","","","","learning/Slide89.JPG","null","","","","","",""
"html-keyboard-response","272","485948","0.0-7.0-1.8","FL","pusqm5jv5t","2560","1440","0","1","0","5f477a85d919ec03cadfaddd","","null","","","learningBlock2","","","","That was a bim.","null","","","","","",""
"html-keyboard-response","273","486949","0.0-7.0-2.8","FL","pusqm5jv5t","2560","1440","0","1","0","5f477a85d919ec03cadfaddd","","null","","","learningBlock2","","","","<div style=""font-size:60px;""> </div>","null","FL","learning/Slide89.JPG","That was a bim.","","",""
"image-keyboard-response","274","487130","0.0-7.0-0.9","FL","pusqm5jv5t","2560","1440","0","1","0","5f477a85d919ec03cadfaddd","","null","","","","","","","learning/Slide90.JPG","null","","","","","",""
"html-keyboard-response","275","488283","0.0-7.0-1.9","FL","pusqm5jv5t","2560","1440","0","1","0","5f477a85d919ec03cadfaddd","","null","","","learningBlock2","","","","That was a dep.","null","","","","","",""
"html-keyboard-response","276","489284","0.0-7.0-2.9","FL","pusqm5jv5t","2560","1440","0","1","0","5f477a85d919ec03cadfaddd","","null","","","learningBlock2","","","","<div style=""font-size:60px;""> </div>","null","FL","learning/Slide90.JPG","That was a dep.","","",""
"image-keyboard-response","277","489461","0.0-7.0-0.10","FL","pusqm5jv5t","2560","1440","0","1","0","5f477a85d919ec03cadfaddd","","null","","","","","","","learning/Slide91.JPG","null","","","","","",""
"html-keyboard-response","278","490618","0.0-7.0-1.10","FL","pusqm5jv5t","2560","1440","0","1","0","5f477a85d919ec03cadfaddd","","null","","","learningBlock2","","","","That was a wug.","null","","","","","",""
"html-keyboard-response","279","491622","0.0-7.0-2.10","FL","pusqm5jv5t","2560","1440","0","1","0","5f477a85d919ec03cadfaddd","","null","","","learningBlock2","","","","<div style=""font-size:60px;""> </div>","null","FL","learning/Slide91.JPG","That was a wug.","","",""
"image-keyboard-response","280","491803","0.0-7.0-0.11","FL","pusqm5jv5t","2560","1440","0","1","0","5f477a85d919ec03cadfaddd","","null","","","","","","","learning/Slide92.JPG","null","","","","","",""
"html-keyboard-response","281","492964","0.0-7.0-1.11","FL","pusqm5jv5t","2560","1440","0","1","0","5f477a85d919ec03cadfaddd","","null","","","learningBlock2","","","","That was a tob.","null","","","","","",""
"html-keyboard-response","282","493968","0.0-7.0-2.11","FL","pusqm5jv5t","2560","1440","0","1","0","5f477a85d919ec03cadfaddd","","null","","","learningBlock2","","","","<div style=""font-size:60px;""> </div>","null","FL","learning/Slide92.JPG","That was a tob.","","",""
"image-keyboard-response","283","494149","0.0-7.0-0.12","FL","pusqm5jv5t","2560","1440","0","1","0","5f477a85d919ec03cadfaddd","","null","","","","","","","learning/Slide93.JPG","null","","","","","",""
"html-keyboard-response","284","495306","0.0-7.0-1.12","FL","pusqm5jv5t","2560","1440","0","1","0","5f477a85d919ec03cadfaddd","","null","","","learningBlock2","","","","That was a bim.","null","","","","","",""
"html-keyboard-response","285","496310","0.0-7.0-2.12","FL","pusqm5jv5t","2560","1440","0","1","0","5f477a85d919ec03cadfaddd","","null","","","learningBlock2","","","","<div style=""font-size:60px;""> </div>","null","FL","learning/Slide93.JPG","That was a bim.","","",""
"image-keyboard-response","286","496490","0.0-7.0-0.13","FL","pusqm5jv5t","2560","1440","0","1","0","5f477a85d919ec03cadfaddd","","null","","","","","","","learning/Slide94.JPG","null","","","","","",""
"html-keyboard-response","287","497651","0.0-7.0-1.13","FL","pusqm5jv5t","2560","1440","0","1","0","5f477a85d919ec03cadfaddd","","null","","","learningBlock2","","","","That was a tob.","null","","","","","",""
"html-keyboard-response","288","498655","0.0-7.0-2.13","FL","pusqm5jv5t","2560","1440","0","1","0","5f477a85d919ec03cadfaddd","","null","","","learningBlock2","","","","<div style=""font-size:60px;""> </div>","null","FL","learning/Slide94.JPG","That was a tob.","","",""
"image-keyboard-response","289","498836","0.0-7.0-0.14","FL","pusqm5jv5t","2560","1440","0","1","0","5f477a85d919ec03cadfaddd","","null","","","","","","","learning/Slide95.JPG","null","","","","","",""
"html-keyboard-response","290","499992","0.0-7.0-1.14","FL","pusqm5jv5t","2560","1440","0","1","0","5f477a85d919ec03cadfaddd","","null","","","learningBlock2","","","","That was a wug.","null","","","","","",""
"html-keyboard-response","291","500994","0.0-7.0-2.14","FL","pusqm5jv5t","2560","1440","0","1","0","5f477a85d919ec03cadfaddd","","null","","","learningBlock2","","","","<div style=""font-size:60px;""> </div>","null","FL","learning/Slide95.JPG","That was a wug.","","",""
"image-keyboard-response","292","501175","0.0-7.0-0.15","FL","pusqm5jv5t","2560","1440","0","1","0","5f477a85d919ec03cadfaddd","","null","","","","","","","learning/Slide96.JPG","null","","","","","",""
"html-keyboard-response","293","502330","0.0-7.0-1.15","FL","pusqm5jv5t","2560","1440","0","1","0","5f477a85d919ec03cadfaddd","","null","","","learningBlock2","","","","That was a tob.","null","","","","","",""
"html-keyboard-response","294","503331","0.0-7.0-2.15","FL","pusqm5jv5t","2560","1440","0","1","0","5f477a85d919ec03cadfaddd","","null","","","learningBlock2","","","","<div style=""font-size:60px;""> </div>","null","FL","learning/Slide96.JPG","That was a tob.","","",""
"image-keyboard-response","295","503512","0.0-7.0-0.16","FL","pusqm5jv5t","2560","1440","0","1","0","5f477a85d919ec03cadfaddd","","null","","","","","","","learning/Slide97.JPG","null","","","","","",""
"html-keyboard-response","296","504664","0.0-7.0-1.16","FL","pusqm5jv5t","2560","1440","0","1","0","5f477a85d919ec03cadfaddd","","null","","","learningBlock2","","","","That was a dep.","null","","","","","",""
"html-keyboard-response","297","505665","0.0-7.0-2.16","FL","pusqm5jv5t","2560","1440","0","1","0","5f477a85d919ec03cadfaddd","","null","","","learningBlock2","","","","<div style=""font-size:60px;""> </div>","null","FL","learning/Slide97.JPG","That was a dep.","","",""
"image-keyboard-response","298","505841","0.0-7.0-0.17","FL","pusqm5jv5t","2560","1440","0","1","0","5f477a85d919ec03cadfaddd","","null","","","","","","","learning/Slide98.JPG","null","","","","","",""
"html-keyboard-response","299","506995","0.0-7.0-1.17","FL","pusqm5jv5t","2560","1440","0","1","0","5f477a85d919ec03cadfaddd","","null","","","learningBlock2","","","","That was a bim.","null","","","","","",""
"html-keyboard-response","300","507999","0.0-7.0-2.17","FL","pusqm5jv5t","2560","1440","0","1","0","5f477a85d919ec03cadfaddd","","null","","","learningBlock2","","","","<div style=""font-size:60px;""> </div>","null","FL","learning/Slide98.JPG","That was a bim.","","",""
"image-keyboard-response","301","508180","0.0-7.0-0.18","FL","pusqm5jv5t","2560","1440","0","1","0","5f477a85d919ec03cadfaddd","","null","","","","","","","learning/Slide99.JPG","null","","","","","",""
"html-keyboard-response","302","509334","0.0-7.0-1.18","FL","pusqm5jv5t","2560","1440","0","1","0","5f477a85d919ec03cadfaddd","","null","","","learningBlock2","","","","That was a dep.","null","","","","","",""
"html-keyboard-response","303","510339","0.0-7.0-2.18","FL","pusqm5jv5t","2560","1440","0","1","0","5f477a85d919ec03cadfaddd","","null","","","learningBlock2","","","","<div style=""font-size:60px;""> </div>","null","FL","learning/Slide99.JPG","That was a dep.","","",""
"image-keyboard-response","304","510518","0.0-7.0-0.19","FL","pusqm5jv5t","2560","1440","0","1","0","5f477a85d919ec03cadfaddd","","null","","","","","","","learning/Slide100.JPG","null","","","","","",""
"html-keyboard-response","305","511679","0.0-7.0-1.19","FL","pusqm5jv5t","2560","1440","0","1","0","5f477a85d919ec03cadfaddd","","null","","","learningBlock2","","","","That was a bim.","null","","","","","",""
"html-keyboard-response","306","512683","0.0-7.0-2.19","FL","pusqm5jv5t","2560","1440","0","1","0","5f477a85d919ec03cadfaddd","","null","","","learningBlock2","","","","<div style=""font-size:60px;""> </div>","null","FL","learning/Slide100.JPG","That was a bim.","","",""
"image-keyboard-response","307","512864","0.0-7.0-0.20","FL","pusqm5jv5t","2560","1440","0","1","0","5f477a85d919ec03cadfaddd","","null","","","","","","","learning/Slide101.JPG","null","","","","","",""
"html-keyboard-response","308","514020","0.0-7.0-1.20","FL","pusqm5jv5t","2560","1440","0","1","0","5f477a85d919ec03cadfaddd","","null","","","learningBlock2","","","","That was a tob.","null","","","","","",""
"html-keyboard-response","309","515024","0.0-7.0-2.20","FL","pusqm5jv5t","2560","1440","0","1","0","5f477a85d919ec03cadfaddd","","null","","","learningBlock2","","","","<div style=""font-size:60px;""> </div>","null","FL","learning/Slide101.JPG","That was a tob.","","",""
"image-keyboard-response","310","515205","0.0-7.0-0.21","FL","pusqm5jv5t","2560","1440","0","1","0","5f477a85d919ec03cadfaddd","","null","","","","","","","learning/Slide102.JPG","null","","","","","",""
"html-keyboard-response","311","516363","0.0-7.0-1.21","FL","pusqm5jv5t","2560","1440","0","1","0","5f477a85d919ec03cadfaddd","","null","","","learningBlock2","","","","That was a bim.","null","","","","","",""
"html-keyboard-response","312","517367","0.0-7.0-2.21","FL","pusqm5jv5t","2560","1440","0","1","0","5f477a85d919ec03cadfaddd","","null","","","learningBlock2","","","","<div style=""font-size:60px;""> </div>","null","FL","learning/Slide102.JPG","That was a bim.","","",""
"image-keyboard-response","313","517548","0.0-7.0-0.22","FL","pusqm5jv5t","2560","1440","0","1","0","5f477a85d919ec03cadfaddd","","null","","","","","","","learning/Slide103.JPG","null","","","","","",""
"html-keyboard-response","314","518708","0.0-7.0-1.22","FL","pusqm5jv5t","2560","1440","0","1","0","5f477a85d919ec03cadfaddd","","null","","","learningBlock2","","","","That was a dep.","null","","","","","",""
"html-keyboard-response","315","519711","0.0-7.0-2.22","FL","pusqm5jv5t","2560","1440","0","1","0","5f477a85d919ec03cadfaddd","","null","","","learningBlock2","","","","<div style=""font-size:60px;""> </div>","null","FL","learning/Slide103.JPG","That was a dep.","","",""
"image-keyboard-response","316","519892","0.0-7.0-0.23","FL","pusqm5jv5t","2560","1440","0","1","0","5f477a85d919ec03cadfaddd","","null","","","","","","","learning/Slide104.JPG","null","","","","","",""
"html-keyboard-response","317","521053","0.0-7.0-1.23","FL","pusqm5jv5t","2560","1440","0","1","0","5f477a85d919ec03cadfaddd","","null","","","learningBlock2","","","","That was a tob.","null","","","","","",""
"html-keyboard-response","318","522059","0.0-7.0-2.23","FL","pusqm5jv5t","2560","1440","0","1","0","5f477a85d919ec03cadfaddd","","null","","","learningBlock2","","","","<div style=""font-size:60px;""> </div>","null","FL","learning/Slide104.JPG","That was a tob.","","",""
"image-keyboard-response","319","522238","0.0-7.0-0.24","FL","pusqm5jv5t","2560","1440","0","1","0","5f477a85d919ec03cadfaddd","","null","","","","","","","learning/Slide105.JPG","null","","","","","",""
"html-keyboard-response","320","523395","0.0-7.0-1.24","FL","pusqm5jv5t","2560","1440","0","1","0","5f477a85d919ec03cadfaddd","","null","","","learningBlock2","","","","That was a dep.","null","","","","","",""
"html-keyboard-response","321","524396","0.0-7.0-2.24","FL","pusqm5jv5t","2560","1440","0","1","0","5f477a85d919ec03cadfaddd","","null","","","learningBlock2","","","","<div style=""font-size:60px;""> </div>","null","FL","learning/Slide105.JPG","That was a dep.","","",""
"image-keyboard-response","322","524577","0.0-7.0-0.25","FL","pusqm5jv5t","2560","1440","0","1","0","5f477a85d919ec03cadfaddd","","null","","","","","","","learning/Slide106.JPG","null","","","","","",""
"html-keyboard-response","323","525730","0.0-7.0-1.25","FL","pusqm5jv5t","2560","1440","0","1","0","5f477a85d919ec03cadfaddd","","null","","","learningBlock2","","","","That was a wug.","null","","","","","",""
"html-keyboard-response","324","526736","0.0-7.0-2.25","FL","pusqm5jv5t","2560","1440","0","1","0","5f477a85d919ec03cadfaddd","","null","","","learningBlock2","","","","<div style=""font-size:60px;""> </div>","null","FL","learning/Slide106.JPG","That was a wug.","","",""
"image-keyboard-response","325","526914","0.0-7.0-0.26","FL","pusqm5jv5t","2560","1440","0","1","0","5f477a85d919ec03cadfaddd","","null","","","","","","","learning/Slide107.JPG","null","","","","","",""
"html-keyboard-response","326","528071","0.0-7.0-1.26","FL","pusqm5jv5t","2560","1440","0","1","0","5f477a85d919ec03cadfaddd","","null","","","learningBlock2","","","","That was a bim.","null","","","","","",""
"html-keyboard-response","327","529077","0.0-7.0-2.26","FL","pusqm5jv5t","2560","1440","0","1","0","5f477a85d919ec03cadfaddd","","null","","","learningBlock2","","","","<div style=""font-size:60px;""> </div>","null","FL","learning/Slide107.JPG","That was a bim.","","",""
"image-keyboard-response","328","529259","0.0-7.0-0.27","FL","pusqm5jv5t","2560","1440","0","1","0","5f477a85d919ec03cadfaddd","","null","","","","","","","learning/Slide108.JPG","null","","","","","",""
"html-keyboard-response","329","530417","0.0-7.0-1.27","FL","pusqm5jv5t","2560","1440","0","1","0","5f477a85d919ec03cadfaddd","","null","","","learningBlock2","","","","That was a dep.","null","","","","","",""
"html-keyboard-response","330","531418","0.0-7.0-2.27","FL","pusqm5jv5t","2560","1440","0","1","0","5f477a85d919ec03cadfaddd","","null","","","learningBlock2","","","","<div style=""font-size:60px;""> </div>","null","FL","learning/Slide108.JPG","That was a dep.","","",""
"image-keyboard-response","331","531599","0.0-7.0-0.28","FL","pusqm5jv5t","2560","1440","0","1","0","5f477a85d919ec03cadfaddd","","null","","","","","","","learning/Slide109.JPG","null","","","","","",""
"html-keyboard-response","332","532753","0.0-7.0-1.28","FL","pusqm5jv5t","2560","1440","0","1","0","5f477a85d919ec03cadfaddd","","null","","","learningBlock2","","","","That was a wug.","null","","","","","",""
"html-keyboard-response","333","533757","0.0-7.0-2.28","FL","pusqm5jv5t","2560","1440","0","1","0","5f477a85d919ec03cadfaddd","","null","","","learningBlock2","","","","<div style=""font-size:60px;""> </div>","null","FL","learning/Slide109.JPG","That was a wug.","","",""
"image-keyboard-response","334","533937","0.0-7.0-0.29","FL","pusqm5jv5t","2560","1440","0","1","0","5f477a85d919ec03cadfaddd","","null","","","","","","","learning/Slide110.JPG","null","","","","","",""
"html-keyboard-response","335","535097","0.0-7.0-1.29","FL","pusqm5jv5t","2560","1440","0","1","0","5f477a85d919ec03cadfaddd","","null","","","learningBlock2","","","","That was a bim.","null","","","","","",""
"html-keyboard-response","336","536102","0.0-7.0-2.29","FL","pusqm5jv5t","2560","1440","0","1","0","5f477a85d919ec03cadfaddd","","null","","","learningBlock2","","","","<div style=""font-size:60px;""> </div>","null","FL","learning/Slide110.JPG","That was a bim.","","",""
"image-keyboard-response","337","536278","0.0-7.0-0.30","FL","pusqm5jv5t","2560","1440","0","1","0","5f477a85d919ec03cadfaddd","","null","","","","","","","learning/Slide111.JPG","null","","","","","",""
"html-keyboard-response","338","537437","0.0-7.0-1.30","FL","pusqm5jv5t","2560","1440","0","1","0","5f477a85d919ec03cadfaddd","","null","","","learningBlock2","","","","That was a tob.","null","","","","","",""
"html-keyboard-response","339","538442","0.0-7.0-2.30","FL","pusqm5jv5t","2560","1440","0","1","0","5f477a85d919ec03cadfaddd","","null","","","learningBlock2","","","","<div style=""font-size:60px;""> </div>","null","FL","learning/Slide111.JPG","That was a tob.","","",""
"image-keyboard-response","340","538619","0.0-7.0-0.31","FL","pusqm5jv5t","2560","1440","0","1","0","5f477a85d919ec03cadfaddd","","null","","","","","","","learning/Slide112.JPG","null","","","","","",""
"html-keyboard-response","341","539775","0.0-7.0-1.31","FL","pusqm5jv5t","2560","1440","0","1","0","5f477a85d919ec03cadfaddd","","null","","","learningBlock2","","","","That was a wug.","null","","","","","",""
"html-keyboard-response","342","540778","0.0-7.0-2.31","FL","pusqm5jv5t","2560","1440","0","1","0","5f477a85d919ec03cadfaddd","","null","","","learningBlock2","","","","<div style=""font-size:60px;""> </div>","null","FL","learning/Slide112.JPG","That was a wug.","","",""
"image-keyboard-response","343","540959","0.0-7.0-0.32","FL","pusqm5jv5t","2560","1440","0","1","0","5f477a85d919ec03cadfaddd","","null","","","","","","","learning/Slide113.JPG","null","","","","","",""
"html-keyboard-response","344","542120","0.0-7.0-1.32","FL","pusqm5jv5t","2560","1440","0","1","0","5f477a85d919ec03cadfaddd","","null","","","learningBlock2","","","","That was a tob.","null","","","","","",""
"html-keyboard-response","345","543124","0.0-7.0-2.32","FL","pusqm5jv5t","2560","1440","0","1","0","5f477a85d919ec03cadfaddd","","null","","","learningBlock2","","","","<div style=""font-size:60px;""> </div>","null","FL","learning/Slide113.JPG","That was a tob.","","",""
"image-keyboard-response","346","543306","0.0-7.0-0.33","FL","pusqm5jv5t","2560","1440","0","1","0","5f477a85d919ec03cadfaddd","","null","","","","","","","learning/Slide114.JPG","null","","","","","",""
"html-keyboard-response","347","544462","0.0-7.0-1.33","FL","pusqm5jv5t","2560","1440","0","1","0","5f477a85d919ec03cadfaddd","","null","","","learningBlock2","","","","That was a wug.","null","","","","","",""
"html-keyboard-response","348","545463","0.0-7.0-2.33","FL","pusqm5jv5t","2560","1440","0","1","0","5f477a85d919ec03cadfaddd","","null","","","learningBlock2","","","","<div style=""font-size:60px;""> </div>","null","FL","learning/Slide114.JPG","That was a wug.","","",""
"image-keyboard-response","349","545644","0.0-7.0-0.34","FL","pusqm5jv5t","2560","1440","0","1","0","5f477a85d919ec03cadfaddd","","null","","","","","","","learning/Slide115.JPG","null","","","","","",""
"html-keyboard-response","350","546797","0.0-7.0-1.34","FL","pusqm5jv5t","2560","1440","0","1","0","5f477a85d919ec03cadfaddd","","null","","","learningBlock2","","","","That was a bim.","null","","","","","",""
"html-keyboard-response","351","547798","0.0-7.0-2.34","FL","pusqm5jv5t","2560","1440","0","1","0","5f477a85d919ec03cadfaddd","","null","","","learningBlock2","","","","<div style=""font-size:60px;""> </div>","null","FL","learning/Slide115.JPG","That was a bim.","","",""
"image-keyboard-response","352","547976","0.0-7.0-0.35","FL","pusqm5jv5t","2560","1440","0","1","0","5f477a85d919ec03cadfaddd","","null","","","","","","","learning/Slide116.JPG","null","","","","","",""
"html-keyboard-response","353","549132","0.0-7.0-1.35","FL","pusqm5jv5t","2560","1440","0","1","0","5f477a85d919ec03cadfaddd","","null","","","learningBlock2","","","","That was a dep.","null","","","","","",""
"html-keyboard-response","354","550133","0.0-7.0-2.35","FL","pusqm5jv5t","2560","1440","0","1","0","5f477a85d919ec03cadfaddd","","null","","","learningBlock2","","","","<div style=""font-size:60px;""> </div>","null","FL","learning/Slide116.JPG","That was a dep.","","",""
"image-keyboard-response","355","550314","0.0-7.0-0.36","FL","pusqm5jv5t","2560","1440","0","1","0","5f477a85d919ec03cadfaddd","","null","","","","","","","learning/Slide117.JPG","null","","","","","",""
"html-keyboard-response","356","551475","0.0-7.0-1.36","FL","pusqm5jv5t","2560","1440","0","1","0","5f477a85d919ec03cadfaddd","","null","","","learningBlock2","","","","That was a tob.","null","","","","","",""
"html-keyboard-response","357","552481","0.0-7.0-2.36","FL","pusqm5jv5t","2560","1440","0","1","0","5f477a85d919ec03cadfaddd","","null","","","learningBlock2","","","","<div style=""font-size:60px;""> </div>","null","FL","learning/Slide117.JPG","That was a tob.","","",""
"image-keyboard-response","358","552662","0.0-7.0-0.37","FL","pusqm5jv5t","2560","1440","0","1","0","5f477a85d919ec03cadfaddd","","null","","","","","","","learning/Slide118.JPG","null","","","","","",""
"html-keyboard-response","359","553819","0.0-7.0-1.37","FL","pusqm5jv5t","2560","1440","0","1","0","5f477a85d919ec03cadfaddd","","null","","","learningBlock2","","","","That was a dep.","null","","","","","",""
"html-keyboard-response","360","554823","0.0-7.0-2.37","FL","pusqm5jv5t","2560","1440","0","1","0","5f477a85d919ec03cadfaddd","","null","","","learningBlock2","","","","<div style=""font-size:60px;""> </div>","null","FL","learning/Slide118.JPG","That was a dep.","","",""
"image-keyboard-response","361","555003","0.0-7.0-0.38","FL","pusqm5jv5t","2560","1440","0","1","0","5f477a85d919ec03cadfaddd","","null","","","","","","","learning/Slide119.JPG","null","","","","","",""
"html-keyboard-response","362","556154","0.0-7.0-1.38","FL","pusqm5jv5t","2560","1440","0","1","0","5f477a85d919ec03cadfaddd","","null","","","learningBlock2","","","","That was a wug.","null","","","","","",""
"html-keyboard-response","363","557158","0.0-7.0-2.38","FL","pusqm5jv5t","2560","1440","0","1","0","5f477a85d919ec03cadfaddd","","null","","","learningBlock2","","","","<div style=""font-size:60px;""> </div>","null","FL","learning/Slide119.JPG","That was a wug.","","",""
"image-keyboard-response","364","557339","0.0-7.0-0.39","FL","pusqm5jv5t","2560","1440","0","1","0","5f477a85d919ec03cadfaddd","","null","","","","","","","learning/Slide120.JPG","null","","","","","",""
"html-keyboard-response","365","558500","0.0-7.0-1.39","FL","pusqm5jv5t","2560","1440","0","1","0","5f477a85d919ec03cadfaddd","","null","","","learningBlock2","","","","That was a dep.","null","","","","","",""
"html-keyboard-response","366","559504","0.0-7.0-2.39","FL","pusqm5jv5t","2560","1440","0","1","0","5f477a85d919ec03cadfaddd","","null","","","learningBlock2","","","","<div style=""font-size:60px;""> </div>","null","FL","learning/Slide120.JPG","That was a dep.","","",""
"image-keyboard-response","367","559685","0.0-7.0-0.40","FL","pusqm5jv5t","2560","1440","0","1","0","5f477a85d919ec03cadfaddd","","null","","","","","","","learning/Slide121.JPG","null","","","","","",""
"html-keyboard-response","368","560841","0.0-7.0-1.40","FL","pusqm5jv5t","2560","1440","0","1","0","5f477a85d919ec03cadfaddd","","null","","","learningBlock2","","","","That was a bim.","null","","","","","",""
"html-keyboard-response","369","561847","0.0-7.0-2.40","FL","pusqm5jv5t","2560","1440","0","1","0","5f477a85d919ec03cadfaddd","","null","","","learningBlock2","","","","<div style=""font-size:60px;""> </div>","null","FL","learning/Slide121.JPG","That was a bim.","","",""
"image-keyboard-response","370","562026","0.0-7.0-0.41","FL","pusqm5jv5t","2560","1440","0","1","0","5f477a85d919ec03cadfaddd","","null","","","","","","","learning/Slide122.JPG","null","","","","","",""
"html-keyboard-response","371","563187","0.0-7.0-1.41","FL","pusqm5jv5t","2560","1440","0","1","0","5f477a85d919ec03cadfaddd","","null","","","learningBlock2","","","","That was a wug.","null","","","","","",""
"html-keyboard-response","372","564193","0.0-7.0-2.41","FL","pusqm5jv5t","2560","1440","0","1","0","5f477a85d919ec03cadfaddd","","null","","","learningBlock2","","","","<div style=""font-size:60px;""> </div>","null","FL","learning/Slide122.JPG","That was a wug.","","",""
"image-keyboard-response","373","564374","0.0-7.0-0.42","FL","pusqm5jv5t","2560","1440","0","1","0","5f477a85d919ec03cadfaddd","","null","","","","","","","learning/Slide123.JPG","null","","","","","",""
"html-keyboard-response","374","565527","0.0-7.0-1.42","FL","pusqm5jv5t","2560","1440","0","1","0","5f477a85d919ec03cadfaddd","","null","","","learningBlock2","","","","That was a bim.","null","","","","","",""
"html-keyboard-response","375","566529","0.0-7.0-2.42","FL","pusqm5jv5t","2560","1440","0","1","0","5f477a85d919ec03cadfaddd","","null","","","learningBlock2","","","","<div style=""font-size:60px;""> </div>","null","FL","learning/Slide123.JPG","That was a bim.","","",""
"image-keyboard-response","376","566706","0.0-7.0-0.43","FL","pusqm5jv5t","2560","1440","0","1","0","5f477a85d919ec03cadfaddd","","null","","","","","","","learning/Slide124.JPG","null","","","","","",""
"html-keyboard-response","377","567865","0.0-7.0-1.43","FL","pusqm5jv5t","2560","1440","0","1","0","5f477a85d919ec03cadfaddd","","null","","","learningBlock2","","","","That was a tob.","null","","","","","",""
"html-keyboard-response","378","568869","0.0-7.0-2.43","FL","pusqm5jv5t","2560","1440","0","1","0","5f477a85d919ec03cadfaddd","","null","","","learningBlock2","","","","<div style=""font-size:60px;""> </div>","null","FL","learning/Slide124.JPG","That was a tob.","","",""
"image-keyboard-response","379","569048","0.0-7.0-0.44","FL","pusqm5jv5t","2560","1440","0","1","0","5f477a85d919ec03cadfaddd","","null","","","","","","","learning/Slide125.JPG","null","","","","","",""
"html-keyboard-response","380","570205","0.0-7.0-1.44","FL","pusqm5jv5t","2560","1440","0","1","0","5f477a85d919ec03cadfaddd","","null","","","learningBlock2","","","","That was a bim.","null","","","","","",""
"html-keyboard-response","381","571211","0.0-7.0-2.44","FL","pusqm5jv5t","2560","1440","0","1","0","5f477a85d919ec03cadfaddd","","null","","","learningBlock2","","","","<div style=""font-size:60px;""> </div>","null","FL","learning/Slide125.JPG","That was a bim.","","",""
"image-keyboard-response","382","571387","0.0-7.0-0.45","FL","pusqm5jv5t","2560","1440","0","1","0","5f477a85d919ec03cadfaddd","","null","","","","","","","learning/Slide126.JPG","null","","","","","",""
"html-keyboard-response","383","572548","0.0-7.0-1.45","FL","pusqm5jv5t","2560","1440","0","1","0","5f477a85d919ec03cadfaddd","","null","","","learningBlock2","","","","That was a tob.","null","","","","","",""
"html-keyboard-response","384","573552","0.0-7.0-2.45","FL","pusqm5jv5t","2560","1440","0","1","0","5f477a85d919ec03cadfaddd","","null","","","learningBlock2","","","","<div style=""font-size:60px;""> </div>","null","FL","learning/Slide126.JPG","That was a tob.","","",""
"image-keyboard-response","385","573733","0.0-7.0-0.46","FL","pusqm5jv5t","2560","1440","0","1","0","5f477a85d919ec03cadfaddd","","null","","","","","","","learning/Slide127.JPG","null","","","","","",""
"html-keyboard-response","386","574885","0.0-7.0-1.46","FL","pusqm5jv5t","2560","1440","0","1","0","5f477a85d919ec03cadfaddd","","null","","","learningBlock2","","","","That was a dep.","null","","","","","",""
"html-keyboard-response","387","575888","0.0-7.0-2.46","FL","pusqm5jv5t","2560","1440","0","1","0","5f477a85d919ec03cadfaddd","","null","","","learningBlock2","","","","<div style=""font-size:60px;""> </div>","null","FL","learning/Slide127.JPG","That was a dep.","","",""
"image-keyboard-response","388","576070","0.0-7.0-0.47","FL","pusqm5jv5t","2560","1440","0","1","0","5f477a85d919ec03cadfaddd","","null","","","","","","","learning/Slide128.JPG","null","","","","","",""
"html-keyboard-response","389","577221","0.0-7.0-1.47","FL","pusqm5jv5t","2560","1440","0","1","0","5f477a85d919ec03cadfaddd","","null","","","learningBlock2","","","","That was a wug.","null","","","","","",""
"html-keyboard-response","390","578225","0.0-7.0-2.47","FL","pusqm5jv5t","2560","1440","0","1","0","5f477a85d919ec03cadfaddd","","null","","","learningBlock2","","","","<div style=""font-size:60px;""> </div>","null","FL","learning/Slide128.JPG","That was a wug.","","",""
"image-keyboard-response","391","578406","0.0-7.0-0.48","FL","pusqm5jv5t","2560","1440","0","1","0","5f477a85d919ec03cadfaddd","","null","","","","","","","learning/Slide129.JPG","null","","","","","",""
"html-keyboard-response","392","579564","0.0-7.0-1.48","FL","pusqm5jv5t","2560","1440","0","1","0","5f477a85d919ec03cadfaddd","","null","","","learningBlock2","","","","That was a tob.","null","","","","","",""
"html-keyboard-response","393","580568","0.0-7.0-2.48","FL","pusqm5jv5t","2560","1440","0","1","0","5f477a85d919ec03cadfaddd","","null","","","learningBlock2","","","","<div style=""font-size:60px;""> </div>","null","FL","learning/Slide129.JPG","That was a tob.","","",""
"image-keyboard-response","394","580749","0.0-7.0-0.49","FL","pusqm5jv5t","2560","1440","0","1","0","5f477a85d919ec03cadfaddd","","null","","","","","","","learning/Slide130.JPG","null","","","","","",""
"html-keyboard-response","395","581908","0.0-7.0-1.49","FL","pusqm5jv5t","2560","1440","0","1","0","5f477a85d919ec03cadfaddd","","null","","","learningBlock2","","","","That was a wug.","null","","","","","",""
"html-keyboard-response","396","582914","0.0-7.0-2.49","FL","pusqm5jv5t","2560","1440","0","1","0","5f477a85d919ec03cadfaddd","","null","","","learningBlock2","","","","<div style=""font-size:60px;""> </div>","null","FL","learning/Slide130.JPG","That was a wug.","","",""
"image-keyboard-response","397","583093","0.0-7.0-0.50","FL","pusqm5jv5t","2560","1440","0","1","0","5f477a85d919ec03cadfaddd","","null","","","","","","","learning/Slide131.JPG","null","","","","","",""
"html-keyboard-response","398","584254","0.0-7.0-1.50","FL","pusqm5jv5t","2560","1440","0","1","0","5f477a85d919ec03cadfaddd","","null","","","learningBlock2","","","","That was a bim.","null","","","","","",""
"html-keyboard-response","399","585260","0.0-7.0-2.50","FL","pusqm5jv5t","2560","1440","0","1","0","5f477a85d919ec03cadfaddd","","null","","","learningBlock2","","","","<div style=""font-size:60px;""> </div>","null","FL","learning/Slide131.JPG","That was a bim.","","",""
"image-keyboard-response","400","585441","0.0-7.0-0.51","FL","pusqm5jv5t","2560","1440","0","1","0","5f477a85d919ec03cadfaddd","","null","","","","","","","learning/Slide132.JPG","null","","","","","",""
"html-keyboard-response","401","586595","0.0-7.0-1.51","FL","pusqm5jv5t","2560","1440","0","1","0","5f477a85d919ec03cadfaddd","","null","","","learningBlock2","","","","That was a dep.","null","","","","","",""
"html-keyboard-response","402","587601","0.0-7.0-2.51","FL","pusqm5jv5t","2560","1440","0","1","0","5f477a85d919ec03cadfaddd","","null","","","learningBlock2","","","","<div style=""font-size:60px;""> </div>","null","FL","learning/Slide132.JPG","That was a dep.","","",""
"image-keyboard-response","403","587780","0.0-7.0-0.52","FL","pusqm5jv5t","2560","1440","0","1","0","5f477a85d919ec03cadfaddd","","null","","","","","","","learning/Slide133.JPG","null","","","","","",""
"html-keyboard-response","404","588942","0.0-7.0-1.52","FL","pusqm5jv5t","2560","1440","0","1","0","5f477a85d919ec03cadfaddd","","null","","","learningBlock2","","","","That was a tob.","null","","","","","",""
"html-keyboard-response","405","589947","0.0-7.0-2.52","FL","pusqm5jv5t","2560","1440","0","1","0","5f477a85d919ec03cadfaddd","","null","","","learningBlock2","","","","<div style=""font-size:60px;""> </div>","null","FL","learning/Slide133.JPG","That was a tob.","","",""
"image-keyboard-response","406","590128","0.0-7.0-0.53","FL","pusqm5jv5t","2560","1440","0","1","0","5f477a85d919ec03cadfaddd","","null","","","","","","","learning/Slide134.JPG","null","","","","","",""
"html-keyboard-response","407","591282","0.0-7.0-1.53","FL","pusqm5jv5t","2560","1440","0","1","0","5f477a85d919ec03cadfaddd","","null","","","learningBlock2","","","","That was a dep.","null","","","","","",""
"html-keyboard-response","408","592288","0.0-7.0-2.53","FL","pusqm5jv5t","2560","1440","0","1","0","5f477a85d919ec03cadfaddd","","null","","","learningBlock2","","","","<div style=""font-size:60px;""> </div>","null","FL","learning/Slide134.JPG","That was a dep.","","",""
"image-keyboard-response","409","592467","0.0-7.0-0.54","FL","pusqm5jv5t","2560","1440","0","1","0","5f477a85d919ec03cadfaddd","","null","","","","","","","learning/Slide135.JPG","null","","","","","",""
"html-keyboard-response","410","593628","0.0-7.0-1.54","FL","pusqm5jv5t","2560","1440","0","1","0","5f477a85d919ec03cadfaddd","","null","","","learningBlock2","","","","That was a tob.","null","","","","","",""
"html-keyboard-response","411","594632","0.0-7.0-2.54","FL","pusqm5jv5t","2560","1440","0","1","0","5f477a85d919ec03cadfaddd","","null","","","learningBlock2","","","","<div style=""font-size:60px;""> </div>","null","FL","learning/Slide135.JPG","That was a tob.","","",""
"image-keyboard-response","412","594813","0.0-7.0-0.55","FL","pusqm5jv5t","2560","1440","0","1","0","5f477a85d919ec03cadfaddd","","null","","","","","","","learning/Slide136.JPG","null","","","","","",""
"html-keyboard-response","413","595969","0.0-7.0-1.55","FL","pusqm5jv5t","2560","1440","0","1","0","5f477a85d919ec03cadfaddd","","null","","","learningBlock2","","","","That was a wug.","null","","","","","",""
"html-keyboard-response","414","596974","0.0-7.0-2.55","FL","pusqm5jv5t","2560","1440","0","1","0","5f477a85d919ec03cadfaddd","","null","","","learningBlock2","","","","<div style=""font-size:60px;""> </div>","null","FL","learning/Slide136.JPG","That was a wug.","","",""
"image-keyboard-response","415","597154","0.0-7.0-0.56","FL","pusqm5jv5t","2560","1440","0","1","0","5f477a85d919ec03cadfaddd","","null","","","","","","","learning/Slide137.JPG","null","","","","","",""
"html-keyboard-response","416","598315","0.0-7.0-1.56","FL","pusqm5jv5t","2560","1440","0","1","0","5f477a85d919ec03cadfaddd","","null","","","learningBlock2","","","","That was a tob.","null","","","","","",""
"html-keyboard-response","417","599319","0.0-7.0-2.56","FL","pusqm5jv5t","2560","1440","0","1","0","5f477a85d919ec03cadfaddd","","null","","","learningBlock2","","","","<div style=""font-size:60px;""> </div>","null","FL","learning/Slide137.JPG","That was a tob.","","",""
"image-keyboard-response","418","599500","0.0-7.0-0.57","FL","pusqm5jv5t","2560","1440","0","1","0","5f477a85d919ec03cadfaddd","","null","","","","","","","learning/Slide138.JPG","null","","","","","",""
"html-keyboard-response","419","600656","0.0-7.0-1.57","FL","pusqm5jv5t","2560","1440","0","1","0","5f477a85d919ec03cadfaddd","","null","","","learningBlock2","","","","That was a bim.","null","","","","","",""
"html-keyboard-response","420","601660","0.0-7.0-2.57","FL","pusqm5jv5t","2560","1440","0","1","0","5f477a85d919ec03cadfaddd","","null","","","learningBlock2","","","","<div style=""font-size:60px;""> </div>","null","FL","learning/Slide138.JPG","That was a bim.","","",""
"image-keyboard-response","421","601841","0.0-7.0-0.58","FL","pusqm5jv5t","2560","1440","0","1","0","5f477a85d919ec03cadfaddd","","null","","","","","","","learning/Slide139.JPG","null","","","","","",""
"html-keyboard-response","422","603002","0.0-7.0-1.58","FL","pusqm5jv5t","2560","1440","0","1","0","5f477a85d919ec03cadfaddd","","null","","","learningBlock2","","","","That was a wug.","null","","","","","",""
"html-keyboard-response","423","604008","0.0-7.0-2.58","FL","pusqm5jv5t","2560","1440","0","1","0","5f477a85d919ec03cadfaddd","","null","","","learningBlock2","","","","<div style=""font-size:60px;""> </div>","null","FL","learning/Slide139.JPG","That was a wug.","","",""
"image-keyboard-response","424","604189","0.0-7.0-0.59","FL","pusqm5jv5t","2560","1440","0","1","0","5f477a85d919ec03cadfaddd","","null","","","","","","","learning/Slide140.JPG","null","","","","","",""
"html-keyboard-response","425","605344","0.0-7.0-1.59","FL","pusqm5jv5t","2560","1440","0","1","0","5f477a85d919ec03cadfaddd","","null","","","learningBlock2","","","","That was a dep.","null","","","","","",""
"html-keyboard-response","426","606345","0.0-7.0-2.59","FL","pusqm5jv5t","2560","1440","0","1","0","5f477a85d919ec03cadfaddd","","null","","","learningBlock2","","","","<div style=""font-size:60px;""> </div>","null","FL","learning/Slide140.JPG","That was a dep.","","",""
"image-keyboard-response","427","606526","0.0-7.0-0.60","FL","pusqm5jv5t","2560","1440","0","1","0","5f477a85d919ec03cadfaddd","","null","","","","","","","learning/Slide141.JPG","null","","","","","",""
"html-keyboard-response","428","607679","0.0-7.0-1.60","FL","pusqm5jv5t","2560","1440","0","1","0","5f477a85d919ec03cadfaddd","","null","","","learningBlock2","","","","That was a tob.","null","","","","","",""
"html-keyboard-response","429","608680","0.0-7.0-2.60","FL","pusqm5jv5t","2560","1440","0","1","0","5f477a85d919ec03cadfaddd","","null","","","learningBlock2","","","","<div style=""font-size:60px;""> </div>","null","FL","learning/Slide141.JPG","That was a tob.","","",""
"image-keyboard-response","430","608861","0.0-7.0-0.61","FL","pusqm5jv5t","2560","1440","0","1","0","5f477a85d919ec03cadfaddd","","null","","","","","","","learning/Slide142.JPG","null","","","","","",""
"html-keyboard-response","431","610014","0.0-7.0-1.61","FL","pusqm5jv5t","2560","1440","0","1","0","5f477a85d919ec03cadfaddd","","null","","","learningBlock2","","","","That was a wug.","null","","","","","",""
"html-keyboard-response","432","611015","0.0-7.0-2.61","FL","pusqm5jv5t","2560","1440","0","1","0","5f477a85d919ec03cadfaddd","","null","","","learningBlock2","","","","<div style=""font-size:60px;""> </div>","null","FL","learning/Slide142.JPG","That was a wug.","","",""
"image-keyboard-response","433","611197","0.0-7.0-0.62","FL","pusqm5jv5t","2560","1440","0","1","0","5f477a85d919ec03cadfaddd","","null","","","","","","","learning/Slide143.JPG","null","","","","","",""
"html-keyboard-response","434","612350","0.0-7.0-1.62","FL","pusqm5jv5t","2560","1440","0","1","0","5f477a85d919ec03cadfaddd","","null","","","learningBlock2","","","","That was a bim.","null","","","","","",""
