"trial_type","trial_index","time_elapsed","internal_node_id","condition","subject","screen_width","screen_height","attention","distraction","conscientious","prolificID","success","rt","url","view_history","test_part","final_height_px","final_width_px","scale_factor","stimulus","key_press","learningType","presentedImage","presentedLabel","button_pressed","response","responses"
"pavlovia","0","25","0.0-0.0","LF","fggxxfkvfo","1366","768","0","1","0","5fbfb86436a5de31c546f37b","","","","","","","","","","","","","","","",""
"fullscreen","1","4923","0.0-1.0","LF","fggxxfkvfo","1366","768","0","1","0","5fbfb86436a5de31c546f37b","true","","","","","","","","","","","","","","",""
"external-html","2","12386","0.0-2.0-0.0","LF","fggxxfkvfo","1366","768","0","1","0","5fbfb86436a5de31c546f37b","","5621.855000004871","text/information_english.html","","","","","","","","","","","","",""
"external-html","3","20184","0.0-2.0-1.0","LF","fggxxfkvfo","1366","768","0","1","0","5fbfb86436a5de31c546f37b","","6053.895000004559","text/consent_english.html","","","","","","","","","","","","",""
"instructions","4","40821","0.0-3.0","LF","fggxxfkvfo","1366","768","0","1","0","5fbfb86436a5de31c546f37b","","NA","","[{""page_index"":0,""viewing_time"":5826.800000009825},{""page_index"":1,""viewing_time"":14807.759999996051}]","instructions","","","","","","","","","","",""
"resize","5","79949","0.0-4.0","LF","fggxxfkvfo","1366","768","0","1","0","5fbfb86436a5de31c546f37b","","","","","","","334","2.1206349206349207","","","","","","","",""
"html-keyboard-response","6","80959","0.0-5.0-0.0","LF","fggxxfkvfo","1366","768","0","1","0","5fbfb86436a5de31c546f37b","","null","","","learningBlock1","","","","This is a tob:","null","","","","","",""
"image-keyboard-response","7","81293","0.0-5.0-1.0","LF","fggxxfkvfo","1366","768","0","1","0","5fbfb86436a5de31c546f37b","","null","","","","","","","learning/Slide1.JPG","null","","","","","",""
"html-keyboard-response","8","82301","0.0-5.0-2.0","LF","fggxxfkvfo","1366","768","0","1","0","5fbfb86436a5de31c546f37b","","null","","","learningBlock1","","","","<div style=""font-size:60px;""> </div>","null","LF","learning/Slide1.JPG","This is a tob:","","",""
"html-keyboard-response","9","83309","0.0-5.0-0.1","LF","fggxxfkvfo","1366","768","0","1","0","5fbfb86436a5de31c546f37b","","null","","","learningBlock1","","","","This is a wug:","null","","","","","",""
"image-keyboard-response","10","83645","0.0-5.0-1.1","LF","fggxxfkvfo","1366","768","0","1","0","5fbfb86436a5de31c546f37b","","null","","","","","","","learning/Slide2.JPG","null","","","","","",""
"html-keyboard-response","11","84653","0.0-5.0-2.1","LF","fggxxfkvfo","1366","768","0","1","0","5fbfb86436a5de31c546f37b","","null","","","learningBlock1","","","","<div style=""font-size:60px;""> </div>","null","LF","learning/Slide2.JPG","This is a wug:","","",""
"html-keyboard-response","12","85664","0.0-5.0-0.2","LF","fggxxfkvfo","1366","768","0","1","0","5fbfb86436a5de31c546f37b","","null","","","learningBlock1","","","","This is a bim:","null","","","","","",""
"image-keyboard-response","13","86013","0.0-5.0-1.2","LF","fggxxfkvfo","1366","768","0","1","0","5fbfb86436a5de31c546f37b","","null","","","","","","","learning/Slide3.JPG","null","","","","","",""
"html-keyboard-response","14","87024","0.0-5.0-2.2","LF","fggxxfkvfo","1366","768","0","1","0","5fbfb86436a5de31c546f37b","","null","","","learningBlock1","","","","<div style=""font-size:60px;""> </div>","null","LF","learning/Slide3.JPG","This is a bim:","","",""
"html-keyboard-response","15","88032","0.0-5.0-0.3","LF","fggxxfkvfo","1366","768","0","1","0","5fbfb86436a5de31c546f37b","","null","","","learningBlock1","","","","This is a dep:","null","","","","","",""
"image-keyboard-response","16","88370","0.0-5.0-1.3","LF","fggxxfkvfo","1366","768","0","1","0","5fbfb86436a5de31c546f37b","","null","","","","","","","learning/Slide4.JPG","null","","","","","",""
"html-keyboard-response","17","89385","0.0-5.0-2.3","LF","fggxxfkvfo","1366","768","0","1","0","5fbfb86436a5de31c546f37b","","null","","","learningBlock1","","","","<div style=""font-size:60px;""> </div>","null","LF","learning/Slide4.JPG","This is a dep:","","",""
"html-keyboard-response","18","90387","0.0-5.0-0.4","LF","fggxxfkvfo","1366","768","0","1","0","5fbfb86436a5de31c546f37b","","null","","","learningBlock1","","","","This is a wug:","null","","","","","",""
"image-keyboard-response","19","90736","0.0-5.0-1.4","LF","fggxxfkvfo","1366","768","0","1","0","5fbfb86436a5de31c546f37b","","null","","","","","","","learning/Slide5.JPG","null","","","","","",""
"html-keyboard-response","20","91746","0.0-5.0-2.4","LF","fggxxfkvfo","1366","768","0","1","0","5fbfb86436a5de31c546f37b","","null","","","learningBlock1","","","","<div style=""font-size:60px;""> </div>","null","LF","learning/Slide5.JPG","This is a wug:","","",""
"html-keyboard-response","21","92749","0.0-5.0-0.5","LF","fggxxfkvfo","1366","768","0","1","0","5fbfb86436a5de31c546f37b","","null","","","learningBlock1","","","","This is a dep:","null","","","","","",""
"image-keyboard-response","22","93084","0.0-5.0-1.5","LF","fggxxfkvfo","1366","768","0","1","0","5fbfb86436a5de31c546f37b","","null","","","","","","","learning/Slide6.JPG","null","","","","","",""
"html-keyboard-response","23","94092","0.0-5.0-2.5","LF","fggxxfkvfo","1366","768","0","1","0","5fbfb86436a5de31c546f37b","","null","","","learningBlock1","","","","<div style=""font-size:60px;""> </div>","null","LF","learning/Slide6.JPG","This is a dep:","","",""
"html-keyboard-response","24","95101","0.0-5.0-0.6","LF","fggxxfkvfo","1366","768","0","1","0","5fbfb86436a5de31c546f37b","","null","","","learningBlock1","","","","This is a wug:","null","","","","","",""
"image-keyboard-response","25","95436","0.0-5.0-1.6","LF","fggxxfkvfo","1366","768","0","1","0","5fbfb86436a5de31c546f37b","","null","","","","","","","learning/Slide7.JPG","null","","","","","",""
"html-keyboard-response","26","96444","0.0-5.0-2.6","LF","fggxxfkvfo","1366","768","0","1","0","5fbfb86436a5de31c546f37b","","null","","","learningBlock1","","","","<div style=""font-size:60px;""> </div>","null","LF","learning/Slide7.JPG","This is a wug:","","",""
"html-keyboard-response","27","97453","0.0-5.0-0.7","LF","fggxxfkvfo","1366","768","0","1","0","5fbfb86436a5de31c546f37b","","null","","","learningBlock1","","","","This is a bim:","null","","","","","",""
"image-keyboard-response","28","97789","0.0-5.0-1.7","LF","fggxxfkvfo","1366","768","0","1","0","5fbfb86436a5de31c546f37b","","null","","","","","","","learning/Slide8.JPG","null","","","","","",""
"html-keyboard-response","29","98799","0.0-5.0-2.7","LF","fggxxfkvfo","1366","768","0","1","0","5fbfb86436a5de31c546f37b","","null","","","learningBlock1","","","","<div style=""font-size:60px;""> </div>","null","LF","learning/Slide8.JPG","This is a bim:","","",""
"html-keyboard-response","30","99807","0.0-5.0-0.8","LF","fggxxfkvfo","1366","768","0","1","0","5fbfb86436a5de31c546f37b","","null","","","learningBlock1","","","","This is a wug:","null","","","","","",""
"image-keyboard-response","31","100143","0.0-5.0-1.8","LF","fggxxfkvfo","1366","768","0","1","0","5fbfb86436a5de31c546f37b","","null","","","","","","","learning/Slide9.JPG","null","","","","","",""
"html-keyboard-response","32","101152","0.0-5.0-2.8","LF","fggxxfkvfo","1366","768","0","1","0","5fbfb86436a5de31c546f37b","","null","","","learningBlock1","","","","<div style=""font-size:60px;""> </div>","null","LF","learning/Slide9.JPG","This is a wug:","","",""
"html-keyboard-response","33","102154","0.0-5.0-0.9","LF","fggxxfkvfo","1366","768","0","1","0","5fbfb86436a5de31c546f37b","","null","","","learningBlock1","","","","This is a dep:","null","","","","","",""
"image-keyboard-response","34","102497","0.0-5.0-1.9","LF","fggxxfkvfo","1366","768","0","1","0","5fbfb86436a5de31c546f37b","","null","","","","","","","learning/Slide10.JPG","null","","","","","",""
"html-keyboard-response","35","103509","0.0-5.0-2.9","LF","fggxxfkvfo","1366","768","0","1","0","5fbfb86436a5de31c546f37b","","null","","","learningBlock1","","","","<div style=""font-size:60px;""> </div>","null","LF","learning/Slide10.JPG","This is a dep:","","",""
"html-keyboard-response","36","104513","0.0-5.0-0.10","LF","fggxxfkvfo","1366","768","0","1","0","5fbfb86436a5de31c546f37b","","null","","","learningBlock1","","","","This is a tob:","null","","","","","",""
"image-keyboard-response","37","104861","0.0-5.0-1.10","LF","fggxxfkvfo","1366","768","0","1","0","5fbfb86436a5de31c546f37b","","null","","","","","","","learning/Slide11.JPG","null","","","","","",""
"html-keyboard-response","38","105871","0.0-5.0-2.10","LF","fggxxfkvfo","1366","768","0","1","0","5fbfb86436a5de31c546f37b","","null","","","learningBlock1","","","","<div style=""font-size:60px;""> </div>","null","LF","learning/Slide11.JPG","This is a tob:","","",""
"html-keyboard-response","39","106884","0.0-5.0-0.11","LF","fggxxfkvfo","1366","768","0","1","0","5fbfb86436a5de31c546f37b","","null","","","learningBlock1","","","","This is a dep:","null","","","","","",""
"image-keyboard-response","40","107241","0.0-5.0-1.11","LF","fggxxfkvfo","1366","768","0","1","0","5fbfb86436a5de31c546f37b","","null","","","","","","","learning/Slide12.JPG","null","","","","","",""
"html-keyboard-response","41","108249","0.0-5.0-2.11","LF","fggxxfkvfo","1366","768","0","1","0","5fbfb86436a5de31c546f37b","","null","","","learningBlock1","","","","<div style=""font-size:60px;""> </div>","null","LF","learning/Slide12.JPG","This is a dep:","","",""
"html-keyboard-response","42","109256","0.0-5.0-0.12","LF","fggxxfkvfo","1366","768","0","1","0","5fbfb86436a5de31c546f37b","","null","","","learningBlock1","","","","This is a bim:","null","","","","","",""
"image-keyboard-response","43","109592","0.0-5.0-1.12","LF","fggxxfkvfo","1366","768","0","1","0","5fbfb86436a5de31c546f37b","","null","","","","","","","learning/Slide13.JPG","null","","","","","",""
"html-keyboard-response","44","110600","0.0-5.0-2.12","LF","fggxxfkvfo","1366","768","0","1","0","5fbfb86436a5de31c546f37b","","null","","","learningBlock1","","","","<div style=""font-size:60px;""> </div>","null","LF","learning/Slide13.JPG","This is a bim:","","",""
"html-keyboard-response","45","111609","0.0-5.0-0.13","LF","fggxxfkvfo","1366","768","0","1","0","5fbfb86436a5de31c546f37b","","null","","","learningBlock1","","","","This is a wug:","null","","","","","",""
"image-keyboard-response","46","111952","0.0-5.0-1.13","LF","fggxxfkvfo","1366","768","0","1","0","5fbfb86436a5de31c546f37b","","null","","","","","","","learning/Slide14.JPG","null","","","","","",""
"html-keyboard-response","47","112960","0.0-5.0-2.13","LF","fggxxfkvfo","1366","768","0","1","0","5fbfb86436a5de31c546f37b","","null","","","learningBlock1","","","","<div style=""font-size:60px;""> </div>","null","LF","learning/Slide14.JPG","This is a wug:","","",""
"html-keyboard-response","48","113968","0.0-5.0-0.14","LF","fggxxfkvfo","1366","768","0","1","0","5fbfb86436a5de31c546f37b","","null","","","learningBlock1","","","","This is a tob:","null","","","","","",""
"image-keyboard-response","49","114314","0.0-5.0-1.14","LF","fggxxfkvfo","1366","768","0","1","0","5fbfb86436a5de31c546f37b","","null","","","","","","","learning/Slide15.JPG","null","","","","","",""
"html-keyboard-response","50","115320","0.0-5.0-2.14","LF","fggxxfkvfo","1366","768","0","1","0","5fbfb86436a5de31c546f37b","","null","","","learningBlock1","","","","<div style=""font-size:60px;""> </div>","null","LF","learning/Slide15.JPG","This is a tob:","","",""
"html-keyboard-response","51","116323","0.0-5.0-0.15","LF","fggxxfkvfo","1366","768","0","1","0","5fbfb86436a5de31c546f37b","","null","","","learningBlock1","","","","This is a dep:","null","","","","","",""
"image-keyboard-response","52","116671","0.0-5.0-1.15","LF","fggxxfkvfo","1366","768","0","1","0","5fbfb86436a5de31c546f37b","","null","","","","","","","learning/Slide16.JPG","null","","","","","",""
"html-keyboard-response","53","117680","0.0-5.0-2.15","LF","fggxxfkvfo","1366","768","0","1","0","5fbfb86436a5de31c546f37b","","null","","","learningBlock1","","","","<div style=""font-size:60px;""> </div>","null","LF","learning/Slide16.JPG","This is a dep:","","",""
"html-keyboard-response","54","118689","0.0-5.0-0.16","LF","fggxxfkvfo","1366","768","0","1","0","5fbfb86436a5de31c546f37b","","null","","","learningBlock1","","","","This is a bim:","null","","","","","",""
"image-keyboard-response","55","119025","0.0-5.0-1.16","LF","fggxxfkvfo","1366","768","0","1","0","5fbfb86436a5de31c546f37b","","null","","","","","","","learning/Slide17.JPG","null","","","","","",""
"html-keyboard-response","56","120041","0.0-5.0-2.16","LF","fggxxfkvfo","1366","768","0","1","0","5fbfb86436a5de31c546f37b","","null","","","learningBlock1","","","","<div style=""font-size:60px;""> </div>","null","LF","learning/Slide17.JPG","This is a bim:","","",""
"html-keyboard-response","57","121054","0.0-5.0-0.17","LF","fggxxfkvfo","1366","768","0","1","0","5fbfb86436a5de31c546f37b","","null","","","learningBlock1","","","","This is a tob:","null","","","","","",""
"image-keyboard-response","58","121410","0.0-5.0-1.17","LF","fggxxfkvfo","1366","768","0","1","0","5fbfb86436a5de31c546f37b","","null","","","","","","","learning/Slide18.JPG","null","","","","","",""
"html-keyboard-response","59","122417","0.0-5.0-2.17","LF","fggxxfkvfo","1366","768","0","1","0","5fbfb86436a5de31c546f37b","","null","","","learningBlock1","","","","<div style=""font-size:60px;""> </div>","null","LF","learning/Slide18.JPG","This is a tob:","","",""
"html-keyboard-response","60","123425","0.0-5.0-0.18","LF","fggxxfkvfo","1366","768","0","1","0","5fbfb86436a5de31c546f37b","","null","","","learningBlock1","","","","This is a wug:","null","","","","","",""
"image-keyboard-response","61","123761","0.0-5.0-1.18","LF","fggxxfkvfo","1366","768","0","1","0","5fbfb86436a5de31c546f37b","","null","","","","","","","learning/Slide19.JPG","null","","","","","",""
"html-keyboard-response","62","124769","0.0-5.0-2.18","LF","fggxxfkvfo","1366","768","0","1","0","5fbfb86436a5de31c546f37b","","null","","","learningBlock1","","","","<div style=""font-size:60px;""> </div>","null","LF","learning/Slide19.JPG","This is a wug:","","",""
"html-keyboard-response","63","125777","0.0-5.0-0.19","LF","fggxxfkvfo","1366","768","0","1","0","5fbfb86436a5de31c546f37b","","null","","","learningBlock1","","","","This is a bim:","null","","","","","",""
"image-keyboard-response","64","126105","0.0-5.0-1.19","LF","fggxxfkvfo","1366","768","0","1","0","5fbfb86436a5de31c546f37b","","null","","","","","","","learning/Slide20.JPG","null","","","","","",""
"html-keyboard-response","65","127113","0.0-5.0-2.19","LF","fggxxfkvfo","1366","768","0","1","0","5fbfb86436a5de31c546f37b","","null","","","learningBlock1","","","","<div style=""font-size:60px;""> </div>","null","LF","learning/Slide20.JPG","This is a bim:","","",""
"html-keyboard-response","66","128121","0.0-5.0-0.20","LF","fggxxfkvfo","1366","768","0","1","0","5fbfb86436a5de31c546f37b","","null","","","learningBlock1","","","","This is a dep:","null","","","","","",""
"image-keyboard-response","67","128457","0.0-5.0-1.20","LF","fggxxfkvfo","1366","768","0","1","0","5fbfb86436a5de31c546f37b","","null","","","","","","","learning/Slide21.JPG","null","","","","","",""
"html-keyboard-response","68","129465","0.0-5.0-2.20","LF","fggxxfkvfo","1366","768","0","1","0","5fbfb86436a5de31c546f37b","","null","","","learningBlock1","","","","<div style=""font-size:60px;""> </div>","null","LF","learning/Slide21.JPG","This is a dep:","","",""
"html-keyboard-response","69","130473","0.0-5.0-0.21","LF","fggxxfkvfo","1366","768","0","1","0","5fbfb86436a5de31c546f37b","","null","","","learningBlock1","","","","This is a bim:","null","","","","","",""
"image-keyboard-response","70","130809","0.0-5.0-1.21","LF","fggxxfkvfo","1366","768","0","1","0","5fbfb86436a5de31c546f37b","","null","","","","","","","learning/Slide22.JPG","null","","","","","",""
"html-keyboard-response","71","131817","0.0-5.0-2.21","LF","fggxxfkvfo","1366","768","0","1","0","5fbfb86436a5de31c546f37b","","null","","","learningBlock1","","","","<div style=""font-size:60px;""> </div>","null","LF","learning/Slide22.JPG","This is a bim:","","",""
"html-keyboard-response","72","132830","0.0-5.0-0.22","LF","fggxxfkvfo","1366","768","0","1","0","5fbfb86436a5de31c546f37b","","null","","","learningBlock1","","","","This is a tob:","null","","","","","",""
"image-keyboard-response","73","133180","0.0-5.0-1.22","LF","fggxxfkvfo","1366","768","0","1","0","5fbfb86436a5de31c546f37b","","null","","","","","","","learning/Slide23.JPG","null","","","","","",""
"html-keyboard-response","74","134183","0.0-5.0-2.22","LF","fggxxfkvfo","1366","768","0","1","0","5fbfb86436a5de31c546f37b","","null","","","learningBlock1","","","","<div style=""font-size:60px;""> </div>","null","LF","learning/Slide23.JPG","This is a tob:","","",""
"html-keyboard-response","75","135191","0.0-5.0-0.23","LF","fggxxfkvfo","1366","768","0","1","0","5fbfb86436a5de31c546f37b","","null","","","learningBlock1","","","","This is a wug:","null","","","","","",""
"image-keyboard-response","76","135527","0.0-5.0-1.23","LF","fggxxfkvfo","1366","768","0","1","0","5fbfb86436a5de31c546f37b","","null","","","","","","","learning/Slide24.JPG","null","","","","","",""
"html-keyboard-response","77","136535","0.0-5.0-2.23","LF","fggxxfkvfo","1366","768","0","1","0","5fbfb86436a5de31c546f37b","","null","","","learningBlock1","","","","<div style=""font-size:60px;""> </div>","null","LF","learning/Slide24.JPG","This is a wug:","","",""
"html-keyboard-response","78","137543","0.0-5.0-0.24","LF","fggxxfkvfo","1366","768","0","1","0","5fbfb86436a5de31c546f37b","","null","","","learningBlock1","","","","This is a dep:","null","","","","","",""
"image-keyboard-response","79","137881","0.0-5.0-1.24","LF","fggxxfkvfo","1366","768","0","1","0","5fbfb86436a5de31c546f37b","","null","","","","","","","learning/Slide25.JPG","null","","","","","",""
"html-keyboard-response","80","138888","0.0-5.0-2.24","LF","fggxxfkvfo","1366","768","0","1","0","5fbfb86436a5de31c546f37b","","null","","","learningBlock1","","","","<div style=""font-size:60px;""> </div>","null","LF","learning/Slide25.JPG","This is a dep:","","",""
"html-keyboard-response","81","139890","0.0-5.0-0.25","LF","fggxxfkvfo","1366","768","0","1","0","5fbfb86436a5de31c546f37b","","null","","","learningBlock1","","","","This is a wug:","null","","","","","",""
"image-keyboard-response","82","140220","0.0-5.0-1.25","LF","fggxxfkvfo","1366","768","0","1","0","5fbfb86436a5de31c546f37b","","null","","","","","","","learning/Slide26.JPG","null","","","","","",""
"html-keyboard-response","83","141237","0.0-5.0-2.25","LF","fggxxfkvfo","1366","768","0","1","0","5fbfb86436a5de31c546f37b","","null","","","learningBlock1","","","","<div style=""font-size:60px;""> </div>","null","LF","learning/Slide26.JPG","This is a wug:","","",""
"html-keyboard-response","84","142247","0.0-5.0-0.26","LF","fggxxfkvfo","1366","768","0","1","0","5fbfb86436a5de31c546f37b","","null","","","learningBlock1","","","","This is a bim:","null","","","","","",""
"image-keyboard-response","85","142595","0.0-5.0-1.26","LF","fggxxfkvfo","1366","768","0","1","0","5fbfb86436a5de31c546f37b","","null","","","","","","","learning/Slide27.JPG","null","","","","","",""
"html-keyboard-response","86","143605","0.0-5.0-2.26","LF","fggxxfkvfo","1366","768","0","1","0","5fbfb86436a5de31c546f37b","","null","","","learningBlock1","","","","<div style=""font-size:60px;""> </div>","null","LF","learning/Slide27.JPG","This is a bim:","","",""
"html-keyboard-response","87","144607","0.0-5.0-0.27","LF","fggxxfkvfo","1366","768","0","1","0","5fbfb86436a5de31c546f37b","","null","","","learningBlock1","","","","This is a dep:","null","","","","","",""
"image-keyboard-response","88","144955","0.0-5.0-1.27","LF","fggxxfkvfo","1366","768","0","1","0","5fbfb86436a5de31c546f37b","","null","","","","","","","learning/Slide28.JPG","null","","","","","",""
"html-keyboard-response","89","145965","0.0-5.0-2.27","LF","fggxxfkvfo","1366","768","0","1","0","5fbfb86436a5de31c546f37b","","null","","","learningBlock1","","","","<div style=""font-size:60px;""> </div>","null","LF","learning/Slide28.JPG","This is a dep:","","",""
"html-keyboard-response","90","146983","0.0-5.0-0.28","LF","fggxxfkvfo","1366","768","0","1","0","5fbfb86436a5de31c546f37b","","null","","","learningBlock1","","","","This is a tob:","null","","","","","",""
"image-keyboard-response","91","147321","0.0-5.0-1.28","LF","fggxxfkvfo","1366","768","0","1","0","5fbfb86436a5de31c546f37b","","null","","","","","","","learning/Slide29.JPG","null","","","","","",""
"html-keyboard-response","92","148337","0.0-5.0-2.28","LF","fggxxfkvfo","1366","768","0","1","0","5fbfb86436a5de31c546f37b","","null","","","learningBlock1","","","","<div style=""font-size:60px;""> </div>","null","LF","learning/Slide29.JPG","This is a tob:","","",""
"html-keyboard-response","93","149339","0.0-5.0-0.29","LF","fggxxfkvfo","1366","768","0","1","0","5fbfb86436a5de31c546f37b","","null","","","learningBlock1","","","","This is a dep:","null","","","","","",""
"image-keyboard-response","94","149690","0.0-5.0-1.29","LF","fggxxfkvfo","1366","768","0","1","0","5fbfb86436a5de31c546f37b","","null","","","","","","","learning/Slide30.JPG","null","","","","","",""
"html-keyboard-response","95","150701","0.0-5.0-2.29","LF","fggxxfkvfo","1366","768","0","1","0","5fbfb86436a5de31c546f37b","","null","","","learningBlock1","","","","<div style=""font-size:60px;""> </div>","null","LF","learning/Slide30.JPG","This is a dep:","","",""
"html-keyboard-response","96","151711","0.0-5.0-0.30","LF","fggxxfkvfo","1366","768","0","1","0","5fbfb86436a5de31c546f37b","","null","","","learningBlock1","","","","This is a wug:","null","","","","","",""
"image-keyboard-response","97","152059","0.0-5.0-1.30","LF","fggxxfkvfo","1366","768","0","1","0","5fbfb86436a5de31c546f37b","","null","","","","","","","learning/Slide31.JPG","null","","","","","",""
"html-keyboard-response","98","153061","0.0-5.0-2.30","LF","fggxxfkvfo","1366","768","0","1","0","5fbfb86436a5de31c546f37b","","null","","","learningBlock1","","","","<div style=""font-size:60px;""> </div>","null","LF","learning/Slide31.JPG","This is a wug:","","",""
"html-keyboard-response","99","154069","0.0-5.0-0.31","LF","fggxxfkvfo","1366","768","0","1","0","5fbfb86436a5de31c546f37b","","null","","","learningBlock1","","","","This is a tob:","null","","","","","",""
"image-keyboard-response","100","154405","0.0-5.0-1.31","LF","fggxxfkvfo","1366","768","0","1","0","5fbfb86436a5de31c546f37b","","null","","","","","","","learning/Slide32.JPG","null","","","","","",""
"html-keyboard-response","101","155413","0.0-5.0-2.31","LF","fggxxfkvfo","1366","768","0","1","0","5fbfb86436a5de31c546f37b","","null","","","learningBlock1","","","","<div style=""font-size:60px;""> </div>","null","LF","learning/Slide32.JPG","This is a tob:","","",""
"html-keyboard-response","102","156422","0.0-5.0-0.32","LF","fggxxfkvfo","1366","768","0","1","0","5fbfb86436a5de31c546f37b","","null","","","learningBlock1","","","","This is a bim:","null","","","","","",""
"image-keyboard-response","103","156757","0.0-5.0-1.32","LF","fggxxfkvfo","1366","768","0","1","0","5fbfb86436a5de31c546f37b","","null","","","","","","","learning/Slide33.JPG","null","","","","","",""
"html-keyboard-response","104","157765","0.0-5.0-2.32","LF","fggxxfkvfo","1366","768","0","1","0","5fbfb86436a5de31c546f37b","","null","","","learningBlock1","","","","<div style=""font-size:60px;""> </div>","null","LF","learning/Slide33.JPG","This is a bim:","","",""
"html-keyboard-response","105","158774","0.0-5.0-0.33","LF","fggxxfkvfo","1366","768","0","1","0","5fbfb86436a5de31c546f37b","","null","","","learningBlock1","","","","This is a tob:","null","","","","","",""
"image-keyboard-response","106","159106","0.0-5.0-1.33","LF","fggxxfkvfo","1366","768","0","1","0","5fbfb86436a5de31c546f37b","","null","","","","","","","learning/Slide34.JPG","null","","","","","",""
"html-keyboard-response","107","160114","0.0-5.0-2.33","LF","fggxxfkvfo","1366","768","0","1","0","5fbfb86436a5de31c546f37b","","null","","","learningBlock1","","","","<div style=""font-size:60px;""> </div>","null","LF","learning/Slide34.JPG","This is a tob:","","",""
"html-keyboard-response","108","161122","0.0-5.0-0.34","LF","fggxxfkvfo","1366","768","0","1","0","5fbfb86436a5de31c546f37b","","null","","","learningBlock1","","","","This is a bim:","null","","","","","",""
"image-keyboard-response","109","161450","0.0-5.0-1.34","LF","fggxxfkvfo","1366","768","0","1","0","5fbfb86436a5de31c546f37b","","null","","","","","","","learning/Slide35.JPG","null","","","","","",""
"html-keyboard-response","110","162458","0.0-5.0-2.34","LF","fggxxfkvfo","1366","768","0","1","0","5fbfb86436a5de31c546f37b","","null","","","learningBlock1","","","","<div style=""font-size:60px;""> </div>","null","LF","learning/Slide35.JPG","This is a bim:","","",""
"html-keyboard-response","111","163466","0.0-5.0-0.35","LF","fggxxfkvfo","1366","768","0","1","0","5fbfb86436a5de31c546f37b","","null","","","learningBlock1","","","","This is a dep:","null","","","","","",""
"image-keyboard-response","112","163802","0.0-5.0-1.35","LF","fggxxfkvfo","1366","768","0","1","0","5fbfb86436a5de31c546f37b","","null","","","","","","","learning/Slide36.JPG","null","","","","","",""
"html-keyboard-response","113","164810","0.0-5.0-2.35","LF","fggxxfkvfo","1366","768","0","1","0","5fbfb86436a5de31c546f37b","","null","","","learningBlock1","","","","<div style=""font-size:60px;""> </div>","null","LF","learning/Slide36.JPG","This is a dep:","","",""
"html-keyboard-response","114","165818","0.0-5.0-0.36","LF","fggxxfkvfo","1366","768","0","1","0","5fbfb86436a5de31c546f37b","","null","","","learningBlock1","","","","This is a tob:","null","","","","","",""
"image-keyboard-response","115","166154","0.0-5.0-1.36","LF","fggxxfkvfo","1366","768","0","1","0","5fbfb86436a5de31c546f37b","","null","","","","","","","learning/Slide37.JPG","null","","","","","",""
"html-keyboard-response","116","167156","0.0-5.0-2.36","LF","fggxxfkvfo","1366","768","0","1","0","5fbfb86436a5de31c546f37b","","null","","","learningBlock1","","","","<div style=""font-size:60px;""> </div>","null","LF","learning/Slide37.JPG","This is a tob:","","",""
"html-keyboard-response","117","168159","0.0-5.0-0.37","LF","fggxxfkvfo","1366","768","0","1","0","5fbfb86436a5de31c546f37b","","null","","","learningBlock1","","","","This is a wug:","null","","","","","",""
"image-keyboard-response","118","168488","0.0-5.0-1.37","LF","fggxxfkvfo","1366","768","0","1","0","5fbfb86436a5de31c546f37b","","null","","","","","","","learning/Slide38.JPG","null","","","","","",""
"html-keyboard-response","119","169490","0.0-5.0-2.37","LF","fggxxfkvfo","1366","768","0","1","0","5fbfb86436a5de31c546f37b","","null","","","learningBlock1","","","","<div style=""font-size:60px;""> </div>","null","LF","learning/Slide38.JPG","This is a wug:","","",""
"html-keyboard-response","120","170491","0.0-5.0-0.38","LF","fggxxfkvfo","1366","768","0","1","0","5fbfb86436a5de31c546f37b","","null","","","learningBlock1","","","","This is a bim:","null","","","","","",""
"image-keyboard-response","121","170820","0.0-5.0-1.38","LF","fggxxfkvfo","1366","768","0","1","0","5fbfb86436a5de31c546f37b","","null","","","","","","","learning/Slide39.JPG","null","","","","","",""
"html-keyboard-response","122","171822","0.0-5.0-2.38","LF","fggxxfkvfo","1366","768","0","1","0","5fbfb86436a5de31c546f37b","","null","","","learningBlock1","","","","<div style=""font-size:60px;""> </div>","null","LF","learning/Slide39.JPG","This is a bim:","","",""
"html-keyboard-response","123","172962","0.0-5.0-0.39","LF","fggxxfkvfo","1366","768","0","1","0","5fbfb86436a5de31c546f37b","","null","","","learningBlock1","","","","This is a tob:","null","","","","","",""
"image-keyboard-response","124","173447","0.0-5.0-1.39","LF","fggxxfkvfo","1366","768","0","1","0","5fbfb86436a5de31c546f37b","","null","","","","","","","learning/Slide40.JPG","null","","","","","",""
"html-keyboard-response","125","175031","0.0-5.0-2.39","LF","fggxxfkvfo","1366","768","0","1","0","5fbfb86436a5de31c546f37b","","null","","","learningBlock1","","","","<div style=""font-size:60px;""> </div>","null","LF","learning/Slide40.JPG","This is a tob:","","",""
"html-keyboard-response","126","176163","0.0-5.0-0.40","LF","fggxxfkvfo","1366","768","0","1","0","5fbfb86436a5de31c546f37b","","null","","","learningBlock1","","","","This is a bim:","null","","","","","",""
"image-keyboard-response","127","176494","0.0-5.0-1.40","LF","fggxxfkvfo","1366","768","0","1","0","5fbfb86436a5de31c546f37b","","null","","","","","","","learning/Slide41.JPG","null","","","","","",""
"html-keyboard-response","128","177525","0.0-5.0-2.40","LF","fggxxfkvfo","1366","768","0","1","0","5fbfb86436a5de31c546f37b","","null","","","learningBlock1","","","","<div style=""font-size:60px;""> </div>","null","LF","learning/Slide41.JPG","This is a bim:","","",""
"html-keyboard-response","129","178527","0.0-5.0-0.41","LF","fggxxfkvfo","1366","768","0","1","0","5fbfb86436a5de31c546f37b","","null","","","learningBlock1","","","","This is a dep:","null","","","","","",""
"image-keyboard-response","130","178863","0.0-5.0-1.41","LF","fggxxfkvfo","1366","768","0","1","0","5fbfb86436a5de31c546f37b","","null","","","","","","","learning/Slide42.JPG","null","","","","","",""
"html-keyboard-response","131","179866","0.0-5.0-2.41","LF","fggxxfkvfo","1366","768","0","1","0","5fbfb86436a5de31c546f37b","","null","","","learningBlock1","","","","<div style=""font-size:60px;""> </div>","null","LF","learning/Slide42.JPG","This is a dep:","","",""
"html-keyboard-response","132","180867","0.0-5.0-0.42","LF","fggxxfkvfo","1366","768","0","1","0","5fbfb86436a5de31c546f37b","","null","","","learningBlock1","","","","This is a wug:","null","","","","","",""
"image-keyboard-response","133","181205","0.0-5.0-1.42","LF","fggxxfkvfo","1366","768","0","1","0","5fbfb86436a5de31c546f37b","","null","","","","","","","learning/Slide43.JPG","null","","","","","",""
"html-keyboard-response","134","182207","0.0-5.0-2.42","LF","fggxxfkvfo","1366","768","0","1","0","5fbfb86436a5de31c546f37b","","null","","","learningBlock1","","","","<div style=""font-size:60px;""> </div>","null","LF","learning/Slide43.JPG","This is a wug:","","",""
"html-keyboard-response","135","183210","0.0-5.0-0.43","LF","fggxxfkvfo","1366","768","0","1","0","5fbfb86436a5de31c546f37b","","null","","","learningBlock1","","","","This is a bim:","null","","","","","",""
"image-keyboard-response","136","183538","0.0-5.0-1.43","LF","fggxxfkvfo","1366","768","0","1","0","5fbfb86436a5de31c546f37b","","null","","","","","","","learning/Slide44.JPG","null","","","","","",""
"html-keyboard-response","137","184540","0.0-5.0-2.43","LF","fggxxfkvfo","1366","768","0","1","0","5fbfb86436a5de31c546f37b","","null","","","learningBlock1","","","","<div style=""font-size:60px;""> </div>","null","LF","learning/Slide44.JPG","This is a bim:","","",""
"html-keyboard-response","138","185554","0.0-5.0-0.44","LF","fggxxfkvfo","1366","768","0","1","0","5fbfb86436a5de31c546f37b","","null","","","learningBlock1","","","","This is a wug:","null","","","","","",""
"image-keyboard-response","139","185891","0.0-5.0-1.44","LF","fggxxfkvfo","1366","768","0","1","0","5fbfb86436a5de31c546f37b","","null","","","","","","","learning/Slide45.JPG","null","","","","","",""
"html-keyboard-response","140","186893","0.0-5.0-2.44","LF","fggxxfkvfo","1366","768","0","1","0","5fbfb86436a5de31c546f37b","","null","","","learningBlock1","","","","<div style=""font-size:60px;""> </div>","null","LF","learning/Slide45.JPG","This is a wug:","","",""
"html-keyboard-response","141","187897","0.0-5.0-0.45","LF","fggxxfkvfo","1366","768","0","1","0","5fbfb86436a5de31c546f37b","","null","","","learningBlock1","","","","This is a dep:","null","","","","","",""
"image-keyboard-response","142","188252","0.0-5.0-1.45","LF","fggxxfkvfo","1366","768","0","1","0","5fbfb86436a5de31c546f37b","","null","","","","","","","learning/Slide46.JPG","null","","","","","",""
"html-keyboard-response","143","189272","0.0-5.0-2.45","LF","fggxxfkvfo","1366","768","0","1","0","5fbfb86436a5de31c546f37b","","null","","","learningBlock1","","","","<div style=""font-size:60px;""> </div>","null","LF","learning/Slide46.JPG","This is a dep:","","",""
"html-keyboard-response","144","190307","0.0-5.0-0.46","LF","fggxxfkvfo","1366","768","0","1","0","5fbfb86436a5de31c546f37b","","null","","","learningBlock1","","","","This is a tob:","null","","","","","",""
"image-keyboard-response","145","190648","0.0-5.0-1.46","LF","fggxxfkvfo","1366","768","0","1","0","5fbfb86436a5de31c546f37b","","null","","","","","","","learning/Slide47.JPG","null","","","","","",""
"html-keyboard-response","146","191656","0.0-5.0-2.46","LF","fggxxfkvfo","1366","768","0","1","0","5fbfb86436a5de31c546f37b","","null","","","learningBlock1","","","","<div style=""font-size:60px;""> </div>","null","LF","learning/Slide47.JPG","This is a tob:","","",""
"html-keyboard-response","147","192664","0.0-5.0-0.47","LF","fggxxfkvfo","1366","768","0","1","0","5fbfb86436a5de31c546f37b","","null","","","learningBlock1","","","","This is a bim:","null","","","","","",""
"image-keyboard-response","148","193000","0.0-5.0-1.47","LF","fggxxfkvfo","1366","768","0","1","0","5fbfb86436a5de31c546f37b","","null","","","","","","","learning/Slide48.JPG","null","","","","","",""
"html-keyboard-response","149","194008","0.0-5.0-2.47","LF","fggxxfkvfo","1366","768","0","1","0","5fbfb86436a5de31c546f37b","","null","","","learningBlock1","","","","<div style=""font-size:60px;""> </div>","null","LF","learning/Slide48.JPG","This is a bim:","","",""
"html-keyboard-response","150","195016","0.0-5.0-0.48","LF","fggxxfkvfo","1366","768","0","1","0","5fbfb86436a5de31c546f37b","","null","","","learningBlock1","","","","This is a dep:","null","","","","","",""
"image-keyboard-response","151","195352","0.0-5.0-1.48","LF","fggxxfkvfo","1366","768","0","1","0","5fbfb86436a5de31c546f37b","","null","","","","","","","learning/Slide49.JPG","null","","","","","",""
"html-keyboard-response","152","196360","0.0-5.0-2.48","LF","fggxxfkvfo","1366","768","0","1","0","5fbfb86436a5de31c546f37b","","null","","","learningBlock1","","","","<div style=""font-size:60px;""> </div>","null","LF","learning/Slide49.JPG","This is a dep:","","",""
"html-keyboard-response","153","197368","0.0-5.0-0.49","LF","fggxxfkvfo","1366","768","0","1","0","5fbfb86436a5de31c546f37b","","null","","","learningBlock1","","","","This is a tob:","null","","","","","",""
"image-keyboard-response","154","197704","0.0-5.0-1.49","LF","fggxxfkvfo","1366","768","0","1","0","5fbfb86436a5de31c546f37b","","null","","","","","","","learning/Slide50.JPG","null","","","","","",""
"html-keyboard-response","155","198712","0.0-5.0-2.49","LF","fggxxfkvfo","1366","768","0","1","0","5fbfb86436a5de31c546f37b","","null","","","learningBlock1","","","","<div style=""font-size:60px;""> </div>","null","LF","learning/Slide50.JPG","This is a tob:","","",""
"html-keyboard-response","156","199721","0.0-5.0-0.50","LF","fggxxfkvfo","1366","768","0","1","0","5fbfb86436a5de31c546f37b","","null","","","learningBlock1","","","","This is a bim:","null","","","","","",""
"image-keyboard-response","157","200056","0.0-5.0-1.50","LF","fggxxfkvfo","1366","768","0","1","0","5fbfb86436a5de31c546f37b","","null","","","","","","","learning/Slide51.JPG","null","","","","","",""
"html-keyboard-response","158","201070","0.0-5.0-2.50","LF","fggxxfkvfo","1366","768","0","1","0","5fbfb86436a5de31c546f37b","","null","","","learningBlock1","","","","<div style=""font-size:60px;""> </div>","null","LF","learning/Slide51.JPG","This is a bim:","","",""
"html-keyboard-response","159","202082","0.0-5.0-0.51","LF","fggxxfkvfo","1366","768","0","1","0","5fbfb86436a5de31c546f37b","","null","","","learningBlock1","","","","This is a wug:","null","","","","","",""
"image-keyboard-response","160","202430","0.0-5.0-1.51","LF","fggxxfkvfo","1366","768","0","1","0","5fbfb86436a5de31c546f37b","","null","","","","","","","learning/Slide52.JPG","null","","","","","",""
"html-keyboard-response","161","203433","0.0-5.0-2.51","LF","fggxxfkvfo","1366","768","0","1","0","5fbfb86436a5de31c546f37b","","null","","","learningBlock1","","","","<div style=""font-size:60px;""> </div>","null","LF","learning/Slide52.JPG","This is a wug:","","",""
"html-keyboard-response","162","204441","0.0-5.0-0.52","LF","fggxxfkvfo","1366","768","0","1","0","5fbfb86436a5de31c546f37b","","null","","","learningBlock1","","","","This is a tob:","null","","","","","",""
"image-keyboard-response","163","204777","0.0-5.0-1.52","LF","fggxxfkvfo","1366","768","0","1","0","5fbfb86436a5de31c546f37b","","null","","","","","","","learning/Slide53.JPG","null","","","","","",""
"html-keyboard-response","164","205788","0.0-5.0-2.52","LF","fggxxfkvfo","1366","768","0","1","0","5fbfb86436a5de31c546f37b","","null","","","learningBlock1","","","","<div style=""font-size:60px;""> </div>","null","LF","learning/Slide53.JPG","This is a tob:","","",""
"html-keyboard-response","165","206798","0.0-5.0-0.53","LF","fggxxfkvfo","1366","768","0","1","0","5fbfb86436a5de31c546f37b","","null","","","learningBlock1","","","","This is a dep:","null","","","","","",""
"image-keyboard-response","166","207140","0.0-5.0-1.53","LF","fggxxfkvfo","1366","768","0","1","0","5fbfb86436a5de31c546f37b","","null","","","","","","","learning/Slide54.JPG","null","","","","","",""
"html-keyboard-response","167","208143","0.0-5.0-2.53","LF","fggxxfkvfo","1366","768","0","1","0","5fbfb86436a5de31c546f37b","","null","","","learningBlock1","","","","<div style=""font-size:60px;""> </div>","null","LF","learning/Slide54.JPG","This is a dep:","","",""
"html-keyboard-response","168","209146","0.0-5.0-0.54","LF","fggxxfkvfo","1366","768","0","1","0","5fbfb86436a5de31c546f37b","","null","","","learningBlock1","","","","This is a bim:","null","","","","","",""
"image-keyboard-response","169","209481","0.0-5.0-1.54","LF","fggxxfkvfo","1366","768","0","1","0","5fbfb86436a5de31c546f37b","","null","","","","","","","learning/Slide55.JPG","null","","","","","",""
"html-keyboard-response","170","210489","0.0-5.0-2.54","LF","fggxxfkvfo","1366","768","0","1","0","5fbfb86436a5de31c546f37b","","null","","","learningBlock1","","","","<div style=""font-size:60px;""> </div>","null","LF","learning/Slide55.JPG","This is a bim:","","",""
"html-keyboard-response","171","211499","0.0-5.0-0.55","LF","fggxxfkvfo","1366","768","0","1","0","5fbfb86436a5de31c546f37b","","null","","","learningBlock1","","","","This is a tob:","null","","","","","",""
"image-keyboard-response","172","211841","0.0-5.0-1.55","LF","fggxxfkvfo","1366","768","0","1","0","5fbfb86436a5de31c546f37b","","null","","","","","","","learning/Slide56.JPG","null","","","","","",""
"html-keyboard-response","173","212851","0.0-5.0-2.55","LF","fggxxfkvfo","1366","768","0","1","0","5fbfb86436a5de31c546f37b","","null","","","learningBlock1","","","","<div style=""font-size:60px;""> </div>","null","LF","learning/Slide56.JPG","This is a tob:","","",""
"html-keyboard-response","174","213861","0.0-5.0-0.56","LF","fggxxfkvfo","1366","768","0","1","0","5fbfb86436a5de31c546f37b","","null","","","learningBlock1","","","","This is a dep:","null","","","","","",""
"image-keyboard-response","175","214214","0.0-5.0-1.56","LF","fggxxfkvfo","1366","768","0","1","0","5fbfb86436a5de31c546f37b","","null","","","","","","","learning/Slide57.JPG","null","","","","","",""
"html-keyboard-response","176","215224","0.0-5.0-2.56","LF","fggxxfkvfo","1366","768","0","1","0","5fbfb86436a5de31c546f37b","","null","","","learningBlock1","","","","<div style=""font-size:60px;""> </div>","null","LF","learning/Slide57.JPG","This is a dep:","","",""
"html-keyboard-response","177","216233","0.0-5.0-0.57","LF","fggxxfkvfo","1366","768","0","1","0","5fbfb86436a5de31c546f37b","","null","","","learningBlock1","","","","This is a wug:","null","","","","","",""
"image-keyboard-response","178","216590","0.0-5.0-1.57","LF","fggxxfkvfo","1366","768","0","1","0","5fbfb86436a5de31c546f37b","","null","","","","","","","learning/Slide58.JPG","null","","","","","",""
"html-keyboard-response","179","217599","0.0-5.0-2.57","LF","fggxxfkvfo","1366","768","0","1","0","5fbfb86436a5de31c546f37b","","null","","","learningBlock1","","","","<div style=""font-size:60px;""> </div>","null","LF","learning/Slide58.JPG","This is a wug:","","",""
"html-keyboard-response","180","218606","0.0-5.0-0.58","LF","fggxxfkvfo","1366","768","0","1","0","5fbfb86436a5de31c546f37b","","null","","","learningBlock1","","","","This is a dep:","null","","","","","",""
"image-keyboard-response","181","218958","0.0-5.0-1.58","LF","fggxxfkvfo","1366","768","0","1","0","5fbfb86436a5de31c546f37b","","null","","","","","","","learning/Slide59.JPG","null","","","","","",""
"html-keyboard-response","182","219960","0.0-5.0-2.58","LF","fggxxfkvfo","1366","768","0","1","0","5fbfb86436a5de31c546f37b","","null","","","learningBlock1","","","","<div style=""font-size:60px;""> </div>","null","LF","learning/Slide59.JPG","This is a dep:","","",""
"html-keyboard-response","183","220963","0.0-5.0-0.59","LF","fggxxfkvfo","1366","768","0","1","0","5fbfb86436a5de31c546f37b","","null","","","learningBlock1","","","","This is a wug:","null","","","","","",""
"image-keyboard-response","184","221304","0.0-5.0-1.59","LF","fggxxfkvfo","1366","768","0","1","0","5fbfb86436a5de31c546f37b","","null","","","","","","","learning/Slide60.JPG","null","","","","","",""
"html-keyboard-response","185","222313","0.0-5.0-2.59","LF","fggxxfkvfo","1366","768","0","1","0","5fbfb86436a5de31c546f37b","","null","","","learningBlock1","","","","<div style=""font-size:60px;""> </div>","null","LF","learning/Slide60.JPG","This is a wug:","","",""
"html-keyboard-response","186","223321","0.0-5.0-0.60","LF","fggxxfkvfo","1366","768","0","1","0","5fbfb86436a5de31c546f37b","","null","","","learningBlock1","","","","This is a bim:","null","","","","","",""
"image-keyboard-response","187","223653","0.0-5.0-1.60","LF","fggxxfkvfo","1366","768","0","1","0","5fbfb86436a5de31c546f37b","","null","","","","","","","learning/Slide61.JPG","null","","","","","",""
"html-keyboard-response","188","224660","0.0-5.0-2.60","LF","fggxxfkvfo","1366","768","0","1","0","5fbfb86436a5de31c546f37b","","null","","","learningBlock1","","","","<div style=""font-size:60px;""> </div>","null","LF","learning/Slide61.JPG","This is a bim:","","",""
"html-keyboard-response","189","225669","0.0-5.0-0.61","LF","fggxxfkvfo","1366","768","0","1","0","5fbfb86436a5de31c546f37b","","null","","","learningBlock1","","","","This is a dep:","null","","","","","",""
"image-keyboard-response","190","226004","0.0-5.0-1.61","LF","fggxxfkvfo","1366","768","0","1","0","5fbfb86436a5de31c546f37b","","null","","","","","","","learning/Slide62.JPG","null","","","","","",""
"html-keyboard-response","191","227014","0.0-5.0-2.61","LF","fggxxfkvfo","1366","768","0","1","0","5fbfb86436a5de31c546f37b","","null","","","learningBlock1","","","","<div style=""font-size:60px;""> </div>","null","LF","learning/Slide62.JPG","This is a dep:","","",""
"html-keyboard-response","192","228025","0.0-5.0-0.62","LF","fggxxfkvfo","1366","768","0","1","0","5fbfb86436a5de31c546f37b","","null","","","learningBlock1","","","","This is a bim:","null","","","","","",""
"image-keyboard-response","193","228362","0.0-5.0-1.62","LF","fggxxfkvfo","1366","768","0","1","0","5fbfb86436a5de31c546f37b","","null","","","","","","","learning/Slide63.JPG","null","","","","","",""
"html-keyboard-response","194","229367","0.0-5.0-2.62","LF","fggxxfkvfo","1366","768","0","1","0","5fbfb86436a5de31c546f37b","","null","","","learningBlock1","","","","<div style=""font-size:60px;""> </div>","null","LF","learning/Slide63.JPG","This is a bim:","","",""
"html-keyboard-response","195","230376","0.0-5.0-0.63","LF","fggxxfkvfo","1366","768","0","1","0","5fbfb86436a5de31c546f37b","","null","","","learningBlock1","","","","This is a tob:","null","","","","","",""
"image-keyboard-response","196","230712","0.0-5.0-1.63","LF","fggxxfkvfo","1366","768","0","1","0","5fbfb86436a5de31c546f37b","","null","","","","","","","learning/Slide64.JPG","null","","","","","",""
"html-keyboard-response","197","231720","0.0-5.0-2.63","LF","fggxxfkvfo","1366","768","0","1","0","5fbfb86436a5de31c546f37b","","null","","","learningBlock1","","","","<div style=""font-size:60px;""> </div>","null","LF","learning/Slide64.JPG","This is a tob:","","",""
"html-keyboard-response","198","232730","0.0-5.0-0.64","LF","fggxxfkvfo","1366","768","0","1","0","5fbfb86436a5de31c546f37b","","null","","","learningBlock1","","","","This is a wug:","null","","","","","",""
"image-keyboard-response","199","233072","0.0-5.0-1.64","LF","fggxxfkvfo","1366","768","0","1","0","5fbfb86436a5de31c546f37b","","null","","","","","","","learning/Slide65.JPG","null","","","","","",""
"html-keyboard-response","200","234081","0.0-5.0-2.64","LF","fggxxfkvfo","1366","768","0","1","0","5fbfb86436a5de31c546f37b","","null","","","learningBlock1","","","","<div style=""font-size:60px;""> </div>","null","LF","learning/Slide65.JPG","This is a wug:","","",""
"html-keyboard-response","201","235088","0.0-5.0-0.65","LF","fggxxfkvfo","1366","768","0","1","0","5fbfb86436a5de31c546f37b","","null","","","learningBlock1","","","","This is a dep:","null","","","","","",""
"image-keyboard-response","202","235424","0.0-5.0-1.65","LF","fggxxfkvfo","1366","768","0","1","0","5fbfb86436a5de31c546f37b","","null","","","","","","","learning/Slide66.JPG","null","","","","","",""
"html-keyboard-response","203","236432","0.0-5.0-2.65","LF","fggxxfkvfo","1366","768","0","1","0","5fbfb86436a5de31c546f37b","","null","","","learningBlock1","","","","<div style=""font-size:60px;""> </div>","null","LF","learning/Slide66.JPG","This is a dep:","","",""
"html-keyboard-response","204","237443","0.0-5.0-0.66","LF","fggxxfkvfo","1366","768","0","1","0","5fbfb86436a5de31c546f37b","","null","","","learningBlock1","","","","This is a tob:","null","","","","","",""
"image-keyboard-response","205","237784","0.0-5.0-1.66","LF","fggxxfkvfo","1366","768","0","1","0","5fbfb86436a5de31c546f37b","","null","","","","","","","learning/Slide67.JPG","null","","","","","",""
"html-keyboard-response","206","238793","0.0-5.0-2.66","LF","fggxxfkvfo","1366","768","0","1","0","5fbfb86436a5de31c546f37b","","null","","","learningBlock1","","","","<div style=""font-size:60px;""> </div>","null","LF","learning/Slide67.JPG","This is a tob:","","",""
"html-keyboard-response","207","239797","0.0-5.0-0.67","LF","fggxxfkvfo","1366","768","0","1","0","5fbfb86436a5de31c546f37b","","null","","","learningBlock1","","","","This is a wug:","null","","","","","",""
"image-keyboard-response","208","240136","0.0-5.0-1.67","LF","fggxxfkvfo","1366","768","0","1","0","5fbfb86436a5de31c546f37b","","null","","","","","","","learning/Slide68.JPG","null","","","","","",""
"html-keyboard-response","209","241144","0.0-5.0-2.67","LF","fggxxfkvfo","1366","768","0","1","0","5fbfb86436a5de31c546f37b","","null","","","learningBlock1","","","","<div style=""font-size:60px;""> </div>","null","LF","learning/Slide68.JPG","This is a wug:","","",""
"html-keyboard-response","210","242152","0.0-5.0-0.68","LF","fggxxfkvfo","1366","768","0","1","0","5fbfb86436a5de31c546f37b","","null","","","learningBlock1","","","","This is a tob:","null","","","","","",""
"image-keyboard-response","211","242488","0.0-5.0-1.68","LF","fggxxfkvfo","1366","768","0","1","0","5fbfb86436a5de31c546f37b","","null","","","","","","","learning/Slide69.JPG","null","","","","","",""
"html-keyboard-response","212","243496","0.0-5.0-2.68","LF","fggxxfkvfo","1366","768","0","1","0","5fbfb86436a5de31c546f37b","","null","","","learningBlock1","","","","<div style=""font-size:60px;""> </div>","null","LF","learning/Slide69.JPG","This is a tob:","","",""
"html-keyboard-response","213","244504","0.0-5.0-0.69","LF","fggxxfkvfo","1366","768","0","1","0","5fbfb86436a5de31c546f37b","","null","","","learningBlock1","","","","This is a dep:","null","","","","","",""
"image-keyboard-response","214","244832","0.0-5.0-1.69","LF","fggxxfkvfo","1366","768","0","1","0","5fbfb86436a5de31c546f37b","","null","","","","","","","learning/Slide70.JPG","null","","","","","",""
"html-keyboard-response","215","245840","0.0-5.0-2.69","LF","fggxxfkvfo","1366","768","0","1","0","5fbfb86436a5de31c546f37b","","null","","","learningBlock1","","","","<div style=""font-size:60px;""> </div>","null","LF","learning/Slide70.JPG","This is a dep:","","",""
"html-keyboard-response","216","246848","0.0-5.0-0.70","LF","fggxxfkvfo","1366","768","0","1","0","5fbfb86436a5de31c546f37b","","null","","","learningBlock1","","","","This is a wug:","null","","","","","",""
"image-keyboard-response","217","247184","0.0-5.0-1.70","LF","fggxxfkvfo","1366","768","0","1","0","5fbfb86436a5de31c546f37b","","null","","","","","","","learning/Slide71.JPG","null","","","","","",""
"html-keyboard-response","218","248192","0.0-5.0-2.70","LF","fggxxfkvfo","1366","768","0","1","0","5fbfb86436a5de31c546f37b","","null","","","learningBlock1","","","","<div style=""font-size:60px;""> </div>","null","LF","learning/Slide71.JPG","This is a wug:","","",""
"html-keyboard-response","219","249200","0.0-5.0-0.71","LF","fggxxfkvfo","1366","768","0","1","0","5fbfb86436a5de31c546f37b","","null","","","learningBlock1","","","","This is a bim:","null","","","","","",""
"image-keyboard-response","220","249536","0.0-5.0-1.71","LF","fggxxfkvfo","1366","768","0","1","0","5fbfb86436a5de31c546f37b","","null","","","","","","","learning/Slide72.JPG","null","","","","","",""
"html-keyboard-response","221","250544","0.0-5.0-2.71","LF","fggxxfkvfo","1366","768","0","1","0","5fbfb86436a5de31c546f37b","","null","","","learningBlock1","","","","<div style=""font-size:60px;""> </div>","null","LF","learning/Slide72.JPG","This is a bim:","","",""
"html-keyboard-response","222","251548","0.0-5.0-0.72","LF","fggxxfkvfo","1366","768","0","1","0","5fbfb86436a5de31c546f37b","","null","","","learningBlock1","","","","This is a wug:","null","","","","","",""
"image-keyboard-response","223","251891","0.0-5.0-1.72","LF","fggxxfkvfo","1366","768","0","1","0","5fbfb86436a5de31c546f37b","","null","","","","","","","learning/Slide73.JPG","null","","","","","",""
"html-keyboard-response","224","252898","0.0-5.0-2.72","LF","fggxxfkvfo","1366","768","0","1","0","5fbfb86436a5de31c546f37b","","null","","","learningBlock1","","","","<div style=""font-size:60px;""> </div>","null","LF","learning/Slide73.JPG","This is a wug:","","",""
"html-keyboard-response","225","253903","0.0-5.0-0.73","LF","fggxxfkvfo","1366","768","0","1","0","5fbfb86436a5de31c546f37b","","null","","","learningBlock1","","","","This is a dep:","null","","","","","",""
"image-keyboard-response","226","254232","0.0-5.0-1.73","LF","fggxxfkvfo","1366","768","0","1","0","5fbfb86436a5de31c546f37b","","null","","","","","","","learning/Slide74.JPG","null","","","","","",""
"html-keyboard-response","227","255240","0.0-5.0-2.73","LF","fggxxfkvfo","1366","768","0","1","0","5fbfb86436a5de31c546f37b","","null","","","learningBlock1","","","","<div style=""font-size:60px;""> </div>","null","LF","learning/Slide74.JPG","This is a dep:","","",""
"html-keyboard-response","228","256249","0.0-5.0-0.74","LF","fggxxfkvfo","1366","768","0","1","0","5fbfb86436a5de31c546f37b","","null","","","learningBlock1","","","","This is a tob:","null","","","","","",""
"image-keyboard-response","229","256584","0.0-5.0-1.74","LF","fggxxfkvfo","1366","768","0","1","0","5fbfb86436a5de31c546f37b","","null","","","","","","","learning/Slide75.JPG","null","","","","","",""
"html-keyboard-response","230","257599","0.0-5.0-2.74","LF","fggxxfkvfo","1366","768","0","1","0","5fbfb86436a5de31c546f37b","","null","","","learningBlock1","","","","<div style=""font-size:60px;""> </div>","null","LF","learning/Slide75.JPG","This is a tob:","","",""
"html-keyboard-response","231","258605","0.0-5.0-0.75","LF","fggxxfkvfo","1366","768","0","1","0","5fbfb86436a5de31c546f37b","","null","","","learningBlock1","","","","This is a bim:","null","","","","","",""
"image-keyboard-response","232","258953","0.0-5.0-1.75","LF","fggxxfkvfo","1366","768","0","1","0","5fbfb86436a5de31c546f37b","","null","","","","","","","learning/Slide76.JPG","null","","","","","",""
"html-keyboard-response","233","259962","0.0-5.0-2.75","LF","fggxxfkvfo","1366","768","0","1","0","5fbfb86436a5de31c546f37b","","null","","","learningBlock1","","","","<div style=""font-size:60px;""> </div>","null","LF","learning/Slide76.JPG","This is a bim:","","",""
"html-keyboard-response","234","260966","0.0-5.0-0.76","LF","fggxxfkvfo","1366","768","0","1","0","5fbfb86436a5de31c546f37b","","null","","","learningBlock1","","","","This is a tob:","null","","","","","",""
"image-keyboard-response","235","261310","0.0-5.0-1.76","LF","fggxxfkvfo","1366","768","0","1","0","5fbfb86436a5de31c546f37b","","null","","","","","","","learning/Slide77.JPG","null","","","","","",""
"html-keyboard-response","236","262326","0.0-5.0-2.76","LF","fggxxfkvfo","1366","768","0","1","0","5fbfb86436a5de31c546f37b","","null","","","learningBlock1","","","","<div style=""font-size:60px;""> </div>","null","LF","learning/Slide77.JPG","This is a tob:","","",""
"html-keyboard-response","237","263329","0.0-5.0-0.77","LF","fggxxfkvfo","1366","768","0","1","0","5fbfb86436a5de31c546f37b","","null","","","learningBlock1","","","","This is a wug:","null","","","","","",""
"image-keyboard-response","238","263671","0.0-5.0-1.77","LF","fggxxfkvfo","1366","768","0","1","0","5fbfb86436a5de31c546f37b","","null","","","","","","","learning/Slide78.JPG","null","","","","","",""
"html-keyboard-response","239","264681","0.0-5.0-2.77","LF","fggxxfkvfo","1366","768","0","1","0","5fbfb86436a5de31c546f37b","","null","","","learningBlock1","","","","<div style=""font-size:60px;""> </div>","null","LF","learning/Slide78.JPG","This is a wug:","","",""
"html-keyboard-response","240","265691","0.0-5.0-0.78","LF","fggxxfkvfo","1366","768","0","1","0","5fbfb86436a5de31c546f37b","","null","","","learningBlock1","","","","This is a bim:","null","","","","","",""
"image-keyboard-response","241","266027","0.0-5.0-1.78","LF","fggxxfkvfo","1366","768","0","1","0","5fbfb86436a5de31c546f37b","","null","","","","","","","learning/Slide79.JPG","null","","","","","",""
"html-keyboard-response","242","267036","0.0-5.0-2.78","LF","fggxxfkvfo","1366","768","0","1","0","5fbfb86436a5de31c546f37b","","null","","","learningBlock1","","","","<div style=""font-size:60px;""> </div>","null","LF","learning/Slide79.JPG","This is a bim:","","",""
"html-keyboard-response","243","268040","0.0-5.0-0.79","LF","fggxxfkvfo","1366","768","0","1","0","5fbfb86436a5de31c546f37b","","null","","","learningBlock1","","","","This is a tob:","null","","","","","",""
"image-keyboard-response","244","268378","0.0-5.0-1.79","LF","fggxxfkvfo","1366","768","0","1","0","5fbfb86436a5de31c546f37b","","null","","","","","","","learning/Slide80.JPG","null","","","","","",""
"html-keyboard-response","245","269387","0.0-5.0-2.79","LF","fggxxfkvfo","1366","768","0","1","0","5fbfb86436a5de31c546f37b","","null","","","learningBlock1","","","","<div style=""font-size:60px;""> </div>","null","LF","learning/Slide80.JPG","This is a tob:","","",""
"instructions","246","302375","0.0-6.0","LF","fggxxfkvfo","1366","768","0","1","0","5fbfb86436a5de31c546f37b","","NA","","[{""page_index"":0,""viewing_time"":32987.685000000056}]","instructions","","","","","","","","","","",""
"html-keyboard-response","247","303384","0.0-7.0-0.0","LF","fggxxfkvfo","1366","768","0","1","0","5fbfb86436a5de31c546f37b","","null","","","learningBlock2","","","","This is a wug:","null","","","","","",""
"image-keyboard-response","248","303725","0.0-7.0-1.0","LF","fggxxfkvfo","1366","768","0","1","0","5fbfb86436a5de31c546f37b","","null","","","","","","","learning/Slide81.JPG","null","","","","","",""
"html-keyboard-response","249","304754","0.0-7.0-2.0","LF","fggxxfkvfo","1366","768","0","1","0","5fbfb86436a5de31c546f37b","","null","","","learningBlock2","","","","<div style=""font-size:60px;""> </div>","null","LF","learning/Slide81.JPG","This is a wug:","","",""
"html-keyboard-response","250","305756","0.0-7.0-0.1","LF","fggxxfkvfo","1366","768","0","1","0","5fbfb86436a5de31c546f37b","","null","","","learningBlock2","","","","This is a bim:","null","","","","","",""
"image-keyboard-response","251","306104","0.0-7.0-1.1","LF","fggxxfkvfo","1366","768","0","1","0","5fbfb86436a5de31c546f37b","","null","","","","","","","learning/Slide82.JPG","null","","","","","",""
"html-keyboard-response","252","307114","0.0-7.0-2.1","LF","fggxxfkvfo","1366","768","0","1","0","5fbfb86436a5de31c546f37b","","null","","","learningBlock2","","","","<div style=""font-size:60px;""> </div>","null","LF","learning/Slide82.JPG","This is a bim:","","",""
"html-keyboard-response","253","308132","0.0-7.0-0.2","LF","fggxxfkvfo","1366","768","0","1","0","5fbfb86436a5de31c546f37b","","null","","","learningBlock2","","","","This is a wug:","null","","","","","",""
"image-keyboard-response","254","308484","0.0-7.0-1.2","LF","fggxxfkvfo","1366","768","0","1","0","5fbfb86436a5de31c546f37b","","null","","","","","","","learning/Slide83.JPG","null","","","","","",""
"html-keyboard-response","255","309494","0.0-7.0-2.2","LF","fggxxfkvfo","1366","768","0","1","0","5fbfb86436a5de31c546f37b","","null","","","learningBlock2","","","","<div style=""font-size:60px;""> </div>","null","LF","learning/Slide83.JPG","This is a wug:","","",""
"html-keyboard-response","256","310511","0.0-7.0-0.3","LF","fggxxfkvfo","1366","768","0","1","0","5fbfb86436a5de31c546f37b","","null","","","learningBlock2","","","","This is a dep:","null","","","","","",""
"image-keyboard-response","257","310852","0.0-7.0-1.3","LF","fggxxfkvfo","1366","768","0","1","0","5fbfb86436a5de31c546f37b","","null","","","","","","","learning/Slide84.JPG","null","","","","","",""
"html-keyboard-response","258","311857","0.0-7.0-2.3","LF","fggxxfkvfo","1366","768","0","1","0","5fbfb86436a5de31c546f37b","","null","","","learningBlock2","","","","<div style=""font-size:60px;""> </div>","null","LF","learning/Slide84.JPG","This is a dep:","","",""
"html-keyboard-response","259","312863","0.0-7.0-0.4","LF","fggxxfkvfo","1366","768","0","1","0","5fbfb86436a5de31c546f37b","","null","","","learningBlock2","","","","This is a bim:","null","","","","","",""
"image-keyboard-response","260","313196","0.0-7.0-1.4","LF","fggxxfkvfo","1366","768","0","1","0","5fbfb86436a5de31c546f37b","","null","","","","","","","learning/Slide85.JPG","null","","","","","",""
"html-keyboard-response","261","314198","0.0-7.0-2.4","LF","fggxxfkvfo","1366","768","0","1","0","5fbfb86436a5de31c546f37b","","null","","","learningBlock2","","","","<div style=""font-size:60px;""> </div>","null","LF","learning/Slide85.JPG","This is a bim:","","",""
"html-keyboard-response","262","315209","0.0-7.0-0.5","LF","fggxxfkvfo","1366","768","0","1","0","5fbfb86436a5de31c546f37b","","null","","","learningBlock2","","","","This is a tob:","null","","","","","",""
"image-keyboard-response","263","315557","0.0-7.0-1.5","LF","fggxxfkvfo","1366","768","0","1","0","5fbfb86436a5de31c546f37b","","null","","","","","","","learning/Slide86.JPG","null","","","","","",""
"html-keyboard-response","264","316561","0.0-7.0-2.5","LF","fggxxfkvfo","1366","768","0","1","0","5fbfb86436a5de31c546f37b","","null","","","learningBlock2","","","","<div style=""font-size:60px;""> </div>","null","LF","learning/Slide86.JPG","This is a tob:","","",""
"html-keyboard-response","265","317574","0.0-7.0-0.6","LF","fggxxfkvfo","1366","768","0","1","0","5fbfb86436a5de31c546f37b","","null","","","learningBlock2","","","","This is a wug:","null","","","","","",""
"image-keyboard-response","266","317914","0.0-7.0-1.6","LF","fggxxfkvfo","1366","768","0","1","0","5fbfb86436a5de31c546f37b","","null","","","","","","","learning/Slide87.JPG","null","","","","","",""
"html-keyboard-response","267","318924","0.0-7.0-2.6","LF","fggxxfkvfo","1366","768","0","1","0","5fbfb86436a5de31c546f37b","","null","","","learningBlock2","","","","<div style=""font-size:60px;""> </div>","null","LF","learning/Slide87.JPG","This is a wug:","","",""
"html-keyboard-response","268","319934","0.0-7.0-0.7","LF","fggxxfkvfo","1366","768","0","1","0","5fbfb86436a5de31c546f37b","","null","","","learningBlock2","","","","This is a tob:","null","","","","","",""
"image-keyboard-response","269","320276","0.0-7.0-1.7","LF","fggxxfkvfo","1366","768","0","1","0","5fbfb86436a5de31c546f37b","","null","","","","","","","learning/Slide88.JPG","null","","","","","",""
"html-keyboard-response","270","321284","0.0-7.0-2.7","LF","fggxxfkvfo","1366","768","0","1","0","5fbfb86436a5de31c546f37b","","null","","","learningBlock2","","","","<div style=""font-size:60px;""> </div>","null","LF","learning/Slide88.JPG","This is a tob:","","",""
"html-keyboard-response","271","322292","0.0-7.0-0.8","LF","fggxxfkvfo","1366","768","0","1","0","5fbfb86436a5de31c546f37b","","null","","","learningBlock2","","","","This is a bim:","null","","","","","",""
"image-keyboard-response","272","322628","0.0-7.0-1.8","LF","fggxxfkvfo","1366","768","0","1","0","5fbfb86436a5de31c546f37b","","null","","","","","","","learning/Slide89.JPG","null","","","","","",""
"html-keyboard-response","273","323636","0.0-7.0-2.8","LF","fggxxfkvfo","1366","768","0","1","0","5fbfb86436a5de31c546f37b","","null","","","learningBlock2","","","","<div style=""font-size:60px;""> </div>","null","LF","learning/Slide89.JPG","This is a bim:","","",""
"html-keyboard-response","274","324644","0.0-7.0-0.9","LF","fggxxfkvfo","1366","768","0","1","0","5fbfb86436a5de31c546f37b","","null","","","learningBlock2","","","","This is a dep:","null","","","","","",""
"image-keyboard-response","275","324980","0.0-7.0-1.9","LF","fggxxfkvfo","1366","768","0","1","0","5fbfb86436a5de31c546f37b","","null","","","","","","","learning/Slide90.JPG","null","","","","","",""
"html-keyboard-response","276","325988","0.0-7.0-2.9","LF","fggxxfkvfo","1366","768","0","1","0","5fbfb86436a5de31c546f37b","","null","","","learningBlock2","","","","<div style=""font-size:60px;""> </div>","null","LF","learning/Slide90.JPG","This is a dep:","","",""
"html-keyboard-response","277","326996","0.0-7.0-0.10","LF","fggxxfkvfo","1366","768","0","1","0","5fbfb86436a5de31c546f37b","","null","","","learningBlock2","","","","This is a wug:","null","","","","","",""
"image-keyboard-response","278","327332","0.0-7.0-1.10","LF","fggxxfkvfo","1366","768","0","1","0","5fbfb86436a5de31c546f37b","","null","","","","","","","learning/Slide91.JPG","null","","","","","",""
"html-keyboard-response","279","328340","0.0-7.0-2.10","LF","fggxxfkvfo","1366","768","0","1","0","5fbfb86436a5de31c546f37b","","null","","","learningBlock2","","","","<div style=""font-size:60px;""> </div>","null","LF","learning/Slide91.JPG","This is a wug:","","",""
"html-keyboard-response","280","329348","0.0-7.0-0.11","LF","fggxxfkvfo","1366","768","0","1","0","5fbfb86436a5de31c546f37b","","null","","","learningBlock2","","","","This is a tob:","null","","","","","",""
"image-keyboard-response","281","329684","0.0-7.0-1.11","LF","fggxxfkvfo","1366","768","0","1","0","5fbfb86436a5de31c546f37b","","null","","","","","","","learning/Slide92.JPG","null","","","","","",""
"html-keyboard-response","282","330692","0.0-7.0-2.11","LF","fggxxfkvfo","1366","768","0","1","0","5fbfb86436a5de31c546f37b","","null","","","learningBlock2","","","","<div style=""font-size:60px;""> </div>","null","LF","learning/Slide92.JPG","This is a tob:","","",""
"html-keyboard-response","283","331694","0.0-7.0-0.12","LF","fggxxfkvfo","1366","768","0","1","0","5fbfb86436a5de31c546f37b","","null","","","learningBlock2","","","","This is a bim:","null","","","","","",""
"image-keyboard-response","284","332023","0.0-7.0-1.12","LF","fggxxfkvfo","1366","768","0","1","0","5fbfb86436a5de31c546f37b","","null","","","","","","","learning/Slide93.JPG","null","","","","","",""
"html-keyboard-response","285","333033","0.0-7.0-2.12","LF","fggxxfkvfo","1366","768","0","1","0","5fbfb86436a5de31c546f37b","","null","","","learningBlock2","","","","<div style=""font-size:60px;""> </div>","null","LF","learning/Slide93.JPG","This is a bim:","","",""
"html-keyboard-response","286","334042","0.0-7.0-0.13","LF","fggxxfkvfo","1366","768","0","1","0","5fbfb86436a5de31c546f37b","","null","","","learningBlock2","","","","This is a tob:","null","","","","","",""
"image-keyboard-response","287","334378","0.0-7.0-1.13","LF","fggxxfkvfo","1366","768","0","1","0","5fbfb86436a5de31c546f37b","","null","","","","","","","learning/Slide94.JPG","null","","","","","",""
"html-keyboard-response","288","335386","0.0-7.0-2.13","LF","fggxxfkvfo","1366","768","0","1","0","5fbfb86436a5de31c546f37b","","null","","","learningBlock2","","","","<div style=""font-size:60px;""> </div>","null","LF","learning/Slide94.JPG","This is a tob:","","",""
"html-keyboard-response","289","336394","0.0-7.0-0.14","LF","fggxxfkvfo","1366","768","0","1","0","5fbfb86436a5de31c546f37b","","null","","","learningBlock2","","","","This is a wug:","null","","","","","",""
"image-keyboard-response","290","336730","0.0-7.0-1.14","LF","fggxxfkvfo","1366","768","0","1","0","5fbfb86436a5de31c546f37b","","null","","","","","","","learning/Slide95.JPG","null","","","","","",""
"html-keyboard-response","291","337735","0.0-7.0-2.14","LF","fggxxfkvfo","1366","768","0","1","0","5fbfb86436a5de31c546f37b","","null","","","learningBlock2","","","","<div style=""font-size:60px;""> </div>","null","LF","learning/Slide95.JPG","This is a wug:","","",""
"html-keyboard-response","292","338739","0.0-7.0-0.15","LF","fggxxfkvfo","1366","768","0","1","0","5fbfb86436a5de31c546f37b","","null","","","learningBlock2","","","","This is a tob:","null","","","","","",""
"image-keyboard-response","293","339081","0.0-7.0-1.15","LF","fggxxfkvfo","1366","768","0","1","0","5fbfb86436a5de31c546f37b","","null","","","","","","","learning/Slide96.JPG","null","","","","","",""
"html-keyboard-response","294","340086","0.0-7.0-2.15","LF","fggxxfkvfo","1366","768","0","1","0","5fbfb86436a5de31c546f37b","","null","","","learningBlock2","","","","<div style=""font-size:60px;""> </div>","null","LF","learning/Slide96.JPG","This is a tob:","","",""
"html-keyboard-response","295","341094","0.0-7.0-0.16","LF","fggxxfkvfo","1366","768","0","1","0","5fbfb86436a5de31c546f37b","","null","","","learningBlock2","","","","This is a dep:","null","","","","","",""
"image-keyboard-response","296","341430","0.0-7.0-1.16","LF","fggxxfkvfo","1366","768","0","1","0","5fbfb86436a5de31c546f37b","","null","","","","","","","learning/Slide97.JPG","null","","","","","",""
"html-keyboard-response","297","342438","0.0-7.0-2.16","LF","fggxxfkvfo","1366","768","0","1","0","5fbfb86436a5de31c546f37b","","null","","","learningBlock2","","","","<div style=""font-size:60px;""> </div>","null","LF","learning/Slide97.JPG","This is a dep:","","",""
"html-keyboard-response","298","343450","0.0-7.0-0.17","LF","fggxxfkvfo","1366","768","0","1","0","5fbfb86436a5de31c546f37b","","null","","","learningBlock2","","","","This is a bim:","null","","","","","",""
"image-keyboard-response","299","343782","0.0-7.0-1.17","LF","fggxxfkvfo","1366","768","0","1","0","5fbfb86436a5de31c546f37b","","null","","","","","","","learning/Slide98.JPG","null","","","","","",""
"html-keyboard-response","300","344792","0.0-7.0-2.17","LF","fggxxfkvfo","1366","768","0","1","0","5fbfb86436a5de31c546f37b","","null","","","learningBlock2","","","","<div style=""font-size:60px;""> </div>","null","LF","learning/Slide98.JPG","This is a bim:","","",""
"html-keyboard-response","301","345810","0.0-7.0-0.18","LF","fggxxfkvfo","1366","768","0","1","0","5fbfb86436a5de31c546f37b","","null","","","learningBlock2","","","","This is a dep:","null","","","","","",""
"image-keyboard-response","302","346140","0.0-7.0-1.18","LF","fggxxfkvfo","1366","768","0","1","0","5fbfb86436a5de31c546f37b","","null","","","","","","","learning/Slide99.JPG","null","","","","","",""
"html-keyboard-response","303","347148","0.0-7.0-2.18","LF","fggxxfkvfo","1366","768","0","1","0","5fbfb86436a5de31c546f37b","","null","","","learningBlock2","","","","<div style=""font-size:60px;""> </div>","null","LF","learning/Slide99.JPG","This is a dep:","","",""
"html-keyboard-response","304","348157","0.0-7.0-0.19","LF","fggxxfkvfo","1366","768","0","1","0","5fbfb86436a5de31c546f37b","","null","","","learningBlock2","","","","This is a bim:","null","","","","","",""
"image-keyboard-response","305","348492","0.0-7.0-1.19","LF","fggxxfkvfo","1366","768","0","1","0","5fbfb86436a5de31c546f37b","","null","","","","","","","learning/Slide100.JPG","null","","","","","",""
"html-keyboard-response","306","349500","0.0-7.0-2.19","LF","fggxxfkvfo","1366","768","0","1","0","5fbfb86436a5de31c546f37b","","null","","","learningBlock2","","","","<div style=""font-size:60px;""> </div>","null","LF","learning/Slide100.JPG","This is a bim:","","",""
"html-keyboard-response","307","350509","0.0-7.0-0.20","LF","fggxxfkvfo","1366","768","0","1","0","5fbfb86436a5de31c546f37b","","null","","","learningBlock2","","","","This is a tob:","null","","","","","",""
"image-keyboard-response","308","350844","0.0-7.0-1.20","LF","fggxxfkvfo","1366","768","0","1","0","5fbfb86436a5de31c546f37b","","null","","","","","","","learning/Slide101.JPG","null","","","","","",""
"html-keyboard-response","309","351852","0.0-7.0-2.20","LF","fggxxfkvfo","1366","768","0","1","0","5fbfb86436a5de31c546f37b","","null","","","learningBlock2","","","","<div style=""font-size:60px;""> </div>","null","LF","learning/Slide101.JPG","This is a tob:","","",""
"html-keyboard-response","310","352861","0.0-7.0-0.21","LF","fggxxfkvfo","1366","768","0","1","0","5fbfb86436a5de31c546f37b","","null","","","learningBlock2","","","","This is a bim:","null","","","","","",""
"image-keyboard-response","311","353194","0.0-7.0-1.21","LF","fggxxfkvfo","1366","768","0","1","0","5fbfb86436a5de31c546f37b","","null","","","","","","","learning/Slide102.JPG","null","","","","","",""
"html-keyboard-response","312","354212","0.0-7.0-2.21","LF","fggxxfkvfo","1366","768","0","1","0","5fbfb86436a5de31c546f37b","","null","","","learningBlock2","","","","<div style=""font-size:60px;""> </div>","null","LF","learning/Slide102.JPG","This is a bim:","","",""
"html-keyboard-response","313","355219","0.0-7.0-0.22","LF","fggxxfkvfo","1366","768","0","1","0","5fbfb86436a5de31c546f37b","","null","","","learningBlock2","","","","This is a dep:","null","","","","","",""
"image-keyboard-response","314","355560","0.0-7.0-1.22","LF","fggxxfkvfo","1366","768","0","1","0","5fbfb86436a5de31c546f37b","","null","","","","","","","learning/Slide103.JPG","null","","","","","",""
"html-keyboard-response","315","356566","0.0-7.0-2.22","LF","fggxxfkvfo","1366","768","0","1","0","5fbfb86436a5de31c546f37b","","null","","","learningBlock2","","","","<div style=""font-size:60px;""> </div>","null","LF","learning/Slide103.JPG","This is a dep:","","",""
"html-keyboard-response","316","357571","0.0-7.0-0.23","LF","fggxxfkvfo","1366","768","0","1","0","5fbfb86436a5de31c546f37b","","null","","","learningBlock2","","","","This is a tob:","null","","","","","",""
"image-keyboard-response","317","357907","0.0-7.0-1.23","LF","fggxxfkvfo","1366","768","0","1","0","5fbfb86436a5de31c546f37b","","null","","","","","","","learning/Slide104.JPG","null","","","","","",""
"html-keyboard-response","318","358918","0.0-7.0-2.23","LF","fggxxfkvfo","1366","768","0","1","0","5fbfb86436a5de31c546f37b","","null","","","learningBlock2","","","","<div style=""font-size:60px;""> </div>","null","LF","learning/Slide104.JPG","This is a tob:","","",""
"html-keyboard-response","319","359925","0.0-7.0-0.24","LF","fggxxfkvfo","1366","768","0","1","0","5fbfb86436a5de31c546f37b","","null","","","learningBlock2","","","","This is a dep:","null","","","","","",""
"image-keyboard-response","320","360262","0.0-7.0-1.24","LF","fggxxfkvfo","1366","768","0","1","0","5fbfb86436a5de31c546f37b","","null","","","","","","","learning/Slide105.JPG","null","","","","","",""
"html-keyboard-response","321","361278","0.0-7.0-2.24","LF","fggxxfkvfo","1366","768","0","1","0","5fbfb86436a5de31c546f37b","","null","","","learningBlock2","","","","<div style=""font-size:60px;""> </div>","null","LF","learning/Slide105.JPG","This is a dep:","","",""
"html-keyboard-response","322","362286","0.0-7.0-0.25","LF","fggxxfkvfo","1366","768","0","1","0","5fbfb86436a5de31c546f37b","","null","","","learningBlock2","","","","This is a wug:","null","","","","","",""
"image-keyboard-response","323","362626","0.0-7.0-1.25","LF","fggxxfkvfo","1366","768","0","1","0","5fbfb86436a5de31c546f37b","","null","","","","","","","learning/Slide106.JPG","null","","","","","",""
"html-keyboard-response","324","363640","0.0-7.0-2.25","LF","fggxxfkvfo","1366","768","0","1","0","5fbfb86436a5de31c546f37b","","null","","","learningBlock2","","","","<div style=""font-size:60px;""> </div>","null","LF","learning/Slide106.JPG","This is a wug:","","",""
"html-keyboard-response","325","364645","0.0-7.0-0.26","LF","fggxxfkvfo","1366","768","0","1","0","5fbfb86436a5de31c546f37b","","null","","","learningBlock2","","","","This is a bim:","null","","","","","",""
"image-keyboard-response","326","364980","0.0-7.0-1.26","LF","fggxxfkvfo","1366","768","0","1","0","5fbfb86436a5de31c546f37b","","null","","","","","","","learning/Slide107.JPG","null","","","","","",""
"html-keyboard-response","327","365994","0.0-7.0-2.26","LF","fggxxfkvfo","1366","768","0","1","0","5fbfb86436a5de31c546f37b","","null","","","learningBlock2","","","","<div style=""font-size:60px;""> </div>","null","LF","learning/Slide107.JPG","This is a bim:","","",""
"html-keyboard-response","328","366997","0.0-7.0-0.27","LF","fggxxfkvfo","1366","768","0","1","0","5fbfb86436a5de31c546f37b","","null","","","learningBlock2","","","","This is a dep:","null","","","","","",""
"image-keyboard-response","329","367327","0.0-7.0-1.27","LF","fggxxfkvfo","1366","768","0","1","0","5fbfb86436a5de31c546f37b","","null","","","","","","","learning/Slide108.JPG","null","","","","","",""
"html-keyboard-response","330","368335","0.0-7.0-2.27","LF","fggxxfkvfo","1366","768","0","1","0","5fbfb86436a5de31c546f37b","","null","","","learningBlock2","","","","<div style=""font-size:60px;""> </div>","null","LF","learning/Slide108.JPG","This is a dep:","","",""
"html-keyboard-response","331","369341","0.0-7.0-0.28","LF","fggxxfkvfo","1366","768","0","1","0","5fbfb86436a5de31c546f37b","","null","","","learningBlock2","","","","This is a wug:","null","","","","","",""
"image-keyboard-response","332","369684","0.0-7.0-1.28","LF","fggxxfkvfo","1366","768","0","1","0","5fbfb86436a5de31c546f37b","","null","","","","","","","learning/Slide109.JPG","null","","","","","",""
"html-keyboard-response","333","370702","0.0-7.0-2.28","LF","fggxxfkvfo","1366","768","0","1","0","5fbfb86436a5de31c546f37b","","null","","","learningBlock2","","","","<div style=""font-size:60px;""> </div>","null","LF","learning/Slide109.JPG","This is a wug:","","",""
"html-keyboard-response","334","371705","0.0-7.0-0.29","LF","fggxxfkvfo","1366","768","0","1","0","5fbfb86436a5de31c546f37b","","null","","","learningBlock2","","","","This is a bim:","null","","","","","",""
"image-keyboard-response","335","372046","0.0-7.0-1.29","LF","fggxxfkvfo","1366","768","0","1","0","5fbfb86436a5de31c546f37b","","null","","","","","","","learning/Slide110.JPG","null","","","","","",""
"html-keyboard-response","336","373048","0.0-7.0-2.29","LF","fggxxfkvfo","1366","768","0","1","0","5fbfb86436a5de31c546f37b","","null","","","learningBlock2","","","","<div style=""font-size:60px;""> </div>","null","LF","learning/Slide110.JPG","This is a bim:","","",""
"html-keyboard-response","337","374056","0.0-7.0-0.30","LF","fggxxfkvfo","1366","768","0","1","0","5fbfb86436a5de31c546f37b","","null","","","learningBlock2","","","","This is a tob:","null","","","","","",""
"image-keyboard-response","338","374384","0.0-7.0-1.30","LF","fggxxfkvfo","1366","768","0","1","0","5fbfb86436a5de31c546f37b","","null","","","","","","","learning/Slide111.JPG","null","","","","","",""
"html-keyboard-response","339","375388","0.0-7.0-2.30","LF","fggxxfkvfo","1366","768","0","1","0","5fbfb86436a5de31c546f37b","","null","","","learningBlock2","","","","<div style=""font-size:60px;""> </div>","null","LF","learning/Slide111.JPG","This is a tob:","","",""
"html-keyboard-response","340","376405","0.0-7.0-0.31","LF","fggxxfkvfo","1366","768","0","1","0","5fbfb86436a5de31c546f37b","","null","","","learningBlock2","","","","This is a wug:","null","","","","","",""
"image-keyboard-response","341","376754","0.0-7.0-1.31","LF","fggxxfkvfo","1366","768","0","1","0","5fbfb86436a5de31c546f37b","","null","","","","","","","learning/Slide112.JPG","null","","","","","",""
"html-keyboard-response","342","377757","0.0-7.0-2.31","LF","fggxxfkvfo","1366","768","0","1","0","5fbfb86436a5de31c546f37b","","null","","","learningBlock2","","","","<div style=""font-size:60px;""> </div>","null","LF","learning/Slide112.JPG","This is a wug:","","",""
"html-keyboard-response","343","378771","0.0-7.0-0.32","LF","fggxxfkvfo","1366","768","0","1","0","5fbfb86436a5de31c546f37b","","null","","","learningBlock2","","","","This is a tob:","null","","","","","",""
"image-keyboard-response","344","379127","0.0-7.0-1.32","LF","fggxxfkvfo","1366","768","0","1","0","5fbfb86436a5de31c546f37b","","null","","","","","","","learning/Slide113.JPG","null","","","","","",""
"html-keyboard-response","345","380142","0.0-7.0-2.32","LF","fggxxfkvfo","1366","768","0","1","0","5fbfb86436a5de31c546f37b","","null","","","learningBlock2","","","","<div style=""font-size:60px;""> </div>","null","LF","learning/Slide113.JPG","This is a tob:","","",""
"html-keyboard-response","346","381152","0.0-7.0-0.33","LF","fggxxfkvfo","1366","768","0","1","0","5fbfb86436a5de31c546f37b","","null","","","learningBlock2","","","","This is a wug:","null","","","","","",""
"image-keyboard-response","347","381500","0.0-7.0-1.33","LF","fggxxfkvfo","1366","768","0","1","0","5fbfb86436a5de31c546f37b","","null","","","","","","","learning/Slide114.JPG","null","","","","","",""
"html-keyboard-response","348","382518","0.0-7.0-2.33","LF","fggxxfkvfo","1366","768","0","1","0","5fbfb86436a5de31c546f37b","","null","","","learningBlock2","","","","<div style=""font-size:60px;""> </div>","null","LF","learning/Slide114.JPG","This is a wug:","","",""
"html-keyboard-response","349","383528","0.0-7.0-0.34","LF","fggxxfkvfo","1366","768","0","1","0","5fbfb86436a5de31c546f37b","","null","","","learningBlock2","","","","This is a bim:","null","","","","","",""
"image-keyboard-response","350","383877","0.0-7.0-1.34","LF","fggxxfkvfo","1366","768","0","1","0","5fbfb86436a5de31c546f37b","","null","","","","","","","learning/Slide115.JPG","null","","","","","",""
"html-keyboard-response","351","384887","0.0-7.0-2.34","LF","fggxxfkvfo","1366","768","0","1","0","5fbfb86436a5de31c546f37b","","null","","","learningBlock2","","","","<div style=""font-size:60px;""> </div>","null","LF","learning/Slide115.JPG","This is a bim:","","",""
"html-keyboard-response","352","385891","0.0-7.0-0.35","LF","fggxxfkvfo","1366","768","0","1","0","5fbfb86436a5de31c546f37b","","null","","","learningBlock2","","","","This is a dep:","null","","","","","",""
"image-keyboard-response","353","386226","0.0-7.0-1.35","LF","fggxxfkvfo","1366","768","0","1","0","5fbfb86436a5de31c546f37b","","null","","","","","","","learning/Slide116.JPG","null","","","","","",""
"html-keyboard-response","354","387238","0.0-7.0-2.35","LF","fggxxfkvfo","1366","768","0","1","0","5fbfb86436a5de31c546f37b","","null","","","learningBlock2","","","","<div style=""font-size:60px;""> </div>","null","LF","learning/Slide116.JPG","This is a dep:","","",""
"html-keyboard-response","355","388241","0.0-7.0-0.36","LF","fggxxfkvfo","1366","768","0","1","0","5fbfb86436a5de31c546f37b","","null","","","learningBlock2","","","","This is a tob:","null","","","","","",""
"image-keyboard-response","356","388597","0.0-7.0-1.36","LF","fggxxfkvfo","1366","768","0","1","0","5fbfb86436a5de31c546f37b","","null","","","","","","","learning/Slide117.JPG","null","","","","","",""
"html-keyboard-response","357","389609","0.0-7.0-2.36","LF","fggxxfkvfo","1366","768","0","1","0","5fbfb86436a5de31c546f37b","","null","","","learningBlock2","","","","<div style=""font-size:60px;""> </div>","null","LF","learning/Slide117.JPG","This is a tob:","","",""
"html-keyboard-response","358","390612","0.0-7.0-0.37","LF","fggxxfkvfo","1366","768","0","1","0","5fbfb86436a5de31c546f37b","","null","","","learningBlock2","","","","This is a dep:","null","","","","","",""
"image-keyboard-response","359","390960","0.0-7.0-1.37","LF","fggxxfkvfo","1366","768","0","1","0","5fbfb86436a5de31c546f37b","","null","","","","","","","learning/Slide118.JPG","null","","","","","",""
"html-keyboard-response","360","391966","0.0-7.0-2.37","LF","fggxxfkvfo","1366","768","0","1","0","5fbfb86436a5de31c546f37b","","null","","","learningBlock2","","","","<div style=""font-size:60px;""> </div>","null","LF","learning/Slide118.JPG","This is a dep:","","",""
"html-keyboard-response","361","392974","0.0-7.0-0.38","LF","fggxxfkvfo","1366","768","0","1","0","5fbfb86436a5de31c546f37b","","null","","","learningBlock2","","","","This is a wug:","null","","","","","",""
"image-keyboard-response","362","393310","0.0-7.0-1.38","LF","fggxxfkvfo","1366","768","0","1","0","5fbfb86436a5de31c546f37b","","null","","","","","","","learning/Slide119.JPG","null","","","","","",""
"html-keyboard-response","363","394318","0.0-7.0-2.38","LF","fggxxfkvfo","1366","768","0","1","0","5fbfb86436a5de31c546f37b","","null","","","learningBlock2","","","","<div style=""font-size:60px;""> </div>","null","LF","learning/Slide119.JPG","This is a wug:","","",""
"html-keyboard-response","364","395326","0.0-7.0-0.39","LF","fggxxfkvfo","1366","768","0","1","0","5fbfb86436a5de31c546f37b","","null","","","learningBlock2","","","","This is a dep:","null","","","","","",""
"image-keyboard-response","365","395654","0.0-7.0-1.39","LF","fggxxfkvfo","1366","768","0","1","0","5fbfb86436a5de31c546f37b","","null","","","","","","","learning/Slide120.JPG","null","","","","","",""
"html-keyboard-response","366","396661","0.0-7.0-2.39","LF","fggxxfkvfo","1366","768","0","1","0","5fbfb86436a5de31c546f37b","","null","","","learningBlock2","","","","<div style=""font-size:60px;""> </div>","null","LF","learning/Slide120.JPG","This is a dep:","","",""
"html-keyboard-response","367","397668","0.0-7.0-0.40","LF","fggxxfkvfo","1366","768","0","1","0","5fbfb86436a5de31c546f37b","","null","","","learningBlock2","","","","This is a bim:","null","","","","","",""
"image-keyboard-response","368","398004","0.0-7.0-1.40","LF","fggxxfkvfo","1366","768","0","1","0","5fbfb86436a5de31c546f37b","","null","","","","","","","learning/Slide121.JPG","null","","","","","",""
"html-keyboard-response","369","399014","0.0-7.0-2.40","LF","fggxxfkvfo","1366","768","0","1","0","5fbfb86436a5de31c546f37b","","null","","","learningBlock2","","","","<div style=""font-size:60px;""> </div>","null","LF","learning/Slide121.JPG","This is a bim:","","",""
"html-keyboard-response","370","400017","0.0-7.0-0.41","LF","fggxxfkvfo","1366","768","0","1","0","5fbfb86436a5de31c546f37b","","null","","","learningBlock2","","","","This is a wug:","null","","","","","",""
"image-keyboard-response","371","400357","0.0-7.0-1.41","LF","fggxxfkvfo","1366","768","0","1","0","5fbfb86436a5de31c546f37b","","null","","","","","","","learning/Slide122.JPG","null","","","","","",""
"html-keyboard-response","372","401367","0.0-7.0-2.41","LF","fggxxfkvfo","1366","768","0","1","0","5fbfb86436a5de31c546f37b","","null","","","learningBlock2","","","","<div style=""font-size:60px;""> </div>","null","LF","learning/Slide122.JPG","This is a wug:","","",""
"html-keyboard-response","373","402371","0.0-7.0-0.42","LF","fggxxfkvfo","1366","768","0","1","0","5fbfb86436a5de31c546f37b","","null","","","learningBlock2","","","","This is a bim:","null","","","","","",""
"image-keyboard-response","374","402714","0.0-7.0-1.42","LF","fggxxfkvfo","1366","768","0","1","0","5fbfb86436a5de31c546f37b","","null","","","","","","","learning/Slide123.JPG","null","","","","","",""
"html-keyboard-response","375","403730","0.0-7.0-2.42","LF","fggxxfkvfo","1366","768","0","1","0","5fbfb86436a5de31c546f37b","","null","","","learningBlock2","","","","<div style=""font-size:60px;""> </div>","null","LF","learning/Slide123.JPG","This is a bim:","","",""
"html-keyboard-response","376","404737","0.0-7.0-0.43","LF","fggxxfkvfo","1366","768","0","1","0","5fbfb86436a5de31c546f37b","","null","","","learningBlock2","","","","This is a tob:","null","","","","","",""
"image-keyboard-response","377","405081","0.0-7.0-1.43","LF","fggxxfkvfo","1366","768","0","1","0","5fbfb86436a5de31c546f37b","","null","","","","","","","learning/Slide124.JPG","null","","","","","",""
"html-keyboard-response","378","406083","0.0-7.0-2.43","LF","fggxxfkvfo","1366","768","0","1","0","5fbfb86436a5de31c546f37b","","null","","","learningBlock2","","","","<div style=""font-size:60px;""> </div>","null","LF","learning/Slide124.JPG","This is a tob:","","",""
"html-keyboard-response","379","407086","0.0-7.0-0.44","LF","fggxxfkvfo","1366","768","0","1","0","5fbfb86436a5de31c546f37b","","null","","","learningBlock2","","","","This is a bim:","null","","","","","",""
"image-keyboard-response","380","407421","0.0-7.0-1.44","LF","fggxxfkvfo","1366","768","0","1","0","5fbfb86436a5de31c546f37b","","null","","","","","","","learning/Slide125.JPG","null","","","","","",""
"html-keyboard-response","381","408430","0.0-7.0-2.44","LF","fggxxfkvfo","1366","768","0","1","0","5fbfb86436a5de31c546f37b","","null","","","learningBlock2","","","","<div style=""font-size:60px;""> </div>","null","LF","learning/Slide125.JPG","This is a bim:","","",""
"html-keyboard-response","382","409439","0.0-7.0-0.45","LF","fggxxfkvfo","1366","768","0","1","0","5fbfb86436a5de31c546f37b","","null","","","learningBlock2","","","","This is a tob:","null","","","","","",""
"image-keyboard-response","383","409780","0.0-7.0-1.45","LF","fggxxfkvfo","1366","768","0","1","0","5fbfb86436a5de31c546f37b","","null","","","","","","","learning/Slide126.JPG","null","","","","","",""
"html-keyboard-response","384","410785","0.0-7.0-2.45","LF","fggxxfkvfo","1366","768","0","1","0","5fbfb86436a5de31c546f37b","","null","","","learningBlock2","","","","<div style=""font-size:60px;""> </div>","null","LF","learning/Slide126.JPG","This is a tob:","","",""
"html-keyboard-response","385","411793","0.0-7.0-0.46","LF","fggxxfkvfo","1366","768","0","1","0","5fbfb86436a5de31c546f37b","","null","","","learningBlock2","","","","This is a dep:","null","","","","","",""
"image-keyboard-response","386","412129","0.0-7.0-1.46","LF","fggxxfkvfo","1366","768","0","1","0","5fbfb86436a5de31c546f37b","","null","","","","","","","learning/Slide127.JPG","null","","","","","",""
"html-keyboard-response","387","413137","0.0-7.0-2.46","LF","fggxxfkvfo","1366","768","0","1","0","5fbfb86436a5de31c546f37b","","null","","","learningBlock2","","","","<div style=""font-size:60px;""> </div>","null","LF","learning/Slide127.JPG","This is a dep:","","",""
"html-keyboard-response","388","414145","0.0-7.0-0.47","LF","fggxxfkvfo","1366","768","0","1","0","5fbfb86436a5de31c546f37b","","null","","","learningBlock2","","","","This is a wug:","null","","","","","",""
"image-keyboard-response","389","414481","0.0-7.0-1.47","LF","fggxxfkvfo","1366","768","0","1","0","5fbfb86436a5de31c546f37b","","null","","","","","","","learning/Slide128.JPG","null","","","","","",""
"html-keyboard-response","390","415489","0.0-7.0-2.47","LF","fggxxfkvfo","1366","768","0","1","0","5fbfb86436a5de31c546f37b","","null","","","learningBlock2","","","","<div style=""font-size:60px;""> </div>","null","LF","learning/Slide128.JPG","This is a wug:","","",""
"html-keyboard-response","391","416497","0.0-7.0-0.48","LF","fggxxfkvfo","1366","768","0","1","0","5fbfb86436a5de31c546f37b","","null","","","learningBlock2","","","","This is a tob:","null","","","","","",""
"image-keyboard-response","392","416833","0.0-7.0-1.48","LF","fggxxfkvfo","1366","768","0","1","0","5fbfb86436a5de31c546f37b","","null","","","","","","","learning/Slide129.JPG","null","","","","","",""
"html-keyboard-response","393","417841","0.0-7.0-2.48","LF","fggxxfkvfo","1366","768","0","1","0","5fbfb86436a5de31c546f37b","","null","","","learningBlock2","","","","<div style=""font-size:60px;""> </div>","null","LF","learning/Slide129.JPG","This is a tob:","","",""
"html-keyboard-response","394","418849","0.0-7.0-0.49","LF","fggxxfkvfo","1366","768","0","1","0","5fbfb86436a5de31c546f37b","","null","","","learningBlock2","","","","This is a wug:","null","","","","","",""
"image-keyboard-response","395","419185","0.0-7.0-1.49","LF","fggxxfkvfo","1366","768","0","1","0","5fbfb86436a5de31c546f37b","","null","","","","","","","learning/Slide130.JPG","null","","","","","",""
"html-keyboard-response","396","420191","0.0-7.0-2.49","LF","fggxxfkvfo","1366","768","0","1","0","5fbfb86436a5de31c546f37b","","null","","","learningBlock2","","","","<div style=""font-size:60px;""> </div>","null","LF","learning/Slide130.JPG","This is a wug:","","",""
"html-keyboard-response","397","421195","0.0-7.0-0.50","LF","fggxxfkvfo","1366","768","0","1","0","5fbfb86436a5de31c546f37b","","null","","","learningBlock2","","","","This is a bim:","null","","","","","",""
"image-keyboard-response","398","421541","0.0-7.0-1.50","LF","fggxxfkvfo","1366","768","0","1","0","5fbfb86436a5de31c546f37b","","null","","","","","","","learning/Slide131.JPG","null","","","","","",""
"html-keyboard-response","399","422551","0.0-7.0-2.50","LF","fggxxfkvfo","1366","768","0","1","0","5fbfb86436a5de31c546f37b","","null","","","learningBlock2","","","","<div style=""font-size:60px;""> </div>","null","LF","learning/Slide131.JPG","This is a bim:","","",""
"html-keyboard-response","400","423556","0.0-7.0-0.51","LF","fggxxfkvfo","1366","768","0","1","0","5fbfb86436a5de31c546f37b","","null","","","learningBlock2","","","","This is a dep:","null","","","","","",""
"image-keyboard-response","401","423904","0.0-7.0-1.51","LF","fggxxfkvfo","1366","768","0","1","0","5fbfb86436a5de31c546f37b","","null","","","","","","","learning/Slide132.JPG","null","","","","","",""
"html-keyboard-response","402","424914","0.0-7.0-2.51","LF","fggxxfkvfo","1366","768","0","1","0","5fbfb86436a5de31c546f37b","","null","","","learningBlock2","","","","<div style=""font-size:60px;""> </div>","null","LF","learning/Slide132.JPG","This is a dep:","","",""
"html-keyboard-response","403","425917","0.0-7.0-0.52","LF","fggxxfkvfo","1366","768","0","1","0","5fbfb86436a5de31c546f37b","","null","","","learningBlock2","","","","This is a tob:","null","","","","","",""
"image-keyboard-response","404","426274","0.0-7.0-1.52","LF","fggxxfkvfo","1366","768","0","1","0","5fbfb86436a5de31c546f37b","","null","","","","","","","learning/Slide133.JPG","null","","","","","",""
"html-keyboard-response","405","427289","0.0-7.0-2.52","LF","fggxxfkvfo","1366","768","0","1","0","5fbfb86436a5de31c546f37b","","null","","","learningBlock2","","","","<div style=""font-size:60px;""> </div>","null","LF","learning/Slide133.JPG","This is a tob:","","",""
"html-keyboard-response","406","428300","0.0-7.0-0.53","LF","fggxxfkvfo","1366","768","0","1","0","5fbfb86436a5de31c546f37b","","null","","","learningBlock2","","","","This is a dep:","null","","","","","",""
"image-keyboard-response","407","428656","0.0-7.0-1.53","LF","fggxxfkvfo","1366","768","0","1","0","5fbfb86436a5de31c546f37b","","null","","","","","","","learning/Slide134.JPG","null","","","","","",""
"html-keyboard-response","408","429666","0.0-7.0-2.53","LF","fggxxfkvfo","1366","768","0","1","0","5fbfb86436a5de31c546f37b","","null","","","learningBlock2","","","","<div style=""font-size:60px;""> </div>","null","LF","learning/Slide134.JPG","This is a dep:","","",""
"html-keyboard-response","409","430676","0.0-7.0-0.54","LF","fggxxfkvfo","1366","768","0","1","0","5fbfb86436a5de31c546f37b","","null","","","learningBlock2","","","","This is a tob:","null","","","","","",""
"image-keyboard-response","410","431025","0.0-7.0-1.54","LF","fggxxfkvfo","1366","768","0","1","0","5fbfb86436a5de31c546f37b","","null","","","","","","","learning/Slide135.JPG","null","","","","","",""
"html-keyboard-response","411","432029","0.0-7.0-2.54","LF","fggxxfkvfo","1366","768","0","1","0","5fbfb86436a5de31c546f37b","","null","","","learningBlock2","","","","<div style=""font-size:60px;""> </div>","null","LF","learning/Slide135.JPG","This is a tob:","","",""
"html-keyboard-response","412","433037","0.0-7.0-0.55","LF","fggxxfkvfo","1366","768","0","1","0","5fbfb86436a5de31c546f37b","","null","","","learningBlock2","","","","This is a wug:","null","","","","","",""
"image-keyboard-response","413","433372","0.0-7.0-1.55","LF","fggxxfkvfo","1366","768","0","1","0","5fbfb86436a5de31c546f37b","","null","","","","","","","learning/Slide136.JPG","null","","","","","",""
"html-keyboard-response","414","434381","0.0-7.0-2.55","LF","fggxxfkvfo","1366","768","0","1","0","5fbfb86436a5de31c546f37b","","null","","","learningBlock2","","","","<div style=""font-size:60px;""> </div>","null","LF","learning/Slide136.JPG","This is a wug:","","",""
"html-keyboard-response","415","435389","0.0-7.0-0.56","LF","fggxxfkvfo","1366","768","0","1","0","5fbfb86436a5de31c546f37b","","null","","","learningBlock2","","","","This is a tob:","null","","","","","",""
"image-keyboard-response","416","435725","0.0-7.0-1.56","LF","fggxxfkvfo","1366","768","0","1","0","5fbfb86436a5de31c546f37b","","null","","","","","","","learning/Slide137.JPG","null","","","","","",""
"html-keyboard-response","417","436733","0.0-7.0-2.56","LF","fggxxfkvfo","1366","768","0","1","0","5fbfb86436a5de31c546f37b","","null","","","learningBlock2","","","","<div style=""font-size:60px;""> </div>","null","LF","learning/Slide137.JPG","This is a tob:","","",""
"html-keyboard-response","418","437741","0.0-7.0-0.57","LF","fggxxfkvfo","1366","768","0","1","0","5fbfb86436a5de31c546f37b","","null","","","learningBlock2","","","","This is a bim:","null","","","","","",""
"image-keyboard-response","419","438077","0.0-7.0-1.57","LF","fggxxfkvfo","1366","768","0","1","0","5fbfb86436a5de31c546f37b","","null","","","","","","","learning/Slide138.JPG","null","","","","","",""
"html-keyboard-response","420","439085","0.0-7.0-2.57","LF","fggxxfkvfo","1366","768","0","1","0","5fbfb86436a5de31c546f37b","","null","","","learningBlock2","","","","<div style=""font-size:60px;""> </div>","null","LF","learning/Slide138.JPG","This is a bim:","","",""
"html-keyboard-response","421","440093","0.0-7.0-0.58","LF","fggxxfkvfo","1366","768","0","1","0","5fbfb86436a5de31c546f37b","","null","","","learningBlock2","","","","This is a wug:","null","","","","","",""
"image-keyboard-response","422","440429","0.0-7.0-1.58","LF","fggxxfkvfo","1366","768","0","1","0","5fbfb86436a5de31c546f37b","","null","","","","","","","learning/Slide139.JPG","null","","","","","",""
"html-keyboard-response","423","441437","0.0-7.0-2.58","LF","fggxxfkvfo","1366","768","0","1","0","5fbfb86436a5de31c546f37b","","null","","","learningBlock2","","","","<div style=""font-size:60px;""> </div>","null","LF","learning/Slide139.JPG","This is a wug:","","",""
"html-keyboard-response","424","442445","0.0-7.0-0.59","LF","fggxxfkvfo","1366","768","0","1","0","5fbfb86436a5de31c546f37b","","null","","","learningBlock2","","","","This is a dep:","null","","","","","",""
"image-keyboard-response","425","442781","0.0-7.0-1.59","LF","fggxxfkvfo","1366","768","0","1","0","5fbfb86436a5de31c546f37b","","null","","","","","","","learning/Slide140.JPG","null","","","","","",""
"html-keyboard-response","426","443789","0.0-7.0-2.59","LF","fggxxfkvfo","1366","768","0","1","0","5fbfb86436a5de31c546f37b","","null","","","learningBlock2","","","","<div style=""font-size:60px;""> </div>","null","LF","learning/Slide140.JPG","This is a dep:","","",""
"html-keyboard-response","427","444797","0.0-7.0-0.60","LF","fggxxfkvfo","1366","768","0","1","0","5fbfb86436a5de31c546f37b","","null","","","learningBlock2","","","","This is a tob:","null","","","","","",""
"image-keyboard-response","428","445133","0.0-7.0-1.60","LF","fggxxfkvfo","1366","768","0","1","0","5fbfb86436a5de31c546f37b","","null","","","","","","","learning/Slide141.JPG","null","","","","","",""
"html-keyboard-response","429","446142","0.0-7.0-2.60","LF","fggxxfkvfo","1366","768","0","1","0","5fbfb86436a5de31c546f37b","","null","","","learningBlock2","","","","<div style=""font-size:60px;""> </div>","null","LF","learning/Slide141.JPG","This is a tob:","","",""
"html-keyboard-response","430","447149","0.0-7.0-0.61","LF","fggxxfkvfo","1366","768","0","1","0","5fbfb86436a5de31c546f37b","","null","","","learningBlock2","","","","This is a wug:","null","","","","","",""
"image-keyboard-response","431","447477","0.0-7.0-1.61","LF","fggxxfkvfo","1366","768","0","1","0","5fbfb86436a5de31c546f37b","","null","","","","","","","learning/Slide142.JPG","null","","","","","",""
"html-keyboard-response","432","448483","0.0-7.0-2.61","LF","fggxxfkvfo","1366","768","0","1","0","5fbfb86436a5de31c546f37b","","null","","","learningBlock2","","","","<div style=""font-size:60px;""> </div>","null","LF","learning/Slide142.JPG","This is a wug:","","",""
"html-keyboard-response","433","449493","0.0-7.0-0.62","LF","fggxxfkvfo","1366","768","0","1","0","5fbfb86436a5de31c546f37b","","null","","","learningBlock2","","","","This is a bim:","null","","","","","",""
"image-keyboard-response","434","449834","0.0-7.0-1.62","LF","fggxxfkvfo","1366","768","0","1","0","5fbfb86436a5de31c546f37b","","null","","","","","","","learning/Slide143.JPG","null","","","","","",""
"html-keyboard-response","435","450852","0.0-7.0-2.62","LF","fggxxfkvfo","1366","768","0","1","0","5fbfb86436a5de31c546f37b","","null","","","learningBlock2","","","","<div style=""font-size:60px;""> </div>","null","LF","learning/Slide143.JPG","This is a bim:","","",""
"html-keyboard-response","436","451865","0.0-7.0-0.63","LF","fggxxfkvfo","1366","768","0","1","0","5fbfb86436a5de31c546f37b","","null","","","learningBlock2","","","","This is a dep:","null","","","","","",""
"image-keyboard-response","437","452216","0.0-7.0-1.63","LF","fggxxfkvfo","1366","768","0","1","0","5fbfb86436a5de31c546f37b","","null","","","","","","","learning/Slide144.JPG","null","","","","","",""
