"trial_type","trial_index","time_elapsed","internal_node_id","condition","subject","screen_width","screen_height","attention","distraction","conscientious","prolificID","success","rt","url","view_history","test_part","final_height_px","final_width_px","scale_factor","stimulus","key_press","learningType","presentedImage","presentedLabel","button_pressed","response","responses"
"pavlovia","0","138","0.0-0.0","LF","0tf06g8uzp","1366","768","0","1","0","5b98223fbdb1df0001f1e684","","","","","","","","","","","","","","","",""
"fullscreen","1","3466","0.0-1.0","LF","0tf06g8uzp","1366","768","0","1","0","5b98223fbdb1df0001f1e684","true","","","","","","","","","","","","","","",""
"external-html","2","18491","0.0-2.0-0.0","LF","0tf06g8uzp","1366","768","0","1","0","5b98223fbdb1df0001f1e684","","14770.435000000023","text/information_english.html","","","","","","","","","","","","",""
"external-html","3","28803","0.0-2.0-1.0","LF","0tf06g8uzp","1366","768","0","1","0","5b98223fbdb1df0001f1e684","","10047.190000000002","text/consent_english.html","","","","","","","","","","","","",""
"instructions","4","48592","0.0-3.0","LF","0tf06g8uzp","1366","768","0","1","0","5b98223fbdb1df0001f1e684","","NA","","[{""page_index"":0,""viewing_time"":2119.019999999975},{""page_index"":1,""viewing_time"":17662.500000000015}]","instructions","","","","","","","","","","",""
"resize","5","73103","0.0-4.0","LF","0tf06g8uzp","1366","768","0","1","0","5b98223fbdb1df0001f1e684","","","","","","","498","3.1619047619047618","","","","","","","",""
"html-keyboard-response","6","74105","0.0-5.0-0.0","LF","0tf06g8uzp","1366","768","0","1","0","5b98223fbdb1df0001f1e684","","null","","","learningBlock1","","","","This is a tob:","null","","","","","",""
"image-keyboard-response","7","74432","0.0-5.0-1.0","LF","0tf06g8uzp","1366","768","0","1","0","5b98223fbdb1df0001f1e684","","null","","","","","","","learning/Slide1.JPG","null","","","","","",""
"html-keyboard-response","8","75433","0.0-5.0-2.0","LF","0tf06g8uzp","1366","768","0","1","0","5b98223fbdb1df0001f1e684","","null","","","learningBlock1","","","","<div style=""font-size:60px;""> </div>","null","LF","learning/Slide1.JPG","This is a tob:","","",""
"html-keyboard-response","9","76435","0.0-5.0-0.1","LF","0tf06g8uzp","1366","768","0","1","0","5b98223fbdb1df0001f1e684","","null","","","learningBlock1","","","","This is a wug:","null","","","","","",""
"image-keyboard-response","10","76762","0.0-5.0-1.1","LF","0tf06g8uzp","1366","768","0","1","0","5b98223fbdb1df0001f1e684","","null","","","","","","","learning/Slide2.JPG","null","","","","","",""
"html-keyboard-response","11","77763","0.0-5.0-2.1","LF","0tf06g8uzp","1366","768","0","1","0","5b98223fbdb1df0001f1e684","","null","","","learningBlock1","","","","<div style=""font-size:60px;""> </div>","null","LF","learning/Slide2.JPG","This is a wug:","","",""
"html-keyboard-response","12","78765","0.0-5.0-0.2","LF","0tf06g8uzp","1366","768","0","1","0","5b98223fbdb1df0001f1e684","","null","","","learningBlock1","","","","This is a bim:","null","","","","","",""
"image-keyboard-response","13","79094","0.0-5.0-1.2","LF","0tf06g8uzp","1366","768","0","1","0","5b98223fbdb1df0001f1e684","","null","","","","","","","learning/Slide3.JPG","null","","","","","",""
"html-keyboard-response","14","80096","0.0-5.0-2.2","LF","0tf06g8uzp","1366","768","0","1","0","5b98223fbdb1df0001f1e684","","null","","","learningBlock1","","","","<div style=""font-size:60px;""> </div>","null","LF","learning/Slide3.JPG","This is a bim:","","",""
"html-keyboard-response","15","81098","0.0-5.0-0.3","LF","0tf06g8uzp","1366","768","0","1","0","5b98223fbdb1df0001f1e684","","null","","","learningBlock1","","","","This is a dep:","null","","","","","",""
"image-keyboard-response","16","81428","0.0-5.0-1.3","LF","0tf06g8uzp","1366","768","0","1","0","5b98223fbdb1df0001f1e684","","null","","","","","","","learning/Slide4.JPG","null","","","","","",""
"html-keyboard-response","17","82429","0.0-5.0-2.3","LF","0tf06g8uzp","1366","768","0","1","0","5b98223fbdb1df0001f1e684","","null","","","learningBlock1","","","","<div style=""font-size:60px;""> </div>","null","LF","learning/Slide4.JPG","This is a dep:","","",""
"html-keyboard-response","18","83430","0.0-5.0-0.4","LF","0tf06g8uzp","1366","768","0","1","0","5b98223fbdb1df0001f1e684","","null","","","learningBlock1","","","","This is a wug:","null","","","","","",""
"image-keyboard-response","19","83757","0.0-5.0-1.4","LF","0tf06g8uzp","1366","768","0","1","0","5b98223fbdb1df0001f1e684","","null","","","","","","","learning/Slide5.JPG","null","","","","","",""
"html-keyboard-response","20","84758","0.0-5.0-2.4","LF","0tf06g8uzp","1366","768","0","1","0","5b98223fbdb1df0001f1e684","","null","","","learningBlock1","","","","<div style=""font-size:60px;""> </div>","null","LF","learning/Slide5.JPG","This is a wug:","","",""
"html-keyboard-response","21","85759","0.0-5.0-0.5","LF","0tf06g8uzp","1366","768","0","1","0","5b98223fbdb1df0001f1e684","","null","","","learningBlock1","","","","This is a dep:","null","","","","","",""
"image-keyboard-response","22","86086","0.0-5.0-1.5","LF","0tf06g8uzp","1366","768","0","1","0","5b98223fbdb1df0001f1e684","","null","","","","","","","learning/Slide6.JPG","null","","","","","",""
"html-keyboard-response","23","87087","0.0-5.0-2.5","LF","0tf06g8uzp","1366","768","0","1","0","5b98223fbdb1df0001f1e684","","null","","","learningBlock1","","","","<div style=""font-size:60px;""> </div>","null","LF","learning/Slide6.JPG","This is a dep:","","",""
"html-keyboard-response","24","88088","0.0-5.0-0.6","LF","0tf06g8uzp","1366","768","0","1","0","5b98223fbdb1df0001f1e684","","null","","","learningBlock1","","","","This is a wug:","null","","","","","",""
"image-keyboard-response","25","88417","0.0-5.0-1.6","LF","0tf06g8uzp","1366","768","0","1","0","5b98223fbdb1df0001f1e684","","null","","","","","","","learning/Slide7.JPG","null","","","","","",""
"html-keyboard-response","26","89419","0.0-5.0-2.6","LF","0tf06g8uzp","1366","768","0","1","0","5b98223fbdb1df0001f1e684","","null","","","learningBlock1","","","","<div style=""font-size:60px;""> </div>","null","LF","learning/Slide7.JPG","This is a wug:","","",""
"html-keyboard-response","27","90421","0.0-5.0-0.7","LF","0tf06g8uzp","1366","768","0","1","0","5b98223fbdb1df0001f1e684","","null","","","learningBlock1","","","","This is a bim:","null","","","","","",""
"image-keyboard-response","28","90748","0.0-5.0-1.7","LF","0tf06g8uzp","1366","768","0","1","0","5b98223fbdb1df0001f1e684","","null","","","","","","","learning/Slide8.JPG","null","","","","","",""
"html-keyboard-response","29","91749","0.0-5.0-2.7","LF","0tf06g8uzp","1366","768","0","1","0","5b98223fbdb1df0001f1e684","","null","","","learningBlock1","","","","<div style=""font-size:60px;""> </div>","null","LF","learning/Slide8.JPG","This is a bim:","","",""
"html-keyboard-response","30","92750","0.0-5.0-0.8","LF","0tf06g8uzp","1366","768","0","1","0","5b98223fbdb1df0001f1e684","","null","","","learningBlock1","","","","This is a wug:","null","","","","","",""
"image-keyboard-response","31","93079","0.0-5.0-1.8","LF","0tf06g8uzp","1366","768","0","1","0","5b98223fbdb1df0001f1e684","","null","","","","","","","learning/Slide9.JPG","null","","","","","",""
"html-keyboard-response","32","94081","0.0-5.0-2.8","LF","0tf06g8uzp","1366","768","0","1","0","5b98223fbdb1df0001f1e684","","null","","","learningBlock1","","","","<div style=""font-size:60px;""> </div>","null","LF","learning/Slide9.JPG","This is a wug:","","",""
"html-keyboard-response","33","95082","0.0-5.0-0.9","LF","0tf06g8uzp","1366","768","0","1","0","5b98223fbdb1df0001f1e684","","null","","","learningBlock1","","","","This is a dep:","null","","","","","",""
"image-keyboard-response","34","95411","0.0-5.0-1.9","LF","0tf06g8uzp","1366","768","0","1","0","5b98223fbdb1df0001f1e684","","null","","","","","","","learning/Slide10.JPG","null","","","","","",""
"html-keyboard-response","35","96413","0.0-5.0-2.9","LF","0tf06g8uzp","1366","768","0","1","0","5b98223fbdb1df0001f1e684","","null","","","learningBlock1","","","","<div style=""font-size:60px;""> </div>","null","LF","learning/Slide10.JPG","This is a dep:","","",""
"html-keyboard-response","36","97415","0.0-5.0-0.10","LF","0tf06g8uzp","1366","768","0","1","0","5b98223fbdb1df0001f1e684","","null","","","learningBlock1","","","","This is a tob:","null","","","","","",""
"image-keyboard-response","37","97742","0.0-5.0-1.10","LF","0tf06g8uzp","1366","768","0","1","0","5b98223fbdb1df0001f1e684","","null","","","","","","","learning/Slide11.JPG","null","","","","","",""
"html-keyboard-response","38","98743","0.0-5.0-2.10","LF","0tf06g8uzp","1366","768","0","1","0","5b98223fbdb1df0001f1e684","","null","","","learningBlock1","","","","<div style=""font-size:60px;""> </div>","null","LF","learning/Slide11.JPG","This is a tob:","","",""
"html-keyboard-response","39","99744","0.0-5.0-0.11","LF","0tf06g8uzp","1366","768","0","1","0","5b98223fbdb1df0001f1e684","","null","","","learningBlock1","","","","This is a dep:","null","","","","","",""
"image-keyboard-response","40","100071","0.0-5.0-1.11","LF","0tf06g8uzp","1366","768","0","1","0","5b98223fbdb1df0001f1e684","","null","","","","","","","learning/Slide12.JPG","null","","","","","",""
"html-keyboard-response","41","101073","0.0-5.0-2.11","LF","0tf06g8uzp","1366","768","0","1","0","5b98223fbdb1df0001f1e684","","null","","","learningBlock1","","","","<div style=""font-size:60px;""> </div>","null","LF","learning/Slide12.JPG","This is a dep:","","",""
"html-keyboard-response","42","102075","0.0-5.0-0.12","LF","0tf06g8uzp","1366","768","0","1","0","5b98223fbdb1df0001f1e684","","null","","","learningBlock1","","","","This is a bim:","null","","","","","",""
"image-keyboard-response","43","102402","0.0-5.0-1.12","LF","0tf06g8uzp","1366","768","0","1","0","5b98223fbdb1df0001f1e684","","null","","","","","","","learning/Slide13.JPG","null","","","","","",""
"html-keyboard-response","44","103403","0.0-5.0-2.12","LF","0tf06g8uzp","1366","768","0","1","0","5b98223fbdb1df0001f1e684","","null","","","learningBlock1","","","","<div style=""font-size:60px;""> </div>","null","LF","learning/Slide13.JPG","This is a bim:","","",""
"html-keyboard-response","45","104404","0.0-5.0-0.13","LF","0tf06g8uzp","1366","768","0","1","0","5b98223fbdb1df0001f1e684","","null","","","learningBlock1","","","","This is a wug:","null","","","","","",""
"image-keyboard-response","46","104733","0.0-5.0-1.13","LF","0tf06g8uzp","1366","768","0","1","0","5b98223fbdb1df0001f1e684","","null","","","","","","","learning/Slide14.JPG","null","","","","","",""
"html-keyboard-response","47","105735","0.0-5.0-2.13","LF","0tf06g8uzp","1366","768","0","1","0","5b98223fbdb1df0001f1e684","","null","","","learningBlock1","","","","<div style=""font-size:60px;""> </div>","null","LF","learning/Slide14.JPG","This is a wug:","","",""
"html-keyboard-response","48","106740","0.0-5.0-0.14","LF","0tf06g8uzp","1366","768","0","1","0","5b98223fbdb1df0001f1e684","","null","","","learningBlock1","","","","This is a tob:","null","","","","","",""
"image-keyboard-response","49","107069","0.0-5.0-1.14","LF","0tf06g8uzp","1366","768","0","1","0","5b98223fbdb1df0001f1e684","","null","","","","","","","learning/Slide15.JPG","null","","","","","",""
"html-keyboard-response","50","108070","0.0-5.0-2.14","LF","0tf06g8uzp","1366","768","0","1","0","5b98223fbdb1df0001f1e684","","null","","","learningBlock1","","","","<div style=""font-size:60px;""> </div>","null","LF","learning/Slide15.JPG","This is a tob:","","",""
"html-keyboard-response","51","109071","0.0-5.0-0.15","LF","0tf06g8uzp","1366","768","0","1","0","5b98223fbdb1df0001f1e684","","null","","","learningBlock1","","","","This is a dep:","null","","","","","",""
"image-keyboard-response","52","109401","0.0-5.0-1.15","LF","0tf06g8uzp","1366","768","0","1","0","5b98223fbdb1df0001f1e684","","null","","","","","","","learning/Slide16.JPG","null","","","","","",""
"html-keyboard-response","53","110402","0.0-5.0-2.15","LF","0tf06g8uzp","1366","768","0","1","0","5b98223fbdb1df0001f1e684","","null","","","learningBlock1","","","","<div style=""font-size:60px;""> </div>","null","LF","learning/Slide16.JPG","This is a dep:","","",""
"html-keyboard-response","54","111404","0.0-5.0-0.16","LF","0tf06g8uzp","1366","768","0","1","0","5b98223fbdb1df0001f1e684","","null","","","learningBlock1","","","","This is a bim:","null","","","","","",""
"image-keyboard-response","55","111731","0.0-5.0-1.16","LF","0tf06g8uzp","1366","768","0","1","0","5b98223fbdb1df0001f1e684","","null","","","","","","","learning/Slide17.JPG","null","","","","","",""
"html-keyboard-response","56","112732","0.0-5.0-2.16","LF","0tf06g8uzp","1366","768","0","1","0","5b98223fbdb1df0001f1e684","","null","","","learningBlock1","","","","<div style=""font-size:60px;""> </div>","null","LF","learning/Slide17.JPG","This is a bim:","","",""
"html-keyboard-response","57","113734","0.0-5.0-0.17","LF","0tf06g8uzp","1366","768","0","1","0","5b98223fbdb1df0001f1e684","","null","","","learningBlock1","","","","This is a tob:","null","","","","","",""
"image-keyboard-response","58","114061","0.0-5.0-1.17","LF","0tf06g8uzp","1366","768","0","1","0","5b98223fbdb1df0001f1e684","","null","","","","","","","learning/Slide18.JPG","null","","","","","",""
"html-keyboard-response","59","115062","0.0-5.0-2.17","LF","0tf06g8uzp","1366","768","0","1","0","5b98223fbdb1df0001f1e684","","null","","","learningBlock1","","","","<div style=""font-size:60px;""> </div>","null","LF","learning/Slide18.JPG","This is a tob:","","",""
"html-keyboard-response","60","116063","0.0-5.0-0.18","LF","0tf06g8uzp","1366","768","0","1","0","5b98223fbdb1df0001f1e684","","null","","","learningBlock1","","","","This is a wug:","null","","","","","",""
"image-keyboard-response","61","116390","0.0-5.0-1.18","LF","0tf06g8uzp","1366","768","0","1","0","5b98223fbdb1df0001f1e684","","null","","","","","","","learning/Slide19.JPG","null","","","","","",""
"html-keyboard-response","62","117391","0.0-5.0-2.18","LF","0tf06g8uzp","1366","768","0","1","0","5b98223fbdb1df0001f1e684","","null","","","learningBlock1","","","","<div style=""font-size:60px;""> </div>","null","LF","learning/Slide19.JPG","This is a wug:","","",""
"html-keyboard-response","63","118392","0.0-5.0-0.19","LF","0tf06g8uzp","1366","768","0","1","0","5b98223fbdb1df0001f1e684","","null","","","learningBlock1","","","","This is a bim:","null","","","","","",""
"image-keyboard-response","64","118721","0.0-5.0-1.19","LF","0tf06g8uzp","1366","768","0","1","0","5b98223fbdb1df0001f1e684","","null","","","","","","","learning/Slide20.JPG","null","","","","","",""
"html-keyboard-response","65","119723","0.0-5.0-2.19","LF","0tf06g8uzp","1366","768","0","1","0","5b98223fbdb1df0001f1e684","","null","","","learningBlock1","","","","<div style=""font-size:60px;""> </div>","null","LF","learning/Slide20.JPG","This is a bim:","","",""
"html-keyboard-response","66","120724","0.0-5.0-0.20","LF","0tf06g8uzp","1366","768","0","1","0","5b98223fbdb1df0001f1e684","","null","","","learningBlock1","","","","This is a dep:","null","","","","","",""
"image-keyboard-response","67","121051","0.0-5.0-1.20","LF","0tf06g8uzp","1366","768","0","1","0","5b98223fbdb1df0001f1e684","","null","","","","","","","learning/Slide21.JPG","null","","","","","",""
"html-keyboard-response","68","122052","0.0-5.0-2.20","LF","0tf06g8uzp","1366","768","0","1","0","5b98223fbdb1df0001f1e684","","null","","","learningBlock1","","","","<div style=""font-size:60px;""> </div>","null","LF","learning/Slide21.JPG","This is a dep:","","",""
"html-keyboard-response","69","123054","0.0-5.0-0.21","LF","0tf06g8uzp","1366","768","0","1","0","5b98223fbdb1df0001f1e684","","null","","","learningBlock1","","","","This is a bim:","null","","","","","",""
"image-keyboard-response","70","123382","0.0-5.0-1.21","LF","0tf06g8uzp","1366","768","0","1","0","5b98223fbdb1df0001f1e684","","null","","","","","","","learning/Slide22.JPG","null","","","","","",""
"html-keyboard-response","71","124383","0.0-5.0-2.21","LF","0tf06g8uzp","1366","768","0","1","0","5b98223fbdb1df0001f1e684","","null","","","learningBlock1","","","","<div style=""font-size:60px;""> </div>","null","LF","learning/Slide22.JPG","This is a bim:","","",""
"html-keyboard-response","72","125384","0.0-5.0-0.22","LF","0tf06g8uzp","1366","768","0","1","0","5b98223fbdb1df0001f1e684","","null","","","learningBlock1","","","","This is a tob:","null","","","","","",""
"image-keyboard-response","73","125711","0.0-5.0-1.22","LF","0tf06g8uzp","1366","768","0","1","0","5b98223fbdb1df0001f1e684","","null","","","","","","","learning/Slide23.JPG","null","","","","","",""
"html-keyboard-response","74","126712","0.0-5.0-2.22","LF","0tf06g8uzp","1366","768","0","1","0","5b98223fbdb1df0001f1e684","","null","","","learningBlock1","","","","<div style=""font-size:60px;""> </div>","null","LF","learning/Slide23.JPG","This is a tob:","","",""
"html-keyboard-response","75","127713","0.0-5.0-0.23","LF","0tf06g8uzp","1366","768","0","1","0","5b98223fbdb1df0001f1e684","","null","","","learningBlock1","","","","This is a wug:","null","","","","","",""
"image-keyboard-response","76","128042","0.0-5.0-1.23","LF","0tf06g8uzp","1366","768","0","1","0","5b98223fbdb1df0001f1e684","","null","","","","","","","learning/Slide24.JPG","null","","","","","",""
"html-keyboard-response","77","129044","0.0-5.0-2.23","LF","0tf06g8uzp","1366","768","0","1","0","5b98223fbdb1df0001f1e684","","null","","","learningBlock1","","","","<div style=""font-size:60px;""> </div>","null","LF","learning/Slide24.JPG","This is a wug:","","",""
"html-keyboard-response","78","130046","0.0-5.0-0.24","LF","0tf06g8uzp","1366","768","0","1","0","5b98223fbdb1df0001f1e684","","null","","","learningBlock1","","","","This is a dep:","null","","","","","",""
"image-keyboard-response","79","130373","0.0-5.0-1.24","LF","0tf06g8uzp","1366","768","0","1","0","5b98223fbdb1df0001f1e684","","null","","","","","","","learning/Slide25.JPG","null","","","","","",""
"html-keyboard-response","80","131375","0.0-5.0-2.24","LF","0tf06g8uzp","1366","768","0","1","0","5b98223fbdb1df0001f1e684","","null","","","learningBlock1","","","","<div style=""font-size:60px;""> </div>","null","LF","learning/Slide25.JPG","This is a dep:","","",""
"html-keyboard-response","81","132376","0.0-5.0-0.25","LF","0tf06g8uzp","1366","768","0","1","0","5b98223fbdb1df0001f1e684","","null","","","learningBlock1","","","","This is a wug:","null","","","","","",""
"image-keyboard-response","82","132703","0.0-5.0-1.25","LF","0tf06g8uzp","1366","768","0","1","0","5b98223fbdb1df0001f1e684","","null","","","","","","","learning/Slide26.JPG","null","","","","","",""
"html-keyboard-response","83","133705","0.0-5.0-2.25","LF","0tf06g8uzp","1366","768","0","1","0","5b98223fbdb1df0001f1e684","","null","","","learningBlock1","","","","<div style=""font-size:60px;""> </div>","null","LF","learning/Slide26.JPG","This is a wug:","","",""
"html-keyboard-response","84","134707","0.0-5.0-0.26","LF","0tf06g8uzp","1366","768","0","1","0","5b98223fbdb1df0001f1e684","","null","","","learningBlock1","","","","This is a bim:","null","","","","","",""
"image-keyboard-response","85","135034","0.0-5.0-1.26","LF","0tf06g8uzp","1366","768","0","1","0","5b98223fbdb1df0001f1e684","","null","","","","","","","learning/Slide27.JPG","null","","","","","",""
"html-keyboard-response","86","136035","0.0-5.0-2.26","LF","0tf06g8uzp","1366","768","0","1","0","5b98223fbdb1df0001f1e684","","null","","","learningBlock1","","","","<div style=""font-size:60px;""> </div>","null","LF","learning/Slide27.JPG","This is a bim:","","",""
"html-keyboard-response","87","137037","0.0-5.0-0.27","LF","0tf06g8uzp","1366","768","0","1","0","5b98223fbdb1df0001f1e684","","null","","","learningBlock1","","","","This is a dep:","null","","","","","",""
"image-keyboard-response","88","137369","0.0-5.0-1.27","LF","0tf06g8uzp","1366","768","0","1","0","5b98223fbdb1df0001f1e684","","null","","","","","","","learning/Slide28.JPG","null","","","","","",""
"html-keyboard-response","89","138371","0.0-5.0-2.27","LF","0tf06g8uzp","1366","768","0","1","0","5b98223fbdb1df0001f1e684","","null","","","learningBlock1","","","","<div style=""font-size:60px;""> </div>","null","LF","learning/Slide28.JPG","This is a dep:","","",""
"html-keyboard-response","90","139379","0.0-5.0-0.28","LF","0tf06g8uzp","1366","768","0","1","0","5b98223fbdb1df0001f1e684","","null","","","learningBlock1","","","","This is a tob:","null","","","","","",""
"image-keyboard-response","91","139709","0.0-5.0-1.28","LF","0tf06g8uzp","1366","768","0","1","0","5b98223fbdb1df0001f1e684","","null","","","","","","","learning/Slide29.JPG","null","","","","","",""
"html-keyboard-response","92","140710","0.0-5.0-2.28","LF","0tf06g8uzp","1366","768","0","1","0","5b98223fbdb1df0001f1e684","","null","","","learningBlock1","","","","<div style=""font-size:60px;""> </div>","null","LF","learning/Slide29.JPG","This is a tob:","","",""
"html-keyboard-response","93","141711","0.0-5.0-0.29","LF","0tf06g8uzp","1366","768","0","1","0","5b98223fbdb1df0001f1e684","","null","","","learningBlock1","","","","This is a dep:","null","","","","","",""
"image-keyboard-response","94","142038","0.0-5.0-1.29","LF","0tf06g8uzp","1366","768","0","1","0","5b98223fbdb1df0001f1e684","","null","","","","","","","learning/Slide30.JPG","null","","","","","",""
"html-keyboard-response","95","143039","0.0-5.0-2.29","LF","0tf06g8uzp","1366","768","0","1","0","5b98223fbdb1df0001f1e684","","null","","","learningBlock1","","","","<div style=""font-size:60px;""> </div>","null","LF","learning/Slide30.JPG","This is a dep:","","",""
"html-keyboard-response","96","144041","0.0-5.0-0.30","LF","0tf06g8uzp","1366","768","0","1","0","5b98223fbdb1df0001f1e684","","null","","","learningBlock1","","","","This is a wug:","null","","","","","",""
"image-keyboard-response","97","144371","0.0-5.0-1.30","LF","0tf06g8uzp","1366","768","0","1","0","5b98223fbdb1df0001f1e684","","null","","","","","","","learning/Slide31.JPG","null","","","","","",""
"html-keyboard-response","98","145373","0.0-5.0-2.30","LF","0tf06g8uzp","1366","768","0","1","0","5b98223fbdb1df0001f1e684","","null","","","learningBlock1","","","","<div style=""font-size:60px;""> </div>","null","LF","learning/Slide31.JPG","This is a wug:","","",""
"html-keyboard-response","99","146375","0.0-5.0-0.31","LF","0tf06g8uzp","1366","768","0","1","0","5b98223fbdb1df0001f1e684","","null","","","learningBlock1","","","","This is a tob:","null","","","","","",""
"image-keyboard-response","100","146702","0.0-5.0-1.31","LF","0tf06g8uzp","1366","768","0","1","0","5b98223fbdb1df0001f1e684","","null","","","","","","","learning/Slide32.JPG","null","","","","","",""
"html-keyboard-response","101","147703","0.0-5.0-2.31","LF","0tf06g8uzp","1366","768","0","1","0","5b98223fbdb1df0001f1e684","","null","","","learningBlock1","","","","<div style=""font-size:60px;""> </div>","null","LF","learning/Slide32.JPG","This is a tob:","","",""
"html-keyboard-response","102","148705","0.0-5.0-0.32","LF","0tf06g8uzp","1366","768","0","1","0","5b98223fbdb1df0001f1e684","","null","","","learningBlock1","","","","This is a bim:","null","","","","","",""
"image-keyboard-response","103","149034","0.0-5.0-1.32","LF","0tf06g8uzp","1366","768","0","1","0","5b98223fbdb1df0001f1e684","","null","","","","","","","learning/Slide33.JPG","null","","","","","",""
"html-keyboard-response","104","150036","0.0-5.0-2.32","LF","0tf06g8uzp","1366","768","0","1","0","5b98223fbdb1df0001f1e684","","null","","","learningBlock1","","","","<div style=""font-size:60px;""> </div>","null","LF","learning/Slide33.JPG","This is a bim:","","",""
"html-keyboard-response","105","151038","0.0-5.0-0.33","LF","0tf06g8uzp","1366","768","0","1","0","5b98223fbdb1df0001f1e684","","null","","","learningBlock1","","","","This is a tob:","null","","","","","",""
"image-keyboard-response","106","151367","0.0-5.0-1.33","LF","0tf06g8uzp","1366","768","0","1","0","5b98223fbdb1df0001f1e684","","null","","","","","","","learning/Slide34.JPG","null","","","","","",""
"html-keyboard-response","107","152369","0.0-5.0-2.33","LF","0tf06g8uzp","1366","768","0","1","0","5b98223fbdb1df0001f1e684","","null","","","learningBlock1","","","","<div style=""font-size:60px;""> </div>","null","LF","learning/Slide34.JPG","This is a tob:","","",""
"html-keyboard-response","108","153370","0.0-5.0-0.34","LF","0tf06g8uzp","1366","768","0","1","0","5b98223fbdb1df0001f1e684","","null","","","learningBlock1","","","","This is a bim:","null","","","","","",""
"image-keyboard-response","109","153699","0.0-5.0-1.34","LF","0tf06g8uzp","1366","768","0","1","0","5b98223fbdb1df0001f1e684","","null","","","","","","","learning/Slide35.JPG","null","","","","","",""
"html-keyboard-response","110","154701","0.0-5.0-2.34","LF","0tf06g8uzp","1366","768","0","1","0","5b98223fbdb1df0001f1e684","","null","","","learningBlock1","","","","<div style=""font-size:60px;""> </div>","null","LF","learning/Slide35.JPG","This is a bim:","","",""
"html-keyboard-response","111","155702","0.0-5.0-0.35","LF","0tf06g8uzp","1366","768","0","1","0","5b98223fbdb1df0001f1e684","","null","","","learningBlock1","","","","This is a dep:","null","","","","","",""
"image-keyboard-response","112","156031","0.0-5.0-1.35","LF","0tf06g8uzp","1366","768","0","1","0","5b98223fbdb1df0001f1e684","","null","","","","","","","learning/Slide36.JPG","null","","","","","",""
"html-keyboard-response","113","157033","0.0-5.0-2.35","LF","0tf06g8uzp","1366","768","0","1","0","5b98223fbdb1df0001f1e684","","null","","","learningBlock1","","","","<div style=""font-size:60px;""> </div>","null","LF","learning/Slide36.JPG","This is a dep:","","",""
"html-keyboard-response","114","158034","0.0-5.0-0.36","LF","0tf06g8uzp","1366","768","0","1","0","5b98223fbdb1df0001f1e684","","null","","","learningBlock1","","","","This is a tob:","null","","","","","",""
"image-keyboard-response","115","158362","0.0-5.0-1.36","LF","0tf06g8uzp","1366","768","0","1","0","5b98223fbdb1df0001f1e684","","null","","","","","","","learning/Slide37.JPG","null","","","","","",""
"html-keyboard-response","116","159364","0.0-5.0-2.36","LF","0tf06g8uzp","1366","768","0","1","0","5b98223fbdb1df0001f1e684","","null","","","learningBlock1","","","","<div style=""font-size:60px;""> </div>","null","LF","learning/Slide37.JPG","This is a tob:","","",""
"html-keyboard-response","117","160366","0.0-5.0-0.37","LF","0tf06g8uzp","1366","768","0","1","0","5b98223fbdb1df0001f1e684","","null","","","learningBlock1","","","","This is a wug:","null","","","","","",""
"image-keyboard-response","118","160695","0.0-5.0-1.37","LF","0tf06g8uzp","1366","768","0","1","0","5b98223fbdb1df0001f1e684","","null","","","","","","","learning/Slide38.JPG","null","","","","","",""
"html-keyboard-response","119","161698","0.0-5.0-2.37","LF","0tf06g8uzp","1366","768","0","1","0","5b98223fbdb1df0001f1e684","","null","","","learningBlock1","","","","<div style=""font-size:60px;""> </div>","null","LF","learning/Slide38.JPG","This is a wug:","","",""
"html-keyboard-response","120","162699","0.0-5.0-0.38","LF","0tf06g8uzp","1366","768","0","1","0","5b98223fbdb1df0001f1e684","","null","","","learningBlock1","","","","This is a bim:","null","","","","","",""
"image-keyboard-response","121","163028","0.0-5.0-1.38","LF","0tf06g8uzp","1366","768","0","1","0","5b98223fbdb1df0001f1e684","","null","","","","","","","learning/Slide39.JPG","null","","","","","",""
"html-keyboard-response","122","164030","0.0-5.0-2.38","LF","0tf06g8uzp","1366","768","0","1","0","5b98223fbdb1df0001f1e684","","null","","","learningBlock1","","","","<div style=""font-size:60px;""> </div>","null","LF","learning/Slide39.JPG","This is a bim:","","",""
"html-keyboard-response","123","165032","0.0-5.0-0.39","LF","0tf06g8uzp","1366","768","0","1","0","5b98223fbdb1df0001f1e684","","null","","","learningBlock1","","","","This is a tob:","null","","","","","",""
"image-keyboard-response","124","165359","0.0-5.0-1.39","LF","0tf06g8uzp","1366","768","0","1","0","5b98223fbdb1df0001f1e684","","null","","","","","","","learning/Slide40.JPG","null","","","","","",""
"html-keyboard-response","125","166360","0.0-5.0-2.39","LF","0tf06g8uzp","1366","768","0","1","0","5b98223fbdb1df0001f1e684","","null","","","learningBlock1","","","","<div style=""font-size:60px;""> </div>","null","LF","learning/Slide40.JPG","This is a tob:","","",""
"html-keyboard-response","126","167366","0.0-5.0-0.40","LF","0tf06g8uzp","1366","768","0","1","0","5b98223fbdb1df0001f1e684","","null","","","learningBlock1","","","","This is a bim:","null","","","","","",""
"image-keyboard-response","127","167693","0.0-5.0-1.40","LF","0tf06g8uzp","1366","768","0","1","0","5b98223fbdb1df0001f1e684","","null","","","","","","","learning/Slide41.JPG","null","","","","","",""
"html-keyboard-response","128","168694","0.0-5.0-2.40","LF","0tf06g8uzp","1366","768","0","1","0","5b98223fbdb1df0001f1e684","","null","","","learningBlock1","","","","<div style=""font-size:60px;""> </div>","null","LF","learning/Slide41.JPG","This is a bim:","","",""
"html-keyboard-response","129","169695","0.0-5.0-0.41","LF","0tf06g8uzp","1366","768","0","1","0","5b98223fbdb1df0001f1e684","","null","","","learningBlock1","","","","This is a dep:","null","","","","","",""
"image-keyboard-response","130","170025","0.0-5.0-1.41","LF","0tf06g8uzp","1366","768","0","1","0","5b98223fbdb1df0001f1e684","","null","","","","","","","learning/Slide42.JPG","null","","","","","",""
"html-keyboard-response","131","171026","0.0-5.0-2.41","LF","0tf06g8uzp","1366","768","0","1","0","5b98223fbdb1df0001f1e684","","null","","","learningBlock1","","","","<div style=""font-size:60px;""> </div>","null","LF","learning/Slide42.JPG","This is a dep:","","",""
"html-keyboard-response","132","172041","0.0-5.0-0.42","LF","0tf06g8uzp","1366","768","0","1","0","5b98223fbdb1df0001f1e684","","null","","","learningBlock1","","","","This is a wug:","null","","","","","",""
"image-keyboard-response","133","172368","0.0-5.0-1.42","LF","0tf06g8uzp","1366","768","0","1","0","5b98223fbdb1df0001f1e684","","null","","","","","","","learning/Slide43.JPG","null","","","","","",""
"html-keyboard-response","134","173369","0.0-5.0-2.42","LF","0tf06g8uzp","1366","768","0","1","0","5b98223fbdb1df0001f1e684","","null","","","learningBlock1","","","","<div style=""font-size:60px;""> </div>","null","LF","learning/Slide43.JPG","This is a wug:","","",""
"html-keyboard-response","135","174372","0.0-5.0-0.43","LF","0tf06g8uzp","1366","768","0","1","0","5b98223fbdb1df0001f1e684","","null","","","learningBlock1","","","","This is a bim:","null","","","","","",""
"image-keyboard-response","136","174698","0.0-5.0-1.43","LF","0tf06g8uzp","1366","768","0","1","0","5b98223fbdb1df0001f1e684","","null","","","","","","","learning/Slide44.JPG","null","","","","","",""
"html-keyboard-response","137","175699","0.0-5.0-2.43","LF","0tf06g8uzp","1366","768","0","1","0","5b98223fbdb1df0001f1e684","","null","","","learningBlock1","","","","<div style=""font-size:60px;""> </div>","null","LF","learning/Slide44.JPG","This is a bim:","","",""
"html-keyboard-response","138","176704","0.0-5.0-0.44","LF","0tf06g8uzp","1366","768","0","1","0","5b98223fbdb1df0001f1e684","","null","","","learningBlock1","","","","This is a wug:","null","","","","","",""
"image-keyboard-response","139","177030","0.0-5.0-1.44","LF","0tf06g8uzp","1366","768","0","1","0","5b98223fbdb1df0001f1e684","","null","","","","","","","learning/Slide45.JPG","null","","","","","",""
"html-keyboard-response","140","178032","0.0-5.0-2.44","LF","0tf06g8uzp","1366","768","0","1","0","5b98223fbdb1df0001f1e684","","null","","","learningBlock1","","","","<div style=""font-size:60px;""> </div>","null","LF","learning/Slide45.JPG","This is a wug:","","",""
"html-keyboard-response","141","179033","0.0-5.0-0.45","LF","0tf06g8uzp","1366","768","0","1","0","5b98223fbdb1df0001f1e684","","null","","","learningBlock1","","","","This is a dep:","null","","","","","",""
"image-keyboard-response","142","179363","0.0-5.0-1.45","LF","0tf06g8uzp","1366","768","0","1","0","5b98223fbdb1df0001f1e684","","null","","","","","","","learning/Slide46.JPG","null","","","","","",""
"html-keyboard-response","143","180364","0.0-5.0-2.45","LF","0tf06g8uzp","1366","768","0","1","0","5b98223fbdb1df0001f1e684","","null","","","learningBlock1","","","","<div style=""font-size:60px;""> </div>","null","LF","learning/Slide46.JPG","This is a dep:","","",""
"html-keyboard-response","144","181366","0.0-5.0-0.46","LF","0tf06g8uzp","1366","768","0","1","0","5b98223fbdb1df0001f1e684","","null","","","learningBlock1","","","","This is a tob:","null","","","","","",""
"image-keyboard-response","145","181695","0.0-5.0-1.46","LF","0tf06g8uzp","1366","768","0","1","0","5b98223fbdb1df0001f1e684","","null","","","","","","","learning/Slide47.JPG","null","","","","","",""
"html-keyboard-response","146","182697","0.0-5.0-2.46","LF","0tf06g8uzp","1366","768","0","1","0","5b98223fbdb1df0001f1e684","","null","","","learningBlock1","","","","<div style=""font-size:60px;""> </div>","null","LF","learning/Slide47.JPG","This is a tob:","","",""
"html-keyboard-response","147","183698","0.0-5.0-0.47","LF","0tf06g8uzp","1366","768","0","1","0","5b98223fbdb1df0001f1e684","","null","","","learningBlock1","","","","This is a bim:","null","","","","","",""
"image-keyboard-response","148","184025","0.0-5.0-1.47","LF","0tf06g8uzp","1366","768","0","1","0","5b98223fbdb1df0001f1e684","","null","","","","","","","learning/Slide48.JPG","null","","","","","",""
"html-keyboard-response","149","185026","0.0-5.0-2.47","LF","0tf06g8uzp","1366","768","0","1","0","5b98223fbdb1df0001f1e684","","null","","","learningBlock1","","","","<div style=""font-size:60px;""> </div>","null","LF","learning/Slide48.JPG","This is a bim:","","",""
"html-keyboard-response","150","186032","0.0-5.0-0.48","LF","0tf06g8uzp","1366","768","0","1","0","5b98223fbdb1df0001f1e684","","null","","","learningBlock1","","","","This is a dep:","null","","","","","",""
"image-keyboard-response","151","186360","0.0-5.0-1.48","LF","0tf06g8uzp","1366","768","0","1","0","5b98223fbdb1df0001f1e684","","null","","","","","","","learning/Slide49.JPG","null","","","","","",""
"html-keyboard-response","152","187361","0.0-5.0-2.48","LF","0tf06g8uzp","1366","768","0","1","0","5b98223fbdb1df0001f1e684","","null","","","learningBlock1","","","","<div style=""font-size:60px;""> </div>","null","LF","learning/Slide49.JPG","This is a dep:","","",""
"html-keyboard-response","153","188362","0.0-5.0-0.49","LF","0tf06g8uzp","1366","768","0","1","0","5b98223fbdb1df0001f1e684","","null","","","learningBlock1","","","","This is a tob:","null","","","","","",""
"image-keyboard-response","154","188691","0.0-5.0-1.49","LF","0tf06g8uzp","1366","768","0","1","0","5b98223fbdb1df0001f1e684","","null","","","","","","","learning/Slide50.JPG","null","","","","","",""
"html-keyboard-response","155","189693","0.0-5.0-2.49","LF","0tf06g8uzp","1366","768","0","1","0","5b98223fbdb1df0001f1e684","","null","","","learningBlock1","","","","<div style=""font-size:60px;""> </div>","null","LF","learning/Slide50.JPG","This is a tob:","","",""
"html-keyboard-response","156","190694","0.0-5.0-0.50","LF","0tf06g8uzp","1366","768","0","1","0","5b98223fbdb1df0001f1e684","","null","","","learningBlock1","","","","This is a bim:","null","","","","","",""
"image-keyboard-response","157","191023","0.0-5.0-1.50","LF","0tf06g8uzp","1366","768","0","1","0","5b98223fbdb1df0001f1e684","","null","","","","","","","learning/Slide51.JPG","null","","","","","",""
"html-keyboard-response","158","192025","0.0-5.0-2.50","LF","0tf06g8uzp","1366","768","0","1","0","5b98223fbdb1df0001f1e684","","null","","","learningBlock1","","","","<div style=""font-size:60px;""> </div>","null","LF","learning/Slide51.JPG","This is a bim:","","",""
"html-keyboard-response","159","193026","0.0-5.0-0.51","LF","0tf06g8uzp","1366","768","0","1","0","5b98223fbdb1df0001f1e684","","null","","","learningBlock1","","","","This is a wug:","null","","","","","",""
"image-keyboard-response","160","193355","0.0-5.0-1.51","LF","0tf06g8uzp","1366","768","0","1","0","5b98223fbdb1df0001f1e684","","null","","","","","","","learning/Slide52.JPG","null","","","","","",""
"html-keyboard-response","161","194357","0.0-5.0-2.51","LF","0tf06g8uzp","1366","768","0","1","0","5b98223fbdb1df0001f1e684","","null","","","learningBlock1","","","","<div style=""font-size:60px;""> </div>","null","LF","learning/Slide52.JPG","This is a wug:","","",""
"html-keyboard-response","162","195358","0.0-5.0-0.52","LF","0tf06g8uzp","1366","768","0","1","0","5b98223fbdb1df0001f1e684","","null","","","learningBlock1","","","","This is a tob:","null","","","","","",""
"image-keyboard-response","163","195689","0.0-5.0-1.52","LF","0tf06g8uzp","1366","768","0","1","0","5b98223fbdb1df0001f1e684","","null","","","","","","","learning/Slide53.JPG","null","","","","","",""
"html-keyboard-response","164","196692","0.0-5.0-2.52","LF","0tf06g8uzp","1366","768","0","1","0","5b98223fbdb1df0001f1e684","","null","","","learningBlock1","","","","<div style=""font-size:60px;""> </div>","null","LF","learning/Slide53.JPG","This is a tob:","","",""
"html-keyboard-response","165","197693","0.0-5.0-0.53","LF","0tf06g8uzp","1366","768","0","1","0","5b98223fbdb1df0001f1e684","","null","","","learningBlock1","","","","This is a dep:","null","","","","","",""
"image-keyboard-response","166","198022","0.0-5.0-1.53","LF","0tf06g8uzp","1366","768","0","1","0","5b98223fbdb1df0001f1e684","","null","","","","","","","learning/Slide54.JPG","null","","","","","",""
"html-keyboard-response","167","199024","0.0-5.0-2.53","LF","0tf06g8uzp","1366","768","0","1","0","5b98223fbdb1df0001f1e684","","null","","","learningBlock1","","","","<div style=""font-size:60px;""> </div>","null","LF","learning/Slide54.JPG","This is a dep:","","",""
"html-keyboard-response","168","200026","0.0-5.0-0.54","LF","0tf06g8uzp","1366","768","0","1","0","5b98223fbdb1df0001f1e684","","null","","","learningBlock1","","","","This is a bim:","null","","","","","",""
"image-keyboard-response","169","200353","0.0-5.0-1.54","LF","0tf06g8uzp","1366","768","0","1","0","5b98223fbdb1df0001f1e684","","null","","","","","","","learning/Slide55.JPG","null","","","","","",""
"html-keyboard-response","170","201354","0.0-5.0-2.54","LF","0tf06g8uzp","1366","768","0","1","0","5b98223fbdb1df0001f1e684","","null","","","learningBlock1","","","","<div style=""font-size:60px;""> </div>","null","LF","learning/Slide55.JPG","This is a bim:","","",""
"html-keyboard-response","171","202355","0.0-5.0-0.55","LF","0tf06g8uzp","1366","768","0","1","0","5b98223fbdb1df0001f1e684","","null","","","learningBlock1","","","","This is a tob:","null","","","","","",""
"image-keyboard-response","172","202682","0.0-5.0-1.55","LF","0tf06g8uzp","1366","768","0","1","0","5b98223fbdb1df0001f1e684","","null","","","","","","","learning/Slide56.JPG","null","","","","","",""
"html-keyboard-response","173","203683","0.0-5.0-2.55","LF","0tf06g8uzp","1366","768","0","1","0","5b98223fbdb1df0001f1e684","","null","","","learningBlock1","","","","<div style=""font-size:60px;""> </div>","null","LF","learning/Slide56.JPG","This is a tob:","","",""
"html-keyboard-response","174","204684","0.0-5.0-0.56","LF","0tf06g8uzp","1366","768","0","1","0","5b98223fbdb1df0001f1e684","","null","","","learningBlock1","","","","This is a dep:","null","","","","","",""
"image-keyboard-response","175","205014","0.0-5.0-1.56","LF","0tf06g8uzp","1366","768","0","1","0","5b98223fbdb1df0001f1e684","","null","","","","","","","learning/Slide57.JPG","null","","","","","",""
"html-keyboard-response","176","206019","0.0-5.0-2.56","LF","0tf06g8uzp","1366","768","0","1","0","5b98223fbdb1df0001f1e684","","null","","","learningBlock1","","","","<div style=""font-size:60px;""> </div>","null","LF","learning/Slide57.JPG","This is a dep:","","",""
"html-keyboard-response","177","207020","0.0-5.0-0.57","LF","0tf06g8uzp","1366","768","0","1","0","5b98223fbdb1df0001f1e684","","null","","","learningBlock1","","","","This is a wug:","null","","","","","",""
"image-keyboard-response","178","207348","0.0-5.0-1.57","LF","0tf06g8uzp","1366","768","0","1","0","5b98223fbdb1df0001f1e684","","null","","","","","","","learning/Slide58.JPG","null","","","","","",""
"html-keyboard-response","179","208351","0.0-5.0-2.57","LF","0tf06g8uzp","1366","768","0","1","0","5b98223fbdb1df0001f1e684","","null","","","learningBlock1","","","","<div style=""font-size:60px;""> </div>","null","LF","learning/Slide58.JPG","This is a wug:","","",""
"html-keyboard-response","180","209352","0.0-5.0-0.58","LF","0tf06g8uzp","1366","768","0","1","0","5b98223fbdb1df0001f1e684","","null","","","learningBlock1","","","","This is a dep:","null","","","","","",""
"image-keyboard-response","181","209679","0.0-5.0-1.58","LF","0tf06g8uzp","1366","768","0","1","0","5b98223fbdb1df0001f1e684","","null","","","","","","","learning/Slide59.JPG","null","","","","","",""
"html-keyboard-response","182","210680","0.0-5.0-2.58","LF","0tf06g8uzp","1366","768","0","1","0","5b98223fbdb1df0001f1e684","","null","","","learningBlock1","","","","<div style=""font-size:60px;""> </div>","null","LF","learning/Slide59.JPG","This is a dep:","","",""
"html-keyboard-response","183","211681","0.0-5.0-0.59","LF","0tf06g8uzp","1366","768","0","1","0","5b98223fbdb1df0001f1e684","","null","","","learningBlock1","","","","This is a wug:","null","","","","","",""
"image-keyboard-response","184","212010","0.0-5.0-1.59","LF","0tf06g8uzp","1366","768","0","1","0","5b98223fbdb1df0001f1e684","","null","","","","","","","learning/Slide60.JPG","null","","","","","",""
"html-keyboard-response","185","213012","0.0-5.0-2.59","LF","0tf06g8uzp","1366","768","0","1","0","5b98223fbdb1df0001f1e684","","null","","","learningBlock1","","","","<div style=""font-size:60px;""> </div>","null","LF","learning/Slide60.JPG","This is a wug:","","",""
"html-keyboard-response","186","214013","0.0-5.0-0.60","LF","0tf06g8uzp","1366","768","0","1","0","5b98223fbdb1df0001f1e684","","null","","","learningBlock1","","","","This is a bim:","null","","","","","",""
"image-keyboard-response","187","214340","0.0-5.0-1.60","LF","0tf06g8uzp","1366","768","0","1","0","5b98223fbdb1df0001f1e684","","null","","","","","","","learning/Slide61.JPG","null","","","","","",""
"html-keyboard-response","188","215341","0.0-5.0-2.60","LF","0tf06g8uzp","1366","768","0","1","0","5b98223fbdb1df0001f1e684","","null","","","learningBlock1","","","","<div style=""font-size:60px;""> </div>","null","LF","learning/Slide61.JPG","This is a bim:","","",""
"html-keyboard-response","189","216343","0.0-5.0-0.61","LF","0tf06g8uzp","1366","768","0","1","0","5b98223fbdb1df0001f1e684","","null","","","learningBlock1","","","","This is a dep:","null","","","","","",""
"image-keyboard-response","190","216670","0.0-5.0-1.61","LF","0tf06g8uzp","1366","768","0","1","0","5b98223fbdb1df0001f1e684","","null","","","","","","","learning/Slide62.JPG","null","","","","","",""
"html-keyboard-response","191","217671","0.0-5.0-2.61","LF","0tf06g8uzp","1366","768","0","1","0","5b98223fbdb1df0001f1e684","","null","","","learningBlock1","","","","<div style=""font-size:60px;""> </div>","null","LF","learning/Slide62.JPG","This is a dep:","","",""
"html-keyboard-response","192","218673","0.0-5.0-0.62","LF","0tf06g8uzp","1366","768","0","1","0","5b98223fbdb1df0001f1e684","","null","","","learningBlock1","","","","This is a bim:","null","","","","","",""
"image-keyboard-response","193","219002","0.0-5.0-1.62","LF","0tf06g8uzp","1366","768","0","1","0","5b98223fbdb1df0001f1e684","","null","","","","","","","learning/Slide63.JPG","null","","","","","",""
"html-keyboard-response","194","220004","0.0-5.0-2.62","LF","0tf06g8uzp","1366","768","0","1","0","5b98223fbdb1df0001f1e684","","null","","","learningBlock1","","","","<div style=""font-size:60px;""> </div>","null","LF","learning/Slide63.JPG","This is a bim:","","",""
"html-keyboard-response","195","221005","0.0-5.0-0.63","LF","0tf06g8uzp","1366","768","0","1","0","5b98223fbdb1df0001f1e684","","null","","","learningBlock1","","","","This is a tob:","null","","","","","",""
"image-keyboard-response","196","221334","0.0-5.0-1.63","LF","0tf06g8uzp","1366","768","0","1","0","5b98223fbdb1df0001f1e684","","null","","","","","","","learning/Slide64.JPG","null","","","","","",""
"html-keyboard-response","197","222336","0.0-5.0-2.63","LF","0tf06g8uzp","1366","768","0","1","0","5b98223fbdb1df0001f1e684","","null","","","learningBlock1","","","","<div style=""font-size:60px;""> </div>","null","LF","learning/Slide64.JPG","This is a tob:","","",""
"html-keyboard-response","198","223337","0.0-5.0-0.64","LF","0tf06g8uzp","1366","768","0","1","0","5b98223fbdb1df0001f1e684","","null","","","learningBlock1","","","","This is a wug:","null","","","","","",""
"image-keyboard-response","199","223666","0.0-5.0-1.64","LF","0tf06g8uzp","1366","768","0","1","0","5b98223fbdb1df0001f1e684","","null","","","","","","","learning/Slide65.JPG","null","","","","","",""
"html-keyboard-response","200","224670","0.0-5.0-2.64","LF","0tf06g8uzp","1366","768","0","1","0","5b98223fbdb1df0001f1e684","","null","","","learningBlock1","","","","<div style=""font-size:60px;""> </div>","null","LF","learning/Slide65.JPG","This is a wug:","","",""
"html-keyboard-response","201","225671","0.0-5.0-0.65","LF","0tf06g8uzp","1366","768","0","1","0","5b98223fbdb1df0001f1e684","","null","","","learningBlock1","","","","This is a dep:","null","","","","","",""
"image-keyboard-response","202","225998","0.0-5.0-1.65","LF","0tf06g8uzp","1366","768","0","1","0","5b98223fbdb1df0001f1e684","","null","","","","","","","learning/Slide66.JPG","null","","","","","",""
"html-keyboard-response","203","226999","0.0-5.0-2.65","LF","0tf06g8uzp","1366","768","0","1","0","5b98223fbdb1df0001f1e684","","null","","","learningBlock1","","","","<div style=""font-size:60px;""> </div>","null","LF","learning/Slide66.JPG","This is a dep:","","",""
"html-keyboard-response","204","228004","0.0-5.0-0.66","LF","0tf06g8uzp","1366","768","0","1","0","5b98223fbdb1df0001f1e684","","null","","","learningBlock1","","","","This is a tob:","null","","","","","",""
"image-keyboard-response","205","228346","0.0-5.0-1.66","LF","0tf06g8uzp","1366","768","0","1","0","5b98223fbdb1df0001f1e684","","null","","","","","","","learning/Slide67.JPG","null","","","","","",""
"html-keyboard-response","206","229348","0.0-5.0-2.66","LF","0tf06g8uzp","1366","768","0","1","0","5b98223fbdb1df0001f1e684","","null","","","learningBlock1","","","","<div style=""font-size:60px;""> </div>","null","LF","learning/Slide67.JPG","This is a tob:","","",""
"html-keyboard-response","207","230348","0.0-5.0-0.67","LF","0tf06g8uzp","1366","768","0","1","0","5b98223fbdb1df0001f1e684","","null","","","learningBlock1","","","","This is a wug:","null","","","","","",""
"image-keyboard-response","208","230678","0.0-5.0-1.67","LF","0tf06g8uzp","1366","768","0","1","0","5b98223fbdb1df0001f1e684","","null","","","","","","","learning/Slide68.JPG","null","","","","","",""
"html-keyboard-response","209","231680","0.0-5.0-2.67","LF","0tf06g8uzp","1366","768","0","1","0","5b98223fbdb1df0001f1e684","","null","","","learningBlock1","","","","<div style=""font-size:60px;""> </div>","null","LF","learning/Slide68.JPG","This is a wug:","","",""
"html-keyboard-response","210","232682","0.0-5.0-0.68","LF","0tf06g8uzp","1366","768","0","1","0","5b98223fbdb1df0001f1e684","","null","","","learningBlock1","","","","This is a tob:","null","","","","","",""
"image-keyboard-response","211","233009","0.0-5.0-1.68","LF","0tf06g8uzp","1366","768","0","1","0","5b98223fbdb1df0001f1e684","","null","","","","","","","learning/Slide69.JPG","null","","","","","",""
"html-keyboard-response","212","234010","0.0-5.0-2.68","LF","0tf06g8uzp","1366","768","0","1","0","5b98223fbdb1df0001f1e684","","null","","","learningBlock1","","","","<div style=""font-size:60px;""> </div>","null","LF","learning/Slide69.JPG","This is a tob:","","",""
"html-keyboard-response","213","235011","0.0-5.0-0.69","LF","0tf06g8uzp","1366","768","0","1","0","5b98223fbdb1df0001f1e684","","null","","","learningBlock1","","","","This is a dep:","null","","","","","",""
"image-keyboard-response","214","235341","0.0-5.0-1.69","LF","0tf06g8uzp","1366","768","0","1","0","5b98223fbdb1df0001f1e684","","null","","","","","","","learning/Slide70.JPG","null","","","","","",""
"html-keyboard-response","215","236342","0.0-5.0-2.69","LF","0tf06g8uzp","1366","768","0","1","0","5b98223fbdb1df0001f1e684","","null","","","learningBlock1","","","","<div style=""font-size:60px;""> </div>","null","LF","learning/Slide70.JPG","This is a dep:","","",""
"html-keyboard-response","216","237343","0.0-5.0-0.70","LF","0tf06g8uzp","1366","768","0","1","0","5b98223fbdb1df0001f1e684","","null","","","learningBlock1","","","","This is a wug:","null","","","","","",""
"image-keyboard-response","217","237672","0.0-5.0-1.70","LF","0tf06g8uzp","1366","768","0","1","0","5b98223fbdb1df0001f1e684","","null","","","","","","","learning/Slide71.JPG","null","","","","","",""
"html-keyboard-response","218","238674","0.0-5.0-2.70","LF","0tf06g8uzp","1366","768","0","1","0","5b98223fbdb1df0001f1e684","","null","","","learningBlock1","","","","<div style=""font-size:60px;""> </div>","null","LF","learning/Slide71.JPG","This is a wug:","","",""
"html-keyboard-response","219","239675","0.0-5.0-0.71","LF","0tf06g8uzp","1366","768","0","1","0","5b98223fbdb1df0001f1e684","","null","","","learningBlock1","","","","This is a bim:","null","","","","","",""
"image-keyboard-response","220","240005","0.0-5.0-1.71","LF","0tf06g8uzp","1366","768","0","1","0","5b98223fbdb1df0001f1e684","","null","","","","","","","learning/Slide72.JPG","null","","","","","",""
"html-keyboard-response","221","241007","0.0-5.0-2.71","LF","0tf06g8uzp","1366","768","0","1","0","5b98223fbdb1df0001f1e684","","null","","","learningBlock1","","","","<div style=""font-size:60px;""> </div>","null","LF","learning/Slide72.JPG","This is a bim:","","",""
"html-keyboard-response","222","242008","0.0-5.0-0.72","LF","0tf06g8uzp","1366","768","0","1","0","5b98223fbdb1df0001f1e684","","null","","","learningBlock1","","","","This is a wug:","null","","","","","",""
"image-keyboard-response","223","242337","0.0-5.0-1.72","LF","0tf06g8uzp","1366","768","0","1","0","5b98223fbdb1df0001f1e684","","null","","","","","","","learning/Slide73.JPG","null","","","","","",""
"html-keyboard-response","224","243339","0.0-5.0-2.72","LF","0tf06g8uzp","1366","768","0","1","0","5b98223fbdb1df0001f1e684","","null","","","learningBlock1","","","","<div style=""font-size:60px;""> </div>","null","LF","learning/Slide73.JPG","This is a wug:","","",""
"html-keyboard-response","225","244340","0.0-5.0-0.73","LF","0tf06g8uzp","1366","768","0","1","0","5b98223fbdb1df0001f1e684","","null","","","learningBlock1","","","","This is a dep:","null","","","","","",""
"image-keyboard-response","226","244667","0.0-5.0-1.73","LF","0tf06g8uzp","1366","768","0","1","0","5b98223fbdb1df0001f1e684","","null","","","","","","","learning/Slide74.JPG","null","","","","","",""
"html-keyboard-response","227","245668","0.0-5.0-2.73","LF","0tf06g8uzp","1366","768","0","1","0","5b98223fbdb1df0001f1e684","","null","","","learningBlock1","","","","<div style=""font-size:60px;""> </div>","null","LF","learning/Slide74.JPG","This is a dep:","","",""
"html-keyboard-response","228","246669","0.0-5.0-0.74","LF","0tf06g8uzp","1366","768","0","1","0","5b98223fbdb1df0001f1e684","","null","","","learningBlock1","","","","This is a tob:","null","","","","","",""
"image-keyboard-response","229","246996","0.0-5.0-1.74","LF","0tf06g8uzp","1366","768","0","1","0","5b98223fbdb1df0001f1e684","","null","","","","","","","learning/Slide75.JPG","null","","","","","",""
"html-keyboard-response","230","247997","0.0-5.0-2.74","LF","0tf06g8uzp","1366","768","0","1","0","5b98223fbdb1df0001f1e684","","null","","","learningBlock1","","","","<div style=""font-size:60px;""> </div>","null","LF","learning/Slide75.JPG","This is a tob:","","",""
"html-keyboard-response","231","249000","0.0-5.0-0.75","LF","0tf06g8uzp","1366","768","0","1","0","5b98223fbdb1df0001f1e684","","null","","","learningBlock1","","","","This is a bim:","null","","","","","",""
"image-keyboard-response","232","249327","0.0-5.0-1.75","LF","0tf06g8uzp","1366","768","0","1","0","5b98223fbdb1df0001f1e684","","null","","","","","","","learning/Slide76.JPG","null","","","","","",""
"html-keyboard-response","233","250328","0.0-5.0-2.75","LF","0tf06g8uzp","1366","768","0","1","0","5b98223fbdb1df0001f1e684","","null","","","learningBlock1","","","","<div style=""font-size:60px;""> </div>","null","LF","learning/Slide76.JPG","This is a bim:","","",""
"html-keyboard-response","234","251330","0.0-5.0-0.76","LF","0tf06g8uzp","1366","768","0","1","0","5b98223fbdb1df0001f1e684","","null","","","learningBlock1","","","","This is a tob:","null","","","","","",""
"image-keyboard-response","235","251657","0.0-5.0-1.76","LF","0tf06g8uzp","1366","768","0","1","0","5b98223fbdb1df0001f1e684","","null","","","","","","","learning/Slide77.JPG","null","","","","","",""
"html-keyboard-response","236","252658","0.0-5.0-2.76","LF","0tf06g8uzp","1366","768","0","1","0","5b98223fbdb1df0001f1e684","","null","","","learningBlock1","","","","<div style=""font-size:60px;""> </div>","null","LF","learning/Slide77.JPG","This is a tob:","","",""
"html-keyboard-response","237","253659","0.0-5.0-0.77","LF","0tf06g8uzp","1366","768","0","1","0","5b98223fbdb1df0001f1e684","","null","","","learningBlock1","","","","This is a wug:","null","","","","","",""
"image-keyboard-response","238","253986","0.0-5.0-1.77","LF","0tf06g8uzp","1366","768","0","1","0","5b98223fbdb1df0001f1e684","","null","","","","","","","learning/Slide78.JPG","null","","","","","",""
"html-keyboard-response","239","254987","0.0-5.0-2.77","LF","0tf06g8uzp","1366","768","0","1","0","5b98223fbdb1df0001f1e684","","null","","","learningBlock1","","","","<div style=""font-size:60px;""> </div>","null","LF","learning/Slide78.JPG","This is a wug:","","",""
"html-keyboard-response","240","255988","0.0-5.0-0.78","LF","0tf06g8uzp","1366","768","0","1","0","5b98223fbdb1df0001f1e684","","null","","","learningBlock1","","","","This is a bim:","null","","","","","",""
"image-keyboard-response","241","256315","0.0-5.0-1.78","LF","0tf06g8uzp","1366","768","0","1","0","5b98223fbdb1df0001f1e684","","null","","","","","","","learning/Slide79.JPG","null","","","","","",""
"html-keyboard-response","242","257316","0.0-5.0-2.78","LF","0tf06g8uzp","1366","768","0","1","0","5b98223fbdb1df0001f1e684","","null","","","learningBlock1","","","","<div style=""font-size:60px;""> </div>","null","LF","learning/Slide79.JPG","This is a bim:","","",""
"html-keyboard-response","243","258317","0.0-5.0-0.79","LF","0tf06g8uzp","1366","768","0","1","0","5b98223fbdb1df0001f1e684","","null","","","learningBlock1","","","","This is a tob:","null","","","","","",""
"image-keyboard-response","244","258644","0.0-5.0-1.79","LF","0tf06g8uzp","1366","768","0","1","0","5b98223fbdb1df0001f1e684","","null","","","","","","","learning/Slide80.JPG","null","","","","","",""
"html-keyboard-response","245","259645","0.0-5.0-2.79","LF","0tf06g8uzp","1366","768","0","1","0","5b98223fbdb1df0001f1e684","","null","","","learningBlock1","","","","<div style=""font-size:60px;""> </div>","null","LF","learning/Slide80.JPG","This is a tob:","","",""
"instructions","246","263428","0.0-6.0","LF","0tf06g8uzp","1366","768","0","1","0","5b98223fbdb1df0001f1e684","","NA","","[{""page_index"":0,""viewing_time"":3782.1849999999977}]","instructions","","","","","","","","","","",""
"html-keyboard-response","247","264430","0.0-7.0-0.0","LF","0tf06g8uzp","1366","768","0","1","0","5b98223fbdb1df0001f1e684","","null","","","learningBlock2","","","","This is a wug:","null","","","","","",""
"image-keyboard-response","248","264760","0.0-7.0-1.0","LF","0tf06g8uzp","1366","768","0","1","0","5b98223fbdb1df0001f1e684","","null","","","","","","","learning/Slide81.JPG","null","","","","","",""
"html-keyboard-response","249","265761","0.0-7.0-2.0","LF","0tf06g8uzp","1366","768","0","1","0","5b98223fbdb1df0001f1e684","","null","","","learningBlock2","","","","<div style=""font-size:60px;""> </div>","null","LF","learning/Slide81.JPG","This is a wug:","","",""
"html-keyboard-response","250","266764","0.0-7.0-0.1","LF","0tf06g8uzp","1366","768","0","1","0","5b98223fbdb1df0001f1e684","","null","","","learningBlock2","","","","This is a bim:","null","","","","","",""
"image-keyboard-response","251","267093","0.0-7.0-1.1","LF","0tf06g8uzp","1366","768","0","1","0","5b98223fbdb1df0001f1e684","","null","","","","","","","learning/Slide82.JPG","null","","","","","",""
"html-keyboard-response","252","268095","0.0-7.0-2.1","LF","0tf06g8uzp","1366","768","0","1","0","5b98223fbdb1df0001f1e684","","null","","","learningBlock2","","","","<div style=""font-size:60px;""> </div>","null","LF","learning/Slide82.JPG","This is a bim:","","",""
"html-keyboard-response","253","269097","0.0-7.0-0.2","LF","0tf06g8uzp","1366","768","0","1","0","5b98223fbdb1df0001f1e684","","null","","","learningBlock2","","","","This is a wug:","null","","","","","",""
"image-keyboard-response","254","269424","0.0-7.0-1.2","LF","0tf06g8uzp","1366","768","0","1","0","5b98223fbdb1df0001f1e684","","null","","","","","","","learning/Slide83.JPG","null","","","","","",""
"html-keyboard-response","255","270425","0.0-7.0-2.2","LF","0tf06g8uzp","1366","768","0","1","0","5b98223fbdb1df0001f1e684","","null","","","learningBlock2","","","","<div style=""font-size:60px;""> </div>","null","LF","learning/Slide83.JPG","This is a wug:","","",""
"html-keyboard-response","256","271427","0.0-7.0-0.3","LF","0tf06g8uzp","1366","768","0","1","0","5b98223fbdb1df0001f1e684","","null","","","learningBlock2","","","","This is a dep:","null","","","","","",""
"image-keyboard-response","257","271754","0.0-7.0-1.3","LF","0tf06g8uzp","1366","768","0","1","0","5b98223fbdb1df0001f1e684","","null","","","","","","","learning/Slide84.JPG","null","","","","","",""
"html-keyboard-response","258","272755","0.0-7.0-2.3","LF","0tf06g8uzp","1366","768","0","1","0","5b98223fbdb1df0001f1e684","","null","","","learningBlock2","","","","<div style=""font-size:60px;""> </div>","null","LF","learning/Slide84.JPG","This is a dep:","","",""
"html-keyboard-response","259","273756","0.0-7.0-0.4","LF","0tf06g8uzp","1366","768","0","1","0","5b98223fbdb1df0001f1e684","","null","","","learningBlock2","","","","This is a bim:","null","","","","","",""
"image-keyboard-response","260","274085","0.0-7.0-1.4","LF","0tf06g8uzp","1366","768","0","1","0","5b98223fbdb1df0001f1e684","","null","","","","","","","learning/Slide85.JPG","null","","","","","",""
"html-keyboard-response","261","275087","0.0-7.0-2.4","LF","0tf06g8uzp","1366","768","0","1","0","5b98223fbdb1df0001f1e684","","null","","","learningBlock2","","","","<div style=""font-size:60px;""> </div>","null","LF","learning/Slide85.JPG","This is a bim:","","",""
"html-keyboard-response","262","276089","0.0-7.0-0.5","LF","0tf06g8uzp","1366","768","0","1","0","5b98223fbdb1df0001f1e684","","null","","","learningBlock2","","","","This is a tob:","null","","","","","",""
"image-keyboard-response","263","276416","0.0-7.0-1.5","LF","0tf06g8uzp","1366","768","0","1","0","5b98223fbdb1df0001f1e684","","null","","","","","","","learning/Slide86.JPG","null","","","","","",""
"html-keyboard-response","264","277417","0.0-7.0-2.5","LF","0tf06g8uzp","1366","768","0","1","0","5b98223fbdb1df0001f1e684","","null","","","learningBlock2","","","","<div style=""font-size:60px;""> </div>","null","LF","learning/Slide86.JPG","This is a tob:","","",""
"html-keyboard-response","265","278418","0.0-7.0-0.6","LF","0tf06g8uzp","1366","768","0","1","0","5b98223fbdb1df0001f1e684","","null","","","learningBlock2","","","","This is a wug:","null","","","","","",""
"image-keyboard-response","266","278746","0.0-7.0-1.6","LF","0tf06g8uzp","1366","768","0","1","0","5b98223fbdb1df0001f1e684","","null","","","","","","","learning/Slide87.JPG","null","","","","","",""
"html-keyboard-response","267","279749","0.0-7.0-2.6","LF","0tf06g8uzp","1366","768","0","1","0","5b98223fbdb1df0001f1e684","","null","","","learningBlock2","","","","<div style=""font-size:60px;""> </div>","null","LF","learning/Slide87.JPG","This is a wug:","","",""
"html-keyboard-response","268","280750","0.0-7.0-0.7","LF","0tf06g8uzp","1366","768","0","1","0","5b98223fbdb1df0001f1e684","","null","","","learningBlock2","","","","This is a tob:","null","","","","","",""
"image-keyboard-response","269","281077","0.0-7.0-1.7","LF","0tf06g8uzp","1366","768","0","1","0","5b98223fbdb1df0001f1e684","","null","","","","","","","learning/Slide88.JPG","null","","","","","",""
"html-keyboard-response","270","282078","0.0-7.0-2.7","LF","0tf06g8uzp","1366","768","0","1","0","5b98223fbdb1df0001f1e684","","null","","","learningBlock2","","","","<div style=""font-size:60px;""> </div>","null","LF","learning/Slide88.JPG","This is a tob:","","",""
"html-keyboard-response","271","283080","0.0-7.0-0.8","LF","0tf06g8uzp","1366","768","0","1","0","5b98223fbdb1df0001f1e684","","null","","","learningBlock2","","","","This is a bim:","null","","","","","",""
"image-keyboard-response","272","283407","0.0-7.0-1.8","LF","0tf06g8uzp","1366","768","0","1","0","5b98223fbdb1df0001f1e684","","null","","","","","","","learning/Slide89.JPG","null","","","","","",""
"html-keyboard-response","273","284408","0.0-7.0-2.8","LF","0tf06g8uzp","1366","768","0","1","0","5b98223fbdb1df0001f1e684","","null","","","learningBlock2","","","","<div style=""font-size:60px;""> </div>","null","LF","learning/Slide89.JPG","This is a bim:","","",""
"html-keyboard-response","274","285409","0.0-7.0-0.9","LF","0tf06g8uzp","1366","768","0","1","0","5b98223fbdb1df0001f1e684","","null","","","learningBlock2","","","","This is a dep:","null","","","","","",""
"image-keyboard-response","275","285738","0.0-7.0-1.9","LF","0tf06g8uzp","1366","768","0","1","0","5b98223fbdb1df0001f1e684","","null","","","","","","","learning/Slide90.JPG","null","","","","","",""
"html-keyboard-response","276","286740","0.0-7.0-2.9","LF","0tf06g8uzp","1366","768","0","1","0","5b98223fbdb1df0001f1e684","","null","","","learningBlock2","","","","<div style=""font-size:60px;""> </div>","null","LF","learning/Slide90.JPG","This is a dep:","","",""
"html-keyboard-response","277","287742","0.0-7.0-0.10","LF","0tf06g8uzp","1366","768","0","1","0","5b98223fbdb1df0001f1e684","","null","","","learningBlock2","","","","This is a wug:","null","","","","","",""
"image-keyboard-response","278","288075","0.0-7.0-1.10","LF","0tf06g8uzp","1366","768","0","1","0","5b98223fbdb1df0001f1e684","","null","","","","","","","learning/Slide91.JPG","null","","","","","",""
"html-keyboard-response","279","289077","0.0-7.0-2.10","LF","0tf06g8uzp","1366","768","0","1","0","5b98223fbdb1df0001f1e684","","null","","","learningBlock2","","","","<div style=""font-size:60px;""> </div>","null","LF","learning/Slide91.JPG","This is a wug:","","",""
"html-keyboard-response","280","290078","0.0-7.0-0.11","LF","0tf06g8uzp","1366","768","0","1","0","5b98223fbdb1df0001f1e684","","null","","","learningBlock2","","","","This is a tob:","null","","","","","",""
"image-keyboard-response","281","290407","0.0-7.0-1.11","LF","0tf06g8uzp","1366","768","0","1","0","5b98223fbdb1df0001f1e684","","null","","","","","","","learning/Slide92.JPG","null","","","","","",""
"html-keyboard-response","282","291410","0.0-7.0-2.11","LF","0tf06g8uzp","1366","768","0","1","0","5b98223fbdb1df0001f1e684","","null","","","learningBlock2","","","","<div style=""font-size:60px;""> </div>","null","LF","learning/Slide92.JPG","This is a tob:","","",""
"html-keyboard-response","283","292411","0.0-7.0-0.12","LF","0tf06g8uzp","1366","768","0","1","0","5b98223fbdb1df0001f1e684","","null","","","learningBlock2","","","","This is a bim:","null","","","","","",""
"image-keyboard-response","284","292738","0.0-7.0-1.12","LF","0tf06g8uzp","1366","768","0","1","0","5b98223fbdb1df0001f1e684","","null","","","","","","","learning/Slide93.JPG","null","","","","","",""
"html-keyboard-response","285","293740","0.0-7.0-2.12","LF","0tf06g8uzp","1366","768","0","1","0","5b98223fbdb1df0001f1e684","","null","","","learningBlock2","","","","<div style=""font-size:60px;""> </div>","null","LF","learning/Slide93.JPG","This is a bim:","","",""
"html-keyboard-response","286","294740","0.0-7.0-0.13","LF","0tf06g8uzp","1366","768","0","1","0","5b98223fbdb1df0001f1e684","","null","","","learningBlock2","","","","This is a tob:","null","","","","","",""
"image-keyboard-response","287","295070","0.0-7.0-1.13","LF","0tf06g8uzp","1366","768","0","1","0","5b98223fbdb1df0001f1e684","","null","","","","","","","learning/Slide94.JPG","null","","","","","",""
"html-keyboard-response","288","296072","0.0-7.0-2.13","LF","0tf06g8uzp","1366","768","0","1","0","5b98223fbdb1df0001f1e684","","null","","","learningBlock2","","","","<div style=""font-size:60px;""> </div>","null","LF","learning/Slide94.JPG","This is a tob:","","",""
"html-keyboard-response","289","297072","0.0-7.0-0.14","LF","0tf06g8uzp","1366","768","0","1","0","5b98223fbdb1df0001f1e684","","null","","","learningBlock2","","","","This is a wug:","null","","","","","",""
"image-keyboard-response","290","297412","0.0-7.0-1.14","LF","0tf06g8uzp","1366","768","0","1","0","5b98223fbdb1df0001f1e684","","null","","","","","","","learning/Slide95.JPG","null","","","","","",""
"html-keyboard-response","291","298413","0.0-7.0-2.14","LF","0tf06g8uzp","1366","768","0","1","0","5b98223fbdb1df0001f1e684","","null","","","learningBlock2","","","","<div style=""font-size:60px;""> </div>","null","LF","learning/Slide95.JPG","This is a wug:","","",""
"html-keyboard-response","292","299414","0.0-7.0-0.15","LF","0tf06g8uzp","1366","768","0","1","0","5b98223fbdb1df0001f1e684","","null","","","learningBlock2","","","","This is a tob:","null","","","","","",""
"image-keyboard-response","293","299743","0.0-7.0-1.15","LF","0tf06g8uzp","1366","768","0","1","0","5b98223fbdb1df0001f1e684","","null","","","","","","","learning/Slide96.JPG","null","","","","","",""
"html-keyboard-response","294","300745","0.0-7.0-2.15","LF","0tf06g8uzp","1366","768","0","1","0","5b98223fbdb1df0001f1e684","","null","","","learningBlock2","","","","<div style=""font-size:60px;""> </div>","null","LF","learning/Slide96.JPG","This is a tob:","","",""
"html-keyboard-response","295","301746","0.0-7.0-0.16","LF","0tf06g8uzp","1366","768","0","1","0","5b98223fbdb1df0001f1e684","","null","","","learningBlock2","","","","This is a dep:","null","","","","","",""
"image-keyboard-response","296","302075","0.0-7.0-1.16","LF","0tf06g8uzp","1366","768","0","1","0","5b98223fbdb1df0001f1e684","","null","","","","","","","learning/Slide97.JPG","null","","","","","",""
"html-keyboard-response","297","303077","0.0-7.0-2.16","LF","0tf06g8uzp","1366","768","0","1","0","5b98223fbdb1df0001f1e684","","null","","","learningBlock2","","","","<div style=""font-size:60px;""> </div>","null","LF","learning/Slide97.JPG","This is a dep:","","",""
"html-keyboard-response","298","304078","0.0-7.0-0.17","LF","0tf06g8uzp","1366","768","0","1","0","5b98223fbdb1df0001f1e684","","null","","","learningBlock2","","","","This is a bim:","null","","","","","",""
"image-keyboard-response","299","304407","0.0-7.0-1.17","LF","0tf06g8uzp","1366","768","0","1","0","5b98223fbdb1df0001f1e684","","null","","","","","","","learning/Slide98.JPG","null","","","","","",""
"html-keyboard-response","300","305409","0.0-7.0-2.17","LF","0tf06g8uzp","1366","768","0","1","0","5b98223fbdb1df0001f1e684","","null","","","learningBlock2","","","","<div style=""font-size:60px;""> </div>","null","LF","learning/Slide98.JPG","This is a bim:","","",""
"html-keyboard-response","301","306410","0.0-7.0-0.18","LF","0tf06g8uzp","1366","768","0","1","0","5b98223fbdb1df0001f1e684","","null","","","learningBlock2","","","","This is a dep:","null","","","","","",""
"image-keyboard-response","302","306739","0.0-7.0-1.18","LF","0tf06g8uzp","1366","768","0","1","0","5b98223fbdb1df0001f1e684","","null","","","","","","","learning/Slide99.JPG","null","","","","","",""
"html-keyboard-response","303","307741","0.0-7.0-2.18","LF","0tf06g8uzp","1366","768","0","1","0","5b98223fbdb1df0001f1e684","","null","","","learningBlock2","","","","<div style=""font-size:60px;""> </div>","null","LF","learning/Slide99.JPG","This is a dep:","","",""
"html-keyboard-response","304","308742","0.0-7.0-0.19","LF","0tf06g8uzp","1366","768","0","1","0","5b98223fbdb1df0001f1e684","","null","","","learningBlock2","","","","This is a bim:","null","","","","","",""
"image-keyboard-response","305","309072","0.0-7.0-1.19","LF","0tf06g8uzp","1366","768","0","1","0","5b98223fbdb1df0001f1e684","","null","","","","","","","learning/Slide100.JPG","null","","","","","",""
"html-keyboard-response","306","310073","0.0-7.0-2.19","LF","0tf06g8uzp","1366","768","0","1","0","5b98223fbdb1df0001f1e684","","null","","","learningBlock2","","","","<div style=""font-size:60px;""> </div>","null","LF","learning/Slide100.JPG","This is a bim:","","",""
"html-keyboard-response","307","311075","0.0-7.0-0.20","LF","0tf06g8uzp","1366","768","0","1","0","5b98223fbdb1df0001f1e684","","null","","","learningBlock2","","","","This is a tob:","null","","","","","",""
"image-keyboard-response","308","311405","0.0-7.0-1.20","LF","0tf06g8uzp","1366","768","0","1","0","5b98223fbdb1df0001f1e684","","null","","","","","","","learning/Slide101.JPG","null","","","","","",""
"html-keyboard-response","309","312406","0.0-7.0-2.20","LF","0tf06g8uzp","1366","768","0","1","0","5b98223fbdb1df0001f1e684","","null","","","learningBlock2","","","","<div style=""font-size:60px;""> </div>","null","LF","learning/Slide101.JPG","This is a tob:","","",""
"html-keyboard-response","310","313409","0.0-7.0-0.21","LF","0tf06g8uzp","1366","768","0","1","0","5b98223fbdb1df0001f1e684","","null","","","learningBlock2","","","","This is a bim:","null","","","","","",""
"image-keyboard-response","311","313736","0.0-7.0-1.21","LF","0tf06g8uzp","1366","768","0","1","0","5b98223fbdb1df0001f1e684","","null","","","","","","","learning/Slide102.JPG","null","","","","","",""
"html-keyboard-response","312","314737","0.0-7.0-2.21","LF","0tf06g8uzp","1366","768","0","1","0","5b98223fbdb1df0001f1e684","","null","","","learningBlock2","","","","<div style=""font-size:60px;""> </div>","null","LF","learning/Slide102.JPG","This is a bim:","","",""
"html-keyboard-response","313","315738","0.0-7.0-0.22","LF","0tf06g8uzp","1366","768","0","1","0","5b98223fbdb1df0001f1e684","","null","","","learningBlock2","","","","This is a dep:","null","","","","","",""
"image-keyboard-response","314","316067","0.0-7.0-1.22","LF","0tf06g8uzp","1366","768","0","1","0","5b98223fbdb1df0001f1e684","","null","","","","","","","learning/Slide103.JPG","null","","","","","",""
"html-keyboard-response","315","317069","0.0-7.0-2.22","LF","0tf06g8uzp","1366","768","0","1","0","5b98223fbdb1df0001f1e684","","null","","","learningBlock2","","","","<div style=""font-size:60px;""> </div>","null","LF","learning/Slide103.JPG","This is a dep:","","",""
"html-keyboard-response","316","318072","0.0-7.0-0.23","LF","0tf06g8uzp","1366","768","0","1","0","5b98223fbdb1df0001f1e684","","null","","","learningBlock2","","","","This is a tob:","null","","","","","",""
"image-keyboard-response","317","318401","0.0-7.0-1.23","LF","0tf06g8uzp","1366","768","0","1","0","5b98223fbdb1df0001f1e684","","null","","","","","","","learning/Slide104.JPG","null","","","","","",""
"html-keyboard-response","318","319403","0.0-7.0-2.23","LF","0tf06g8uzp","1366","768","0","1","0","5b98223fbdb1df0001f1e684","","null","","","learningBlock2","","","","<div style=""font-size:60px;""> </div>","null","LF","learning/Slide104.JPG","This is a tob:","","",""
"html-keyboard-response","319","320405","0.0-7.0-0.24","LF","0tf06g8uzp","1366","768","0","1","0","5b98223fbdb1df0001f1e684","","null","","","learningBlock2","","","","This is a dep:","null","","","","","",""
"image-keyboard-response","320","320734","0.0-7.0-1.24","LF","0tf06g8uzp","1366","768","0","1","0","5b98223fbdb1df0001f1e684","","null","","","","","","","learning/Slide105.JPG","null","","","","","",""
"html-keyboard-response","321","321736","0.0-7.0-2.24","LF","0tf06g8uzp","1366","768","0","1","0","5b98223fbdb1df0001f1e684","","null","","","learningBlock2","","","","<div style=""font-size:60px;""> </div>","null","LF","learning/Slide105.JPG","This is a dep:","","",""
"html-keyboard-response","322","322737","0.0-7.0-0.25","LF","0tf06g8uzp","1366","768","0","1","0","5b98223fbdb1df0001f1e684","","null","","","learningBlock2","","","","This is a wug:","null","","","","","",""
"image-keyboard-response","323","323064","0.0-7.0-1.25","LF","0tf06g8uzp","1366","768","0","1","0","5b98223fbdb1df0001f1e684","","null","","","","","","","learning/Slide106.JPG","null","","","","","",""
"html-keyboard-response","324","324065","0.0-7.0-2.25","LF","0tf06g8uzp","1366","768","0","1","0","5b98223fbdb1df0001f1e684","","null","","","learningBlock2","","","","<div style=""font-size:60px;""> </div>","null","LF","learning/Slide106.JPG","This is a wug:","","",""
"html-keyboard-response","325","325066","0.0-7.0-0.26","LF","0tf06g8uzp","1366","768","0","1","0","5b98223fbdb1df0001f1e684","","null","","","learningBlock2","","","","This is a bim:","null","","","","","",""
"image-keyboard-response","326","325393","0.0-7.0-1.26","LF","0tf06g8uzp","1366","768","0","1","0","5b98223fbdb1df0001f1e684","","null","","","","","","","learning/Slide107.JPG","null","","","","","",""
"html-keyboard-response","327","326394","0.0-7.0-2.26","LF","0tf06g8uzp","1366","768","0","1","0","5b98223fbdb1df0001f1e684","","null","","","learningBlock2","","","","<div style=""font-size:60px;""> </div>","null","LF","learning/Slide107.JPG","This is a bim:","","",""
"html-keyboard-response","328","327397","0.0-7.0-0.27","LF","0tf06g8uzp","1366","768","0","1","0","5b98223fbdb1df0001f1e684","","null","","","learningBlock2","","","","This is a dep:","null","","","","","",""
"image-keyboard-response","329","327727","0.0-7.0-1.27","LF","0tf06g8uzp","1366","768","0","1","0","5b98223fbdb1df0001f1e684","","null","","","","","","","learning/Slide108.JPG","null","","","","","",""
"html-keyboard-response","330","328730","0.0-7.0-2.27","LF","0tf06g8uzp","1366","768","0","1","0","5b98223fbdb1df0001f1e684","","null","","","learningBlock2","","","","<div style=""font-size:60px;""> </div>","null","LF","learning/Slide108.JPG","This is a dep:","","",""
"html-keyboard-response","331","329731","0.0-7.0-0.28","LF","0tf06g8uzp","1366","768","0","1","0","5b98223fbdb1df0001f1e684","","null","","","learningBlock2","","","","This is a wug:","null","","","","","",""
"image-keyboard-response","332","330063","0.0-7.0-1.28","LF","0tf06g8uzp","1366","768","0","1","0","5b98223fbdb1df0001f1e684","","null","","","","","","","learning/Slide109.JPG","null","","","","","",""
"html-keyboard-response","333","331069","0.0-7.0-2.28","LF","0tf06g8uzp","1366","768","0","1","0","5b98223fbdb1df0001f1e684","","null","","","learningBlock2","","","","<div style=""font-size:60px;""> </div>","null","LF","learning/Slide109.JPG","This is a wug:","","",""
"html-keyboard-response","334","332072","0.0-7.0-0.29","LF","0tf06g8uzp","1366","768","0","1","0","5b98223fbdb1df0001f1e684","","null","","","learningBlock2","","","","This is a bim:","null","","","","","",""
"image-keyboard-response","335","332448","0.0-7.0-1.29","LF","0tf06g8uzp","1366","768","0","1","0","5b98223fbdb1df0001f1e684","","null","","","","","","","learning/Slide110.JPG","null","","","","","",""
"html-keyboard-response","336","333450","0.0-7.0-2.29","LF","0tf06g8uzp","1366","768","0","1","0","5b98223fbdb1df0001f1e684","","null","","","learningBlock2","","","","<div style=""font-size:60px;""> </div>","null","LF","learning/Slide110.JPG","This is a bim:","","",""
"html-keyboard-response","337","334451","0.0-7.0-0.30","LF","0tf06g8uzp","1366","768","0","1","0","5b98223fbdb1df0001f1e684","","null","","","learningBlock2","","","","This is a tob:","null","","","","","",""
"image-keyboard-response","338","334780","0.0-7.0-1.30","LF","0tf06g8uzp","1366","768","0","1","0","5b98223fbdb1df0001f1e684","","null","","","","","","","learning/Slide111.JPG","null","","","","","",""
"html-keyboard-response","339","335782","0.0-7.0-2.30","LF","0tf06g8uzp","1366","768","0","1","0","5b98223fbdb1df0001f1e684","","null","","","learningBlock2","","","","<div style=""font-size:60px;""> </div>","null","LF","learning/Slide111.JPG","This is a tob:","","",""
"html-keyboard-response","340","336783","0.0-7.0-0.31","LF","0tf06g8uzp","1366","768","0","1","0","5b98223fbdb1df0001f1e684","","null","","","learningBlock2","","","","This is a wug:","null","","","","","",""
"image-keyboard-response","341","337110","0.0-7.0-1.31","LF","0tf06g8uzp","1366","768","0","1","0","5b98223fbdb1df0001f1e684","","null","","","","","","","learning/Slide112.JPG","null","","","","","",""
"html-keyboard-response","342","338111","0.0-7.0-2.31","LF","0tf06g8uzp","1366","768","0","1","0","5b98223fbdb1df0001f1e684","","null","","","learningBlock2","","","","<div style=""font-size:60px;""> </div>","null","LF","learning/Slide112.JPG","This is a wug:","","",""
"html-keyboard-response","343","339113","0.0-7.0-0.32","LF","0tf06g8uzp","1366","768","0","1","0","5b98223fbdb1df0001f1e684","","null","","","learningBlock2","","","","This is a tob:","null","","","","","",""
"image-keyboard-response","344","339442","0.0-7.0-1.32","LF","0tf06g8uzp","1366","768","0","1","0","5b98223fbdb1df0001f1e684","","null","","","","","","","learning/Slide113.JPG","null","","","","","",""
"html-keyboard-response","345","340444","0.0-7.0-2.32","LF","0tf06g8uzp","1366","768","0","1","0","5b98223fbdb1df0001f1e684","","null","","","learningBlock2","","","","<div style=""font-size:60px;""> </div>","null","LF","learning/Slide113.JPG","This is a tob:","","",""
"html-keyboard-response","346","341447","0.0-7.0-0.33","LF","0tf06g8uzp","1366","768","0","1","0","5b98223fbdb1df0001f1e684","","null","","","learningBlock2","","","","This is a wug:","null","","","","","",""
"image-keyboard-response","347","341774","0.0-7.0-1.33","LF","0tf06g8uzp","1366","768","0","1","0","5b98223fbdb1df0001f1e684","","null","","","","","","","learning/Slide114.JPG","null","","","","","",""
"html-keyboard-response","348","342775","0.0-7.0-2.33","LF","0tf06g8uzp","1366","768","0","1","0","5b98223fbdb1df0001f1e684","","null","","","learningBlock2","","","","<div style=""font-size:60px;""> </div>","null","LF","learning/Slide114.JPG","This is a wug:","","",""
"html-keyboard-response","349","343777","0.0-7.0-0.34","LF","0tf06g8uzp","1366","768","0","1","0","5b98223fbdb1df0001f1e684","","null","","","learningBlock2","","","","This is a bim:","null","","","","","",""
"image-keyboard-response","350","344106","0.0-7.0-1.34","LF","0tf06g8uzp","1366","768","0","1","0","5b98223fbdb1df0001f1e684","","null","","","","","","","learning/Slide115.JPG","null","","","","","",""
"html-keyboard-response","351","345108","0.0-7.0-2.34","LF","0tf06g8uzp","1366","768","0","1","0","5b98223fbdb1df0001f1e684","","null","","","learningBlock2","","","","<div style=""font-size:60px;""> </div>","null","LF","learning/Slide115.JPG","This is a bim:","","",""
"html-keyboard-response","352","346110","0.0-7.0-0.35","LF","0tf06g8uzp","1366","768","0","1","0","5b98223fbdb1df0001f1e684","","null","","","learningBlock2","","","","This is a dep:","null","","","","","",""
"image-keyboard-response","353","346439","0.0-7.0-1.35","LF","0tf06g8uzp","1366","768","0","1","0","5b98223fbdb1df0001f1e684","","null","","","","","","","learning/Slide116.JPG","null","","","","","",""
"html-keyboard-response","354","347441","0.0-7.0-2.35","LF","0tf06g8uzp","1366","768","0","1","0","5b98223fbdb1df0001f1e684","","null","","","learningBlock2","","","","<div style=""font-size:60px;""> </div>","null","LF","learning/Slide116.JPG","This is a dep:","","",""
"html-keyboard-response","355","348447","0.0-7.0-0.36","LF","0tf06g8uzp","1366","768","0","1","0","5b98223fbdb1df0001f1e684","","null","","","learningBlock2","","","","This is a tob:","null","","","","","",""
"image-keyboard-response","356","348775","0.0-7.0-1.36","LF","0tf06g8uzp","1366","768","0","1","0","5b98223fbdb1df0001f1e684","","null","","","","","","","learning/Slide117.JPG","null","","","","","",""
"html-keyboard-response","357","349778","0.0-7.0-2.36","LF","0tf06g8uzp","1366","768","0","1","0","5b98223fbdb1df0001f1e684","","null","","","learningBlock2","","","","<div style=""font-size:60px;""> </div>","null","LF","learning/Slide117.JPG","This is a tob:","","",""
"html-keyboard-response","358","350780","0.0-7.0-0.37","LF","0tf06g8uzp","1366","768","0","1","0","5b98223fbdb1df0001f1e684","","null","","","learningBlock2","","","","This is a dep:","null","","","","","",""
"image-keyboard-response","359","351106","0.0-7.0-1.37","LF","0tf06g8uzp","1366","768","0","1","0","5b98223fbdb1df0001f1e684","","null","","","","","","","learning/Slide118.JPG","null","","","","","",""
"html-keyboard-response","360","352108","0.0-7.0-2.37","LF","0tf06g8uzp","1366","768","0","1","0","5b98223fbdb1df0001f1e684","","null","","","learningBlock2","","","","<div style=""font-size:60px;""> </div>","null","LF","learning/Slide118.JPG","This is a dep:","","",""
"html-keyboard-response","361","353109","0.0-7.0-0.38","LF","0tf06g8uzp","1366","768","0","1","0","5b98223fbdb1df0001f1e684","","null","","","learningBlock2","","","","This is a wug:","null","","","","","",""
"image-keyboard-response","362","353438","0.0-7.0-1.38","LF","0tf06g8uzp","1366","768","0","1","0","5b98223fbdb1df0001f1e684","","null","","","","","","","learning/Slide119.JPG","null","","","","","",""
"html-keyboard-response","363","354440","0.0-7.0-2.38","LF","0tf06g8uzp","1366","768","0","1","0","5b98223fbdb1df0001f1e684","","null","","","learningBlock2","","","","<div style=""font-size:60px;""> </div>","null","LF","learning/Slide119.JPG","This is a wug:","","",""
"html-keyboard-response","364","355441","0.0-7.0-0.39","LF","0tf06g8uzp","1366","768","0","1","0","5b98223fbdb1df0001f1e684","","null","","","learningBlock2","","","","This is a dep:","null","","","","","",""
"image-keyboard-response","365","355768","0.0-7.0-1.39","LF","0tf06g8uzp","1366","768","0","1","0","5b98223fbdb1df0001f1e684","","null","","","","","","","learning/Slide120.JPG","null","","","","","",""
"html-keyboard-response","366","356770","0.0-7.0-2.39","LF","0tf06g8uzp","1366","768","0","1","0","5b98223fbdb1df0001f1e684","","null","","","learningBlock2","","","","<div style=""font-size:60px;""> </div>","null","LF","learning/Slide120.JPG","This is a dep:","","",""
"html-keyboard-response","367","357771","0.0-7.0-0.40","LF","0tf06g8uzp","1366","768","0","1","0","5b98223fbdb1df0001f1e684","","null","","","learningBlock2","","","","This is a bim:","null","","","","","",""
"image-keyboard-response","368","358100","0.0-7.0-1.40","LF","0tf06g8uzp","1366","768","0","1","0","5b98223fbdb1df0001f1e684","","null","","","","","","","learning/Slide121.JPG","null","","","","","",""
"html-keyboard-response","369","359102","0.0-7.0-2.40","LF","0tf06g8uzp","1366","768","0","1","0","5b98223fbdb1df0001f1e684","","null","","","learningBlock2","","","","<div style=""font-size:60px;""> </div>","null","LF","learning/Slide121.JPG","This is a bim:","","",""
"html-keyboard-response","370","360104","0.0-7.0-0.41","LF","0tf06g8uzp","1366","768","0","1","0","5b98223fbdb1df0001f1e684","","null","","","learningBlock2","","","","This is a wug:","null","","","","","",""
"image-keyboard-response","371","360431","0.0-7.0-1.41","LF","0tf06g8uzp","1366","768","0","1","0","5b98223fbdb1df0001f1e684","","null","","","","","","","learning/Slide122.JPG","null","","","","","",""
"html-keyboard-response","372","361432","0.0-7.0-2.41","LF","0tf06g8uzp","1366","768","0","1","0","5b98223fbdb1df0001f1e684","","null","","","learningBlock2","","","","<div style=""font-size:60px;""> </div>","null","LF","learning/Slide122.JPG","This is a wug:","","",""
"html-keyboard-response","373","362434","0.0-7.0-0.42","LF","0tf06g8uzp","1366","768","0","1","0","5b98223fbdb1df0001f1e684","","null","","","learningBlock2","","","","This is a bim:","null","","","","","",""
"image-keyboard-response","374","362764","0.0-7.0-1.42","LF","0tf06g8uzp","1366","768","0","1","0","5b98223fbdb1df0001f1e684","","null","","","","","","","learning/Slide123.JPG","null","","","","","",""
"html-keyboard-response","375","363766","0.0-7.0-2.42","LF","0tf06g8uzp","1366","768","0","1","0","5b98223fbdb1df0001f1e684","","null","","","learningBlock2","","","","<div style=""font-size:60px;""> </div>","null","LF","learning/Slide123.JPG","This is a bim:","","",""
"html-keyboard-response","376","364767","0.0-7.0-0.43","LF","0tf06g8uzp","1366","768","0","1","0","5b98223fbdb1df0001f1e684","","null","","","learningBlock2","","","","This is a tob:","null","","","","","",""
"image-keyboard-response","377","365097","0.0-7.0-1.43","LF","0tf06g8uzp","1366","768","0","1","0","5b98223fbdb1df0001f1e684","","null","","","","","","","learning/Slide124.JPG","null","","","","","",""
"html-keyboard-response","378","366098","0.0-7.0-2.43","LF","0tf06g8uzp","1366","768","0","1","0","5b98223fbdb1df0001f1e684","","null","","","learningBlock2","","","","<div style=""font-size:60px;""> </div>","null","LF","learning/Slide124.JPG","This is a tob:","","",""
"html-keyboard-response","379","367101","0.0-7.0-0.44","LF","0tf06g8uzp","1366","768","0","1","0","5b98223fbdb1df0001f1e684","","null","","","learningBlock2","","","","This is a bim:","null","","","","","",""
"image-keyboard-response","380","367427","0.0-7.0-1.44","LF","0tf06g8uzp","1366","768","0","1","0","5b98223fbdb1df0001f1e684","","null","","","","","","","learning/Slide125.JPG","null","","","","","",""
"html-keyboard-response","381","368428","0.0-7.0-2.44","LF","0tf06g8uzp","1366","768","0","1","0","5b98223fbdb1df0001f1e684","","null","","","learningBlock2","","","","<div style=""font-size:60px;""> </div>","null","LF","learning/Slide125.JPG","This is a bim:","","",""
"html-keyboard-response","382","369429","0.0-7.0-0.45","LF","0tf06g8uzp","1366","768","0","1","0","5b98223fbdb1df0001f1e684","","null","","","learningBlock2","","","","This is a tob:","null","","","","","",""
"image-keyboard-response","383","369756","0.0-7.0-1.45","LF","0tf06g8uzp","1366","768","0","1","0","5b98223fbdb1df0001f1e684","","null","","","","","","","learning/Slide126.JPG","null","","","","","",""
"html-keyboard-response","384","370757","0.0-7.0-2.45","LF","0tf06g8uzp","1366","768","0","1","0","5b98223fbdb1df0001f1e684","","null","","","learningBlock2","","","","<div style=""font-size:60px;""> </div>","null","LF","learning/Slide126.JPG","This is a tob:","","",""
"html-keyboard-response","385","371758","0.0-7.0-0.46","LF","0tf06g8uzp","1366","768","0","1","0","5b98223fbdb1df0001f1e684","","null","","","learningBlock2","","","","This is a dep:","null","","","","","",""
"image-keyboard-response","386","372087","0.0-7.0-1.46","LF","0tf06g8uzp","1366","768","0","1","0","5b98223fbdb1df0001f1e684","","null","","","","","","","learning/Slide127.JPG","null","","","","","",""
"html-keyboard-response","387","373089","0.0-7.0-2.46","LF","0tf06g8uzp","1366","768","0","1","0","5b98223fbdb1df0001f1e684","","null","","","learningBlock2","","","","<div style=""font-size:60px;""> </div>","null","LF","learning/Slide127.JPG","This is a dep:","","",""
"html-keyboard-response","388","374090","0.0-7.0-0.47","LF","0tf06g8uzp","1366","768","0","1","0","5b98223fbdb1df0001f1e684","","null","","","learningBlock2","","","","This is a wug:","null","","","","","",""
"image-keyboard-response","389","374417","0.0-7.0-1.47","LF","0tf06g8uzp","1366","768","0","1","0","5b98223fbdb1df0001f1e684","","null","","","","","","","learning/Slide128.JPG","null","","","","","",""
"html-keyboard-response","390","375418","0.0-7.0-2.47","LF","0tf06g8uzp","1366","768","0","1","0","5b98223fbdb1df0001f1e684","","null","","","learningBlock2","","","","<div style=""font-size:60px;""> </div>","null","LF","learning/Slide128.JPG","This is a wug:","","",""
"html-keyboard-response","391","376419","0.0-7.0-0.48","LF","0tf06g8uzp","1366","768","0","1","0","5b98223fbdb1df0001f1e684","","null","","","learningBlock2","","","","This is a tob:","null","","","","","",""
"image-keyboard-response","392","376748","0.0-7.0-1.48","LF","0tf06g8uzp","1366","768","0","1","0","5b98223fbdb1df0001f1e684","","null","","","","","","","learning/Slide129.JPG","null","","","","","",""
"html-keyboard-response","393","377750","0.0-7.0-2.48","LF","0tf06g8uzp","1366","768","0","1","0","5b98223fbdb1df0001f1e684","","null","","","learningBlock2","","","","<div style=""font-size:60px;""> </div>","null","LF","learning/Slide129.JPG","This is a tob:","","",""
"html-keyboard-response","394","378751","0.0-7.0-0.49","LF","0tf06g8uzp","1366","768","0","1","0","5b98223fbdb1df0001f1e684","","null","","","learningBlock2","","","","This is a wug:","null","","","","","",""
"image-keyboard-response","395","379080","0.0-7.0-1.49","LF","0tf06g8uzp","1366","768","0","1","0","5b98223fbdb1df0001f1e684","","null","","","","","","","learning/Slide130.JPG","null","","","","","",""
"html-keyboard-response","396","380082","0.0-7.0-2.49","LF","0tf06g8uzp","1366","768","0","1","0","5b98223fbdb1df0001f1e684","","null","","","learningBlock2","","","","<div style=""font-size:60px;""> </div>","null","LF","learning/Slide130.JPG","This is a wug:","","",""
"html-keyboard-response","397","381083","0.0-7.0-0.50","LF","0tf06g8uzp","1366","768","0","1","0","5b98223fbdb1df0001f1e684","","null","","","learningBlock2","","","","This is a bim:","null","","","","","",""
"image-keyboard-response","398","381412","0.0-7.0-1.50","LF","0tf06g8uzp","1366","768","0","1","0","5b98223fbdb1df0001f1e684","","null","","","","","","","learning/Slide131.JPG","null","","","","","",""
"html-keyboard-response","399","382414","0.0-7.0-2.50","LF","0tf06g8uzp","1366","768","0","1","0","5b98223fbdb1df0001f1e684","","null","","","learningBlock2","","","","<div style=""font-size:60px;""> </div>","null","LF","learning/Slide131.JPG","This is a bim:","","",""
"html-keyboard-response","400","383415","0.0-7.0-0.51","LF","0tf06g8uzp","1366","768","0","1","0","5b98223fbdb1df0001f1e684","","null","","","learningBlock2","","","","This is a dep:","null","","","","","",""
"image-keyboard-response","401","383744","0.0-7.0-1.51","LF","0tf06g8uzp","1366","768","0","1","0","5b98223fbdb1df0001f1e684","","null","","","","","","","learning/Slide132.JPG","null","","","","","",""
"html-keyboard-response","402","384746","0.0-7.0-2.51","LF","0tf06g8uzp","1366","768","0","1","0","5b98223fbdb1df0001f1e684","","null","","","learningBlock2","","","","<div style=""font-size:60px;""> </div>","null","LF","learning/Slide132.JPG","This is a dep:","","",""
"html-keyboard-response","403","385748","0.0-7.0-0.52","LF","0tf06g8uzp","1366","768","0","1","0","5b98223fbdb1df0001f1e684","","null","","","learningBlock2","","","","This is a tob:","null","","","","","",""
"image-keyboard-response","404","386080","0.0-7.0-1.52","LF","0tf06g8uzp","1366","768","0","1","0","5b98223fbdb1df0001f1e684","","null","","","","","","","learning/Slide133.JPG","null","","","","","",""
"html-keyboard-response","405","387082","0.0-7.0-2.52","LF","0tf06g8uzp","1366","768","0","1","0","5b98223fbdb1df0001f1e684","","null","","","learningBlock2","","","","<div style=""font-size:60px;""> </div>","null","LF","learning/Slide133.JPG","This is a tob:","","",""
"html-keyboard-response","406","388083","0.0-7.0-0.53","LF","0tf06g8uzp","1366","768","0","1","0","5b98223fbdb1df0001f1e684","","null","","","learningBlock2","","","","This is a dep:","null","","","","","",""
"image-keyboard-response","407","388412","0.0-7.0-1.53","LF","0tf06g8uzp","1366","768","0","1","0","5b98223fbdb1df0001f1e684","","null","","","","","","","learning/Slide134.JPG","null","","","","","",""
"html-keyboard-response","408","389414","0.0-7.0-2.53","LF","0tf06g8uzp","1366","768","0","1","0","5b98223fbdb1df0001f1e684","","null","","","learningBlock2","","","","<div style=""font-size:60px;""> </div>","null","LF","learning/Slide134.JPG","This is a dep:","","",""
"html-keyboard-response","409","390415","0.0-7.0-0.54","LF","0tf06g8uzp","1366","768","0","1","0","5b98223fbdb1df0001f1e684","","null","","","learningBlock2","","","","This is a tob:","null","","","","","",""
"image-keyboard-response","410","390744","0.0-7.0-1.54","LF","0tf06g8uzp","1366","768","0","1","0","5b98223fbdb1df0001f1e684","","null","","","","","","","learning/Slide135.JPG","null","","","","","",""
"html-keyboard-response","411","391747","0.0-7.0-2.54","LF","0tf06g8uzp","1366","768","0","1","0","5b98223fbdb1df0001f1e684","","null","","","learningBlock2","","","","<div style=""font-size:60px;""> </div>","null","LF","learning/Slide135.JPG","This is a tob:","","",""
"html-keyboard-response","412","392748","0.0-7.0-0.55","LF","0tf06g8uzp","1366","768","0","1","0","5b98223fbdb1df0001f1e684","","null","","","learningBlock2","","","","This is a wug:","null","","","","","",""
"image-keyboard-response","413","393077","0.0-7.0-1.55","LF","0tf06g8uzp","1366","768","0","1","0","5b98223fbdb1df0001f1e684","","null","","","","","","","learning/Slide136.JPG","null","","","","","",""
"html-keyboard-response","414","394079","0.0-7.0-2.55","LF","0tf06g8uzp","1366","768","0","1","0","5b98223fbdb1df0001f1e684","","null","","","learningBlock2","","","","<div style=""font-size:60px;""> </div>","null","LF","learning/Slide136.JPG","This is a wug:","","",""
"html-keyboard-response","415","395081","0.0-7.0-0.56","LF","0tf06g8uzp","1366","768","0","1","0","5b98223fbdb1df0001f1e684","","null","","","learningBlock2","","","","This is a tob:","null","","","","","",""
"image-keyboard-response","416","395410","0.0-7.0-1.56","LF","0tf06g8uzp","1366","768","0","1","0","5b98223fbdb1df0001f1e684","","null","","","","","","","learning/Slide137.JPG","null","","","","","",""
"html-keyboard-response","417","396413","0.0-7.0-2.56","LF","0tf06g8uzp","1366","768","0","1","0","5b98223fbdb1df0001f1e684","","null","","","learningBlock2","","","","<div style=""font-size:60px;""> </div>","null","LF","learning/Slide137.JPG","This is a tob:","","",""
"html-keyboard-response","418","397415","0.0-7.0-0.57","LF","0tf06g8uzp","1366","768","0","1","0","5b98223fbdb1df0001f1e684","","null","","","learningBlock2","","","","This is a bim:","null","","","","","",""
"image-keyboard-response","419","397744","0.0-7.0-1.57","LF","0tf06g8uzp","1366","768","0","1","0","5b98223fbdb1df0001f1e684","","null","","","","","","","learning/Slide138.JPG","null","","","","","",""
"html-keyboard-response","420","398746","0.0-7.0-2.57","LF","0tf06g8uzp","1366","768","0","1","0","5b98223fbdb1df0001f1e684","","null","","","learningBlock2","","","","<div style=""font-size:60px;""> </div>","null","LF","learning/Slide138.JPG","This is a bim:","","",""
"html-keyboard-response","421","399747","0.0-7.0-0.58","LF","0tf06g8uzp","1366","768","0","1","0","5b98223fbdb1df0001f1e684","","null","","","learningBlock2","","","","This is a wug:","null","","","","","",""
"image-keyboard-response","422","400076","0.0-7.0-1.58","LF","0tf06g8uzp","1366","768","0","1","0","5b98223fbdb1df0001f1e684","","null","","","","","","","learning/Slide139.JPG","null","","","","","",""
"html-keyboard-response","423","401078","0.0-7.0-2.58","LF","0tf06g8uzp","1366","768","0","1","0","5b98223fbdb1df0001f1e684","","null","","","learningBlock2","","","","<div style=""font-size:60px;""> </div>","null","LF","learning/Slide139.JPG","This is a wug:","","",""
"html-keyboard-response","424","402079","0.0-7.0-0.59","LF","0tf06g8uzp","1366","768","0","1","0","5b98223fbdb1df0001f1e684","","null","","","learningBlock2","","","","This is a dep:","null","","","","","",""
"image-keyboard-response","425","402406","0.0-7.0-1.59","LF","0tf06g8uzp","1366","768","0","1","0","5b98223fbdb1df0001f1e684","","null","","","","","","","learning/Slide140.JPG","null","","","","","",""
"html-keyboard-response","426","403407","0.0-7.0-2.59","LF","0tf06g8uzp","1366","768","0","1","0","5b98223fbdb1df0001f1e684","","null","","","learningBlock2","","","","<div style=""font-size:60px;""> </div>","null","LF","learning/Slide140.JPG","This is a dep:","","",""
"html-keyboard-response","427","404408","0.0-7.0-0.60","LF","0tf06g8uzp","1366","768","0","1","0","5b98223fbdb1df0001f1e684","","null","","","learningBlock2","","","","This is a tob:","null","","","","","",""
"image-keyboard-response","428","404735","0.0-7.0-1.60","LF","0tf06g8uzp","1366","768","0","1","0","5b98223fbdb1df0001f1e684","","null","","","","","","","learning/Slide141.JPG","null","","","","","",""
"html-keyboard-response","429","405736","0.0-7.0-2.60","LF","0tf06g8uzp","1366","768","0","1","0","5b98223fbdb1df0001f1e684","","null","","","learningBlock2","","","","<div style=""font-size:60px;""> </div>","null","LF","learning/Slide141.JPG","This is a tob:","","",""
"html-keyboard-response","430","406738","0.0-7.0-0.61","LF","0tf06g8uzp","1366","768","0","1","0","5b98223fbdb1df0001f1e684","","null","","","learningBlock2","","","","This is a wug:","null","","","","","",""
"image-keyboard-response","431","407065","0.0-7.0-1.61","LF","0tf06g8uzp","1366","768","0","1","0","5b98223fbdb1df0001f1e684","","null","","","","","","","learning/Slide142.JPG","null","","","","","",""
"html-keyboard-response","432","408067","0.0-7.0-2.61","LF","0tf06g8uzp","1366","768","0","1","0","5b98223fbdb1df0001f1e684","","null","","","learningBlock2","","","","<div style=""font-size:60px;""> </div>","null","LF","learning/Slide142.JPG","This is a wug:","","",""
"html-keyboard-response","433","409073","0.0-7.0-0.62","LF","0tf06g8uzp","1366","768","0","1","0","5b98223fbdb1df0001f1e684","","null","","","learningBlock2","","","","This is a bim:","null","","","","","",""
"image-keyboard-response","434","409404","0.0-7.0-1.62","LF","0tf06g8uzp","1366","768","0","1","0","5b98223fbdb1df0001f1e684","","null","","","","","","","learning/Slide143.JPG","null","","","","","",""
"html-keyboard-response","435","410407","0.0-7.0-2.62","LF","0tf06g8uzp","1366","768","0","1","0","5b98223fbdb1df0001f1e684","","null","","","learningBlock2","","","","<div style=""font-size:60px;""> </div>","null","LF","learning/Slide143.JPG","This is a bim:","","",""
"html-keyboard-response","436","411409","0.0-7.0-0.63","LF","0tf06g8uzp","1366","768","0","1","0","5b98223fbdb1df0001f1e684","","null","","","learningBlock2","","","","This is a dep:","null","","","","","",""
"image-keyboard-response","437","411738","0.0-7.0-1.63","LF","0tf06g8uzp","1366","768","0","1","0","5b98223fbdb1df0001f1e684","","null","","","","","","","learning/Slide144.JPG","null","","","","","",""
