"trial_type","trial_index","time_elapsed","internal_node_id","condition","subject","screen_width","screen_height","attention","distraction","conscientious","prolificID","success","rt","url","view_history","test_part","final_height_px","final_width_px","scale_factor","stimulus","key_press","learningType","presentedImage","presentedLabel","button_pressed","response","responses"
"pavlovia","0","4","0.0-0.0","FL","0yjn7eg9zc","1536","864","0","1","0","5f06ee44c10cab2655ea3822","","","","","","","","","","","","","","","",""
"fullscreen","1","17541","0.0-1.0","FL","0yjn7eg9zc","1536","864","0","1","0","5f06ee44c10cab2655ea3822","true","","","","","","","","","","","","","","",""
"external-html","2","36450","0.0-2.0-0.0","FL","0yjn7eg9zc","1536","864","0","1","0","5f06ee44c10cab2655ea3822","","18860.634999989998","text/information_english.html","","","","","","","","","","","","",""
"external-html","3","46193","0.0-2.0-1.0","FL","0yjn7eg9zc","1536","864","0","1","0","5f06ee44c10cab2655ea3822","","9686.954999997397","text/consent_english.html","","","","","","","","","","","","",""
"instructions","4","60681","0.0-3.0","FL","0yjn7eg9zc","1536","864","0","1","0","5f06ee44c10cab2655ea3822","","NA","","[{""page_index"":0,""viewing_time"":2326.645000008284},{""page_index"":1,""viewing_time"":12159.899999998743}]","instructions","","","","","","","","","","",""
"resize","5","94281","0.0-4.0","FL","0yjn7eg9zc","1536","864","0","1","0","5f06ee44c10cab2655ea3822","","","","","","","448","2.8444444444444446","","","","","","","",""
"image-keyboard-response","6","94466","0.0-5.0-0.0","FL","0yjn7eg9zc","1536","864","0","1","0","5f06ee44c10cab2655ea3822","","null","","","","","","","learning/Slide1.JPG","null","","","","","",""
"html-keyboard-response","7","95623","0.0-5.0-1.0","FL","0yjn7eg9zc","1536","864","0","1","0","5f06ee44c10cab2655ea3822","","null","","","learningBlock1","","","","That was a tob.","null","","","","","",""
"html-keyboard-response","8","96635","0.0-5.0-2.0","FL","0yjn7eg9zc","1536","864","0","1","0","5f06ee44c10cab2655ea3822","","null","","","learningBlock1","","","","<div style=""font-size:60px;""> </div>","null","FL","learning/Slide1.JPG","That was a tob.","","",""
"image-keyboard-response","9","96811","0.0-5.0-0.1","FL","0yjn7eg9zc","1536","864","0","1","0","5f06ee44c10cab2655ea3822","","null","","","","","","","learning/Slide2.JPG","null","","","","","",""
"html-keyboard-response","10","97964","0.0-5.0-1.1","FL","0yjn7eg9zc","1536","864","0","1","0","5f06ee44c10cab2655ea3822","","null","","","learningBlock1","","","","That was a wug.","null","","","","","",""
"html-keyboard-response","11","98969","0.0-5.0-2.1","FL","0yjn7eg9zc","1536","864","0","1","0","5f06ee44c10cab2655ea3822","","null","","","learningBlock1","","","","<div style=""font-size:60px;""> </div>","null","FL","learning/Slide2.JPG","That was a wug.","","",""
"image-keyboard-response","12","99154","0.0-5.0-0.2","FL","0yjn7eg9zc","1536","864","0","1","0","5f06ee44c10cab2655ea3822","","null","","","","","","","learning/Slide3.JPG","null","","","","","",""
"html-keyboard-response","13","100324","0.0-5.0-1.2","FL","0yjn7eg9zc","1536","864","0","1","0","5f06ee44c10cab2655ea3822","","null","","","learningBlock1","","","","That was a bim.","null","","","","","",""
"html-keyboard-response","14","101332","0.0-5.0-2.2","FL","0yjn7eg9zc","1536","864","0","1","0","5f06ee44c10cab2655ea3822","","null","","","learningBlock1","","","","<div style=""font-size:60px;""> </div>","null","FL","learning/Slide3.JPG","That was a bim.","","",""
"image-keyboard-response","15","101519","0.0-5.0-0.3","FL","0yjn7eg9zc","1536","864","0","1","0","5f06ee44c10cab2655ea3822","","null","","","","","","","learning/Slide4.JPG","null","","","","","",""
"html-keyboard-response","16","102675","0.0-5.0-1.3","FL","0yjn7eg9zc","1536","864","0","1","0","5f06ee44c10cab2655ea3822","","null","","","learningBlock1","","","","That was a dep.","null","","","","","",""
"html-keyboard-response","17","103676","0.0-5.0-2.3","FL","0yjn7eg9zc","1536","864","0","1","0","5f06ee44c10cab2655ea3822","","null","","","learningBlock1","","","","<div style=""font-size:60px;""> </div>","null","FL","learning/Slide4.JPG","That was a dep.","","",""
"image-keyboard-response","18","103861","0.0-5.0-0.4","FL","0yjn7eg9zc","1536","864","0","1","0","5f06ee44c10cab2655ea3822","","null","","","","","","","learning/Slide5.JPG","null","","","","","",""
"html-keyboard-response","19","105027","0.0-5.0-1.4","FL","0yjn7eg9zc","1536","864","0","1","0","5f06ee44c10cab2655ea3822","","null","","","learningBlock1","","","","That was a wug.","null","","","","","",""
"html-keyboard-response","20","106033","0.0-5.0-2.4","FL","0yjn7eg9zc","1536","864","0","1","0","5f06ee44c10cab2655ea3822","","null","","","learningBlock1","","","","<div style=""font-size:60px;""> </div>","null","FL","learning/Slide5.JPG","That was a wug.","","",""
"image-keyboard-response","21","106214","0.0-5.0-0.5","FL","0yjn7eg9zc","1536","864","0","1","0","5f06ee44c10cab2655ea3822","","null","","","","","","","learning/Slide6.JPG","null","","","","","",""
"html-keyboard-response","22","107393","0.0-5.0-1.5","FL","0yjn7eg9zc","1536","864","0","1","0","5f06ee44c10cab2655ea3822","","null","","","learningBlock1","","","","That was a dep.","null","","","","","",""
"html-keyboard-response","23","108401","0.0-5.0-2.5","FL","0yjn7eg9zc","1536","864","0","1","0","5f06ee44c10cab2655ea3822","","null","","","learningBlock1","","","","<div style=""font-size:60px;""> </div>","null","FL","learning/Slide6.JPG","That was a dep.","","",""
"image-keyboard-response","24","108587","0.0-5.0-0.6","FL","0yjn7eg9zc","1536","864","0","1","0","5f06ee44c10cab2655ea3822","","null","","","","","","","learning/Slide7.JPG","null","","","","","",""
"html-keyboard-response","25","109748","0.0-5.0-1.6","FL","0yjn7eg9zc","1536","864","0","1","0","5f06ee44c10cab2655ea3822","","null","","","learningBlock1","","","","That was a wug.","null","","","","","",""
"html-keyboard-response","26","110751","0.0-5.0-2.6","FL","0yjn7eg9zc","1536","864","0","1","0","5f06ee44c10cab2655ea3822","","null","","","learningBlock1","","","","<div style=""font-size:60px;""> </div>","null","FL","learning/Slide7.JPG","That was a wug.","","",""
"image-keyboard-response","27","110933","0.0-5.0-0.7","FL","0yjn7eg9zc","1536","864","0","1","0","5f06ee44c10cab2655ea3822","","null","","","","","","","learning/Slide8.JPG","null","","","","","",""
"html-keyboard-response","28","112087","0.0-5.0-1.7","FL","0yjn7eg9zc","1536","864","0","1","0","5f06ee44c10cab2655ea3822","","null","","","learningBlock1","","","","That was a bim.","null","","","","","",""
"html-keyboard-response","29","113089","0.0-5.0-2.7","FL","0yjn7eg9zc","1536","864","0","1","0","5f06ee44c10cab2655ea3822","","null","","","learningBlock1","","","","<div style=""font-size:60px;""> </div>","null","FL","learning/Slide8.JPG","That was a bim.","","",""
"image-keyboard-response","30","113276","0.0-5.0-0.8","FL","0yjn7eg9zc","1536","864","0","1","0","5f06ee44c10cab2655ea3822","","null","","","","","","","learning/Slide9.JPG","null","","","","","",""
"html-keyboard-response","31","114436","0.0-5.0-1.8","FL","0yjn7eg9zc","1536","864","0","1","0","5f06ee44c10cab2655ea3822","","null","","","learningBlock1","","","","That was a wug.","null","","","","","",""
"html-keyboard-response","32","115450","0.0-5.0-2.8","FL","0yjn7eg9zc","1536","864","0","1","0","5f06ee44c10cab2655ea3822","","null","","","learningBlock1","","","","<div style=""font-size:60px;""> </div>","null","FL","learning/Slide9.JPG","That was a wug.","","",""
"image-keyboard-response","33","115636","0.0-5.0-0.9","FL","0yjn7eg9zc","1536","864","0","1","0","5f06ee44c10cab2655ea3822","","null","","","","","","","learning/Slide10.JPG","null","","","","","",""
"html-keyboard-response","34","116806","0.0-5.0-1.9","FL","0yjn7eg9zc","1536","864","0","1","0","5f06ee44c10cab2655ea3822","","null","","","learningBlock1","","","","That was a dep.","null","","","","","",""
"html-keyboard-response","35","117821","0.0-5.0-2.9","FL","0yjn7eg9zc","1536","864","0","1","0","5f06ee44c10cab2655ea3822","","null","","","learningBlock1","","","","<div style=""font-size:60px;""> </div>","null","FL","learning/Slide10.JPG","That was a dep.","","",""
"image-keyboard-response","36","118008","0.0-5.0-0.10","FL","0yjn7eg9zc","1536","864","0","1","0","5f06ee44c10cab2655ea3822","","null","","","","","","","learning/Slide11.JPG","null","","","","","",""
"html-keyboard-response","37","119170","0.0-5.0-1.10","FL","0yjn7eg9zc","1536","864","0","1","0","5f06ee44c10cab2655ea3822","","null","","","learningBlock1","","","","That was a tob.","null","","","","","",""
"html-keyboard-response","38","120193","0.0-5.0-2.10","FL","0yjn7eg9zc","1536","864","0","1","0","5f06ee44c10cab2655ea3822","","null","","","learningBlock1","","","","<div style=""font-size:60px;""> </div>","null","FL","learning/Slide11.JPG","That was a tob.","","",""
"image-keyboard-response","39","120371","0.0-5.0-0.11","FL","0yjn7eg9zc","1536","864","0","1","0","5f06ee44c10cab2655ea3822","","null","","","","","","","learning/Slide12.JPG","null","","","","","",""
"html-keyboard-response","40","121530","0.0-5.0-1.11","FL","0yjn7eg9zc","1536","864","0","1","0","5f06ee44c10cab2655ea3822","","null","","","learningBlock1","","","","That was a dep.","null","","","","","",""
"html-keyboard-response","41","122542","0.0-5.0-2.11","FL","0yjn7eg9zc","1536","864","0","1","0","5f06ee44c10cab2655ea3822","","null","","","learningBlock1","","","","<div style=""font-size:60px;""> </div>","null","FL","learning/Slide12.JPG","That was a dep.","","",""
"image-keyboard-response","42","122729","0.0-5.0-0.12","FL","0yjn7eg9zc","1536","864","0","1","0","5f06ee44c10cab2655ea3822","","null","","","","","","","learning/Slide13.JPG","null","","","","","",""
"html-keyboard-response","43","123902","0.0-5.0-1.12","FL","0yjn7eg9zc","1536","864","0","1","0","5f06ee44c10cab2655ea3822","","null","","","learningBlock1","","","","That was a bim.","null","","","","","",""
"html-keyboard-response","44","124914","0.0-5.0-2.12","FL","0yjn7eg9zc","1536","864","0","1","0","5f06ee44c10cab2655ea3822","","null","","","learningBlock1","","","","<div style=""font-size:60px;""> </div>","null","FL","learning/Slide13.JPG","That was a bim.","","",""
"image-keyboard-response","45","125099","0.0-5.0-0.13","FL","0yjn7eg9zc","1536","864","0","1","0","5f06ee44c10cab2655ea3822","","null","","","","","","","learning/Slide14.JPG","null","","","","","",""
"html-keyboard-response","46","126256","0.0-5.0-1.13","FL","0yjn7eg9zc","1536","864","0","1","0","5f06ee44c10cab2655ea3822","","null","","","learningBlock1","","","","That was a wug.","null","","","","","",""
"html-keyboard-response","47","127263","0.0-5.0-2.13","FL","0yjn7eg9zc","1536","864","0","1","0","5f06ee44c10cab2655ea3822","","null","","","learningBlock1","","","","<div style=""font-size:60px;""> </div>","null","FL","learning/Slide14.JPG","That was a wug.","","",""
"image-keyboard-response","48","127447","0.0-5.0-0.14","FL","0yjn7eg9zc","1536","864","0","1","0","5f06ee44c10cab2655ea3822","","null","","","","","","","learning/Slide15.JPG","null","","","","","",""
"html-keyboard-response","49","128613","0.0-5.0-1.14","FL","0yjn7eg9zc","1536","864","0","1","0","5f06ee44c10cab2655ea3822","","null","","","learningBlock1","","","","That was a tob.","null","","","","","",""
"html-keyboard-response","50","129617","0.0-5.0-2.14","FL","0yjn7eg9zc","1536","864","0","1","0","5f06ee44c10cab2655ea3822","","null","","","learningBlock1","","","","<div style=""font-size:60px;""> </div>","null","FL","learning/Slide15.JPG","That was a tob.","","",""
"image-keyboard-response","51","129802","0.0-5.0-0.15","FL","0yjn7eg9zc","1536","864","0","1","0","5f06ee44c10cab2655ea3822","","null","","","","","","","learning/Slide16.JPG","null","","","","","",""
"html-keyboard-response","52","130971","0.0-5.0-1.15","FL","0yjn7eg9zc","1536","864","0","1","0","5f06ee44c10cab2655ea3822","","null","","","learningBlock1","","","","That was a dep.","null","","","","","",""
"html-keyboard-response","53","131983","0.0-5.0-2.15","FL","0yjn7eg9zc","1536","864","0","1","0","5f06ee44c10cab2655ea3822","","null","","","learningBlock1","","","","<div style=""font-size:60px;""> </div>","null","FL","learning/Slide16.JPG","That was a dep.","","",""
"image-keyboard-response","54","132167","0.0-5.0-0.16","FL","0yjn7eg9zc","1536","864","0","1","0","5f06ee44c10cab2655ea3822","","null","","","","","","","learning/Slide17.JPG","null","","","","","",""
"html-keyboard-response","55","133336","0.0-5.0-1.16","FL","0yjn7eg9zc","1536","864","0","1","0","5f06ee44c10cab2655ea3822","","null","","","learningBlock1","","","","That was a bim.","null","","","","","",""
"html-keyboard-response","56","134339","0.0-5.0-2.16","FL","0yjn7eg9zc","1536","864","0","1","0","5f06ee44c10cab2655ea3822","","null","","","learningBlock1","","","","<div style=""font-size:60px;""> </div>","null","FL","learning/Slide17.JPG","That was a bim.","","",""
"image-keyboard-response","57","134527","0.0-5.0-0.17","FL","0yjn7eg9zc","1536","864","0","1","0","5f06ee44c10cab2655ea3822","","null","","","","","","","learning/Slide18.JPG","null","","","","","",""
"html-keyboard-response","58","135684","0.0-5.0-1.17","FL","0yjn7eg9zc","1536","864","0","1","0","5f06ee44c10cab2655ea3822","","null","","","learningBlock1","","","","That was a tob.","null","","","","","",""
"html-keyboard-response","59","136698","0.0-5.0-2.17","FL","0yjn7eg9zc","1536","864","0","1","0","5f06ee44c10cab2655ea3822","","null","","","learningBlock1","","","","<div style=""font-size:60px;""> </div>","null","FL","learning/Slide18.JPG","That was a tob.","","",""
"image-keyboard-response","60","136884","0.0-5.0-0.18","FL","0yjn7eg9zc","1536","864","0","1","0","5f06ee44c10cab2655ea3822","","null","","","","","","","learning/Slide19.JPG","null","","","","","",""
"html-keyboard-response","61","138055","0.0-5.0-1.18","FL","0yjn7eg9zc","1536","864","0","1","0","5f06ee44c10cab2655ea3822","","null","","","learningBlock1","","","","That was a wug.","null","","","","","",""
"html-keyboard-response","62","139071","0.0-5.0-2.18","FL","0yjn7eg9zc","1536","864","0","1","0","5f06ee44c10cab2655ea3822","","null","","","learningBlock1","","","","<div style=""font-size:60px;""> </div>","null","FL","learning/Slide19.JPG","That was a wug.","","",""
"image-keyboard-response","63","139256","0.0-5.0-0.19","FL","0yjn7eg9zc","1536","864","0","1","0","5f06ee44c10cab2655ea3822","","null","","","","","","","learning/Slide20.JPG","null","","","","","",""
"html-keyboard-response","64","140419","0.0-5.0-1.19","FL","0yjn7eg9zc","1536","864","0","1","0","5f06ee44c10cab2655ea3822","","null","","","learningBlock1","","","","That was a bim.","null","","","","","",""
"html-keyboard-response","65","141426","0.0-5.0-2.19","FL","0yjn7eg9zc","1536","864","0","1","0","5f06ee44c10cab2655ea3822","","null","","","learningBlock1","","","","<div style=""font-size:60px;""> </div>","null","FL","learning/Slide20.JPG","That was a bim.","","",""
"image-keyboard-response","66","141611","0.0-5.0-0.20","FL","0yjn7eg9zc","1536","864","0","1","0","5f06ee44c10cab2655ea3822","","null","","","","","","","learning/Slide21.JPG","null","","","","","",""
"html-keyboard-response","67","142782","0.0-5.0-1.20","FL","0yjn7eg9zc","1536","864","0","1","0","5f06ee44c10cab2655ea3822","","null","","","learningBlock1","","","","That was a dep.","null","","","","","",""
"html-keyboard-response","68","143792","0.0-5.0-2.20","FL","0yjn7eg9zc","1536","864","0","1","0","5f06ee44c10cab2655ea3822","","null","","","learningBlock1","","","","<div style=""font-size:60px;""> </div>","null","FL","learning/Slide21.JPG","That was a dep.","","",""
"image-keyboard-response","69","143977","0.0-5.0-0.21","FL","0yjn7eg9zc","1536","864","0","1","0","5f06ee44c10cab2655ea3822","","null","","","","","","","learning/Slide22.JPG","null","","","","","",""
"html-keyboard-response","70","145138","0.0-5.0-1.21","FL","0yjn7eg9zc","1536","864","0","1","0","5f06ee44c10cab2655ea3822","","null","","","learningBlock1","","","","That was a bim.","null","","","","","",""
"html-keyboard-response","71","146147","0.0-5.0-2.21","FL","0yjn7eg9zc","1536","864","0","1","0","5f06ee44c10cab2655ea3822","","null","","","learningBlock1","","","","<div style=""font-size:60px;""> </div>","null","FL","learning/Slide22.JPG","That was a bim.","","",""
"image-keyboard-response","72","146334","0.0-5.0-0.22","FL","0yjn7eg9zc","1536","864","0","1","0","5f06ee44c10cab2655ea3822","","null","","","","","","","learning/Slide23.JPG","null","","","","","",""
"html-keyboard-response","73","147494","0.0-5.0-1.22","FL","0yjn7eg9zc","1536","864","0","1","0","5f06ee44c10cab2655ea3822","","null","","","learningBlock1","","","","That was a tob.","null","","","","","",""
"html-keyboard-response","74","148504","0.0-5.0-2.22","FL","0yjn7eg9zc","1536","864","0","1","0","5f06ee44c10cab2655ea3822","","null","","","learningBlock1","","","","<div style=""font-size:60px;""> </div>","null","FL","learning/Slide23.JPG","That was a tob.","","",""
"image-keyboard-response","75","148690","0.0-5.0-0.23","FL","0yjn7eg9zc","1536","864","0","1","0","5f06ee44c10cab2655ea3822","","null","","","","","","","learning/Slide24.JPG","null","","","","","",""
"html-keyboard-response","76","149850","0.0-5.0-1.23","FL","0yjn7eg9zc","1536","864","0","1","0","5f06ee44c10cab2655ea3822","","null","","","learningBlock1","","","","That was a wug.","null","","","","","",""
"html-keyboard-response","77","150866","0.0-5.0-2.23","FL","0yjn7eg9zc","1536","864","0","1","0","5f06ee44c10cab2655ea3822","","null","","","learningBlock1","","","","<div style=""font-size:60px;""> </div>","null","FL","learning/Slide24.JPG","That was a wug.","","",""
"image-keyboard-response","78","151050","0.0-5.0-0.24","FL","0yjn7eg9zc","1536","864","0","1","0","5f06ee44c10cab2655ea3822","","null","","","","","","","learning/Slide25.JPG","null","","","","","",""
"html-keyboard-response","79","152228","0.0-5.0-1.24","FL","0yjn7eg9zc","1536","864","0","1","0","5f06ee44c10cab2655ea3822","","null","","","learningBlock1","","","","That was a dep.","null","","","","","",""
"html-keyboard-response","80","153236","0.0-5.0-2.24","FL","0yjn7eg9zc","1536","864","0","1","0","5f06ee44c10cab2655ea3822","","null","","","learningBlock1","","","","<div style=""font-size:60px;""> </div>","null","FL","learning/Slide25.JPG","That was a dep.","","",""
"image-keyboard-response","81","153420","0.0-5.0-0.25","FL","0yjn7eg9zc","1536","864","0","1","0","5f06ee44c10cab2655ea3822","","null","","","","","","","learning/Slide26.JPG","null","","","","","",""
"html-keyboard-response","82","154598","0.0-5.0-1.25","FL","0yjn7eg9zc","1536","864","0","1","0","5f06ee44c10cab2655ea3822","","null","","","learningBlock1","","","","That was a wug.","null","","","","","",""
"html-keyboard-response","83","155620","0.0-5.0-2.25","FL","0yjn7eg9zc","1536","864","0","1","0","5f06ee44c10cab2655ea3822","","null","","","learningBlock1","","","","<div style=""font-size:60px;""> </div>","null","FL","learning/Slide26.JPG","That was a wug.","","",""
"image-keyboard-response","84","155798","0.0-5.0-0.26","FL","0yjn7eg9zc","1536","864","0","1","0","5f06ee44c10cab2655ea3822","","null","","","","","","","learning/Slide27.JPG","null","","","","","",""
"html-keyboard-response","85","156956","0.0-5.0-1.26","FL","0yjn7eg9zc","1536","864","0","1","0","5f06ee44c10cab2655ea3822","","null","","","learningBlock1","","","","That was a bim.","null","","","","","",""
"html-keyboard-response","86","157967","0.0-5.0-2.26","FL","0yjn7eg9zc","1536","864","0","1","0","5f06ee44c10cab2655ea3822","","null","","","learningBlock1","","","","<div style=""font-size:60px;""> </div>","null","FL","learning/Slide27.JPG","That was a bim.","","",""
"image-keyboard-response","87","158151","0.0-5.0-0.27","FL","0yjn7eg9zc","1536","864","0","1","0","5f06ee44c10cab2655ea3822","","null","","","","","","","learning/Slide28.JPG","null","","","","","",""
"html-keyboard-response","88","159313","0.0-5.0-1.27","FL","0yjn7eg9zc","1536","864","0","1","0","5f06ee44c10cab2655ea3822","","null","","","learningBlock1","","","","That was a dep.","null","","","","","",""
"html-keyboard-response","89","160329","0.0-5.0-2.27","FL","0yjn7eg9zc","1536","864","0","1","0","5f06ee44c10cab2655ea3822","","null","","","learningBlock1","","","","<div style=""font-size:60px;""> </div>","null","FL","learning/Slide28.JPG","That was a dep.","","",""
"image-keyboard-response","90","160519","0.0-5.0-0.28","FL","0yjn7eg9zc","1536","864","0","1","0","5f06ee44c10cab2655ea3822","","null","","","","","","","learning/Slide29.JPG","null","","","","","",""
"html-keyboard-response","91","161695","0.0-5.0-1.28","FL","0yjn7eg9zc","1536","864","0","1","0","5f06ee44c10cab2655ea3822","","null","","","learningBlock1","","","","That was a tob.","null","","","","","",""
"html-keyboard-response","92","162700","0.0-5.0-2.28","FL","0yjn7eg9zc","1536","864","0","1","0","5f06ee44c10cab2655ea3822","","null","","","learningBlock1","","","","<div style=""font-size:60px;""> </div>","null","FL","learning/Slide29.JPG","That was a tob.","","",""
"image-keyboard-response","93","162886","0.0-5.0-0.29","FL","0yjn7eg9zc","1536","864","0","1","0","5f06ee44c10cab2655ea3822","","null","","","","","","","learning/Slide30.JPG","null","","","","","",""
"html-keyboard-response","94","164053","0.0-5.0-1.29","FL","0yjn7eg9zc","1536","864","0","1","0","5f06ee44c10cab2655ea3822","","null","","","learningBlock1","","","","That was a dep.","null","","","","","",""
"html-keyboard-response","95","165056","0.0-5.0-2.29","FL","0yjn7eg9zc","1536","864","0","1","0","5f06ee44c10cab2655ea3822","","null","","","learningBlock1","","","","<div style=""font-size:60px;""> </div>","null","FL","learning/Slide30.JPG","That was a dep.","","",""
"image-keyboard-response","96","165234","0.0-5.0-0.30","FL","0yjn7eg9zc","1536","864","0","1","0","5f06ee44c10cab2655ea3822","","null","","","","","","","learning/Slide31.JPG","null","","","","","",""
"html-keyboard-response","97","166404","0.0-5.0-1.30","FL","0yjn7eg9zc","1536","864","0","1","0","5f06ee44c10cab2655ea3822","","null","","","learningBlock1","","","","That was a wug.","null","","","","","",""
"html-keyboard-response","98","167426","0.0-5.0-2.30","FL","0yjn7eg9zc","1536","864","0","1","0","5f06ee44c10cab2655ea3822","","null","","","learningBlock1","","","","<div style=""font-size:60px;""> </div>","null","FL","learning/Slide31.JPG","That was a wug.","","",""
"image-keyboard-response","99","167604","0.0-5.0-0.31","FL","0yjn7eg9zc","1536","864","0","1","0","5f06ee44c10cab2655ea3822","","null","","","","","","","learning/Slide32.JPG","null","","","","","",""
"html-keyboard-response","100","168766","0.0-5.0-1.31","FL","0yjn7eg9zc","1536","864","0","1","0","5f06ee44c10cab2655ea3822","","null","","","learningBlock1","","","","That was a tob.","null","","","","","",""
"html-keyboard-response","101","169776","0.0-5.0-2.31","FL","0yjn7eg9zc","1536","864","0","1","0","5f06ee44c10cab2655ea3822","","null","","","learningBlock1","","","","<div style=""font-size:60px;""> </div>","null","FL","learning/Slide32.JPG","That was a tob.","","",""
"image-keyboard-response","102","169960","0.0-5.0-0.32","FL","0yjn7eg9zc","1536","864","0","1","0","5f06ee44c10cab2655ea3822","","null","","","","","","","learning/Slide33.JPG","null","","","","","",""
"html-keyboard-response","103","171131","0.0-5.0-1.32","FL","0yjn7eg9zc","1536","864","0","1","0","5f06ee44c10cab2655ea3822","","null","","","learningBlock1","","","","That was a bim.","null","","","","","",""
"html-keyboard-response","104","172147","0.0-5.0-2.32","FL","0yjn7eg9zc","1536","864","0","1","0","5f06ee44c10cab2655ea3822","","null","","","learningBlock1","","","","<div style=""font-size:60px;""> </div>","null","FL","learning/Slide33.JPG","That was a bim.","","",""
"image-keyboard-response","105","172333","0.0-5.0-0.33","FL","0yjn7eg9zc","1536","864","0","1","0","5f06ee44c10cab2655ea3822","","null","","","","","","","learning/Slide34.JPG","null","","","","","",""
"html-keyboard-response","106","173494","0.0-5.0-1.33","FL","0yjn7eg9zc","1536","864","0","1","0","5f06ee44c10cab2655ea3822","","null","","","learningBlock1","","","","That was a tob.","null","","","","","",""
"html-keyboard-response","107","174506","0.0-5.0-2.33","FL","0yjn7eg9zc","1536","864","0","1","0","5f06ee44c10cab2655ea3822","","null","","","learningBlock1","","","","<div style=""font-size:60px;""> </div>","null","FL","learning/Slide34.JPG","That was a tob.","","",""
"image-keyboard-response","108","174693","0.0-5.0-0.34","FL","0yjn7eg9zc","1536","864","0","1","0","5f06ee44c10cab2655ea3822","","null","","","","","","","learning/Slide35.JPG","null","","","","","",""
"html-keyboard-response","109","175850","0.0-5.0-1.34","FL","0yjn7eg9zc","1536","864","0","1","0","5f06ee44c10cab2655ea3822","","null","","","learningBlock1","","","","That was a bim.","null","","","","","",""
"html-keyboard-response","110","176865","0.0-5.0-2.34","FL","0yjn7eg9zc","1536","864","0","1","0","5f06ee44c10cab2655ea3822","","null","","","learningBlock1","","","","<div style=""font-size:60px;""> </div>","null","FL","learning/Slide35.JPG","That was a bim.","","",""
"image-keyboard-response","111","177050","0.0-5.0-0.35","FL","0yjn7eg9zc","1536","864","0","1","0","5f06ee44c10cab2655ea3822","","null","","","","","","","learning/Slide36.JPG","null","","","","","",""
"html-keyboard-response","112","178213","0.0-5.0-1.35","FL","0yjn7eg9zc","1536","864","0","1","0","5f06ee44c10cab2655ea3822","","null","","","learningBlock1","","","","That was a dep.","null","","","","","",""
"html-keyboard-response","113","179236","0.0-5.0-2.35","FL","0yjn7eg9zc","1536","864","0","1","0","5f06ee44c10cab2655ea3822","","null","","","learningBlock1","","","","<div style=""font-size:60px;""> </div>","null","FL","learning/Slide36.JPG","That was a dep.","","",""
"image-keyboard-response","114","179415","0.0-5.0-0.36","FL","0yjn7eg9zc","1536","864","0","1","0","5f06ee44c10cab2655ea3822","","null","","","","","","","learning/Slide37.JPG","null","","","","","",""
"html-keyboard-response","115","180574","0.0-5.0-1.36","FL","0yjn7eg9zc","1536","864","0","1","0","5f06ee44c10cab2655ea3822","","null","","","learningBlock1","","","","That was a tob.","null","","","","","",""
"html-keyboard-response","116","181586","0.0-5.0-2.36","FL","0yjn7eg9zc","1536","864","0","1","0","5f06ee44c10cab2655ea3822","","null","","","learningBlock1","","","","<div style=""font-size:60px;""> </div>","null","FL","learning/Slide37.JPG","That was a tob.","","",""
"image-keyboard-response","117","181770","0.0-5.0-0.37","FL","0yjn7eg9zc","1536","864","0","1","0","5f06ee44c10cab2655ea3822","","null","","","","","","","learning/Slide38.JPG","null","","","","","",""
"html-keyboard-response","118","182942","0.0-5.0-1.37","FL","0yjn7eg9zc","1536","864","0","1","0","5f06ee44c10cab2655ea3822","","null","","","learningBlock1","","","","That was a wug.","null","","","","","",""
"html-keyboard-response","119","183956","0.0-5.0-2.37","FL","0yjn7eg9zc","1536","864","0","1","0","5f06ee44c10cab2655ea3822","","null","","","learningBlock1","","","","<div style=""font-size:60px;""> </div>","null","FL","learning/Slide38.JPG","That was a wug.","","",""
"image-keyboard-response","120","184141","0.0-5.0-0.38","FL","0yjn7eg9zc","1536","864","0","1","0","5f06ee44c10cab2655ea3822","","null","","","","","","","learning/Slide39.JPG","null","","","","","",""
"html-keyboard-response","121","185304","0.0-5.0-1.38","FL","0yjn7eg9zc","1536","864","0","1","0","5f06ee44c10cab2655ea3822","","null","","","learningBlock1","","","","That was a bim.","null","","","","","",""
"html-keyboard-response","122","186312","0.0-5.0-2.38","FL","0yjn7eg9zc","1536","864","0","1","0","5f06ee44c10cab2655ea3822","","null","","","learningBlock1","","","","<div style=""font-size:60px;""> </div>","null","FL","learning/Slide39.JPG","That was a bim.","","",""
"image-keyboard-response","123","186498","0.0-5.0-0.39","FL","0yjn7eg9zc","1536","864","0","1","0","5f06ee44c10cab2655ea3822","","null","","","","","","","learning/Slide40.JPG","null","","","","","",""
"html-keyboard-response","124","187659","0.0-5.0-1.39","FL","0yjn7eg9zc","1536","864","0","1","0","5f06ee44c10cab2655ea3822","","null","","","learningBlock1","","","","That was a tob.","null","","","","","",""
"html-keyboard-response","125","188669","0.0-5.0-2.39","FL","0yjn7eg9zc","1536","864","0","1","0","5f06ee44c10cab2655ea3822","","null","","","learningBlock1","","","","<div style=""font-size:60px;""> </div>","null","FL","learning/Slide40.JPG","That was a tob.","","",""
"image-keyboard-response","126","188854","0.0-5.0-0.40","FL","0yjn7eg9zc","1536","864","0","1","0","5f06ee44c10cab2655ea3822","","null","","","","","","","learning/Slide41.JPG","null","","","","","",""
"html-keyboard-response","127","190023","0.0-5.0-1.40","FL","0yjn7eg9zc","1536","864","0","1","0","5f06ee44c10cab2655ea3822","","null","","","learningBlock1","","","","That was a bim.","null","","","","","",""
"html-keyboard-response","128","191029","0.0-5.0-2.40","FL","0yjn7eg9zc","1536","864","0","1","0","5f06ee44c10cab2655ea3822","","null","","","learningBlock1","","","","<div style=""font-size:60px;""> </div>","null","FL","learning/Slide41.JPG","That was a bim.","","",""
"image-keyboard-response","129","191213","0.0-5.0-0.41","FL","0yjn7eg9zc","1536","864","0","1","0","5f06ee44c10cab2655ea3822","","null","","","","","","","learning/Slide42.JPG","null","","","","","",""
"html-keyboard-response","130","192379","0.0-5.0-1.41","FL","0yjn7eg9zc","1536","864","0","1","0","5f06ee44c10cab2655ea3822","","null","","","learningBlock1","","","","That was a dep.","null","","","","","",""
"html-keyboard-response","131","193382","0.0-5.0-2.41","FL","0yjn7eg9zc","1536","864","0","1","0","5f06ee44c10cab2655ea3822","","null","","","learningBlock1","","","","<div style=""font-size:60px;""> </div>","null","FL","learning/Slide42.JPG","That was a dep.","","",""
"image-keyboard-response","132","193564","0.0-5.0-0.42","FL","0yjn7eg9zc","1536","864","0","1","0","5f06ee44c10cab2655ea3822","","null","","","","","","","learning/Slide43.JPG","null","","","","","",""
"html-keyboard-response","133","194737","0.0-5.0-1.42","FL","0yjn7eg9zc","1536","864","0","1","0","5f06ee44c10cab2655ea3822","","null","","","learningBlock1","","","","That was a wug.","null","","","","","",""
"html-keyboard-response","134","195748","0.0-5.0-2.42","FL","0yjn7eg9zc","1536","864","0","1","0","5f06ee44c10cab2655ea3822","","null","","","learningBlock1","","","","<div style=""font-size:60px;""> </div>","null","FL","learning/Slide43.JPG","That was a wug.","","",""
"image-keyboard-response","135","195926","0.0-5.0-0.43","FL","0yjn7eg9zc","1536","864","0","1","0","5f06ee44c10cab2655ea3822","","null","","","","","","","learning/Slide44.JPG","null","","","","","",""
"html-keyboard-response","136","197082","0.0-5.0-1.43","FL","0yjn7eg9zc","1536","864","0","1","0","5f06ee44c10cab2655ea3822","","null","","","learningBlock1","","","","That was a bim.","null","","","","","",""
"html-keyboard-response","137","198095","0.0-5.0-2.43","FL","0yjn7eg9zc","1536","864","0","1","0","5f06ee44c10cab2655ea3822","","null","","","learningBlock1","","","","<div style=""font-size:60px;""> </div>","null","FL","learning/Slide44.JPG","That was a bim.","","",""
"image-keyboard-response","138","198279","0.0-5.0-0.44","FL","0yjn7eg9zc","1536","864","0","1","0","5f06ee44c10cab2655ea3822","","null","","","","","","","learning/Slide45.JPG","null","","","","","",""
"html-keyboard-response","139","199461","0.0-5.0-1.44","FL","0yjn7eg9zc","1536","864","0","1","0","5f06ee44c10cab2655ea3822","","null","","","learningBlock1","","","","That was a wug.","null","","","","","",""
"html-keyboard-response","140","200473","0.0-5.0-2.44","FL","0yjn7eg9zc","1536","864","0","1","0","5f06ee44c10cab2655ea3822","","null","","","learningBlock1","","","","<div style=""font-size:60px;""> </div>","null","FL","learning/Slide45.JPG","That was a wug.","","",""
"image-keyboard-response","141","200664","0.0-5.0-0.45","FL","0yjn7eg9zc","1536","864","0","1","0","5f06ee44c10cab2655ea3822","","null","","","","","","","learning/Slide46.JPG","null","","","","","",""
"html-keyboard-response","142","201834","0.0-5.0-1.45","FL","0yjn7eg9zc","1536","864","0","1","0","5f06ee44c10cab2655ea3822","","null","","","learningBlock1","","","","That was a dep.","null","","","","","",""
"html-keyboard-response","143","202851","0.0-5.0-2.45","FL","0yjn7eg9zc","1536","864","0","1","0","5f06ee44c10cab2655ea3822","","null","","","learningBlock1","","","","<div style=""font-size:60px;""> </div>","null","FL","learning/Slide46.JPG","That was a dep.","","",""
"image-keyboard-response","144","203030","0.0-5.0-0.46","FL","0yjn7eg9zc","1536","864","0","1","0","5f06ee44c10cab2655ea3822","","null","","","","","","","learning/Slide47.JPG","null","","","","","",""
"html-keyboard-response","145","204198","0.0-5.0-1.46","FL","0yjn7eg9zc","1536","864","0","1","0","5f06ee44c10cab2655ea3822","","null","","","learningBlock1","","","","That was a tob.","null","","","","","",""
"html-keyboard-response","146","205202","0.0-5.0-2.46","FL","0yjn7eg9zc","1536","864","0","1","0","5f06ee44c10cab2655ea3822","","null","","","learningBlock1","","","","<div style=""font-size:60px;""> </div>","null","FL","learning/Slide47.JPG","That was a tob.","","",""
"image-keyboard-response","147","205387","0.0-5.0-0.47","FL","0yjn7eg9zc","1536","864","0","1","0","5f06ee44c10cab2655ea3822","","null","","","","","","","learning/Slide48.JPG","null","","","","","",""
"html-keyboard-response","148","206556","0.0-5.0-1.47","FL","0yjn7eg9zc","1536","864","0","1","0","5f06ee44c10cab2655ea3822","","null","","","learningBlock1","","","","That was a bim.","null","","","","","",""
"html-keyboard-response","149","207572","0.0-5.0-2.47","FL","0yjn7eg9zc","1536","864","0","1","0","5f06ee44c10cab2655ea3822","","null","","","learningBlock1","","","","<div style=""font-size:60px;""> </div>","null","FL","learning/Slide48.JPG","That was a bim.","","",""
"image-keyboard-response","150","207758","0.0-5.0-0.48","FL","0yjn7eg9zc","1536","864","0","1","0","5f06ee44c10cab2655ea3822","","null","","","","","","","learning/Slide49.JPG","null","","","","","",""
"html-keyboard-response","151","208934","0.0-5.0-1.48","FL","0yjn7eg9zc","1536","864","0","1","0","5f06ee44c10cab2655ea3822","","null","","","learningBlock1","","","","That was a dep.","null","","","","","",""
"html-keyboard-response","152","209936","0.0-5.0-2.48","FL","0yjn7eg9zc","1536","864","0","1","0","5f06ee44c10cab2655ea3822","","null","","","learningBlock1","","","","<div style=""font-size:60px;""> </div>","null","FL","learning/Slide49.JPG","That was a dep.","","",""
"image-keyboard-response","153","210121","0.0-5.0-0.49","FL","0yjn7eg9zc","1536","864","0","1","0","5f06ee44c10cab2655ea3822","","null","","","","","","","learning/Slide50.JPG","null","","","","","",""
"html-keyboard-response","154","211275","0.0-5.0-1.49","FL","0yjn7eg9zc","1536","864","0","1","0","5f06ee44c10cab2655ea3822","","null","","","learningBlock1","","","","That was a tob.","null","","","","","",""
"html-keyboard-response","155","212284","0.0-5.0-2.49","FL","0yjn7eg9zc","1536","864","0","1","0","5f06ee44c10cab2655ea3822","","null","","","learningBlock1","","","","<div style=""font-size:60px;""> </div>","null","FL","learning/Slide50.JPG","That was a tob.","","",""
"image-keyboard-response","156","212471","0.0-5.0-0.50","FL","0yjn7eg9zc","1536","864","0","1","0","5f06ee44c10cab2655ea3822","","null","","","","","","","learning/Slide51.JPG","null","","","","","",""
"html-keyboard-response","157","213638","0.0-5.0-1.50","FL","0yjn7eg9zc","1536","864","0","1","0","5f06ee44c10cab2655ea3822","","null","","","learningBlock1","","","","That was a bim.","null","","","","","",""
"html-keyboard-response","158","214639","0.0-5.0-2.50","FL","0yjn7eg9zc","1536","864","0","1","0","5f06ee44c10cab2655ea3822","","null","","","learningBlock1","","","","<div style=""font-size:60px;""> </div>","null","FL","learning/Slide51.JPG","That was a bim.","","",""
"image-keyboard-response","159","214821","0.0-5.0-0.51","FL","0yjn7eg9zc","1536","864","0","1","0","5f06ee44c10cab2655ea3822","","null","","","","","","","learning/Slide52.JPG","null","","","","","",""
"html-keyboard-response","160","215993","0.0-5.0-1.51","FL","0yjn7eg9zc","1536","864","0","1","0","5f06ee44c10cab2655ea3822","","null","","","learningBlock1","","","","That was a wug.","null","","","","","",""
"html-keyboard-response","161","217000","0.0-5.0-2.51","FL","0yjn7eg9zc","1536","864","0","1","0","5f06ee44c10cab2655ea3822","","null","","","learningBlock1","","","","<div style=""font-size:60px;""> </div>","null","FL","learning/Slide52.JPG","That was a wug.","","",""
"image-keyboard-response","162","217183","0.0-5.0-0.52","FL","0yjn7eg9zc","1536","864","0","1","0","5f06ee44c10cab2655ea3822","","null","","","","","","","learning/Slide53.JPG","null","","","","","",""
"html-keyboard-response","163","218348","0.0-5.0-1.52","FL","0yjn7eg9zc","1536","864","0","1","0","5f06ee44c10cab2655ea3822","","null","","","learningBlock1","","","","That was a tob.","null","","","","","",""
"html-keyboard-response","164","219356","0.0-5.0-2.52","FL","0yjn7eg9zc","1536","864","0","1","0","5f06ee44c10cab2655ea3822","","null","","","learningBlock1","","","","<div style=""font-size:60px;""> </div>","null","FL","learning/Slide53.JPG","That was a tob.","","",""
"image-keyboard-response","165","219542","0.0-5.0-0.53","FL","0yjn7eg9zc","1536","864","0","1","0","5f06ee44c10cab2655ea3822","","null","","","","","","","learning/Slide54.JPG","null","","","","","",""
"html-keyboard-response","166","220696","0.0-5.0-1.53","FL","0yjn7eg9zc","1536","864","0","1","0","5f06ee44c10cab2655ea3822","","null","","","learningBlock1","","","","That was a dep.","null","","","","","",""
"html-keyboard-response","167","221712","0.0-5.0-2.53","FL","0yjn7eg9zc","1536","864","0","1","0","5f06ee44c10cab2655ea3822","","null","","","learningBlock1","","","","<div style=""font-size:60px;""> </div>","null","FL","learning/Slide54.JPG","That was a dep.","","",""
"image-keyboard-response","168","221897","0.0-5.0-0.54","FL","0yjn7eg9zc","1536","864","0","1","0","5f06ee44c10cab2655ea3822","","null","","","","","","","learning/Slide55.JPG","null","","","","","",""
"html-keyboard-response","169","223066","0.0-5.0-1.54","FL","0yjn7eg9zc","1536","864","0","1","0","5f06ee44c10cab2655ea3822","","null","","","learningBlock1","","","","That was a bim.","null","","","","","",""
"html-keyboard-response","170","224082","0.0-5.0-2.54","FL","0yjn7eg9zc","1536","864","0","1","0","5f06ee44c10cab2655ea3822","","null","","","learningBlock1","","","","<div style=""font-size:60px;""> </div>","null","FL","learning/Slide55.JPG","That was a bim.","","",""
"image-keyboard-response","171","224266","0.0-5.0-0.55","FL","0yjn7eg9zc","1536","864","0","1","0","5f06ee44c10cab2655ea3822","","null","","","","","","","learning/Slide56.JPG","null","","","","","",""
"html-keyboard-response","172","225431","0.0-5.0-1.55","FL","0yjn7eg9zc","1536","864","0","1","0","5f06ee44c10cab2655ea3822","","null","","","learningBlock1","","","","That was a tob.","null","","","","","",""
"html-keyboard-response","173","226447","0.0-5.0-2.55","FL","0yjn7eg9zc","1536","864","0","1","0","5f06ee44c10cab2655ea3822","","null","","","learningBlock1","","","","<div style=""font-size:60px;""> </div>","null","FL","learning/Slide56.JPG","That was a tob.","","",""
"image-keyboard-response","174","226632","0.0-5.0-0.56","FL","0yjn7eg9zc","1536","864","0","1","0","5f06ee44c10cab2655ea3822","","null","","","","","","","learning/Slide57.JPG","null","","","","","",""
"html-keyboard-response","175","227786","0.0-5.0-1.56","FL","0yjn7eg9zc","1536","864","0","1","0","5f06ee44c10cab2655ea3822","","null","","","learningBlock1","","","","That was a dep.","null","","","","","",""
"html-keyboard-response","176","228789","0.0-5.0-2.56","FL","0yjn7eg9zc","1536","864","0","1","0","5f06ee44c10cab2655ea3822","","null","","","learningBlock1","","","","<div style=""font-size:60px;""> </div>","null","FL","learning/Slide57.JPG","That was a dep.","","",""
"image-keyboard-response","177","228975","0.0-5.0-0.57","FL","0yjn7eg9zc","1536","864","0","1","0","5f06ee44c10cab2655ea3822","","null","","","","","","","learning/Slide58.JPG","null","","","","","",""
"html-keyboard-response","178","230134","0.0-5.0-1.57","FL","0yjn7eg9zc","1536","864","0","1","0","5f06ee44c10cab2655ea3822","","null","","","learningBlock1","","","","That was a wug.","null","","","","","",""
"html-keyboard-response","179","231135","0.0-5.0-2.57","FL","0yjn7eg9zc","1536","864","0","1","0","5f06ee44c10cab2655ea3822","","null","","","learningBlock1","","","","<div style=""font-size:60px;""> </div>","null","FL","learning/Slide58.JPG","That was a wug.","","",""
"image-keyboard-response","180","231323","0.0-5.0-0.58","FL","0yjn7eg9zc","1536","864","0","1","0","5f06ee44c10cab2655ea3822","","null","","","","","","","learning/Slide59.JPG","null","","","","","",""
"html-keyboard-response","181","232483","0.0-5.0-1.58","FL","0yjn7eg9zc","1536","864","0","1","0","5f06ee44c10cab2655ea3822","","null","","","learningBlock1","","","","That was a dep.","null","","","","","",""
"html-keyboard-response","182","233485","0.0-5.0-2.58","FL","0yjn7eg9zc","1536","864","0","1","0","5f06ee44c10cab2655ea3822","","null","","","learningBlock1","","","","<div style=""font-size:60px;""> </div>","null","FL","learning/Slide59.JPG","That was a dep.","","",""
"image-keyboard-response","183","233670","0.0-5.0-0.59","FL","0yjn7eg9zc","1536","864","0","1","0","5f06ee44c10cab2655ea3822","","null","","","","","","","learning/Slide60.JPG","null","","","","","",""
"html-keyboard-response","184","234838","0.0-5.0-1.59","FL","0yjn7eg9zc","1536","864","0","1","0","5f06ee44c10cab2655ea3822","","null","","","learningBlock1","","","","That was a wug.","null","","","","","",""
"html-keyboard-response","185","235843","0.0-5.0-2.59","FL","0yjn7eg9zc","1536","864","0","1","0","5f06ee44c10cab2655ea3822","","null","","","learningBlock1","","","","<div style=""font-size:60px;""> </div>","null","FL","learning/Slide60.JPG","That was a wug.","","",""
"image-keyboard-response","186","236029","0.0-5.0-0.60","FL","0yjn7eg9zc","1536","864","0","1","0","5f06ee44c10cab2655ea3822","","null","","","","","","","learning/Slide61.JPG","null","","","","","",""
"html-keyboard-response","187","237197","0.0-5.0-1.60","FL","0yjn7eg9zc","1536","864","0","1","0","5f06ee44c10cab2655ea3822","","null","","","learningBlock1","","","","That was a bim.","null","","","","","",""
"html-keyboard-response","188","238199","0.0-5.0-2.60","FL","0yjn7eg9zc","1536","864","0","1","0","5f06ee44c10cab2655ea3822","","null","","","learningBlock1","","","","<div style=""font-size:60px;""> </div>","null","FL","learning/Slide61.JPG","That was a bim.","","",""
"image-keyboard-response","189","238386","0.0-5.0-0.61","FL","0yjn7eg9zc","1536","864","0","1","0","5f06ee44c10cab2655ea3822","","null","","","","","","","learning/Slide62.JPG","null","","","","","",""
"html-keyboard-response","190","239545","0.0-5.0-1.61","FL","0yjn7eg9zc","1536","864","0","1","0","5f06ee44c10cab2655ea3822","","null","","","learningBlock1","","","","That was a dep.","null","","","","","",""
"html-keyboard-response","191","240554","0.0-5.0-2.61","FL","0yjn7eg9zc","1536","864","0","1","0","5f06ee44c10cab2655ea3822","","null","","","learningBlock1","","","","<div style=""font-size:60px;""> </div>","null","FL","learning/Slide62.JPG","That was a dep.","","",""
"image-keyboard-response","192","240738","0.0-5.0-0.62","FL","0yjn7eg9zc","1536","864","0","1","0","5f06ee44c10cab2655ea3822","","null","","","","","","","learning/Slide63.JPG","null","","","","","",""
"html-keyboard-response","193","241900","0.0-5.0-1.62","FL","0yjn7eg9zc","1536","864","0","1","0","5f06ee44c10cab2655ea3822","","null","","","learningBlock1","","","","That was a bim.","null","","","","","",""
"html-keyboard-response","194","242914","0.0-5.0-2.62","FL","0yjn7eg9zc","1536","864","0","1","0","5f06ee44c10cab2655ea3822","","null","","","learningBlock1","","","","<div style=""font-size:60px;""> </div>","null","FL","learning/Slide63.JPG","That was a bim.","","",""
"image-keyboard-response","195","243099","0.0-5.0-0.63","FL","0yjn7eg9zc","1536","864","0","1","0","5f06ee44c10cab2655ea3822","","null","","","","","","","learning/Slide64.JPG","null","","","","","",""
"html-keyboard-response","196","244262","0.0-5.0-1.63","FL","0yjn7eg9zc","1536","864","0","1","0","5f06ee44c10cab2655ea3822","","null","","","learningBlock1","","","","That was a tob.","null","","","","","",""
"html-keyboard-response","197","245263","0.0-5.0-2.63","FL","0yjn7eg9zc","1536","864","0","1","0","5f06ee44c10cab2655ea3822","","null","","","learningBlock1","","","","<div style=""font-size:60px;""> </div>","null","FL","learning/Slide64.JPG","That was a tob.","","",""
"image-keyboard-response","198","245453","0.0-5.0-0.64","FL","0yjn7eg9zc","1536","864","0","1","0","5f06ee44c10cab2655ea3822","","null","","","","","","","learning/Slide65.JPG","null","","","","","",""
"html-keyboard-response","199","246623","0.0-5.0-1.64","FL","0yjn7eg9zc","1536","864","0","1","0","5f06ee44c10cab2655ea3822","","null","","","learningBlock1","","","","That was a wug.","null","","","","","",""
"html-keyboard-response","200","247639","0.0-5.0-2.64","FL","0yjn7eg9zc","1536","864","0","1","0","5f06ee44c10cab2655ea3822","","null","","","learningBlock1","","","","<div style=""font-size:60px;""> </div>","null","FL","learning/Slide65.JPG","That was a wug.","","",""
"image-keyboard-response","201","247823","0.0-5.0-0.65","FL","0yjn7eg9zc","1536","864","0","1","0","5f06ee44c10cab2655ea3822","","null","","","","","","","learning/Slide66.JPG","null","","","","","",""
"html-keyboard-response","202","248997","0.0-5.0-1.65","FL","0yjn7eg9zc","1536","864","0","1","0","5f06ee44c10cab2655ea3822","","null","","","learningBlock1","","","","That was a dep.","null","","","","","",""
"html-keyboard-response","203","250009","0.0-5.0-2.65","FL","0yjn7eg9zc","1536","864","0","1","0","5f06ee44c10cab2655ea3822","","null","","","learningBlock1","","","","<div style=""font-size:60px;""> </div>","null","FL","learning/Slide66.JPG","That was a dep.","","",""
"image-keyboard-response","204","250188","0.0-5.0-0.66","FL","0yjn7eg9zc","1536","864","0","1","0","5f06ee44c10cab2655ea3822","","null","","","","","","","learning/Slide67.JPG","null","","","","","",""
"html-keyboard-response","205","251356","0.0-5.0-1.66","FL","0yjn7eg9zc","1536","864","0","1","0","5f06ee44c10cab2655ea3822","","null","","","learningBlock1","","","","That was a tob.","null","","","","","",""
"html-keyboard-response","206","252360","0.0-5.0-2.66","FL","0yjn7eg9zc","1536","864","0","1","0","5f06ee44c10cab2655ea3822","","null","","","learningBlock1","","","","<div style=""font-size:60px;""> </div>","null","FL","learning/Slide67.JPG","That was a tob.","","",""
"image-keyboard-response","207","252548","0.0-5.0-0.67","FL","0yjn7eg9zc","1536","864","0","1","0","5f06ee44c10cab2655ea3822","","null","","","","","","","learning/Slide68.JPG","null","","","","","",""
"html-keyboard-response","208","253712","0.0-5.0-1.67","FL","0yjn7eg9zc","1536","864","0","1","0","5f06ee44c10cab2655ea3822","","null","","","learningBlock1","","","","That was a wug.","null","","","","","",""
"html-keyboard-response","209","254718","0.0-5.0-2.67","FL","0yjn7eg9zc","1536","864","0","1","0","5f06ee44c10cab2655ea3822","","null","","","learningBlock1","","","","<div style=""font-size:60px;""> </div>","null","FL","learning/Slide68.JPG","That was a wug.","","",""
"image-keyboard-response","210","254906","0.0-5.0-0.68","FL","0yjn7eg9zc","1536","864","0","1","0","5f06ee44c10cab2655ea3822","","null","","","","","","","learning/Slide69.JPG","null","","","","","",""
"html-keyboard-response","211","256076","0.0-5.0-1.68","FL","0yjn7eg9zc","1536","864","0","1","0","5f06ee44c10cab2655ea3822","","null","","","learningBlock1","","","","That was a tob.","null","","","","","",""
"html-keyboard-response","212","257086","0.0-5.0-2.68","FL","0yjn7eg9zc","1536","864","0","1","0","5f06ee44c10cab2655ea3822","","null","","","learningBlock1","","","","<div style=""font-size:60px;""> </div>","null","FL","learning/Slide69.JPG","That was a tob.","","",""
"image-keyboard-response","213","257262","0.0-5.0-0.69","FL","0yjn7eg9zc","1536","864","0","1","0","5f06ee44c10cab2655ea3822","","null","","","","","","","learning/Slide70.JPG","null","","","","","",""
"html-keyboard-response","214","258428","0.0-5.0-1.69","FL","0yjn7eg9zc","1536","864","0","1","0","5f06ee44c10cab2655ea3822","","null","","","learningBlock1","","","","That was a dep.","null","","","","","",""
"html-keyboard-response","215","259432","0.0-5.0-2.69","FL","0yjn7eg9zc","1536","864","0","1","0","5f06ee44c10cab2655ea3822","","null","","","learningBlock1","","","","<div style=""font-size:60px;""> </div>","null","FL","learning/Slide70.JPG","That was a dep.","","",""
"image-keyboard-response","216","259616","0.0-5.0-0.70","FL","0yjn7eg9zc","1536","864","0","1","0","5f06ee44c10cab2655ea3822","","null","","","","","","","learning/Slide71.JPG","null","","","","","",""
"html-keyboard-response","217","260781","0.0-5.0-1.70","FL","0yjn7eg9zc","1536","864","0","1","0","5f06ee44c10cab2655ea3822","","null","","","learningBlock1","","","","That was a wug.","null","","","","","",""
"html-keyboard-response","218","261785","0.0-5.0-2.70","FL","0yjn7eg9zc","1536","864","0","1","0","5f06ee44c10cab2655ea3822","","null","","","learningBlock1","","","","<div style=""font-size:60px;""> </div>","null","FL","learning/Slide71.JPG","That was a wug.","","",""
"image-keyboard-response","219","261971","0.0-5.0-0.71","FL","0yjn7eg9zc","1536","864","0","1","0","5f06ee44c10cab2655ea3822","","null","","","","","","","learning/Slide72.JPG","null","","","","","",""
"html-keyboard-response","220","263135","0.0-5.0-1.71","FL","0yjn7eg9zc","1536","864","0","1","0","5f06ee44c10cab2655ea3822","","null","","","learningBlock1","","","","That was a bim.","null","","","","","",""
"html-keyboard-response","221","264151","0.0-5.0-2.71","FL","0yjn7eg9zc","1536","864","0","1","0","5f06ee44c10cab2655ea3822","","null","","","learningBlock1","","","","<div style=""font-size:60px;""> </div>","null","FL","learning/Slide72.JPG","That was a bim.","","",""
"image-keyboard-response","222","264338","0.0-5.0-0.72","FL","0yjn7eg9zc","1536","864","0","1","0","5f06ee44c10cab2655ea3822","","null","","","","","","","learning/Slide73.JPG","null","","","","","",""
"html-keyboard-response","223","265500","0.0-5.0-1.72","FL","0yjn7eg9zc","1536","864","0","1","0","5f06ee44c10cab2655ea3822","","null","","","learningBlock1","","","","That was a wug.","null","","","","","",""
"html-keyboard-response","224","266513","0.0-5.0-2.72","FL","0yjn7eg9zc","1536","864","0","1","0","5f06ee44c10cab2655ea3822","","null","","","learningBlock1","","","","<div style=""font-size:60px;""> </div>","null","FL","learning/Slide73.JPG","That was a wug.","","",""
"image-keyboard-response","225","266703","0.0-5.0-0.73","FL","0yjn7eg9zc","1536","864","0","1","0","5f06ee44c10cab2655ea3822","","null","","","","","","","learning/Slide74.JPG","null","","","","","",""
"html-keyboard-response","226","267872","0.0-5.0-1.73","FL","0yjn7eg9zc","1536","864","0","1","0","5f06ee44c10cab2655ea3822","","null","","","learningBlock1","","","","That was a dep.","null","","","","","",""
"html-keyboard-response","227","268873","0.0-5.0-2.73","FL","0yjn7eg9zc","1536","864","0","1","0","5f06ee44c10cab2655ea3822","","null","","","learningBlock1","","","","<div style=""font-size:60px;""> </div>","null","FL","learning/Slide74.JPG","That was a dep.","","",""
"image-keyboard-response","228","269060","0.0-5.0-0.74","FL","0yjn7eg9zc","1536","864","0","1","0","5f06ee44c10cab2655ea3822","","null","","","","","","","learning/Slide75.JPG","null","","","","","",""
"html-keyboard-response","229","270237","0.0-5.0-1.74","FL","0yjn7eg9zc","1536","864","0","1","0","5f06ee44c10cab2655ea3822","","null","","","learningBlock1","","","","That was a tob.","null","","","","","",""
"html-keyboard-response","230","271252","0.0-5.0-2.74","FL","0yjn7eg9zc","1536","864","0","1","0","5f06ee44c10cab2655ea3822","","null","","","learningBlock1","","","","<div style=""font-size:60px;""> </div>","null","FL","learning/Slide75.JPG","That was a tob.","","",""
"image-keyboard-response","231","271438","0.0-5.0-0.75","FL","0yjn7eg9zc","1536","864","0","1","0","5f06ee44c10cab2655ea3822","","null","","","","","","","learning/Slide76.JPG","null","","","","","",""
"html-keyboard-response","232","272608","0.0-5.0-1.75","FL","0yjn7eg9zc","1536","864","0","1","0","5f06ee44c10cab2655ea3822","","null","","","learningBlock1","","","","That was a bim.","null","","","","","",""
"html-keyboard-response","233","273612","0.0-5.0-2.75","FL","0yjn7eg9zc","1536","864","0","1","0","5f06ee44c10cab2655ea3822","","null","","","learningBlock1","","","","<div style=""font-size:60px;""> </div>","null","FL","learning/Slide76.JPG","That was a bim.","","",""
"image-keyboard-response","234","273800","0.0-5.0-0.76","FL","0yjn7eg9zc","1536","864","0","1","0","5f06ee44c10cab2655ea3822","","null","","","","","","","learning/Slide77.JPG","null","","","","","",""
"html-keyboard-response","235","274956","0.0-5.0-1.76","FL","0yjn7eg9zc","1536","864","0","1","0","5f06ee44c10cab2655ea3822","","null","","","learningBlock1","","","","That was a tob.","null","","","","","",""
"html-keyboard-response","236","275963","0.0-5.0-2.76","FL","0yjn7eg9zc","1536","864","0","1","0","5f06ee44c10cab2655ea3822","","null","","","learningBlock1","","","","<div style=""font-size:60px;""> </div>","null","FL","learning/Slide77.JPG","That was a tob.","","",""
"image-keyboard-response","237","276150","0.0-5.0-0.77","FL","0yjn7eg9zc","1536","864","0","1","0","5f06ee44c10cab2655ea3822","","null","","","","","","","learning/Slide78.JPG","null","","","","","",""
"html-keyboard-response","238","277321","0.0-5.0-1.77","FL","0yjn7eg9zc","1536","864","0","1","0","5f06ee44c10cab2655ea3822","","null","","","learningBlock1","","","","That was a wug.","null","","","","","",""
"html-keyboard-response","239","278334","0.0-5.0-2.77","FL","0yjn7eg9zc","1536","864","0","1","0","5f06ee44c10cab2655ea3822","","null","","","learningBlock1","","","","<div style=""font-size:60px;""> </div>","null","FL","learning/Slide78.JPG","That was a wug.","","",""
"image-keyboard-response","240","278518","0.0-5.0-0.78","FL","0yjn7eg9zc","1536","864","0","1","0","5f06ee44c10cab2655ea3822","","null","","","","","","","learning/Slide79.JPG","null","","","","","",""
"html-keyboard-response","241","279687","0.0-5.0-1.78","FL","0yjn7eg9zc","1536","864","0","1","0","5f06ee44c10cab2655ea3822","","null","","","learningBlock1","","","","That was a bim.","null","","","","","",""
"html-keyboard-response","242","280690","0.0-5.0-2.78","FL","0yjn7eg9zc","1536","864","0","1","0","5f06ee44c10cab2655ea3822","","null","","","learningBlock1","","","","<div style=""font-size:60px;""> </div>","null","FL","learning/Slide79.JPG","That was a bim.","","",""
"image-keyboard-response","243","280874","0.0-5.0-0.79","FL","0yjn7eg9zc","1536","864","0","1","0","5f06ee44c10cab2655ea3822","","null","","","","","","","learning/Slide80.JPG","null","","","","","",""
"html-keyboard-response","244","282059","0.0-5.0-1.79","FL","0yjn7eg9zc","1536","864","0","1","0","5f06ee44c10cab2655ea3822","","null","","","learningBlock1","","","","That was a tob.","null","","","","","",""
"html-keyboard-response","245","283076","0.0-5.0-2.79","FL","0yjn7eg9zc","1536","864","0","1","0","5f06ee44c10cab2655ea3822","","null","","","learningBlock1","","","","<div style=""font-size:60px;""> </div>","null","FL","learning/Slide80.JPG","That was a tob.","","",""
"instructions","246","285649","0.0-6.0","FL","0yjn7eg9zc","1536","864","0","1","0","5f06ee44c10cab2655ea3822","","NA","","[{""page_index"":0,""viewing_time"":2572.4299999856157}]","instructions","","","","","","","","","","",""
"image-keyboard-response","247","285833","0.0-7.0-0.0","FL","0yjn7eg9zc","1536","864","0","1","0","5f06ee44c10cab2655ea3822","","null","","","","","","","learning/Slide81.JPG","null","","","","","",""
"html-keyboard-response","248","286989","0.0-7.0-1.0","FL","0yjn7eg9zc","1536","864","0","1","0","5f06ee44c10cab2655ea3822","","null","","","learningBlock2","","","","That was a wug.","null","","","","","",""
"html-keyboard-response","249","287991","0.0-7.0-2.0","FL","0yjn7eg9zc","1536","864","0","1","0","5f06ee44c10cab2655ea3822","","null","","","learningBlock2","","","","<div style=""font-size:60px;""> </div>","null","FL","learning/Slide81.JPG","That was a wug.","","",""
"image-keyboard-response","250","288180","0.0-7.0-0.1","FL","0yjn7eg9zc","1536","864","0","1","0","5f06ee44c10cab2655ea3822","","null","","","","","","","learning/Slide82.JPG","null","","","","","",""
"html-keyboard-response","251","289342","0.0-7.0-1.1","FL","0yjn7eg9zc","1536","864","0","1","0","5f06ee44c10cab2655ea3822","","null","","","learningBlock2","","","","That was a bim.","null","","","","","",""
"html-keyboard-response","252","290352","0.0-7.0-2.1","FL","0yjn7eg9zc","1536","864","0","1","0","5f06ee44c10cab2655ea3822","","null","","","learningBlock2","","","","<div style=""font-size:60px;""> </div>","null","FL","learning/Slide82.JPG","That was a bim.","","",""
"image-keyboard-response","253","290534","0.0-7.0-0.2","FL","0yjn7eg9zc","1536","864","0","1","0","5f06ee44c10cab2655ea3822","","null","","","","","","","learning/Slide83.JPG","null","","","","","",""
"html-keyboard-response","254","291698","0.0-7.0-1.2","FL","0yjn7eg9zc","1536","864","0","1","0","5f06ee44c10cab2655ea3822","","null","","","learningBlock2","","","","That was a wug.","null","","","","","",""
"html-keyboard-response","255","292714","0.0-7.0-2.2","FL","0yjn7eg9zc","1536","864","0","1","0","5f06ee44c10cab2655ea3822","","null","","","learningBlock2","","","","<div style=""font-size:60px;""> </div>","null","FL","learning/Slide83.JPG","That was a wug.","","",""
"image-keyboard-response","256","292899","0.0-7.0-0.3","FL","0yjn7eg9zc","1536","864","0","1","0","5f06ee44c10cab2655ea3822","","null","","","","","","","learning/Slide84.JPG","null","","","","","",""
"html-keyboard-response","257","294054","0.0-7.0-1.3","FL","0yjn7eg9zc","1536","864","0","1","0","5f06ee44c10cab2655ea3822","","null","","","learningBlock2","","","","That was a dep.","null","","","","","",""
"html-keyboard-response","258","295070","0.0-7.0-2.3","FL","0yjn7eg9zc","1536","864","0","1","0","5f06ee44c10cab2655ea3822","","null","","","learningBlock2","","","","<div style=""font-size:60px;""> </div>","null","FL","learning/Slide84.JPG","That was a dep.","","",""
"image-keyboard-response","259","295248","0.0-7.0-0.4","FL","0yjn7eg9zc","1536","864","0","1","0","5f06ee44c10cab2655ea3822","","null","","","","","","","learning/Slide85.JPG","null","","","","","",""
"html-keyboard-response","260","296417","0.0-7.0-1.4","FL","0yjn7eg9zc","1536","864","0","1","0","5f06ee44c10cab2655ea3822","","null","","","learningBlock2","","","","That was a bim.","null","","","","","",""
"html-keyboard-response","261","297420","0.0-7.0-2.4","FL","0yjn7eg9zc","1536","864","0","1","0","5f06ee44c10cab2655ea3822","","null","","","learningBlock2","","","","<div style=""font-size:60px;""> </div>","null","FL","learning/Slide85.JPG","That was a bim.","","",""
"image-keyboard-response","262","297606","0.0-7.0-0.5","FL","0yjn7eg9zc","1536","864","0","1","0","5f06ee44c10cab2655ea3822","","null","","","","","","","learning/Slide86.JPG","null","","","","","",""
"html-keyboard-response","263","298774","0.0-7.0-1.5","FL","0yjn7eg9zc","1536","864","0","1","0","5f06ee44c10cab2655ea3822","","null","","","learningBlock2","","","","That was a tob.","null","","","","","",""
"html-keyboard-response","264","299781","0.0-7.0-2.5","FL","0yjn7eg9zc","1536","864","0","1","0","5f06ee44c10cab2655ea3822","","null","","","learningBlock2","","","","<div style=""font-size:60px;""> </div>","null","FL","learning/Slide86.JPG","That was a tob.","","",""
"image-keyboard-response","265","299967","0.0-7.0-0.6","FL","0yjn7eg9zc","1536","864","0","1","0","5f06ee44c10cab2655ea3822","","null","","","","","","","learning/Slide87.JPG","null","","","","","",""
"html-keyboard-response","266","301138","0.0-7.0-1.6","FL","0yjn7eg9zc","1536","864","0","1","0","5f06ee44c10cab2655ea3822","","null","","","learningBlock2","","","","That was a wug.","null","","","","","",""
"html-keyboard-response","267","302149","0.0-7.0-2.6","FL","0yjn7eg9zc","1536","864","0","1","0","5f06ee44c10cab2655ea3822","","null","","","learningBlock2","","","","<div style=""font-size:60px;""> </div>","null","FL","learning/Slide87.JPG","That was a wug.","","",""
"image-keyboard-response","268","302339","0.0-7.0-0.7","FL","0yjn7eg9zc","1536","864","0","1","0","5f06ee44c10cab2655ea3822","","null","","","","","","","learning/Slide88.JPG","null","","","","","",""
"html-keyboard-response","269","303505","0.0-7.0-1.7","FL","0yjn7eg9zc","1536","864","0","1","0","5f06ee44c10cab2655ea3822","","null","","","learningBlock2","","","","That was a tob.","null","","","","","",""
"html-keyboard-response","270","304516","0.0-7.0-2.7","FL","0yjn7eg9zc","1536","864","0","1","0","5f06ee44c10cab2655ea3822","","null","","","learningBlock2","","","","<div style=""font-size:60px;""> </div>","null","FL","learning/Slide88.JPG","That was a tob.","","",""
"image-keyboard-response","271","304695","0.0-7.0-0.8","FL","0yjn7eg9zc","1536","864","0","1","0","5f06ee44c10cab2655ea3822","","null","","","","","","","learning/Slide89.JPG","null","","","","","",""
"html-keyboard-response","272","305865","0.0-7.0-1.8","FL","0yjn7eg9zc","1536","864","0","1","0","5f06ee44c10cab2655ea3822","","null","","","learningBlock2","","","","That was a bim.","null","","","","","",""
"html-keyboard-response","273","306867","0.0-7.0-2.8","FL","0yjn7eg9zc","1536","864","0","1","0","5f06ee44c10cab2655ea3822","","null","","","learningBlock2","","","","<div style=""font-size:60px;""> </div>","null","FL","learning/Slide89.JPG","That was a bim.","","",""
"image-keyboard-response","274","307044","0.0-7.0-0.9","FL","0yjn7eg9zc","1536","864","0","1","0","5f06ee44c10cab2655ea3822","","null","","","","","","","learning/Slide90.JPG","null","","","","","",""
"html-keyboard-response","275","308214","0.0-7.0-1.9","FL","0yjn7eg9zc","1536","864","0","1","0","5f06ee44c10cab2655ea3822","","null","","","learningBlock2","","","","That was a dep.","null","","","","","",""
"html-keyboard-response","276","309229","0.0-7.0-2.9","FL","0yjn7eg9zc","1536","864","0","1","0","5f06ee44c10cab2655ea3822","","null","","","learningBlock2","","","","<div style=""font-size:60px;""> </div>","null","FL","learning/Slide90.JPG","That was a dep.","","",""
"image-keyboard-response","277","309415","0.0-7.0-0.10","FL","0yjn7eg9zc","1536","864","0","1","0","5f06ee44c10cab2655ea3822","","null","","","","","","","learning/Slide91.JPG","null","","","","","",""
"html-keyboard-response","278","310585","0.0-7.0-1.10","FL","0yjn7eg9zc","1536","864","0","1","0","5f06ee44c10cab2655ea3822","","null","","","learningBlock2","","","","That was a wug.","null","","","","","",""
"html-keyboard-response","279","311587","0.0-7.0-2.10","FL","0yjn7eg9zc","1536","864","0","1","0","5f06ee44c10cab2655ea3822","","null","","","learningBlock2","","","","<div style=""font-size:60px;""> </div>","null","FL","learning/Slide91.JPG","That was a wug.","","",""
"image-keyboard-response","280","311775","0.0-7.0-0.11","FL","0yjn7eg9zc","1536","864","0","1","0","5f06ee44c10cab2655ea3822","","null","","","","","","","learning/Slide92.JPG","null","","","","","",""
"html-keyboard-response","281","312934","0.0-7.0-1.11","FL","0yjn7eg9zc","1536","864","0","1","0","5f06ee44c10cab2655ea3822","","null","","","learningBlock2","","","","That was a tob.","null","","","","","",""
"html-keyboard-response","282","313948","0.0-7.0-2.11","FL","0yjn7eg9zc","1536","864","0","1","0","5f06ee44c10cab2655ea3822","","null","","","learningBlock2","","","","<div style=""font-size:60px;""> </div>","null","FL","learning/Slide92.JPG","That was a tob.","","",""
"image-keyboard-response","283","314133","0.0-7.0-0.12","FL","0yjn7eg9zc","1536","864","0","1","0","5f06ee44c10cab2655ea3822","","null","","","","","","","learning/Slide93.JPG","null","","","","","",""
"html-keyboard-response","284","315298","0.0-7.0-1.12","FL","0yjn7eg9zc","1536","864","0","1","0","5f06ee44c10cab2655ea3822","","null","","","learningBlock2","","","","That was a bim.","null","","","","","",""
"html-keyboard-response","285","316300","0.0-7.0-2.12","FL","0yjn7eg9zc","1536","864","0","1","0","5f06ee44c10cab2655ea3822","","null","","","learningBlock2","","","","<div style=""font-size:60px;""> </div>","null","FL","learning/Slide93.JPG","That was a bim.","","",""
"image-keyboard-response","286","316486","0.0-7.0-0.13","FL","0yjn7eg9zc","1536","864","0","1","0","5f06ee44c10cab2655ea3822","","null","","","","","","","learning/Slide94.JPG","null","","","","","",""
"html-keyboard-response","287","317653","0.0-7.0-1.13","FL","0yjn7eg9zc","1536","864","0","1","0","5f06ee44c10cab2655ea3822","","null","","","learningBlock2","","","","That was a tob.","null","","","","","",""
"html-keyboard-response","288","318659","0.0-7.0-2.13","FL","0yjn7eg9zc","1536","864","0","1","0","5f06ee44c10cab2655ea3822","","null","","","learningBlock2","","","","<div style=""font-size:60px;""> </div>","null","FL","learning/Slide94.JPG","That was a tob.","","",""
"image-keyboard-response","289","318845","0.0-7.0-0.14","FL","0yjn7eg9zc","1536","864","0","1","0","5f06ee44c10cab2655ea3822","","null","","","","","","","learning/Slide95.JPG","null","","","","","",""
"html-keyboard-response","290","320007","0.0-7.0-1.14","FL","0yjn7eg9zc","1536","864","0","1","0","5f06ee44c10cab2655ea3822","","null","","","learningBlock2","","","","That was a wug.","null","","","","","",""
"html-keyboard-response","291","321011","0.0-7.0-2.14","FL","0yjn7eg9zc","1536","864","0","1","0","5f06ee44c10cab2655ea3822","","null","","","learningBlock2","","","","<div style=""font-size:60px;""> </div>","null","FL","learning/Slide95.JPG","That was a wug.","","",""
"image-keyboard-response","292","321199","0.0-7.0-0.15","FL","0yjn7eg9zc","1536","864","0","1","0","5f06ee44c10cab2655ea3822","","null","","","","","","","learning/Slide96.JPG","null","","","","","",""
"html-keyboard-response","293","322380","0.0-7.0-1.15","FL","0yjn7eg9zc","1536","864","0","1","0","5f06ee44c10cab2655ea3822","","null","","","learningBlock2","","","","That was a tob.","null","","","","","",""
"html-keyboard-response","294","323382","0.0-7.0-2.15","FL","0yjn7eg9zc","1536","864","0","1","0","5f06ee44c10cab2655ea3822","","null","","","learningBlock2","","","","<div style=""font-size:60px;""> </div>","null","FL","learning/Slide96.JPG","That was a tob.","","",""
"image-keyboard-response","295","323578","0.0-7.0-0.16","FL","0yjn7eg9zc","1536","864","0","1","0","5f06ee44c10cab2655ea3822","","null","","","","","","","learning/Slide97.JPG","null","","","","","",""
"html-keyboard-response","296","324756","0.0-7.0-1.16","FL","0yjn7eg9zc","1536","864","0","1","0","5f06ee44c10cab2655ea3822","","null","","","learningBlock2","","","","That was a dep.","null","","","","","",""
"html-keyboard-response","297","325760","0.0-7.0-2.16","FL","0yjn7eg9zc","1536","864","0","1","0","5f06ee44c10cab2655ea3822","","null","","","learningBlock2","","","","<div style=""font-size:60px;""> </div>","null","FL","learning/Slide97.JPG","That was a dep.","","",""
"image-keyboard-response","298","325945","0.0-7.0-0.17","FL","0yjn7eg9zc","1536","864","0","1","0","5f06ee44c10cab2655ea3822","","null","","","","","","","learning/Slide98.JPG","null","","","","","",""
"html-keyboard-response","299","327099","0.0-7.0-1.17","FL","0yjn7eg9zc","1536","864","0","1","0","5f06ee44c10cab2655ea3822","","null","","","learningBlock2","","","","That was a bim.","null","","","","","",""
"html-keyboard-response","300","328115","0.0-7.0-2.17","FL","0yjn7eg9zc","1536","864","0","1","0","5f06ee44c10cab2655ea3822","","null","","","learningBlock2","","","","<div style=""font-size:60px;""> </div>","null","FL","learning/Slide98.JPG","That was a bim.","","",""
"image-keyboard-response","301","328300","0.0-7.0-0.18","FL","0yjn7eg9zc","1536","864","0","1","0","5f06ee44c10cab2655ea3822","","null","","","","","","","learning/Slide99.JPG","null","","","","","",""
"html-keyboard-response","302","329465","0.0-7.0-1.18","FL","0yjn7eg9zc","1536","864","0","1","0","5f06ee44c10cab2655ea3822","","null","","","learningBlock2","","","","That was a dep.","null","","","","","",""
"html-keyboard-response","303","330487","0.0-7.0-2.18","FL","0yjn7eg9zc","1536","864","0","1","0","5f06ee44c10cab2655ea3822","","null","","","learningBlock2","","","","<div style=""font-size:60px;""> </div>","null","FL","learning/Slide99.JPG","That was a dep.","","",""
"image-keyboard-response","304","330664","0.0-7.0-0.19","FL","0yjn7eg9zc","1536","864","0","1","0","5f06ee44c10cab2655ea3822","","null","","","","","","","learning/Slide100.JPG","null","","","","","",""
"html-keyboard-response","305","331819","0.0-7.0-1.19","FL","0yjn7eg9zc","1536","864","0","1","0","5f06ee44c10cab2655ea3822","","null","","","learningBlock2","","","","That was a bim.","null","","","","","",""
"html-keyboard-response","306","332824","0.0-7.0-2.19","FL","0yjn7eg9zc","1536","864","0","1","0","5f06ee44c10cab2655ea3822","","null","","","learningBlock2","","","","<div style=""font-size:60px;""> </div>","null","FL","learning/Slide100.JPG","That was a bim.","","",""
"image-keyboard-response","307","333011","0.0-7.0-0.20","FL","0yjn7eg9zc","1536","864","0","1","0","5f06ee44c10cab2655ea3822","","null","","","","","","","learning/Slide101.JPG","null","","","","","",""
"html-keyboard-response","308","334168","0.0-7.0-1.20","FL","0yjn7eg9zc","1536","864","0","1","0","5f06ee44c10cab2655ea3822","","null","","","learningBlock2","","","","That was a tob.","null","","","","","",""
"html-keyboard-response","309","335184","0.0-7.0-2.20","FL","0yjn7eg9zc","1536","864","0","1","0","5f06ee44c10cab2655ea3822","","null","","","learningBlock2","","","","<div style=""font-size:60px;""> </div>","null","FL","learning/Slide101.JPG","That was a tob.","","",""
"image-keyboard-response","310","335371","0.0-7.0-0.21","FL","0yjn7eg9zc","1536","864","0","1","0","5f06ee44c10cab2655ea3822","","null","","","","","","","learning/Slide102.JPG","null","","","","","",""
"html-keyboard-response","311","336542","0.0-7.0-1.21","FL","0yjn7eg9zc","1536","864","0","1","0","5f06ee44c10cab2655ea3822","","null","","","learningBlock2","","","","That was a bim.","null","","","","","",""
"html-keyboard-response","312","337556","0.0-7.0-2.21","FL","0yjn7eg9zc","1536","864","0","1","0","5f06ee44c10cab2655ea3822","","null","","","learningBlock2","","","","<div style=""font-size:60px;""> </div>","null","FL","learning/Slide102.JPG","That was a bim.","","",""
"image-keyboard-response","313","337740","0.0-7.0-0.22","FL","0yjn7eg9zc","1536","864","0","1","0","5f06ee44c10cab2655ea3822","","null","","","","","","","learning/Slide103.JPG","null","","","","","",""
"html-keyboard-response","314","338903","0.0-7.0-1.22","FL","0yjn7eg9zc","1536","864","0","1","0","5f06ee44c10cab2655ea3822","","null","","","learningBlock2","","","","That was a dep.","null","","","","","",""
"html-keyboard-response","315","339911","0.0-7.0-2.22","FL","0yjn7eg9zc","1536","864","0","1","0","5f06ee44c10cab2655ea3822","","null","","","learningBlock2","","","","<div style=""font-size:60px;""> </div>","null","FL","learning/Slide103.JPG","That was a dep.","","",""
"image-keyboard-response","316","340095","0.0-7.0-0.23","FL","0yjn7eg9zc","1536","864","0","1","0","5f06ee44c10cab2655ea3822","","null","","","","","","","learning/Slide104.JPG","null","","","","","",""
"html-keyboard-response","317","341257","0.0-7.0-1.23","FL","0yjn7eg9zc","1536","864","0","1","0","5f06ee44c10cab2655ea3822","","null","","","learningBlock2","","","","That was a tob.","null","","","","","",""
"html-keyboard-response","318","342266","0.0-7.0-2.23","FL","0yjn7eg9zc","1536","864","0","1","0","5f06ee44c10cab2655ea3822","","null","","","learningBlock2","","","","<div style=""font-size:60px;""> </div>","null","FL","learning/Slide104.JPG","That was a tob.","","",""
"image-keyboard-response","319","342453","0.0-7.0-0.24","FL","0yjn7eg9zc","1536","864","0","1","0","5f06ee44c10cab2655ea3822","","null","","","","","","","learning/Slide105.JPG","null","","","","","",""
"html-keyboard-response","320","343612","0.0-7.0-1.24","FL","0yjn7eg9zc","1536","864","0","1","0","5f06ee44c10cab2655ea3822","","null","","","learningBlock2","","","","That was a dep.","null","","","","","",""
"html-keyboard-response","321","344626","0.0-7.0-2.24","FL","0yjn7eg9zc","1536","864","0","1","0","5f06ee44c10cab2655ea3822","","null","","","learningBlock2","","","","<div style=""font-size:60px;""> </div>","null","FL","learning/Slide105.JPG","That was a dep.","","",""
"image-keyboard-response","322","344812","0.0-7.0-0.25","FL","0yjn7eg9zc","1536","864","0","1","0","5f06ee44c10cab2655ea3822","","null","","","","","","","learning/Slide106.JPG","null","","","","","",""
"html-keyboard-response","323","345976","0.0-7.0-1.25","FL","0yjn7eg9zc","1536","864","0","1","0","5f06ee44c10cab2655ea3822","","null","","","learningBlock2","","","","That was a wug.","null","","","","","",""
"html-keyboard-response","324","346983","0.0-7.0-2.25","FL","0yjn7eg9zc","1536","864","0","1","0","5f06ee44c10cab2655ea3822","","null","","","learningBlock2","","","","<div style=""font-size:60px;""> </div>","null","FL","learning/Slide106.JPG","That was a wug.","","",""
"image-keyboard-response","325","347181","0.0-7.0-0.26","FL","0yjn7eg9zc","1536","864","0","1","0","5f06ee44c10cab2655ea3822","","null","","","","","","","learning/Slide107.JPG","null","","","","","",""
"html-keyboard-response","326","348349","0.0-7.0-1.26","FL","0yjn7eg9zc","1536","864","0","1","0","5f06ee44c10cab2655ea3822","","null","","","learningBlock2","","","","That was a bim.","null","","","","","",""
"html-keyboard-response","327","349360","0.0-7.0-2.26","FL","0yjn7eg9zc","1536","864","0","1","0","5f06ee44c10cab2655ea3822","","null","","","learningBlock2","","","","<div style=""font-size:60px;""> </div>","null","FL","learning/Slide107.JPG","That was a bim.","","",""
"image-keyboard-response","328","349537","0.0-7.0-0.27","FL","0yjn7eg9zc","1536","864","0","1","0","5f06ee44c10cab2655ea3822","","null","","","","","","","learning/Slide108.JPG","null","","","","","",""
"html-keyboard-response","329","350702","0.0-7.0-1.27","FL","0yjn7eg9zc","1536","864","0","1","0","5f06ee44c10cab2655ea3822","","null","","","learningBlock2","","","","That was a dep.","null","","","","","",""
"html-keyboard-response","330","351709","0.0-7.0-2.27","FL","0yjn7eg9zc","1536","864","0","1","0","5f06ee44c10cab2655ea3822","","null","","","learningBlock2","","","","<div style=""font-size:60px;""> </div>","null","FL","learning/Slide108.JPG","That was a dep.","","",""
"image-keyboard-response","331","351896","0.0-7.0-0.28","FL","0yjn7eg9zc","1536","864","0","1","0","5f06ee44c10cab2655ea3822","","null","","","","","","","learning/Slide109.JPG","null","","","","","",""
"html-keyboard-response","332","353066","0.0-7.0-1.28","FL","0yjn7eg9zc","1536","864","0","1","0","5f06ee44c10cab2655ea3822","","null","","","learningBlock2","","","","That was a wug.","null","","","","","",""
"html-keyboard-response","333","354077","0.0-7.0-2.28","FL","0yjn7eg9zc","1536","864","0","1","0","5f06ee44c10cab2655ea3822","","null","","","learningBlock2","","","","<div style=""font-size:60px;""> </div>","null","FL","learning/Slide109.JPG","That was a wug.","","",""
"image-keyboard-response","334","354268","0.0-7.0-0.29","FL","0yjn7eg9zc","1536","864","0","1","0","5f06ee44c10cab2655ea3822","","null","","","","","","","learning/Slide110.JPG","null","","","","","",""
"html-keyboard-response","335","355433","0.0-7.0-1.29","FL","0yjn7eg9zc","1536","864","0","1","0","5f06ee44c10cab2655ea3822","","null","","","learningBlock2","","","","That was a bim.","null","","","","","",""
"html-keyboard-response","336","356438","0.0-7.0-2.29","FL","0yjn7eg9zc","1536","864","0","1","0","5f06ee44c10cab2655ea3822","","null","","","learningBlock2","","","","<div style=""font-size:60px;""> </div>","null","FL","learning/Slide110.JPG","That was a bim.","","",""
"image-keyboard-response","337","356623","0.0-7.0-0.30","FL","0yjn7eg9zc","1536","864","0","1","0","5f06ee44c10cab2655ea3822","","null","","","","","","","learning/Slide111.JPG","null","","","","","",""
"html-keyboard-response","338","357792","0.0-7.0-1.30","FL","0yjn7eg9zc","1536","864","0","1","0","5f06ee44c10cab2655ea3822","","null","","","learningBlock2","","","","That was a tob.","null","","","","","",""
"html-keyboard-response","339","358809","0.0-7.0-2.30","FL","0yjn7eg9zc","1536","864","0","1","0","5f06ee44c10cab2655ea3822","","null","","","learningBlock2","","","","<div style=""font-size:60px;""> </div>","null","FL","learning/Slide111.JPG","That was a tob.","","",""
"image-keyboard-response","340","358987","0.0-7.0-0.31","FL","0yjn7eg9zc","1536","864","0","1","0","5f06ee44c10cab2655ea3822","","null","","","","","","","learning/Slide112.JPG","null","","","","","",""
"html-keyboard-response","341","360148","0.0-7.0-1.31","FL","0yjn7eg9zc","1536","864","0","1","0","5f06ee44c10cab2655ea3822","","null","","","learningBlock2","","","","That was a wug.","null","","","","","",""
"html-keyboard-response","342","361157","0.0-7.0-2.31","FL","0yjn7eg9zc","1536","864","0","1","0","5f06ee44c10cab2655ea3822","","null","","","learningBlock2","","","","<div style=""font-size:60px;""> </div>","null","FL","learning/Slide112.JPG","That was a wug.","","",""
"image-keyboard-response","343","361343","0.0-7.0-0.32","FL","0yjn7eg9zc","1536","864","0","1","0","5f06ee44c10cab2655ea3822","","null","","","","","","","learning/Slide113.JPG","null","","","","","",""
"html-keyboard-response","344","362511","0.0-7.0-1.32","FL","0yjn7eg9zc","1536","864","0","1","0","5f06ee44c10cab2655ea3822","","null","","","learningBlock2","","","","That was a tob.","null","","","","","",""
"html-keyboard-response","345","363517","0.0-7.0-2.32","FL","0yjn7eg9zc","1536","864","0","1","0","5f06ee44c10cab2655ea3822","","null","","","learningBlock2","","","","<div style=""font-size:60px;""> </div>","null","FL","learning/Slide113.JPG","That was a tob.","","",""
"image-keyboard-response","346","363704","0.0-7.0-0.33","FL","0yjn7eg9zc","1536","864","0","1","0","5f06ee44c10cab2655ea3822","","null","","","","","","","learning/Slide114.JPG","null","","","","","",""
"html-keyboard-response","347","364875","0.0-7.0-1.33","FL","0yjn7eg9zc","1536","864","0","1","0","5f06ee44c10cab2655ea3822","","null","","","learningBlock2","","","","That was a wug.","null","","","","","",""
"html-keyboard-response","348","365877","0.0-7.0-2.33","FL","0yjn7eg9zc","1536","864","0","1","0","5f06ee44c10cab2655ea3822","","null","","","learningBlock2","","","","<div style=""font-size:60px;""> </div>","null","FL","learning/Slide114.JPG","That was a wug.","","",""
"image-keyboard-response","349","366063","0.0-7.0-0.34","FL","0yjn7eg9zc","1536","864","0","1","0","5f06ee44c10cab2655ea3822","","null","","","","","","","learning/Slide115.JPG","null","","","","","",""
"html-keyboard-response","350","367238","0.0-7.0-1.34","FL","0yjn7eg9zc","1536","864","0","1","0","5f06ee44c10cab2655ea3822","","null","","","learningBlock2","","","","That was a bim.","null","","","","","",""
"html-keyboard-response","351","368239","0.0-7.0-2.34","FL","0yjn7eg9zc","1536","864","0","1","0","5f06ee44c10cab2655ea3822","","null","","","learningBlock2","","","","<div style=""font-size:60px;""> </div>","null","FL","learning/Slide115.JPG","That was a bim.","","",""
"image-keyboard-response","352","368426","0.0-7.0-0.35","FL","0yjn7eg9zc","1536","864","0","1","0","5f06ee44c10cab2655ea3822","","null","","","","","","","learning/Slide116.JPG","null","","","","","",""
"html-keyboard-response","353","369594","0.0-7.0-1.35","FL","0yjn7eg9zc","1536","864","0","1","0","5f06ee44c10cab2655ea3822","","null","","","learningBlock2","","","","That was a dep.","null","","","","","",""
"html-keyboard-response","354","370602","0.0-7.0-2.35","FL","0yjn7eg9zc","1536","864","0","1","0","5f06ee44c10cab2655ea3822","","null","","","learningBlock2","","","","<div style=""font-size:60px;""> </div>","null","FL","learning/Slide116.JPG","That was a dep.","","",""
"image-keyboard-response","355","370788","0.0-7.0-0.36","FL","0yjn7eg9zc","1536","864","0","1","0","5f06ee44c10cab2655ea3822","","null","","","","","","","learning/Slide117.JPG","null","","","","","",""
"html-keyboard-response","356","371950","0.0-7.0-1.36","FL","0yjn7eg9zc","1536","864","0","1","0","5f06ee44c10cab2655ea3822","","null","","","learningBlock2","","","","That was a tob.","null","","","","","",""
"html-keyboard-response","357","372966","0.0-7.0-2.36","FL","0yjn7eg9zc","1536","864","0","1","0","5f06ee44c10cab2655ea3822","","null","","","learningBlock2","","","","<div style=""font-size:60px;""> </div>","null","FL","learning/Slide117.JPG","That was a tob.","","",""
"image-keyboard-response","358","373151","0.0-7.0-0.37","FL","0yjn7eg9zc","1536","864","0","1","0","5f06ee44c10cab2655ea3822","","null","","","","","","","learning/Slide118.JPG","null","","","","","",""
"html-keyboard-response","359","374334","0.0-7.0-1.37","FL","0yjn7eg9zc","1536","864","0","1","0","5f06ee44c10cab2655ea3822","","null","","","learningBlock2","","","","That was a dep.","null","","","","","",""
"html-keyboard-response","360","375358","0.0-7.0-2.37","FL","0yjn7eg9zc","1536","864","0","1","0","5f06ee44c10cab2655ea3822","","null","","","learningBlock2","","","","<div style=""font-size:60px;""> </div>","null","FL","learning/Slide118.JPG","That was a dep.","","",""
"image-keyboard-response","361","375545","0.0-7.0-0.38","FL","0yjn7eg9zc","1536","864","0","1","0","5f06ee44c10cab2655ea3822","","null","","","","","","","learning/Slide119.JPG","null","","","","","",""
"html-keyboard-response","362","376710","0.0-7.0-1.38","FL","0yjn7eg9zc","1536","864","0","1","0","5f06ee44c10cab2655ea3822","","null","","","learningBlock2","","","","That was a wug.","null","","","","","",""
"html-keyboard-response","363","377715","0.0-7.0-2.38","FL","0yjn7eg9zc","1536","864","0","1","0","5f06ee44c10cab2655ea3822","","null","","","learningBlock2","","","","<div style=""font-size:60px;""> </div>","null","FL","learning/Slide119.JPG","That was a wug.","","",""
"image-keyboard-response","364","377900","0.0-7.0-0.39","FL","0yjn7eg9zc","1536","864","0","1","0","5f06ee44c10cab2655ea3822","","null","","","","","","","learning/Slide120.JPG","null","","","","","",""
"html-keyboard-response","365","379067","0.0-7.0-1.39","FL","0yjn7eg9zc","1536","864","0","1","0","5f06ee44c10cab2655ea3822","","null","","","learningBlock2","","","","That was a dep.","null","","","","","",""
"html-keyboard-response","366","380087","0.0-7.0-2.39","FL","0yjn7eg9zc","1536","864","0","1","0","5f06ee44c10cab2655ea3822","","null","","","learningBlock2","","","","<div style=""font-size:60px;""> </div>","null","FL","learning/Slide120.JPG","That was a dep.","","",""
"image-keyboard-response","367","380264","0.0-7.0-0.40","FL","0yjn7eg9zc","1536","864","0","1","0","5f06ee44c10cab2655ea3822","","null","","","","","","","learning/Slide121.JPG","null","","","","","",""
"html-keyboard-response","368","381435","0.0-7.0-1.40","FL","0yjn7eg9zc","1536","864","0","1","0","5f06ee44c10cab2655ea3822","","null","","","learningBlock2","","","","That was a bim.","null","","","","","",""
"html-keyboard-response","369","382438","0.0-7.0-2.40","FL","0yjn7eg9zc","1536","864","0","1","0","5f06ee44c10cab2655ea3822","","null","","","learningBlock2","","","","<div style=""font-size:60px;""> </div>","null","FL","learning/Slide121.JPG","That was a bim.","","",""
"image-keyboard-response","370","382620","0.0-7.0-0.41","FL","0yjn7eg9zc","1536","864","0","1","0","5f06ee44c10cab2655ea3822","","null","","","","","","","learning/Slide122.JPG","null","","","","","",""
"html-keyboard-response","371","383790","0.0-7.0-1.41","FL","0yjn7eg9zc","1536","864","0","1","0","5f06ee44c10cab2655ea3822","","null","","","learningBlock2","","","","That was a wug.","null","","","","","",""
"html-keyboard-response","372","384805","0.0-7.0-2.41","FL","0yjn7eg9zc","1536","864","0","1","0","5f06ee44c10cab2655ea3822","","null","","","learningBlock2","","","","<div style=""font-size:60px;""> </div>","null","FL","learning/Slide122.JPG","That was a wug.","","",""
"image-keyboard-response","373","384990","0.0-7.0-0.42","FL","0yjn7eg9zc","1536","864","0","1","0","5f06ee44c10cab2655ea3822","","null","","","","","","","learning/Slide123.JPG","null","","","","","",""
"html-keyboard-response","374","386163","0.0-7.0-1.42","FL","0yjn7eg9zc","1536","864","0","1","0","5f06ee44c10cab2655ea3822","","null","","","learningBlock2","","","","That was a bim.","null","","","","","",""
"html-keyboard-response","375","387169","0.0-7.0-2.42","FL","0yjn7eg9zc","1536","864","0","1","0","5f06ee44c10cab2655ea3822","","null","","","learningBlock2","","","","<div style=""font-size:60px;""> </div>","null","FL","learning/Slide123.JPG","That was a bim.","","",""
"image-keyboard-response","376","387356","0.0-7.0-0.43","FL","0yjn7eg9zc","1536","864","0","1","0","5f06ee44c10cab2655ea3822","","null","","","","","","","learning/Slide124.JPG","null","","","","","",""
"html-keyboard-response","377","388512","0.0-7.0-1.43","FL","0yjn7eg9zc","1536","864","0","1","0","5f06ee44c10cab2655ea3822","","null","","","learningBlock2","","","","That was a tob.","null","","","","","",""
"html-keyboard-response","378","389524","0.0-7.0-2.43","FL","0yjn7eg9zc","1536","864","0","1","0","5f06ee44c10cab2655ea3822","","null","","","learningBlock2","","","","<div style=""font-size:60px;""> </div>","null","FL","learning/Slide124.JPG","That was a tob.","","",""
"image-keyboard-response","379","389709","0.0-7.0-0.44","FL","0yjn7eg9zc","1536","864","0","1","0","5f06ee44c10cab2655ea3822","","null","","","","","","","learning/Slide125.JPG","null","","","","","",""
"html-keyboard-response","380","390886","0.0-7.0-1.44","FL","0yjn7eg9zc","1536","864","0","1","0","5f06ee44c10cab2655ea3822","","null","","","learningBlock2","","","","That was a bim.","null","","","","","",""
"html-keyboard-response","381","391897","0.0-7.0-2.44","FL","0yjn7eg9zc","1536","864","0","1","0","5f06ee44c10cab2655ea3822","","null","","","learningBlock2","","","","<div style=""font-size:60px;""> </div>","null","FL","learning/Slide125.JPG","That was a bim.","","",""
"image-keyboard-response","382","392082","0.0-7.0-0.45","FL","0yjn7eg9zc","1536","864","0","1","0","5f06ee44c10cab2655ea3822","","null","","","","","","","learning/Slide126.JPG","null","","","","","",""
"html-keyboard-response","383","393262","0.0-7.0-1.45","FL","0yjn7eg9zc","1536","864","0","1","0","5f06ee44c10cab2655ea3822","","null","","","learningBlock2","","","","That was a tob.","null","","","","","",""
"html-keyboard-response","384","394274","0.0-7.0-2.45","FL","0yjn7eg9zc","1536","864","0","1","0","5f06ee44c10cab2655ea3822","","null","","","learningBlock2","","","","<div style=""font-size:60px;""> </div>","null","FL","learning/Slide126.JPG","That was a tob.","","",""
"image-keyboard-response","385","394462","0.0-7.0-0.46","FL","0yjn7eg9zc","1536","864","0","1","0","5f06ee44c10cab2655ea3822","","null","","","","","","","learning/Slide127.JPG","null","","","","","",""
"html-keyboard-response","386","395632","0.0-7.0-1.46","FL","0yjn7eg9zc","1536","864","0","1","0","5f06ee44c10cab2655ea3822","","null","","","learningBlock2","","","","That was a dep.","null","","","","","",""
"html-keyboard-response","387","396636","0.0-7.0-2.46","FL","0yjn7eg9zc","1536","864","0","1","0","5f06ee44c10cab2655ea3822","","null","","","learningBlock2","","","","<div style=""font-size:60px;""> </div>","null","FL","learning/Slide127.JPG","That was a dep.","","",""
"image-keyboard-response","388","396821","0.0-7.0-0.47","FL","0yjn7eg9zc","1536","864","0","1","0","5f06ee44c10cab2655ea3822","","null","","","","","","","learning/Slide128.JPG","null","","","","","",""
"html-keyboard-response","389","397990","0.0-7.0-1.47","FL","0yjn7eg9zc","1536","864","0","1","0","5f06ee44c10cab2655ea3822","","null","","","learningBlock2","","","","That was a wug.","null","","","","","",""
"html-keyboard-response","390","399005","0.0-7.0-2.47","FL","0yjn7eg9zc","1536","864","0","1","0","5f06ee44c10cab2655ea3822","","null","","","learningBlock2","","","","<div style=""font-size:60px;""> </div>","null","FL","learning/Slide128.JPG","That was a wug.","","",""
"image-keyboard-response","391","399183","0.0-7.0-0.48","FL","0yjn7eg9zc","1536","864","0","1","0","5f06ee44c10cab2655ea3822","","null","","","","","","","learning/Slide129.JPG","null","","","","","",""
"html-keyboard-response","392","400354","0.0-7.0-1.48","FL","0yjn7eg9zc","1536","864","0","1","0","5f06ee44c10cab2655ea3822","","null","","","learningBlock2","","","","That was a tob.","null","","","","","",""
"html-keyboard-response","393","401370","0.0-7.0-2.48","FL","0yjn7eg9zc","1536","864","0","1","0","5f06ee44c10cab2655ea3822","","null","","","learningBlock2","","","","<div style=""font-size:60px;""> </div>","null","FL","learning/Slide129.JPG","That was a tob.","","",""
"image-keyboard-response","394","401556","0.0-7.0-0.49","FL","0yjn7eg9zc","1536","864","0","1","0","5f06ee44c10cab2655ea3822","","null","","","","","","","learning/Slide130.JPG","null","","","","","",""
"html-keyboard-response","395","402724","0.0-7.0-1.49","FL","0yjn7eg9zc","1536","864","0","1","0","5f06ee44c10cab2655ea3822","","null","","","learningBlock2","","","","That was a wug.","null","","","","","",""
"html-keyboard-response","396","403728","0.0-7.0-2.49","FL","0yjn7eg9zc","1536","864","0","1","0","5f06ee44c10cab2655ea3822","","null","","","learningBlock2","","","","<div style=""font-size:60px;""> </div>","null","FL","learning/Slide130.JPG","That was a wug.","","",""
"image-keyboard-response","397","403914","0.0-7.0-0.50","FL","0yjn7eg9zc","1536","864","0","1","0","5f06ee44c10cab2655ea3822","","null","","","","","","","learning/Slide131.JPG","null","","","","","",""
"html-keyboard-response","398","405081","0.0-7.0-1.50","FL","0yjn7eg9zc","1536","864","0","1","0","5f06ee44c10cab2655ea3822","","null","","","learningBlock2","","","","That was a bim.","null","","","","","",""
"html-keyboard-response","399","406084","0.0-7.0-2.50","FL","0yjn7eg9zc","1536","864","0","1","0","5f06ee44c10cab2655ea3822","","null","","","learningBlock2","","","","<div style=""font-size:60px;""> </div>","null","FL","learning/Slide131.JPG","That was a bim.","","",""
"image-keyboard-response","400","406273","0.0-7.0-0.51","FL","0yjn7eg9zc","1536","864","0","1","0","5f06ee44c10cab2655ea3822","","null","","","","","","","learning/Slide132.JPG","null","","","","","",""
"html-keyboard-response","401","407427","0.0-7.0-1.51","FL","0yjn7eg9zc","1536","864","0","1","0","5f06ee44c10cab2655ea3822","","null","","","learningBlock2","","","","That was a dep.","null","","","","","",""
"html-keyboard-response","402","408439","0.0-7.0-2.51","FL","0yjn7eg9zc","1536","864","0","1","0","5f06ee44c10cab2655ea3822","","null","","","learningBlock2","","","","<div style=""font-size:60px;""> </div>","null","FL","learning/Slide132.JPG","That was a dep.","","",""
"image-keyboard-response","403","408624","0.0-7.0-0.52","FL","0yjn7eg9zc","1536","864","0","1","0","5f06ee44c10cab2655ea3822","","null","","","","","","","learning/Slide133.JPG","null","","","","","",""
"html-keyboard-response","404","409790","0.0-7.0-1.52","FL","0yjn7eg9zc","1536","864","0","1","0","5f06ee44c10cab2655ea3822","","null","","","learningBlock2","","","","That was a tob.","null","","","","","",""
"html-keyboard-response","405","410796","0.0-7.0-2.52","FL","0yjn7eg9zc","1536","864","0","1","0","5f06ee44c10cab2655ea3822","","null","","","learningBlock2","","","","<div style=""font-size:60px;""> </div>","null","FL","learning/Slide133.JPG","That was a tob.","","",""
"image-keyboard-response","406","410981","0.0-7.0-0.53","FL","0yjn7eg9zc","1536","864","0","1","0","5f06ee44c10cab2655ea3822","","null","","","","","","","learning/Slide134.JPG","null","","","","","",""
"html-keyboard-response","407","412145","0.0-7.0-1.53","FL","0yjn7eg9zc","1536","864","0","1","0","5f06ee44c10cab2655ea3822","","null","","","learningBlock2","","","","That was a dep.","null","","","","","",""
"html-keyboard-response","408","413151","0.0-7.0-2.53","FL","0yjn7eg9zc","1536","864","0","1","0","5f06ee44c10cab2655ea3822","","null","","","learningBlock2","","","","<div style=""font-size:60px;""> </div>","null","FL","learning/Slide134.JPG","That was a dep.","","",""
"image-keyboard-response","409","413331","0.0-7.0-0.54","FL","0yjn7eg9zc","1536","864","0","1","0","5f06ee44c10cab2655ea3822","","null","","","","","","","learning/Slide135.JPG","null","","","","","",""
"html-keyboard-response","410","414502","0.0-7.0-1.54","FL","0yjn7eg9zc","1536","864","0","1","0","5f06ee44c10cab2655ea3822","","null","","","learningBlock2","","","","That was a tob.","null","","","","","",""
"html-keyboard-response","411","415517","0.0-7.0-2.54","FL","0yjn7eg9zc","1536","864","0","1","0","5f06ee44c10cab2655ea3822","","null","","","learningBlock2","","","","<div style=""font-size:60px;""> </div>","null","FL","learning/Slide135.JPG","That was a tob.","","",""
"image-keyboard-response","412","415696","0.0-7.0-0.55","FL","0yjn7eg9zc","1536","864","0","1","0","5f06ee44c10cab2655ea3822","","null","","","","","","","learning/Slide136.JPG","null","","","","","",""
"html-keyboard-response","413","416866","0.0-7.0-1.55","FL","0yjn7eg9zc","1536","864","0","1","0","5f06ee44c10cab2655ea3822","","null","","","learningBlock2","","","","That was a wug.","null","","","","","",""
"html-keyboard-response","414","417882","0.0-7.0-2.55","FL","0yjn7eg9zc","1536","864","0","1","0","5f06ee44c10cab2655ea3822","","null","","","learningBlock2","","","","<div style=""font-size:60px;""> </div>","null","FL","learning/Slide136.JPG","That was a wug.","","",""
"image-keyboard-response","415","418068","0.0-7.0-0.56","FL","0yjn7eg9zc","1536","864","0","1","0","5f06ee44c10cab2655ea3822","","null","","","","","","","learning/Slide137.JPG","null","","","","","",""
"html-keyboard-response","416","419239","0.0-7.0-1.56","FL","0yjn7eg9zc","1536","864","0","1","0","5f06ee44c10cab2655ea3822","","null","","","learningBlock2","","","","That was a tob.","null","","","","","",""
"html-keyboard-response","417","420248","0.0-7.0-2.56","FL","0yjn7eg9zc","1536","864","0","1","0","5f06ee44c10cab2655ea3822","","null","","","learningBlock2","","","","<div style=""font-size:60px;""> </div>","null","FL","learning/Slide137.JPG","That was a tob.","","",""
"image-keyboard-response","418","420435","0.0-7.0-0.57","FL","0yjn7eg9zc","1536","864","0","1","0","5f06ee44c10cab2655ea3822","","null","","","","","","","learning/Slide138.JPG","null","","","","","",""
"html-keyboard-response","419","421602","0.0-7.0-1.57","FL","0yjn7eg9zc","1536","864","0","1","0","5f06ee44c10cab2655ea3822","","null","","","learningBlock2","","","","That was a bim.","null","","","","","",""
"html-keyboard-response","420","422608","0.0-7.0-2.57","FL","0yjn7eg9zc","1536","864","0","1","0","5f06ee44c10cab2655ea3822","","null","","","learningBlock2","","","","<div style=""font-size:60px;""> </div>","null","FL","learning/Slide138.JPG","That was a bim.","","",""
"image-keyboard-response","421","422795","0.0-7.0-0.58","FL","0yjn7eg9zc","1536","864","0","1","0","5f06ee44c10cab2655ea3822","","null","","","","","","","learning/Slide139.JPG","null","","","","","",""
"html-keyboard-response","422","423956","0.0-7.0-1.58","FL","0yjn7eg9zc","1536","864","0","1","0","5f06ee44c10cab2655ea3822","","null","","","learningBlock2","","","","That was a wug.","null","","","","","",""
"html-keyboard-response","423","424972","0.0-7.0-2.58","FL","0yjn7eg9zc","1536","864","0","1","0","5f06ee44c10cab2655ea3822","","null","","","learningBlock2","","","","<div style=""font-size:60px;""> </div>","null","FL","learning/Slide139.JPG","That was a wug.","","",""
"image-keyboard-response","424","425157","0.0-7.0-0.59","FL","0yjn7eg9zc","1536","864","0","1","0","5f06ee44c10cab2655ea3822","","null","","","","","","","learning/Slide140.JPG","null","","","","","",""
"html-keyboard-response","425","426326","0.0-7.0-1.59","FL","0yjn7eg9zc","1536","864","0","1","0","5f06ee44c10cab2655ea3822","","null","","","learningBlock2","","","","That was a dep.","null","","","","","",""
"html-keyboard-response","426","427343","0.0-7.0-2.59","FL","0yjn7eg9zc","1536","864","0","1","0","5f06ee44c10cab2655ea3822","","null","","","learningBlock2","","","","<div style=""font-size:60px;""> </div>","null","FL","learning/Slide140.JPG","That was a dep.","","",""
"image-keyboard-response","427","427528","0.0-7.0-0.60","FL","0yjn7eg9zc","1536","864","0","1","0","5f06ee44c10cab2655ea3822","","null","","","","","","","learning/Slide141.JPG","null","","","","","",""
"html-keyboard-response","428","428704","0.0-7.0-1.60","FL","0yjn7eg9zc","1536","864","0","1","0","5f06ee44c10cab2655ea3822","","null","","","learningBlock2","","","","That was a tob.","null","","","","","",""
"html-keyboard-response","429","429706","0.0-7.0-2.60","FL","0yjn7eg9zc","1536","864","0","1","0","5f06ee44c10cab2655ea3822","","null","","","learningBlock2","","","","<div style=""font-size:60px;""> </div>","null","FL","learning/Slide141.JPG","That was a tob.","","",""
"image-keyboard-response","430","429891","0.0-7.0-0.61","FL","0yjn7eg9zc","1536","864","0","1","0","5f06ee44c10cab2655ea3822","","null","","","","","","","learning/Slide142.JPG","null","","","","","",""
"html-keyboard-response","431","431050","0.0-7.0-1.61","FL","0yjn7eg9zc","1536","864","0","1","0","5f06ee44c10cab2655ea3822","","null","","","learningBlock2","","","","That was a wug.","null","","","","","",""
"html-keyboard-response","432","432061","0.0-7.0-2.61","FL","0yjn7eg9zc","1536","864","0","1","0","5f06ee44c10cab2655ea3822","","null","","","learningBlock2","","","","<div style=""font-size:60px;""> </div>","null","FL","learning/Slide142.JPG","That was a wug.","","",""
"image-keyboard-response","433","432238","0.0-7.0-0.62","FL","0yjn7eg9zc","1536","864","0","1","0","5f06ee44c10cab2655ea3822","","null","","","","","","","learning/Slide143.JPG","null","","","","","",""
"html-keyboard-response","434","433399","0.0-7.0-1.62","FL","0yjn7eg9zc","1536","864","0","1","0","5f06ee44c10cab2655ea3822","","null","","","learningBlock2","","","","That was a bim.","null","","","","","",""
"html-keyboard-response","435","434410","0.0-7.0-2.62","FL","0yjn7eg9zc","1536","864","0","1","0","5f06ee44c10cab2655ea3822","","null","","","learningBlock2","","","","<div style=""font-size:60px;""> </div>","null","FL","learning/Slide143.JPG","That was a bim.","","",""
"image-keyboard-response","436","434596","0.0-7.0-0.63","FL","0yjn7eg9zc","1536","864","0","1","0","5f06ee44c10cab2655ea3822","","null","","","","","","","learning/Slide144.JPG","null","","","","","",""
