"trial_type","trial_index","time_elapsed","internal_node_id","condition","subject","screen_width","screen_height","attention","distraction","conscientious","prolificID","success","rt","url","view_history","test_part","final_height_px","final_width_px","scale_factor","stimulus","key_press","learningType","presentedImage","presentedLabel","button_pressed","response","responses"
"pavlovia","0","27","0.0-0.0","FL","pbt3n7l1gj","1920","1080","0","1","0","5f63d70e4e460f141abccbc1","","","","","","","","","","","","","","","",""
"fullscreen","1","6136","0.0-1.0","FL","pbt3n7l1gj","1920","1080","0","1","0","5f63d70e4e460f141abccbc1","true","","","","","","","","","","","","","","",""
"external-html","2","32618","0.0-2.0-0.0","FL","pbt3n7l1gj","1920","1080","0","1","0","5f63d70e4e460f141abccbc1","","26427.629999932833","text/information_english.html","","","","","","","","","","","","",""
"external-html","3","37084","0.0-2.0-1.0","FL","pbt3n7l1gj","1920","1080","0","1","0","5f63d70e4e460f141abccbc1","","4404.905000003055","text/consent_english.html","","","","","","","","","","","","",""
"instructions","4","69862","0.0-3.0","FL","pbt3n7l1gj","1920","1080","0","1","0","5f63d70e4e460f141abccbc1","","NA","","[{""page_index"":0,""viewing_time"":16433.42500005383},{""page_index"":1,""viewing_time"":16338.355000014417}]","instructions","","","","","","","","","","",""
"resize","5","119874","0.0-4.0","FL","pbt3n7l1gj","1920","1080","0","1","0","5f63d70e4e460f141abccbc1","","","","","","","322","2.0444444444444443","","","","","","","",""
"image-keyboard-response","6","120051","0.0-5.0-0.0","FL","pbt3n7l1gj","1920","1080","0","1","0","5f63d70e4e460f141abccbc1","","null","","","","","","","learning/Slide1.JPG","null","","","","","",""
"html-keyboard-response","7","121203","0.0-5.0-1.0","FL","pbt3n7l1gj","1920","1080","0","1","0","5f63d70e4e460f141abccbc1","","null","","","learningBlock1","","","","That was a tob.","null","","","","","",""
"html-keyboard-response","8","122204","0.0-5.0-2.0","FL","pbt3n7l1gj","1920","1080","0","1","0","5f63d70e4e460f141abccbc1","","null","","","learningBlock1","","","","<div style=""font-size:60px;""> </div>","null","FL","learning/Slide1.JPG","That was a tob.","","",""
"image-keyboard-response","9","122380","0.0-5.0-0.1","FL","pbt3n7l1gj","1920","1080","0","1","0","5f63d70e4e460f141abccbc1","","null","","","","","","","learning/Slide2.JPG","null","","","","","",""
"html-keyboard-response","10","123532","0.0-5.0-1.1","FL","pbt3n7l1gj","1920","1080","0","1","0","5f63d70e4e460f141abccbc1","","null","","","learningBlock1","","","","That was a wug.","null","","","","","",""
"html-keyboard-response","11","124533","0.0-5.0-2.1","FL","pbt3n7l1gj","1920","1080","0","1","0","5f63d70e4e460f141abccbc1","","null","","","learningBlock1","","","","<div style=""font-size:60px;""> </div>","null","FL","learning/Slide2.JPG","That was a wug.","","",""
"image-keyboard-response","12","124709","0.0-5.0-0.2","FL","pbt3n7l1gj","1920","1080","0","1","0","5f63d70e4e460f141abccbc1","","null","","","","","","","learning/Slide3.JPG","null","","","","","",""
"html-keyboard-response","13","125861","0.0-5.0-1.2","FL","pbt3n7l1gj","1920","1080","0","1","0","5f63d70e4e460f141abccbc1","","null","","","learningBlock1","","","","That was a bim.","null","","","","","",""
"html-keyboard-response","14","126862","0.0-5.0-2.2","FL","pbt3n7l1gj","1920","1080","0","1","0","5f63d70e4e460f141abccbc1","","null","","","learningBlock1","","","","<div style=""font-size:60px;""> </div>","null","FL","learning/Slide3.JPG","That was a bim.","","",""
"image-keyboard-response","15","127038","0.0-5.0-0.3","FL","pbt3n7l1gj","1920","1080","0","1","0","5f63d70e4e460f141abccbc1","","null","","","","","","","learning/Slide4.JPG","null","","","","","",""
"html-keyboard-response","16","128190","0.0-5.0-1.3","FL","pbt3n7l1gj","1920","1080","0","1","0","5f63d70e4e460f141abccbc1","","null","","","learningBlock1","","","","That was a dep.","null","","","","","",""
"html-keyboard-response","17","129191","0.0-5.0-2.3","FL","pbt3n7l1gj","1920","1080","0","1","0","5f63d70e4e460f141abccbc1","","null","","","learningBlock1","","","","<div style=""font-size:60px;""> </div>","null","FL","learning/Slide4.JPG","That was a dep.","","",""
"image-keyboard-response","18","129367","0.0-5.0-0.4","FL","pbt3n7l1gj","1920","1080","0","1","0","5f63d70e4e460f141abccbc1","","null","","","","","","","learning/Slide5.JPG","null","","","","","",""
"html-keyboard-response","19","130519","0.0-5.0-1.4","FL","pbt3n7l1gj","1920","1080","0","1","0","5f63d70e4e460f141abccbc1","","null","","","learningBlock1","","","","That was a wug.","null","","","","","",""
"html-keyboard-response","20","131520","0.0-5.0-2.4","FL","pbt3n7l1gj","1920","1080","0","1","0","5f63d70e4e460f141abccbc1","","null","","","learningBlock1","","","","<div style=""font-size:60px;""> </div>","null","FL","learning/Slide5.JPG","That was a wug.","","",""
"image-keyboard-response","21","131696","0.0-5.0-0.5","FL","pbt3n7l1gj","1920","1080","0","1","0","5f63d70e4e460f141abccbc1","","null","","","","","","","learning/Slide6.JPG","null","","","","","",""
"html-keyboard-response","22","132848","0.0-5.0-1.5","FL","pbt3n7l1gj","1920","1080","0","1","0","5f63d70e4e460f141abccbc1","","null","","","learningBlock1","","","","That was a dep.","null","","","","","",""
"html-keyboard-response","23","133849","0.0-5.0-2.5","FL","pbt3n7l1gj","1920","1080","0","1","0","5f63d70e4e460f141abccbc1","","null","","","learningBlock1","","","","<div style=""font-size:60px;""> </div>","null","FL","learning/Slide6.JPG","That was a dep.","","",""
"image-keyboard-response","24","134026","0.0-5.0-0.6","FL","pbt3n7l1gj","1920","1080","0","1","0","5f63d70e4e460f141abccbc1","","null","","","","","","","learning/Slide7.JPG","null","","","","","",""
"html-keyboard-response","25","135178","0.0-5.0-1.6","FL","pbt3n7l1gj","1920","1080","0","1","0","5f63d70e4e460f141abccbc1","","null","","","learningBlock1","","","","That was a wug.","null","","","","","",""
"html-keyboard-response","26","136179","0.0-5.0-2.6","FL","pbt3n7l1gj","1920","1080","0","1","0","5f63d70e4e460f141abccbc1","","null","","","learningBlock1","","","","<div style=""font-size:60px;""> </div>","null","FL","learning/Slide7.JPG","That was a wug.","","",""
"image-keyboard-response","27","136355","0.0-5.0-0.7","FL","pbt3n7l1gj","1920","1080","0","1","0","5f63d70e4e460f141abccbc1","","null","","","","","","","learning/Slide8.JPG","null","","","","","",""
"html-keyboard-response","28","137507","0.0-5.0-1.7","FL","pbt3n7l1gj","1920","1080","0","1","0","5f63d70e4e460f141abccbc1","","null","","","learningBlock1","","","","That was a bim.","null","","","","","",""
"html-keyboard-response","29","138509","0.0-5.0-2.7","FL","pbt3n7l1gj","1920","1080","0","1","0","5f63d70e4e460f141abccbc1","","null","","","learningBlock1","","","","<div style=""font-size:60px;""> </div>","null","FL","learning/Slide8.JPG","That was a bim.","","",""
"image-keyboard-response","30","138685","0.0-5.0-0.8","FL","pbt3n7l1gj","1920","1080","0","1","0","5f63d70e4e460f141abccbc1","","null","","","","","","","learning/Slide9.JPG","null","","","","","",""
"html-keyboard-response","31","139837","0.0-5.0-1.8","FL","pbt3n7l1gj","1920","1080","0","1","0","5f63d70e4e460f141abccbc1","","null","","","learningBlock1","","","","That was a wug.","null","","","","","",""
"html-keyboard-response","32","140838","0.0-5.0-2.8","FL","pbt3n7l1gj","1920","1080","0","1","0","5f63d70e4e460f141abccbc1","","null","","","learningBlock1","","","","<div style=""font-size:60px;""> </div>","null","FL","learning/Slide9.JPG","That was a wug.","","",""
"image-keyboard-response","33","141014","0.0-5.0-0.9","FL","pbt3n7l1gj","1920","1080","0","1","0","5f63d70e4e460f141abccbc1","","null","","","","","","","learning/Slide10.JPG","null","","","","","",""
"html-keyboard-response","34","142167","0.0-5.0-1.9","FL","pbt3n7l1gj","1920","1080","0","1","0","5f63d70e4e460f141abccbc1","","null","","","learningBlock1","","","","That was a dep.","null","","","","","",""
"html-keyboard-response","35","143170","0.0-5.0-2.9","FL","pbt3n7l1gj","1920","1080","0","1","0","5f63d70e4e460f141abccbc1","","null","","","learningBlock1","","","","<div style=""font-size:60px;""> </div>","null","FL","learning/Slide10.JPG","That was a dep.","","",""
"image-keyboard-response","36","143346","0.0-5.0-0.10","FL","pbt3n7l1gj","1920","1080","0","1","0","5f63d70e4e460f141abccbc1","","null","","","","","","","learning/Slide11.JPG","null","","","","","",""
"html-keyboard-response","37","144498","0.0-5.0-1.10","FL","pbt3n7l1gj","1920","1080","0","1","0","5f63d70e4e460f141abccbc1","","null","","","learningBlock1","","","","That was a tob.","null","","","","","",""
"html-keyboard-response","38","145501","0.0-5.0-2.10","FL","pbt3n7l1gj","1920","1080","0","1","0","5f63d70e4e460f141abccbc1","","null","","","learningBlock1","","","","<div style=""font-size:60px;""> </div>","null","FL","learning/Slide11.JPG","That was a tob.","","",""
"image-keyboard-response","39","145678","0.0-5.0-0.11","FL","pbt3n7l1gj","1920","1080","0","1","0","5f63d70e4e460f141abccbc1","","null","","","","","","","learning/Slide12.JPG","null","","","","","",""
"html-keyboard-response","40","146830","0.0-5.0-1.11","FL","pbt3n7l1gj","1920","1080","0","1","0","5f63d70e4e460f141abccbc1","","null","","","learningBlock1","","","","That was a dep.","null","","","","","",""
"html-keyboard-response","41","147831","0.0-5.0-2.11","FL","pbt3n7l1gj","1920","1080","0","1","0","5f63d70e4e460f141abccbc1","","null","","","learningBlock1","","","","<div style=""font-size:60px;""> </div>","null","FL","learning/Slide12.JPG","That was a dep.","","",""
"image-keyboard-response","42","148007","0.0-5.0-0.12","FL","pbt3n7l1gj","1920","1080","0","1","0","5f63d70e4e460f141abccbc1","","null","","","","","","","learning/Slide13.JPG","null","","","","","",""
"html-keyboard-response","43","149159","0.0-5.0-1.12","FL","pbt3n7l1gj","1920","1080","0","1","0","5f63d70e4e460f141abccbc1","","null","","","learningBlock1","","","","That was a bim.","null","","","","","",""
"html-keyboard-response","44","150160","0.0-5.0-2.12","FL","pbt3n7l1gj","1920","1080","0","1","0","5f63d70e4e460f141abccbc1","","null","","","learningBlock1","","","","<div style=""font-size:60px;""> </div>","null","FL","learning/Slide13.JPG","That was a bim.","","",""
"image-keyboard-response","45","150336","0.0-5.0-0.13","FL","pbt3n7l1gj","1920","1080","0","1","0","5f63d70e4e460f141abccbc1","","null","","","","","","","learning/Slide14.JPG","null","","","","","",""
"html-keyboard-response","46","151488","0.0-5.0-1.13","FL","pbt3n7l1gj","1920","1080","0","1","0","5f63d70e4e460f141abccbc1","","null","","","learningBlock1","","","","That was a wug.","null","","","","","",""
"html-keyboard-response","47","152489","0.0-5.0-2.13","FL","pbt3n7l1gj","1920","1080","0","1","0","5f63d70e4e460f141abccbc1","","null","","","learningBlock1","","","","<div style=""font-size:60px;""> </div>","null","FL","learning/Slide14.JPG","That was a wug.","","",""
"image-keyboard-response","48","152666","0.0-5.0-0.14","FL","pbt3n7l1gj","1920","1080","0","1","0","5f63d70e4e460f141abccbc1","","null","","","","","","","learning/Slide15.JPG","null","","","","","",""
"html-keyboard-response","49","153818","0.0-5.0-1.14","FL","pbt3n7l1gj","1920","1080","0","1","0","5f63d70e4e460f141abccbc1","","null","","","learningBlock1","","","","That was a tob.","null","","","","","",""
"html-keyboard-response","50","154820","0.0-5.0-2.14","FL","pbt3n7l1gj","1920","1080","0","1","0","5f63d70e4e460f141abccbc1","","null","","","learningBlock1","","","","<div style=""font-size:60px;""> </div>","null","FL","learning/Slide15.JPG","That was a tob.","","",""
"image-keyboard-response","51","154996","0.0-5.0-0.15","FL","pbt3n7l1gj","1920","1080","0","1","0","5f63d70e4e460f141abccbc1","","null","","","","","","","learning/Slide16.JPG","null","","","","","",""
"html-keyboard-response","52","156148","0.0-5.0-1.15","FL","pbt3n7l1gj","1920","1080","0","1","0","5f63d70e4e460f141abccbc1","","null","","","learningBlock1","","","","That was a dep.","null","","","","","",""
"html-keyboard-response","53","157149","0.0-5.0-2.15","FL","pbt3n7l1gj","1920","1080","0","1","0","5f63d70e4e460f141abccbc1","","null","","","learningBlock1","","","","<div style=""font-size:60px;""> </div>","null","FL","learning/Slide16.JPG","That was a dep.","","",""
"image-keyboard-response","54","157325","0.0-5.0-0.16","FL","pbt3n7l1gj","1920","1080","0","1","0","5f63d70e4e460f141abccbc1","","null","","","","","","","learning/Slide17.JPG","null","","","","","",""
"html-keyboard-response","55","158477","0.0-5.0-1.16","FL","pbt3n7l1gj","1920","1080","0","1","0","5f63d70e4e460f141abccbc1","","null","","","learningBlock1","","","","That was a bim.","null","","","","","",""
"html-keyboard-response","56","159478","0.0-5.0-2.16","FL","pbt3n7l1gj","1920","1080","0","1","0","5f63d70e4e460f141abccbc1","","null","","","learningBlock1","","","","<div style=""font-size:60px;""> </div>","null","FL","learning/Slide17.JPG","That was a bim.","","",""
"image-keyboard-response","57","159654","0.0-5.0-0.17","FL","pbt3n7l1gj","1920","1080","0","1","0","5f63d70e4e460f141abccbc1","","null","","","","","","","learning/Slide18.JPG","null","","","","","",""
"html-keyboard-response","58","160806","0.0-5.0-1.17","FL","pbt3n7l1gj","1920","1080","0","1","0","5f63d70e4e460f141abccbc1","","null","","","learningBlock1","","","","That was a tob.","null","","","","","",""
"html-keyboard-response","59","161807","0.0-5.0-2.17","FL","pbt3n7l1gj","1920","1080","0","1","0","5f63d70e4e460f141abccbc1","","null","","","learningBlock1","","","","<div style=""font-size:60px;""> </div>","null","FL","learning/Slide18.JPG","That was a tob.","","",""
"image-keyboard-response","60","161983","0.0-5.0-0.18","FL","pbt3n7l1gj","1920","1080","0","1","0","5f63d70e4e460f141abccbc1","","null","","","","","","","learning/Slide19.JPG","null","","","","","",""
"html-keyboard-response","61","163135","0.0-5.0-1.18","FL","pbt3n7l1gj","1920","1080","0","1","0","5f63d70e4e460f141abccbc1","","null","","","learningBlock1","","","","That was a wug.","null","","","","","",""
"html-keyboard-response","62","164136","0.0-5.0-2.18","FL","pbt3n7l1gj","1920","1080","0","1","0","5f63d70e4e460f141abccbc1","","null","","","learningBlock1","","","","<div style=""font-size:60px;""> </div>","null","FL","learning/Slide19.JPG","That was a wug.","","",""
"image-keyboard-response","63","164312","0.0-5.0-0.19","FL","pbt3n7l1gj","1920","1080","0","1","0","5f63d70e4e460f141abccbc1","","null","","","","","","","learning/Slide20.JPG","null","","","","","",""
"html-keyboard-response","64","165464","0.0-5.0-1.19","FL","pbt3n7l1gj","1920","1080","0","1","0","5f63d70e4e460f141abccbc1","","null","","","learningBlock1","","","","That was a bim.","null","","","","","",""
"html-keyboard-response","65","166465","0.0-5.0-2.19","FL","pbt3n7l1gj","1920","1080","0","1","0","5f63d70e4e460f141abccbc1","","null","","","learningBlock1","","","","<div style=""font-size:60px;""> </div>","null","FL","learning/Slide20.JPG","That was a bim.","","",""
"image-keyboard-response","66","166641","0.0-5.0-0.20","FL","pbt3n7l1gj","1920","1080","0","1","0","5f63d70e4e460f141abccbc1","","null","","","","","","","learning/Slide21.JPG","null","","","","","",""
"html-keyboard-response","67","167793","0.0-5.0-1.20","FL","pbt3n7l1gj","1920","1080","0","1","0","5f63d70e4e460f141abccbc1","","null","","","learningBlock1","","","","That was a dep.","null","","","","","",""
"html-keyboard-response","68","168794","0.0-5.0-2.20","FL","pbt3n7l1gj","1920","1080","0","1","0","5f63d70e4e460f141abccbc1","","null","","","learningBlock1","","","","<div style=""font-size:60px;""> </div>","null","FL","learning/Slide21.JPG","That was a dep.","","",""
"image-keyboard-response","69","168971","0.0-5.0-0.21","FL","pbt3n7l1gj","1920","1080","0","1","0","5f63d70e4e460f141abccbc1","","null","","","","","","","learning/Slide22.JPG","null","","","","","",""
"html-keyboard-response","70","170123","0.0-5.0-1.21","FL","pbt3n7l1gj","1920","1080","0","1","0","5f63d70e4e460f141abccbc1","","null","","","learningBlock1","","","","That was a bim.","null","","","","","",""
"html-keyboard-response","71","171124","0.0-5.0-2.21","FL","pbt3n7l1gj","1920","1080","0","1","0","5f63d70e4e460f141abccbc1","","null","","","learningBlock1","","","","<div style=""font-size:60px;""> </div>","null","FL","learning/Slide22.JPG","That was a bim.","","",""
"image-keyboard-response","72","171300","0.0-5.0-0.22","FL","pbt3n7l1gj","1920","1080","0","1","0","5f63d70e4e460f141abccbc1","","null","","","","","","","learning/Slide23.JPG","null","","","","","",""
"html-keyboard-response","73","172453","0.0-5.0-1.22","FL","pbt3n7l1gj","1920","1080","0","1","0","5f63d70e4e460f141abccbc1","","null","","","learningBlock1","","","","That was a tob.","null","","","","","",""
"html-keyboard-response","74","173454","0.0-5.0-2.22","FL","pbt3n7l1gj","1920","1080","0","1","0","5f63d70e4e460f141abccbc1","","null","","","learningBlock1","","","","<div style=""font-size:60px;""> </div>","null","FL","learning/Slide23.JPG","That was a tob.","","",""
"image-keyboard-response","75","173630","0.0-5.0-0.23","FL","pbt3n7l1gj","1920","1080","0","1","0","5f63d70e4e460f141abccbc1","","null","","","","","","","learning/Slide24.JPG","null","","","","","",""
"html-keyboard-response","76","174783","0.0-5.0-1.23","FL","pbt3n7l1gj","1920","1080","0","1","0","5f63d70e4e460f141abccbc1","","null","","","learningBlock1","","","","That was a wug.","null","","","","","",""
"html-keyboard-response","77","175784","0.0-5.0-2.23","FL","pbt3n7l1gj","1920","1080","0","1","0","5f63d70e4e460f141abccbc1","","null","","","learningBlock1","","","","<div style=""font-size:60px;""> </div>","null","FL","learning/Slide24.JPG","That was a wug.","","",""
"image-keyboard-response","78","175960","0.0-5.0-0.24","FL","pbt3n7l1gj","1920","1080","0","1","0","5f63d70e4e460f141abccbc1","","null","","","","","","","learning/Slide25.JPG","null","","","","","",""
"html-keyboard-response","79","177112","0.0-5.0-1.24","FL","pbt3n7l1gj","1920","1080","0","1","0","5f63d70e4e460f141abccbc1","","null","","","learningBlock1","","","","That was a dep.","null","","","","","",""
"html-keyboard-response","80","178113","0.0-5.0-2.24","FL","pbt3n7l1gj","1920","1080","0","1","0","5f63d70e4e460f141abccbc1","","null","","","learningBlock1","","","","<div style=""font-size:60px;""> </div>","null","FL","learning/Slide25.JPG","That was a dep.","","",""
"image-keyboard-response","81","178289","0.0-5.0-0.25","FL","pbt3n7l1gj","1920","1080","0","1","0","5f63d70e4e460f141abccbc1","","null","","","","","","","learning/Slide26.JPG","null","","","","","",""
"html-keyboard-response","82","179441","0.0-5.0-1.25","FL","pbt3n7l1gj","1920","1080","0","1","0","5f63d70e4e460f141abccbc1","","null","","","learningBlock1","","","","That was a wug.","null","","","","","",""
"html-keyboard-response","83","180442","0.0-5.0-2.25","FL","pbt3n7l1gj","1920","1080","0","1","0","5f63d70e4e460f141abccbc1","","null","","","learningBlock1","","","","<div style=""font-size:60px;""> </div>","null","FL","learning/Slide26.JPG","That was a wug.","","",""
"image-keyboard-response","84","180618","0.0-5.0-0.26","FL","pbt3n7l1gj","1920","1080","0","1","0","5f63d70e4e460f141abccbc1","","null","","","","","","","learning/Slide27.JPG","null","","","","","",""
"html-keyboard-response","85","181770","0.0-5.0-1.26","FL","pbt3n7l1gj","1920","1080","0","1","0","5f63d70e4e460f141abccbc1","","null","","","learningBlock1","","","","That was a bim.","null","","","","","",""
"html-keyboard-response","86","182771","0.0-5.0-2.26","FL","pbt3n7l1gj","1920","1080","0","1","0","5f63d70e4e460f141abccbc1","","null","","","learningBlock1","","","","<div style=""font-size:60px;""> </div>","null","FL","learning/Slide27.JPG","That was a bim.","","",""
"image-keyboard-response","87","182947","0.0-5.0-0.27","FL","pbt3n7l1gj","1920","1080","0","1","0","5f63d70e4e460f141abccbc1","","null","","","","","","","learning/Slide28.JPG","null","","","","","",""
"html-keyboard-response","88","184099","0.0-5.0-1.27","FL","pbt3n7l1gj","1920","1080","0","1","0","5f63d70e4e460f141abccbc1","","null","","","learningBlock1","","","","That was a dep.","null","","","","","",""
"html-keyboard-response","89","185100","0.0-5.0-2.27","FL","pbt3n7l1gj","1920","1080","0","1","0","5f63d70e4e460f141abccbc1","","null","","","learningBlock1","","","","<div style=""font-size:60px;""> </div>","null","FL","learning/Slide28.JPG","That was a dep.","","",""
"image-keyboard-response","90","185277","0.0-5.0-0.28","FL","pbt3n7l1gj","1920","1080","0","1","0","5f63d70e4e460f141abccbc1","","null","","","","","","","learning/Slide29.JPG","null","","","","","",""
"html-keyboard-response","91","186429","0.0-5.0-1.28","FL","pbt3n7l1gj","1920","1080","0","1","0","5f63d70e4e460f141abccbc1","","null","","","learningBlock1","","","","That was a tob.","null","","","","","",""
"html-keyboard-response","92","187429","0.0-5.0-2.28","FL","pbt3n7l1gj","1920","1080","0","1","0","5f63d70e4e460f141abccbc1","","null","","","learningBlock1","","","","<div style=""font-size:60px;""> </div>","null","FL","learning/Slide29.JPG","That was a tob.","","",""
"image-keyboard-response","93","187606","0.0-5.0-0.29","FL","pbt3n7l1gj","1920","1080","0","1","0","5f63d70e4e460f141abccbc1","","null","","","","","","","learning/Slide30.JPG","null","","","","","",""
"html-keyboard-response","94","188758","0.0-5.0-1.29","FL","pbt3n7l1gj","1920","1080","0","1","0","5f63d70e4e460f141abccbc1","","null","","","learningBlock1","","","","That was a dep.","null","","","","","",""
"html-keyboard-response","95","189759","0.0-5.0-2.29","FL","pbt3n7l1gj","1920","1080","0","1","0","5f63d70e4e460f141abccbc1","","null","","","learningBlock1","","","","<div style=""font-size:60px;""> </div>","null","FL","learning/Slide30.JPG","That was a dep.","","",""
"image-keyboard-response","96","189935","0.0-5.0-0.30","FL","pbt3n7l1gj","1920","1080","0","1","0","5f63d70e4e460f141abccbc1","","null","","","","","","","learning/Slide31.JPG","null","","","","","",""
"html-keyboard-response","97","191087","0.0-5.0-1.30","FL","pbt3n7l1gj","1920","1080","0","1","0","5f63d70e4e460f141abccbc1","","null","","","learningBlock1","","","","That was a wug.","null","","","","","",""
"html-keyboard-response","98","192088","0.0-5.0-2.30","FL","pbt3n7l1gj","1920","1080","0","1","0","5f63d70e4e460f141abccbc1","","null","","","learningBlock1","","","","<div style=""font-size:60px;""> </div>","null","FL","learning/Slide31.JPG","That was a wug.","","",""
"image-keyboard-response","99","192264","0.0-5.0-0.31","FL","pbt3n7l1gj","1920","1080","0","1","0","5f63d70e4e460f141abccbc1","","null","","","","","","","learning/Slide32.JPG","null","","","","","",""
"html-keyboard-response","100","193416","0.0-5.0-1.31","FL","pbt3n7l1gj","1920","1080","0","1","0","5f63d70e4e460f141abccbc1","","null","","","learningBlock1","","","","That was a tob.","null","","","","","",""
"html-keyboard-response","101","194417","0.0-5.0-2.31","FL","pbt3n7l1gj","1920","1080","0","1","0","5f63d70e4e460f141abccbc1","","null","","","learningBlock1","","","","<div style=""font-size:60px;""> </div>","null","FL","learning/Slide32.JPG","That was a tob.","","",""
"image-keyboard-response","102","194593","0.0-5.0-0.32","FL","pbt3n7l1gj","1920","1080","0","1","0","5f63d70e4e460f141abccbc1","","null","","","","","","","learning/Slide33.JPG","null","","","","","",""
"html-keyboard-response","103","195745","0.0-5.0-1.32","FL","pbt3n7l1gj","1920","1080","0","1","0","5f63d70e4e460f141abccbc1","","null","","","learningBlock1","","","","That was a bim.","null","","","","","",""
"html-keyboard-response","104","196746","0.0-5.0-2.32","FL","pbt3n7l1gj","1920","1080","0","1","0","5f63d70e4e460f141abccbc1","","null","","","learningBlock1","","","","<div style=""font-size:60px;""> </div>","null","FL","learning/Slide33.JPG","That was a bim.","","",""
"image-keyboard-response","105","196922","0.0-5.0-0.33","FL","pbt3n7l1gj","1920","1080","0","1","0","5f63d70e4e460f141abccbc1","","null","","","","","","","learning/Slide34.JPG","null","","","","","",""
"html-keyboard-response","106","198074","0.0-5.0-1.33","FL","pbt3n7l1gj","1920","1080","0","1","0","5f63d70e4e460f141abccbc1","","null","","","learningBlock1","","","","That was a tob.","null","","","","","",""
"html-keyboard-response","107","199075","0.0-5.0-2.33","FL","pbt3n7l1gj","1920","1080","0","1","0","5f63d70e4e460f141abccbc1","","null","","","learningBlock1","","","","<div style=""font-size:60px;""> </div>","null","FL","learning/Slide34.JPG","That was a tob.","","",""
"image-keyboard-response","108","199251","0.0-5.0-0.34","FL","pbt3n7l1gj","1920","1080","0","1","0","5f63d70e4e460f141abccbc1","","null","","","","","","","learning/Slide35.JPG","null","","","","","",""
"html-keyboard-response","109","200403","0.0-5.0-1.34","FL","pbt3n7l1gj","1920","1080","0","1","0","5f63d70e4e460f141abccbc1","","null","","","learningBlock1","","","","That was a bim.","null","","","","","",""
"html-keyboard-response","110","201404","0.0-5.0-2.34","FL","pbt3n7l1gj","1920","1080","0","1","0","5f63d70e4e460f141abccbc1","","null","","","learningBlock1","","","","<div style=""font-size:60px;""> </div>","null","FL","learning/Slide35.JPG","That was a bim.","","",""
"image-keyboard-response","111","201580","0.0-5.0-0.35","FL","pbt3n7l1gj","1920","1080","0","1","0","5f63d70e4e460f141abccbc1","","null","","","","","","","learning/Slide36.JPG","null","","","","","",""
"html-keyboard-response","112","202732","0.0-5.0-1.35","FL","pbt3n7l1gj","1920","1080","0","1","0","5f63d70e4e460f141abccbc1","","null","","","learningBlock1","","","","That was a dep.","null","","","","","",""
"html-keyboard-response","113","203733","0.0-5.0-2.35","FL","pbt3n7l1gj","1920","1080","0","1","0","5f63d70e4e460f141abccbc1","","null","","","learningBlock1","","","","<div style=""font-size:60px;""> </div>","null","FL","learning/Slide36.JPG","That was a dep.","","",""
"image-keyboard-response","114","203909","0.0-5.0-0.36","FL","pbt3n7l1gj","1920","1080","0","1","0","5f63d70e4e460f141abccbc1","","null","","","","","","","learning/Slide37.JPG","null","","","","","",""
"html-keyboard-response","115","205061","0.0-5.0-1.36","FL","pbt3n7l1gj","1920","1080","0","1","0","5f63d70e4e460f141abccbc1","","null","","","learningBlock1","","","","That was a tob.","null","","","","","",""
"html-keyboard-response","116","206062","0.0-5.0-2.36","FL","pbt3n7l1gj","1920","1080","0","1","0","5f63d70e4e460f141abccbc1","","null","","","learningBlock1","","","","<div style=""font-size:60px;""> </div>","null","FL","learning/Slide37.JPG","That was a tob.","","",""
"image-keyboard-response","117","206239","0.0-5.0-0.37","FL","pbt3n7l1gj","1920","1080","0","1","0","5f63d70e4e460f141abccbc1","","null","","","","","","","learning/Slide38.JPG","null","","","","","",""
"html-keyboard-response","118","207391","0.0-5.0-1.37","FL","pbt3n7l1gj","1920","1080","0","1","0","5f63d70e4e460f141abccbc1","","null","","","learningBlock1","","","","That was a wug.","null","","","","","",""
"html-keyboard-response","119","208392","0.0-5.0-2.37","FL","pbt3n7l1gj","1920","1080","0","1","0","5f63d70e4e460f141abccbc1","","null","","","learningBlock1","","","","<div style=""font-size:60px;""> </div>","null","FL","learning/Slide38.JPG","That was a wug.","","",""
"image-keyboard-response","120","208568","0.0-5.0-0.38","FL","pbt3n7l1gj","1920","1080","0","1","0","5f63d70e4e460f141abccbc1","","null","","","","","","","learning/Slide39.JPG","null","","","","","",""
"html-keyboard-response","121","209720","0.0-5.0-1.38","FL","pbt3n7l1gj","1920","1080","0","1","0","5f63d70e4e460f141abccbc1","","null","","","learningBlock1","","","","That was a bim.","null","","","","","",""
"html-keyboard-response","122","210721","0.0-5.0-2.38","FL","pbt3n7l1gj","1920","1080","0","1","0","5f63d70e4e460f141abccbc1","","null","","","learningBlock1","","","","<div style=""font-size:60px;""> </div>","null","FL","learning/Slide39.JPG","That was a bim.","","",""
"image-keyboard-response","123","210897","0.0-5.0-0.39","FL","pbt3n7l1gj","1920","1080","0","1","0","5f63d70e4e460f141abccbc1","","null","","","","","","","learning/Slide40.JPG","null","","","","","",""
"html-keyboard-response","124","212049","0.0-5.0-1.39","FL","pbt3n7l1gj","1920","1080","0","1","0","5f63d70e4e460f141abccbc1","","null","","","learningBlock1","","","","That was a tob.","null","","","","","",""
"html-keyboard-response","125","213050","0.0-5.0-2.39","FL","pbt3n7l1gj","1920","1080","0","1","0","5f63d70e4e460f141abccbc1","","null","","","learningBlock1","","","","<div style=""font-size:60px;""> </div>","null","FL","learning/Slide40.JPG","That was a tob.","","",""
"image-keyboard-response","126","213226","0.0-5.0-0.40","FL","pbt3n7l1gj","1920","1080","0","1","0","5f63d70e4e460f141abccbc1","","null","","","","","","","learning/Slide41.JPG","null","","","","","",""
"html-keyboard-response","127","214378","0.0-5.0-1.40","FL","pbt3n7l1gj","1920","1080","0","1","0","5f63d70e4e460f141abccbc1","","null","","","learningBlock1","","","","That was a bim.","null","","","","","",""
"html-keyboard-response","128","215379","0.0-5.0-2.40","FL","pbt3n7l1gj","1920","1080","0","1","0","5f63d70e4e460f141abccbc1","","null","","","learningBlock1","","","","<div style=""font-size:60px;""> </div>","null","FL","learning/Slide41.JPG","That was a bim.","","",""
"image-keyboard-response","129","215555","0.0-5.0-0.41","FL","pbt3n7l1gj","1920","1080","0","1","0","5f63d70e4e460f141abccbc1","","null","","","","","","","learning/Slide42.JPG","null","","","","","",""
"html-keyboard-response","130","216707","0.0-5.0-1.41","FL","pbt3n7l1gj","1920","1080","0","1","0","5f63d70e4e460f141abccbc1","","null","","","learningBlock1","","","","That was a dep.","null","","","","","",""
"html-keyboard-response","131","217708","0.0-5.0-2.41","FL","pbt3n7l1gj","1920","1080","0","1","0","5f63d70e4e460f141abccbc1","","null","","","learningBlock1","","","","<div style=""font-size:60px;""> </div>","null","FL","learning/Slide42.JPG","That was a dep.","","",""
"image-keyboard-response","132","217884","0.0-5.0-0.42","FL","pbt3n7l1gj","1920","1080","0","1","0","5f63d70e4e460f141abccbc1","","null","","","","","","","learning/Slide43.JPG","null","","","","","",""
"html-keyboard-response","133","219036","0.0-5.0-1.42","FL","pbt3n7l1gj","1920","1080","0","1","0","5f63d70e4e460f141abccbc1","","null","","","learningBlock1","","","","That was a wug.","null","","","","","",""
"html-keyboard-response","134","220037","0.0-5.0-2.42","FL","pbt3n7l1gj","1920","1080","0","1","0","5f63d70e4e460f141abccbc1","","null","","","learningBlock1","","","","<div style=""font-size:60px;""> </div>","null","FL","learning/Slide43.JPG","That was a wug.","","",""
"image-keyboard-response","135","220213","0.0-5.0-0.43","FL","pbt3n7l1gj","1920","1080","0","1","0","5f63d70e4e460f141abccbc1","","null","","","","","","","learning/Slide44.JPG","null","","","","","",""
"html-keyboard-response","136","221366","0.0-5.0-1.43","FL","pbt3n7l1gj","1920","1080","0","1","0","5f63d70e4e460f141abccbc1","","null","","","learningBlock1","","","","That was a bim.","null","","","","","",""
"html-keyboard-response","137","222367","0.0-5.0-2.43","FL","pbt3n7l1gj","1920","1080","0","1","0","5f63d70e4e460f141abccbc1","","null","","","learningBlock1","","","","<div style=""font-size:60px;""> </div>","null","FL","learning/Slide44.JPG","That was a bim.","","",""
"image-keyboard-response","138","222543","0.0-5.0-0.44","FL","pbt3n7l1gj","1920","1080","0","1","0","5f63d70e4e460f141abccbc1","","null","","","","","","","learning/Slide45.JPG","null","","","","","",""
"html-keyboard-response","139","223695","0.0-5.0-1.44","FL","pbt3n7l1gj","1920","1080","0","1","0","5f63d70e4e460f141abccbc1","","null","","","learningBlock1","","","","That was a wug.","null","","","","","",""
"html-keyboard-response","140","224696","0.0-5.0-2.44","FL","pbt3n7l1gj","1920","1080","0","1","0","5f63d70e4e460f141abccbc1","","null","","","learningBlock1","","","","<div style=""font-size:60px;""> </div>","null","FL","learning/Slide45.JPG","That was a wug.","","",""
"image-keyboard-response","141","224872","0.0-5.0-0.45","FL","pbt3n7l1gj","1920","1080","0","1","0","5f63d70e4e460f141abccbc1","","null","","","","","","","learning/Slide46.JPG","null","","","","","",""
"html-keyboard-response","142","226025","0.0-5.0-1.45","FL","pbt3n7l1gj","1920","1080","0","1","0","5f63d70e4e460f141abccbc1","","null","","","learningBlock1","","","","That was a dep.","null","","","","","",""
"html-keyboard-response","143","227026","0.0-5.0-2.45","FL","pbt3n7l1gj","1920","1080","0","1","0","5f63d70e4e460f141abccbc1","","null","","","learningBlock1","","","","<div style=""font-size:60px;""> </div>","null","FL","learning/Slide46.JPG","That was a dep.","","",""
"image-keyboard-response","144","227202","0.0-5.0-0.46","FL","pbt3n7l1gj","1920","1080","0","1","0","5f63d70e4e460f141abccbc1","","null","","","","","","","learning/Slide47.JPG","null","","","","","",""
"html-keyboard-response","145","228354","0.0-5.0-1.46","FL","pbt3n7l1gj","1920","1080","0","1","0","5f63d70e4e460f141abccbc1","","null","","","learningBlock1","","","","That was a tob.","null","","","","","",""
"html-keyboard-response","146","229355","0.0-5.0-2.46","FL","pbt3n7l1gj","1920","1080","0","1","0","5f63d70e4e460f141abccbc1","","null","","","learningBlock1","","","","<div style=""font-size:60px;""> </div>","null","FL","learning/Slide47.JPG","That was a tob.","","",""
"image-keyboard-response","147","229531","0.0-5.0-0.47","FL","pbt3n7l1gj","1920","1080","0","1","0","5f63d70e4e460f141abccbc1","","null","","","","","","","learning/Slide48.JPG","null","","","","","",""
"html-keyboard-response","148","230683","0.0-5.0-1.47","FL","pbt3n7l1gj","1920","1080","0","1","0","5f63d70e4e460f141abccbc1","","null","","","learningBlock1","","","","That was a bim.","null","","","","","",""
"html-keyboard-response","149","231684","0.0-5.0-2.47","FL","pbt3n7l1gj","1920","1080","0","1","0","5f63d70e4e460f141abccbc1","","null","","","learningBlock1","","","","<div style=""font-size:60px;""> </div>","null","FL","learning/Slide48.JPG","That was a bim.","","",""
"image-keyboard-response","150","231860","0.0-5.0-0.48","FL","pbt3n7l1gj","1920","1080","0","1","0","5f63d70e4e460f141abccbc1","","null","","","","","","","learning/Slide49.JPG","null","","","","","",""
"html-keyboard-response","151","233012","0.0-5.0-1.48","FL","pbt3n7l1gj","1920","1080","0","1","0","5f63d70e4e460f141abccbc1","","null","","","learningBlock1","","","","That was a dep.","null","","","","","",""
"html-keyboard-response","152","234013","0.0-5.0-2.48","FL","pbt3n7l1gj","1920","1080","0","1","0","5f63d70e4e460f141abccbc1","","null","","","learningBlock1","","","","<div style=""font-size:60px;""> </div>","null","FL","learning/Slide49.JPG","That was a dep.","","",""
"image-keyboard-response","153","234189","0.0-5.0-0.49","FL","pbt3n7l1gj","1920","1080","0","1","0","5f63d70e4e460f141abccbc1","","null","","","","","","","learning/Slide50.JPG","null","","","","","",""
"html-keyboard-response","154","235341","0.0-5.0-1.49","FL","pbt3n7l1gj","1920","1080","0","1","0","5f63d70e4e460f141abccbc1","","null","","","learningBlock1","","","","That was a tob.","null","","","","","",""
"html-keyboard-response","155","236342","0.0-5.0-2.49","FL","pbt3n7l1gj","1920","1080","0","1","0","5f63d70e4e460f141abccbc1","","null","","","learningBlock1","","","","<div style=""font-size:60px;""> </div>","null","FL","learning/Slide50.JPG","That was a tob.","","",""
"image-keyboard-response","156","236518","0.0-5.0-0.50","FL","pbt3n7l1gj","1920","1080","0","1","0","5f63d70e4e460f141abccbc1","","null","","","","","","","learning/Slide51.JPG","null","","","","","",""
"html-keyboard-response","157","237671","0.0-5.0-1.50","FL","pbt3n7l1gj","1920","1080","0","1","0","5f63d70e4e460f141abccbc1","","null","","","learningBlock1","","","","That was a bim.","null","","","","","",""
"html-keyboard-response","158","238672","0.0-5.0-2.50","FL","pbt3n7l1gj","1920","1080","0","1","0","5f63d70e4e460f141abccbc1","","null","","","learningBlock1","","","","<div style=""font-size:60px;""> </div>","null","FL","learning/Slide51.JPG","That was a bim.","","",""
"image-keyboard-response","159","238848","0.0-5.0-0.51","FL","pbt3n7l1gj","1920","1080","0","1","0","5f63d70e4e460f141abccbc1","","null","","","","","","","learning/Slide52.JPG","null","","","","","",""
"html-keyboard-response","160","240000","0.0-5.0-1.51","FL","pbt3n7l1gj","1920","1080","0","1","0","5f63d70e4e460f141abccbc1","","null","","","learningBlock1","","","","That was a wug.","null","","","","","",""
"html-keyboard-response","161","241001","0.0-5.0-2.51","FL","pbt3n7l1gj","1920","1080","0","1","0","5f63d70e4e460f141abccbc1","","null","","","learningBlock1","","","","<div style=""font-size:60px;""> </div>","null","FL","learning/Slide52.JPG","That was a wug.","","",""
"image-keyboard-response","162","241177","0.0-5.0-0.52","FL","pbt3n7l1gj","1920","1080","0","1","0","5f63d70e4e460f141abccbc1","","null","","","","","","","learning/Slide53.JPG","null","","","","","",""
"html-keyboard-response","163","242330","0.0-5.0-1.52","FL","pbt3n7l1gj","1920","1080","0","1","0","5f63d70e4e460f141abccbc1","","null","","","learningBlock1","","","","That was a tob.","null","","","","","",""
"html-keyboard-response","164","243330","0.0-5.0-2.52","FL","pbt3n7l1gj","1920","1080","0","1","0","5f63d70e4e460f141abccbc1","","null","","","learningBlock1","","","","<div style=""font-size:60px;""> </div>","null","FL","learning/Slide53.JPG","That was a tob.","","",""
"image-keyboard-response","165","243506","0.0-5.0-0.53","FL","pbt3n7l1gj","1920","1080","0","1","0","5f63d70e4e460f141abccbc1","","null","","","","","","","learning/Slide54.JPG","null","","","","","",""
"html-keyboard-response","166","244659","0.0-5.0-1.53","FL","pbt3n7l1gj","1920","1080","0","1","0","5f63d70e4e460f141abccbc1","","null","","","learningBlock1","","","","That was a dep.","null","","","","","",""
"html-keyboard-response","167","245660","0.0-5.0-2.53","FL","pbt3n7l1gj","1920","1080","0","1","0","5f63d70e4e460f141abccbc1","","null","","","learningBlock1","","","","<div style=""font-size:60px;""> </div>","null","FL","learning/Slide54.JPG","That was a dep.","","",""
"image-keyboard-response","168","245836","0.0-5.0-0.54","FL","pbt3n7l1gj","1920","1080","0","1","0","5f63d70e4e460f141abccbc1","","null","","","","","","","learning/Slide55.JPG","null","","","","","",""
"html-keyboard-response","169","246988","0.0-5.0-1.54","FL","pbt3n7l1gj","1920","1080","0","1","0","5f63d70e4e460f141abccbc1","","null","","","learningBlock1","","","","That was a bim.","null","","","","","",""
"html-keyboard-response","170","247989","0.0-5.0-2.54","FL","pbt3n7l1gj","1920","1080","0","1","0","5f63d70e4e460f141abccbc1","","null","","","learningBlock1","","","","<div style=""font-size:60px;""> </div>","null","FL","learning/Slide55.JPG","That was a bim.","","",""
"image-keyboard-response","171","248165","0.0-5.0-0.55","FL","pbt3n7l1gj","1920","1080","0","1","0","5f63d70e4e460f141abccbc1","","null","","","","","","","learning/Slide56.JPG","null","","","","","",""
"html-keyboard-response","172","249317","0.0-5.0-1.55","FL","pbt3n7l1gj","1920","1080","0","1","0","5f63d70e4e460f141abccbc1","","null","","","learningBlock1","","","","That was a tob.","null","","","","","",""
"html-keyboard-response","173","250318","0.0-5.0-2.55","FL","pbt3n7l1gj","1920","1080","0","1","0","5f63d70e4e460f141abccbc1","","null","","","learningBlock1","","","","<div style=""font-size:60px;""> </div>","null","FL","learning/Slide56.JPG","That was a tob.","","",""
"image-keyboard-response","174","250494","0.0-5.0-0.56","FL","pbt3n7l1gj","1920","1080","0","1","0","5f63d70e4e460f141abccbc1","","null","","","","","","","learning/Slide57.JPG","null","","","","","",""
"html-keyboard-response","175","251647","0.0-5.0-1.56","FL","pbt3n7l1gj","1920","1080","0","1","0","5f63d70e4e460f141abccbc1","","null","","","learningBlock1","","","","That was a dep.","null","","","","","",""
"html-keyboard-response","176","252648","0.0-5.0-2.56","FL","pbt3n7l1gj","1920","1080","0","1","0","5f63d70e4e460f141abccbc1","","null","","","learningBlock1","","","","<div style=""font-size:60px;""> </div>","null","FL","learning/Slide57.JPG","That was a dep.","","",""
"image-keyboard-response","177","252824","0.0-5.0-0.57","FL","pbt3n7l1gj","1920","1080","0","1","0","5f63d70e4e460f141abccbc1","","null","","","","","","","learning/Slide58.JPG","null","","","","","",""
"html-keyboard-response","178","253976","0.0-5.0-1.57","FL","pbt3n7l1gj","1920","1080","0","1","0","5f63d70e4e460f141abccbc1","","null","","","learningBlock1","","","","That was a wug.","null","","","","","",""
"html-keyboard-response","179","254977","0.0-5.0-2.57","FL","pbt3n7l1gj","1920","1080","0","1","0","5f63d70e4e460f141abccbc1","","null","","","learningBlock1","","","","<div style=""font-size:60px;""> </div>","null","FL","learning/Slide58.JPG","That was a wug.","","",""
"image-keyboard-response","180","255153","0.0-5.0-0.58","FL","pbt3n7l1gj","1920","1080","0","1","0","5f63d70e4e460f141abccbc1","","null","","","","","","","learning/Slide59.JPG","null","","","","","",""
"html-keyboard-response","181","256305","0.0-5.0-1.58","FL","pbt3n7l1gj","1920","1080","0","1","0","5f63d70e4e460f141abccbc1","","null","","","learningBlock1","","","","That was a dep.","null","","","","","",""
"html-keyboard-response","182","257306","0.0-5.0-2.58","FL","pbt3n7l1gj","1920","1080","0","1","0","5f63d70e4e460f141abccbc1","","null","","","learningBlock1","","","","<div style=""font-size:60px;""> </div>","null","FL","learning/Slide59.JPG","That was a dep.","","",""
"image-keyboard-response","183","257482","0.0-5.0-0.59","FL","pbt3n7l1gj","1920","1080","0","1","0","5f63d70e4e460f141abccbc1","","null","","","","","","","learning/Slide60.JPG","null","","","","","",""
"html-keyboard-response","184","258634","0.0-5.0-1.59","FL","pbt3n7l1gj","1920","1080","0","1","0","5f63d70e4e460f141abccbc1","","null","","","learningBlock1","","","","That was a wug.","null","","","","","",""
"html-keyboard-response","185","259635","0.0-5.0-2.59","FL","pbt3n7l1gj","1920","1080","0","1","0","5f63d70e4e460f141abccbc1","","null","","","learningBlock1","","","","<div style=""font-size:60px;""> </div>","null","FL","learning/Slide60.JPG","That was a wug.","","",""
"image-keyboard-response","186","259812","0.0-5.0-0.60","FL","pbt3n7l1gj","1920","1080","0","1","0","5f63d70e4e460f141abccbc1","","null","","","","","","","learning/Slide61.JPG","null","","","","","",""
"html-keyboard-response","187","260963","0.0-5.0-1.60","FL","pbt3n7l1gj","1920","1080","0","1","0","5f63d70e4e460f141abccbc1","","null","","","learningBlock1","","","","That was a bim.","null","","","","","",""
"html-keyboard-response","188","261964","0.0-5.0-2.60","FL","pbt3n7l1gj","1920","1080","0","1","0","5f63d70e4e460f141abccbc1","","null","","","learningBlock1","","","","<div style=""font-size:60px;""> </div>","null","FL","learning/Slide61.JPG","That was a bim.","","",""
"image-keyboard-response","189","262141","0.0-5.0-0.61","FL","pbt3n7l1gj","1920","1080","0","1","0","5f63d70e4e460f141abccbc1","","null","","","","","","","learning/Slide62.JPG","null","","","","","",""
"html-keyboard-response","190","263293","0.0-5.0-1.61","FL","pbt3n7l1gj","1920","1080","0","1","0","5f63d70e4e460f141abccbc1","","null","","","learningBlock1","","","","That was a dep.","null","","","","","",""
"html-keyboard-response","191","264294","0.0-5.0-2.61","FL","pbt3n7l1gj","1920","1080","0","1","0","5f63d70e4e460f141abccbc1","","null","","","learningBlock1","","","","<div style=""font-size:60px;""> </div>","null","FL","learning/Slide62.JPG","That was a dep.","","",""
"image-keyboard-response","192","264470","0.0-5.0-0.62","FL","pbt3n7l1gj","1920","1080","0","1","0","5f63d70e4e460f141abccbc1","","null","","","","","","","learning/Slide63.JPG","null","","","","","",""
"html-keyboard-response","193","265622","0.0-5.0-1.62","FL","pbt3n7l1gj","1920","1080","0","1","0","5f63d70e4e460f141abccbc1","","null","","","learningBlock1","","","","That was a bim.","null","","","","","",""
"html-keyboard-response","194","266623","0.0-5.0-2.62","FL","pbt3n7l1gj","1920","1080","0","1","0","5f63d70e4e460f141abccbc1","","null","","","learningBlock1","","","","<div style=""font-size:60px;""> </div>","null","FL","learning/Slide63.JPG","That was a bim.","","",""
"image-keyboard-response","195","266799","0.0-5.0-0.63","FL","pbt3n7l1gj","1920","1080","0","1","0","5f63d70e4e460f141abccbc1","","null","","","","","","","learning/Slide64.JPG","null","","","","","",""
"html-keyboard-response","196","267951","0.0-5.0-1.63","FL","pbt3n7l1gj","1920","1080","0","1","0","5f63d70e4e460f141abccbc1","","null","","","learningBlock1","","","","That was a tob.","null","","","","","",""
"html-keyboard-response","197","268952","0.0-5.0-2.63","FL","pbt3n7l1gj","1920","1080","0","1","0","5f63d70e4e460f141abccbc1","","null","","","learningBlock1","","","","<div style=""font-size:60px;""> </div>","null","FL","learning/Slide64.JPG","That was a tob.","","",""
"image-keyboard-response","198","269128","0.0-5.0-0.64","FL","pbt3n7l1gj","1920","1080","0","1","0","5f63d70e4e460f141abccbc1","","null","","","","","","","learning/Slide65.JPG","null","","","","","",""
"html-keyboard-response","199","270280","0.0-5.0-1.64","FL","pbt3n7l1gj","1920","1080","0","1","0","5f63d70e4e460f141abccbc1","","null","","","learningBlock1","","","","That was a wug.","null","","","","","",""
"html-keyboard-response","200","271281","0.0-5.0-2.64","FL","pbt3n7l1gj","1920","1080","0","1","0","5f63d70e4e460f141abccbc1","","null","","","learningBlock1","","","","<div style=""font-size:60px;""> </div>","null","FL","learning/Slide65.JPG","That was a wug.","","",""
"image-keyboard-response","201","271457","0.0-5.0-0.65","FL","pbt3n7l1gj","1920","1080","0","1","0","5f63d70e4e460f141abccbc1","","null","","","","","","","learning/Slide66.JPG","null","","","","","",""
"html-keyboard-response","202","272609","0.0-5.0-1.65","FL","pbt3n7l1gj","1920","1080","0","1","0","5f63d70e4e460f141abccbc1","","null","","","learningBlock1","","","","That was a dep.","null","","","","","",""
"html-keyboard-response","203","273610","0.0-5.0-2.65","FL","pbt3n7l1gj","1920","1080","0","1","0","5f63d70e4e460f141abccbc1","","null","","","learningBlock1","","","","<div style=""font-size:60px;""> </div>","null","FL","learning/Slide66.JPG","That was a dep.","","",""
"image-keyboard-response","204","273786","0.0-5.0-0.66","FL","pbt3n7l1gj","1920","1080","0","1","0","5f63d70e4e460f141abccbc1","","null","","","","","","","learning/Slide67.JPG","null","","","","","",""
"html-keyboard-response","205","274938","0.0-5.0-1.66","FL","pbt3n7l1gj","1920","1080","0","1","0","5f63d70e4e460f141abccbc1","","null","","","learningBlock1","","","","That was a tob.","null","","","","","",""
"html-keyboard-response","206","275939","0.0-5.0-2.66","FL","pbt3n7l1gj","1920","1080","0","1","0","5f63d70e4e460f141abccbc1","","null","","","learningBlock1","","","","<div style=""font-size:60px;""> </div>","null","FL","learning/Slide67.JPG","That was a tob.","","",""
"image-keyboard-response","207","276115","0.0-5.0-0.67","FL","pbt3n7l1gj","1920","1080","0","1","0","5f63d70e4e460f141abccbc1","","null","","","","","","","learning/Slide68.JPG","null","","","","","",""
"html-keyboard-response","208","277267","0.0-5.0-1.67","FL","pbt3n7l1gj","1920","1080","0","1","0","5f63d70e4e460f141abccbc1","","null","","","learningBlock1","","","","That was a wug.","null","","","","","",""
"html-keyboard-response","209","278268","0.0-5.0-2.67","FL","pbt3n7l1gj","1920","1080","0","1","0","5f63d70e4e460f141abccbc1","","null","","","learningBlock1","","","","<div style=""font-size:60px;""> </div>","null","FL","learning/Slide68.JPG","That was a wug.","","",""
"image-keyboard-response","210","278445","0.0-5.0-0.68","FL","pbt3n7l1gj","1920","1080","0","1","0","5f63d70e4e460f141abccbc1","","null","","","","","","","learning/Slide69.JPG","null","","","","","",""
"html-keyboard-response","211","279597","0.0-5.0-1.68","FL","pbt3n7l1gj","1920","1080","0","1","0","5f63d70e4e460f141abccbc1","","null","","","learningBlock1","","","","That was a tob.","null","","","","","",""
"html-keyboard-response","212","280598","0.0-5.0-2.68","FL","pbt3n7l1gj","1920","1080","0","1","0","5f63d70e4e460f141abccbc1","","null","","","learningBlock1","","","","<div style=""font-size:60px;""> </div>","null","FL","learning/Slide69.JPG","That was a tob.","","",""
"image-keyboard-response","213","280774","0.0-5.0-0.69","FL","pbt3n7l1gj","1920","1080","0","1","0","5f63d70e4e460f141abccbc1","","null","","","","","","","learning/Slide70.JPG","null","","","","","",""
"html-keyboard-response","214","281926","0.0-5.0-1.69","FL","pbt3n7l1gj","1920","1080","0","1","0","5f63d70e4e460f141abccbc1","","null","","","learningBlock1","","","","That was a dep.","null","","","","","",""
"html-keyboard-response","215","282927","0.0-5.0-2.69","FL","pbt3n7l1gj","1920","1080","0","1","0","5f63d70e4e460f141abccbc1","","null","","","learningBlock1","","","","<div style=""font-size:60px;""> </div>","null","FL","learning/Slide70.JPG","That was a dep.","","",""
"image-keyboard-response","216","283103","0.0-5.0-0.70","FL","pbt3n7l1gj","1920","1080","0","1","0","5f63d70e4e460f141abccbc1","","null","","","","","","","learning/Slide71.JPG","null","","","","","",""
"html-keyboard-response","217","284255","0.0-5.0-1.70","FL","pbt3n7l1gj","1920","1080","0","1","0","5f63d70e4e460f141abccbc1","","null","","","learningBlock1","","","","That was a wug.","null","","","","","",""
"html-keyboard-response","218","285256","0.0-5.0-2.70","FL","pbt3n7l1gj","1920","1080","0","1","0","5f63d70e4e460f141abccbc1","","null","","","learningBlock1","","","","<div style=""font-size:60px;""> </div>","null","FL","learning/Slide71.JPG","That was a wug.","","",""
"image-keyboard-response","219","285432","0.0-5.0-0.71","FL","pbt3n7l1gj","1920","1080","0","1","0","5f63d70e4e460f141abccbc1","","null","","","","","","","learning/Slide72.JPG","null","","","","","",""
"html-keyboard-response","220","286584","0.0-5.0-1.71","FL","pbt3n7l1gj","1920","1080","0","1","0","5f63d70e4e460f141abccbc1","","null","","","learningBlock1","","","","That was a bim.","null","","","","","",""
"html-keyboard-response","221","287585","0.0-5.0-2.71","FL","pbt3n7l1gj","1920","1080","0","1","0","5f63d70e4e460f141abccbc1","","null","","","learningBlock1","","","","<div style=""font-size:60px;""> </div>","null","FL","learning/Slide72.JPG","That was a bim.","","",""
"image-keyboard-response","222","287761","0.0-5.0-0.72","FL","pbt3n7l1gj","1920","1080","0","1","0","5f63d70e4e460f141abccbc1","","null","","","","","","","learning/Slide73.JPG","null","","","","","",""
"html-keyboard-response","223","288913","0.0-5.0-1.72","FL","pbt3n7l1gj","1920","1080","0","1","0","5f63d70e4e460f141abccbc1","","null","","","learningBlock1","","","","That was a wug.","null","","","","","",""
"html-keyboard-response","224","289914","0.0-5.0-2.72","FL","pbt3n7l1gj","1920","1080","0","1","0","5f63d70e4e460f141abccbc1","","null","","","learningBlock1","","","","<div style=""font-size:60px;""> </div>","null","FL","learning/Slide73.JPG","That was a wug.","","",""
"image-keyboard-response","225","290090","0.0-5.0-0.73","FL","pbt3n7l1gj","1920","1080","0","1","0","5f63d70e4e460f141abccbc1","","null","","","","","","","learning/Slide74.JPG","null","","","","","",""
"html-keyboard-response","226","291242","0.0-5.0-1.73","FL","pbt3n7l1gj","1920","1080","0","1","0","5f63d70e4e460f141abccbc1","","null","","","learningBlock1","","","","That was a dep.","null","","","","","",""
"html-keyboard-response","227","292243","0.0-5.0-2.73","FL","pbt3n7l1gj","1920","1080","0","1","0","5f63d70e4e460f141abccbc1","","null","","","learningBlock1","","","","<div style=""font-size:60px;""> </div>","null","FL","learning/Slide74.JPG","That was a dep.","","",""
"image-keyboard-response","228","292419","0.0-5.0-0.74","FL","pbt3n7l1gj","1920","1080","0","1","0","5f63d70e4e460f141abccbc1","","null","","","","","","","learning/Slide75.JPG","null","","","","","",""
"html-keyboard-response","229","293571","0.0-5.0-1.74","FL","pbt3n7l1gj","1920","1080","0","1","0","5f63d70e4e460f141abccbc1","","null","","","learningBlock1","","","","That was a tob.","null","","","","","",""
"html-keyboard-response","230","294572","0.0-5.0-2.74","FL","pbt3n7l1gj","1920","1080","0","1","0","5f63d70e4e460f141abccbc1","","null","","","learningBlock1","","","","<div style=""font-size:60px;""> </div>","null","FL","learning/Slide75.JPG","That was a tob.","","",""
"image-keyboard-response","231","294749","0.0-5.0-0.75","FL","pbt3n7l1gj","1920","1080","0","1","0","5f63d70e4e460f141abccbc1","","null","","","","","","","learning/Slide76.JPG","null","","","","","",""
"html-keyboard-response","232","295900","0.0-5.0-1.75","FL","pbt3n7l1gj","1920","1080","0","1","0","5f63d70e4e460f141abccbc1","","null","","","learningBlock1","","","","That was a bim.","null","","","","","",""
"html-keyboard-response","233","296901","0.0-5.0-2.75","FL","pbt3n7l1gj","1920","1080","0","1","0","5f63d70e4e460f141abccbc1","","null","","","learningBlock1","","","","<div style=""font-size:60px;""> </div>","null","FL","learning/Slide76.JPG","That was a bim.","","",""
"image-keyboard-response","234","297077","0.0-5.0-0.76","FL","pbt3n7l1gj","1920","1080","0","1","0","5f63d70e4e460f141abccbc1","","null","","","","","","","learning/Slide77.JPG","null","","","","","",""
"html-keyboard-response","235","298229","0.0-5.0-1.76","FL","pbt3n7l1gj","1920","1080","0","1","0","5f63d70e4e460f141abccbc1","","null","","","learningBlock1","","","","That was a tob.","null","","","","","",""
"html-keyboard-response","236","299230","0.0-5.0-2.76","FL","pbt3n7l1gj","1920","1080","0","1","0","5f63d70e4e460f141abccbc1","","null","","","learningBlock1","","","","<div style=""font-size:60px;""> </div>","null","FL","learning/Slide77.JPG","That was a tob.","","",""
"image-keyboard-response","237","299406","0.0-5.0-0.77","FL","pbt3n7l1gj","1920","1080","0","1","0","5f63d70e4e460f141abccbc1","","null","","","","","","","learning/Slide78.JPG","null","","","","","",""
"html-keyboard-response","238","300558","0.0-5.0-1.77","FL","pbt3n7l1gj","1920","1080","0","1","0","5f63d70e4e460f141abccbc1","","null","","","learningBlock1","","","","That was a wug.","null","","","","","",""
"html-keyboard-response","239","301559","0.0-5.0-2.77","FL","pbt3n7l1gj","1920","1080","0","1","0","5f63d70e4e460f141abccbc1","","null","","","learningBlock1","","","","<div style=""font-size:60px;""> </div>","null","FL","learning/Slide78.JPG","That was a wug.","","",""
"image-keyboard-response","240","301736","0.0-5.0-0.78","FL","pbt3n7l1gj","1920","1080","0","1","0","5f63d70e4e460f141abccbc1","","null","","","","","","","learning/Slide79.JPG","null","","","","","",""
"html-keyboard-response","241","302888","0.0-5.0-1.78","FL","pbt3n7l1gj","1920","1080","0","1","0","5f63d70e4e460f141abccbc1","","null","","","learningBlock1","","","","That was a bim.","null","","","","","",""
"html-keyboard-response","242","303889","0.0-5.0-2.78","FL","pbt3n7l1gj","1920","1080","0","1","0","5f63d70e4e460f141abccbc1","","null","","","learningBlock1","","","","<div style=""font-size:60px;""> </div>","null","FL","learning/Slide79.JPG","That was a bim.","","",""
"image-keyboard-response","243","304065","0.0-5.0-0.79","FL","pbt3n7l1gj","1920","1080","0","1","0","5f63d70e4e460f141abccbc1","","null","","","","","","","learning/Slide80.JPG","null","","","","","",""
"html-keyboard-response","244","305217","0.0-5.0-1.79","FL","pbt3n7l1gj","1920","1080","0","1","0","5f63d70e4e460f141abccbc1","","null","","","learningBlock1","","","","That was a tob.","null","","","","","",""
"html-keyboard-response","245","306217","0.0-5.0-2.79","FL","pbt3n7l1gj","1920","1080","0","1","0","5f63d70e4e460f141abccbc1","","null","","","learningBlock1","","","","<div style=""font-size:60px;""> </div>","null","FL","learning/Slide80.JPG","That was a tob.","","",""
"instructions","246","309162","0.0-6.0","FL","pbt3n7l1gj","1920","1080","0","1","0","5f63d70e4e460f141abccbc1","","NA","","[{""page_index"":0,""viewing_time"":2944.2149999085814}]","instructions","","","","","","","","","","",""
"image-keyboard-response","247","309339","0.0-7.0-0.0","FL","pbt3n7l1gj","1920","1080","0","1","0","5f63d70e4e460f141abccbc1","","null","","","","","","","learning/Slide81.JPG","null","","","","","",""
"html-keyboard-response","248","310490","0.0-7.0-1.0","FL","pbt3n7l1gj","1920","1080","0","1","0","5f63d70e4e460f141abccbc1","","null","","","learningBlock2","","","","That was a wug.","null","","","","","",""
"html-keyboard-response","249","311491","0.0-7.0-2.0","FL","pbt3n7l1gj","1920","1080","0","1","0","5f63d70e4e460f141abccbc1","","null","","","learningBlock2","","","","<div style=""font-size:60px;""> </div>","null","FL","learning/Slide81.JPG","That was a wug.","","",""
"image-keyboard-response","250","311667","0.0-7.0-0.1","FL","pbt3n7l1gj","1920","1080","0","1","0","5f63d70e4e460f141abccbc1","","null","","","","","","","learning/Slide82.JPG","null","","","","","",""
"html-keyboard-response","251","312819","0.0-7.0-1.1","FL","pbt3n7l1gj","1920","1080","0","1","0","5f63d70e4e460f141abccbc1","","null","","","learningBlock2","","","","That was a bim.","null","","","","","",""
"html-keyboard-response","252","313821","0.0-7.0-2.1","FL","pbt3n7l1gj","1920","1080","0","1","0","5f63d70e4e460f141abccbc1","","null","","","learningBlock2","","","","<div style=""font-size:60px;""> </div>","null","FL","learning/Slide82.JPG","That was a bim.","","",""
"image-keyboard-response","253","313998","0.0-7.0-0.2","FL","pbt3n7l1gj","1920","1080","0","1","0","5f63d70e4e460f141abccbc1","","null","","","","","","","learning/Slide83.JPG","null","","","","","",""
"html-keyboard-response","254","315151","0.0-7.0-1.2","FL","pbt3n7l1gj","1920","1080","0","1","0","5f63d70e4e460f141abccbc1","","null","","","learningBlock2","","","","That was a wug.","null","","","","","",""
"html-keyboard-response","255","316153","0.0-7.0-2.2","FL","pbt3n7l1gj","1920","1080","0","1","0","5f63d70e4e460f141abccbc1","","null","","","learningBlock2","","","","<div style=""font-size:60px;""> </div>","null","FL","learning/Slide83.JPG","That was a wug.","","",""
"image-keyboard-response","256","316330","0.0-7.0-0.3","FL","pbt3n7l1gj","1920","1080","0","1","0","5f63d70e4e460f141abccbc1","","null","","","","","","","learning/Slide84.JPG","null","","","","","",""
"html-keyboard-response","257","317483","0.0-7.0-1.3","FL","pbt3n7l1gj","1920","1080","0","1","0","5f63d70e4e460f141abccbc1","","null","","","learningBlock2","","","","That was a dep.","null","","","","","",""
"html-keyboard-response","258","318484","0.0-7.0-2.3","FL","pbt3n7l1gj","1920","1080","0","1","0","5f63d70e4e460f141abccbc1","","null","","","learningBlock2","","","","<div style=""font-size:60px;""> </div>","null","FL","learning/Slide84.JPG","That was a dep.","","",""
"image-keyboard-response","259","318661","0.0-7.0-0.4","FL","pbt3n7l1gj","1920","1080","0","1","0","5f63d70e4e460f141abccbc1","","null","","","","","","","learning/Slide85.JPG","null","","","","","",""
"html-keyboard-response","260","319814","0.0-7.0-1.4","FL","pbt3n7l1gj","1920","1080","0","1","0","5f63d70e4e460f141abccbc1","","null","","","learningBlock2","","","","That was a bim.","null","","","","","",""
"html-keyboard-response","261","320816","0.0-7.0-2.4","FL","pbt3n7l1gj","1920","1080","0","1","0","5f63d70e4e460f141abccbc1","","null","","","learningBlock2","","","","<div style=""font-size:60px;""> </div>","null","FL","learning/Slide85.JPG","That was a bim.","","",""
"image-keyboard-response","262","320992","0.0-7.0-0.5","FL","pbt3n7l1gj","1920","1080","0","1","0","5f63d70e4e460f141abccbc1","","null","","","","","","","learning/Slide86.JPG","null","","","","","",""
"html-keyboard-response","263","322144","0.0-7.0-1.5","FL","pbt3n7l1gj","1920","1080","0","1","0","5f63d70e4e460f141abccbc1","","null","","","learningBlock2","","","","That was a tob.","null","","","","","",""
"html-keyboard-response","264","323146","0.0-7.0-2.5","FL","pbt3n7l1gj","1920","1080","0","1","0","5f63d70e4e460f141abccbc1","","null","","","learningBlock2","","","","<div style=""font-size:60px;""> </div>","null","FL","learning/Slide86.JPG","That was a tob.","","",""
"image-keyboard-response","265","323323","0.0-7.0-0.6","FL","pbt3n7l1gj","1920","1080","0","1","0","5f63d70e4e460f141abccbc1","","null","","","","","","","learning/Slide87.JPG","null","","","","","",""
"html-keyboard-response","266","324475","0.0-7.0-1.6","FL","pbt3n7l1gj","1920","1080","0","1","0","5f63d70e4e460f141abccbc1","","null","","","learningBlock2","","","","That was a wug.","null","","","","","",""
"html-keyboard-response","267","325476","0.0-7.0-2.6","FL","pbt3n7l1gj","1920","1080","0","1","0","5f63d70e4e460f141abccbc1","","null","","","learningBlock2","","","","<div style=""font-size:60px;""> </div>","null","FL","learning/Slide87.JPG","That was a wug.","","",""
"image-keyboard-response","268","325652","0.0-7.0-0.7","FL","pbt3n7l1gj","1920","1080","0","1","0","5f63d70e4e460f141abccbc1","","null","","","","","","","learning/Slide88.JPG","null","","","","","",""
"html-keyboard-response","269","326806","0.0-7.0-1.7","FL","pbt3n7l1gj","1920","1080","0","1","0","5f63d70e4e460f141abccbc1","","null","","","learningBlock2","","","","That was a tob.","null","","","","","",""
"html-keyboard-response","270","327807","0.0-7.0-2.7","FL","pbt3n7l1gj","1920","1080","0","1","0","5f63d70e4e460f141abccbc1","","null","","","learningBlock2","","","","<div style=""font-size:60px;""> </div>","null","FL","learning/Slide88.JPG","That was a tob.","","",""
"image-keyboard-response","271","327984","0.0-7.0-0.8","FL","pbt3n7l1gj","1920","1080","0","1","0","5f63d70e4e460f141abccbc1","","null","","","","","","","learning/Slide89.JPG","null","","","","","",""
"html-keyboard-response","272","329135","0.0-7.0-1.8","FL","pbt3n7l1gj","1920","1080","0","1","0","5f63d70e4e460f141abccbc1","","null","","","learningBlock2","","","","That was a bim.","null","","","","","",""
"html-keyboard-response","273","330137","0.0-7.0-2.8","FL","pbt3n7l1gj","1920","1080","0","1","0","5f63d70e4e460f141abccbc1","","null","","","learningBlock2","","","","<div style=""font-size:60px;""> </div>","null","FL","learning/Slide89.JPG","That was a bim.","","",""
"image-keyboard-response","274","330313","0.0-7.0-0.9","FL","pbt3n7l1gj","1920","1080","0","1","0","5f63d70e4e460f141abccbc1","","null","","","","","","","learning/Slide90.JPG","null","","","","","",""
"html-keyboard-response","275","331465","0.0-7.0-1.9","FL","pbt3n7l1gj","1920","1080","0","1","0","5f63d70e4e460f141abccbc1","","null","","","learningBlock2","","","","That was a dep.","null","","","","","",""
"html-keyboard-response","276","332467","0.0-7.0-2.9","FL","pbt3n7l1gj","1920","1080","0","1","0","5f63d70e4e460f141abccbc1","","null","","","learningBlock2","","","","<div style=""font-size:60px;""> </div>","null","FL","learning/Slide90.JPG","That was a dep.","","",""
"image-keyboard-response","277","332643","0.0-7.0-0.10","FL","pbt3n7l1gj","1920","1080","0","1","0","5f63d70e4e460f141abccbc1","","null","","","","","","","learning/Slide91.JPG","null","","","","","",""
"html-keyboard-response","278","333796","0.0-7.0-1.10","FL","pbt3n7l1gj","1920","1080","0","1","0","5f63d70e4e460f141abccbc1","","null","","","learningBlock2","","","","That was a wug.","null","","","","","",""
"html-keyboard-response","279","334797","0.0-7.0-2.10","FL","pbt3n7l1gj","1920","1080","0","1","0","5f63d70e4e460f141abccbc1","","null","","","learningBlock2","","","","<div style=""font-size:60px;""> </div>","null","FL","learning/Slide91.JPG","That was a wug.","","",""
"image-keyboard-response","280","334973","0.0-7.0-0.11","FL","pbt3n7l1gj","1920","1080","0","1","0","5f63d70e4e460f141abccbc1","","null","","","","","","","learning/Slide92.JPG","null","","","","","",""
"html-keyboard-response","281","336125","0.0-7.0-1.11","FL","pbt3n7l1gj","1920","1080","0","1","0","5f63d70e4e460f141abccbc1","","null","","","learningBlock2","","","","That was a tob.","null","","","","","",""
"html-keyboard-response","282","337126","0.0-7.0-2.11","FL","pbt3n7l1gj","1920","1080","0","1","0","5f63d70e4e460f141abccbc1","","null","","","learningBlock2","","","","<div style=""font-size:60px;""> </div>","null","FL","learning/Slide92.JPG","That was a tob.","","",""
"image-keyboard-response","283","337303","0.0-7.0-0.12","FL","pbt3n7l1gj","1920","1080","0","1","0","5f63d70e4e460f141abccbc1","","null","","","","","","","learning/Slide93.JPG","null","","","","","",""
"html-keyboard-response","284","338456","0.0-7.0-1.12","FL","pbt3n7l1gj","1920","1080","0","1","0","5f63d70e4e460f141abccbc1","","null","","","learningBlock2","","","","That was a bim.","null","","","","","",""
"html-keyboard-response","285","339457","0.0-7.0-2.12","FL","pbt3n7l1gj","1920","1080","0","1","0","5f63d70e4e460f141abccbc1","","null","","","learningBlock2","","","","<div style=""font-size:60px;""> </div>","null","FL","learning/Slide93.JPG","That was a bim.","","",""
"image-keyboard-response","286","339633","0.0-7.0-0.13","FL","pbt3n7l1gj","1920","1080","0","1","0","5f63d70e4e460f141abccbc1","","null","","","","","","","learning/Slide94.JPG","null","","","","","",""
"html-keyboard-response","287","340785","0.0-7.0-1.13","FL","pbt3n7l1gj","1920","1080","0","1","0","5f63d70e4e460f141abccbc1","","null","","","learningBlock2","","","","That was a tob.","null","","","","","",""
"html-keyboard-response","288","341786","0.0-7.0-2.13","FL","pbt3n7l1gj","1920","1080","0","1","0","5f63d70e4e460f141abccbc1","","null","","","learningBlock2","","","","<div style=""font-size:60px;""> </div>","null","FL","learning/Slide94.JPG","That was a tob.","","",""
"image-keyboard-response","289","341962","0.0-7.0-0.14","FL","pbt3n7l1gj","1920","1080","0","1","0","5f63d70e4e460f141abccbc1","","null","","","","","","","learning/Slide95.JPG","null","","","","","",""
"html-keyboard-response","290","343114","0.0-7.0-1.14","FL","pbt3n7l1gj","1920","1080","0","1","0","5f63d70e4e460f141abccbc1","","null","","","learningBlock2","","","","That was a wug.","null","","","","","",""
"html-keyboard-response","291","344116","0.0-7.0-2.14","FL","pbt3n7l1gj","1920","1080","0","1","0","5f63d70e4e460f141abccbc1","","null","","","learningBlock2","","","","<div style=""font-size:60px;""> </div>","null","FL","learning/Slide95.JPG","That was a wug.","","",""
"image-keyboard-response","292","344292","0.0-7.0-0.15","FL","pbt3n7l1gj","1920","1080","0","1","0","5f63d70e4e460f141abccbc1","","null","","","","","","","learning/Slide96.JPG","null","","","","","",""
"html-keyboard-response","293","345444","0.0-7.0-1.15","FL","pbt3n7l1gj","1920","1080","0","1","0","5f63d70e4e460f141abccbc1","","null","","","learningBlock2","","","","That was a tob.","null","","","","","",""
"html-keyboard-response","294","346445","0.0-7.0-2.15","FL","pbt3n7l1gj","1920","1080","0","1","0","5f63d70e4e460f141abccbc1","","null","","","learningBlock2","","","","<div style=""font-size:60px;""> </div>","null","FL","learning/Slide96.JPG","That was a tob.","","",""
"image-keyboard-response","295","346622","0.0-7.0-0.16","FL","pbt3n7l1gj","1920","1080","0","1","0","5f63d70e4e460f141abccbc1","","null","","","","","","","learning/Slide97.JPG","null","","","","","",""
"html-keyboard-response","296","347775","0.0-7.0-1.16","FL","pbt3n7l1gj","1920","1080","0","1","0","5f63d70e4e460f141abccbc1","","null","","","learningBlock2","","","","That was a dep.","null","","","","","",""
"html-keyboard-response","297","348776","0.0-7.0-2.16","FL","pbt3n7l1gj","1920","1080","0","1","0","5f63d70e4e460f141abccbc1","","null","","","learningBlock2","","","","<div style=""font-size:60px;""> </div>","null","FL","learning/Slide97.JPG","That was a dep.","","",""
"image-keyboard-response","298","348952","0.0-7.0-0.17","FL","pbt3n7l1gj","1920","1080","0","1","0","5f63d70e4e460f141abccbc1","","null","","","","","","","learning/Slide98.JPG","null","","","","","",""
"html-keyboard-response","299","350104","0.0-7.0-1.17","FL","pbt3n7l1gj","1920","1080","0","1","0","5f63d70e4e460f141abccbc1","","null","","","learningBlock2","","","","That was a bim.","null","","","","","",""
"html-keyboard-response","300","351105","0.0-7.0-2.17","FL","pbt3n7l1gj","1920","1080","0","1","0","5f63d70e4e460f141abccbc1","","null","","","learningBlock2","","","","<div style=""font-size:60px;""> </div>","null","FL","learning/Slide98.JPG","That was a bim.","","",""
"image-keyboard-response","301","351281","0.0-7.0-0.18","FL","pbt3n7l1gj","1920","1080","0","1","0","5f63d70e4e460f141abccbc1","","null","","","","","","","learning/Slide99.JPG","null","","","","","",""
"html-keyboard-response","302","352432","0.0-7.0-1.18","FL","pbt3n7l1gj","1920","1080","0","1","0","5f63d70e4e460f141abccbc1","","null","","","learningBlock2","","","","That was a dep.","null","","","","","",""
"html-keyboard-response","303","353433","0.0-7.0-2.18","FL","pbt3n7l1gj","1920","1080","0","1","0","5f63d70e4e460f141abccbc1","","null","","","learningBlock2","","","","<div style=""font-size:60px;""> </div>","null","FL","learning/Slide99.JPG","That was a dep.","","",""
"image-keyboard-response","304","353609","0.0-7.0-0.19","FL","pbt3n7l1gj","1920","1080","0","1","0","5f63d70e4e460f141abccbc1","","null","","","","","","","learning/Slide100.JPG","null","","","","","",""
"html-keyboard-response","305","354761","0.0-7.0-1.19","FL","pbt3n7l1gj","1920","1080","0","1","0","5f63d70e4e460f141abccbc1","","null","","","learningBlock2","","","","That was a bim.","null","","","","","",""
"html-keyboard-response","306","355762","0.0-7.0-2.19","FL","pbt3n7l1gj","1920","1080","0","1","0","5f63d70e4e460f141abccbc1","","null","","","learningBlock2","","","","<div style=""font-size:60px;""> </div>","null","FL","learning/Slide100.JPG","That was a bim.","","",""
"image-keyboard-response","307","355939","0.0-7.0-0.20","FL","pbt3n7l1gj","1920","1080","0","1","0","5f63d70e4e460f141abccbc1","","null","","","","","","","learning/Slide101.JPG","null","","","","","",""
"html-keyboard-response","308","357090","0.0-7.0-1.20","FL","pbt3n7l1gj","1920","1080","0","1","0","5f63d70e4e460f141abccbc1","","null","","","learningBlock2","","","","That was a tob.","null","","","","","",""
"html-keyboard-response","309","358091","0.0-7.0-2.20","FL","pbt3n7l1gj","1920","1080","0","1","0","5f63d70e4e460f141abccbc1","","null","","","learningBlock2","","","","<div style=""font-size:60px;""> </div>","null","FL","learning/Slide101.JPG","That was a tob.","","",""
"image-keyboard-response","310","358268","0.0-7.0-0.21","FL","pbt3n7l1gj","1920","1080","0","1","0","5f63d70e4e460f141abccbc1","","null","","","","","","","learning/Slide102.JPG","null","","","","","",""
"html-keyboard-response","311","359420","0.0-7.0-1.21","FL","pbt3n7l1gj","1920","1080","0","1","0","5f63d70e4e460f141abccbc1","","null","","","learningBlock2","","","","That was a bim.","null","","","","","",""
"html-keyboard-response","312","360421","0.0-7.0-2.21","FL","pbt3n7l1gj","1920","1080","0","1","0","5f63d70e4e460f141abccbc1","","null","","","learningBlock2","","","","<div style=""font-size:60px;""> </div>","null","FL","learning/Slide102.JPG","That was a bim.","","",""
"image-keyboard-response","313","360597","0.0-7.0-0.22","FL","pbt3n7l1gj","1920","1080","0","1","0","5f63d70e4e460f141abccbc1","","null","","","","","","","learning/Slide103.JPG","null","","","","","",""
"html-keyboard-response","314","361749","0.0-7.0-1.22","FL","pbt3n7l1gj","1920","1080","0","1","0","5f63d70e4e460f141abccbc1","","null","","","learningBlock2","","","","That was a dep.","null","","","","","",""
"html-keyboard-response","315","362751","0.0-7.0-2.22","FL","pbt3n7l1gj","1920","1080","0","1","0","5f63d70e4e460f141abccbc1","","null","","","learningBlock2","","","","<div style=""font-size:60px;""> </div>","null","FL","learning/Slide103.JPG","That was a dep.","","",""
"image-keyboard-response","316","362928","0.0-7.0-0.23","FL","pbt3n7l1gj","1920","1080","0","1","0","5f63d70e4e460f141abccbc1","","null","","","","","","","learning/Slide104.JPG","null","","","","","",""
"html-keyboard-response","317","364080","0.0-7.0-1.23","FL","pbt3n7l1gj","1920","1080","0","1","0","5f63d70e4e460f141abccbc1","","null","","","learningBlock2","","","","That was a tob.","null","","","","","",""
"html-keyboard-response","318","365081","0.0-7.0-2.23","FL","pbt3n7l1gj","1920","1080","0","1","0","5f63d70e4e460f141abccbc1","","null","","","learningBlock2","","","","<div style=""font-size:60px;""> </div>","null","FL","learning/Slide104.JPG","That was a tob.","","",""
"image-keyboard-response","319","365257","0.0-7.0-0.24","FL","pbt3n7l1gj","1920","1080","0","1","0","5f63d70e4e460f141abccbc1","","null","","","","","","","learning/Slide105.JPG","null","","","","","",""
"html-keyboard-response","320","366408","0.0-7.0-1.24","FL","pbt3n7l1gj","1920","1080","0","1","0","5f63d70e4e460f141abccbc1","","null","","","learningBlock2","","","","That was a dep.","null","","","","","",""
"html-keyboard-response","321","367409","0.0-7.0-2.24","FL","pbt3n7l1gj","1920","1080","0","1","0","5f63d70e4e460f141abccbc1","","null","","","learningBlock2","","","","<div style=""font-size:60px;""> </div>","null","FL","learning/Slide105.JPG","That was a dep.","","",""
"image-keyboard-response","322","367586","0.0-7.0-0.25","FL","pbt3n7l1gj","1920","1080","0","1","0","5f63d70e4e460f141abccbc1","","null","","","","","","","learning/Slide106.JPG","null","","","","","",""
"html-keyboard-response","323","368738","0.0-7.0-1.25","FL","pbt3n7l1gj","1920","1080","0","1","0","5f63d70e4e460f141abccbc1","","null","","","learningBlock2","","","","That was a wug.","null","","","","","",""
"html-keyboard-response","324","369739","0.0-7.0-2.25","FL","pbt3n7l1gj","1920","1080","0","1","0","5f63d70e4e460f141abccbc1","","null","","","learningBlock2","","","","<div style=""font-size:60px;""> </div>","null","FL","learning/Slide106.JPG","That was a wug.","","",""
"image-keyboard-response","325","369916","0.0-7.0-0.26","FL","pbt3n7l1gj","1920","1080","0","1","0","5f63d70e4e460f141abccbc1","","null","","","","","","","learning/Slide107.JPG","null","","","","","",""
"html-keyboard-response","326","371068","0.0-7.0-1.26","FL","pbt3n7l1gj","1920","1080","0","1","0","5f63d70e4e460f141abccbc1","","null","","","learningBlock2","","","","That was a bim.","null","","","","","",""
"html-keyboard-response","327","372070","0.0-7.0-2.26","FL","pbt3n7l1gj","1920","1080","0","1","0","5f63d70e4e460f141abccbc1","","null","","","learningBlock2","","","","<div style=""font-size:60px;""> </div>","null","FL","learning/Slide107.JPG","That was a bim.","","",""
"image-keyboard-response","328","372246","0.0-7.0-0.27","FL","pbt3n7l1gj","1920","1080","0","1","0","5f63d70e4e460f141abccbc1","","null","","","","","","","learning/Slide108.JPG","null","","","","","",""
"html-keyboard-response","329","373399","0.0-7.0-1.27","FL","pbt3n7l1gj","1920","1080","0","1","0","5f63d70e4e460f141abccbc1","","null","","","learningBlock2","","","","That was a dep.","null","","","","","",""
"html-keyboard-response","330","374400","0.0-7.0-2.27","FL","pbt3n7l1gj","1920","1080","0","1","0","5f63d70e4e460f141abccbc1","","null","","","learningBlock2","","","","<div style=""font-size:60px;""> </div>","null","FL","learning/Slide108.JPG","That was a dep.","","",""
"image-keyboard-response","331","374576","0.0-7.0-0.28","FL","pbt3n7l1gj","1920","1080","0","1","0","5f63d70e4e460f141abccbc1","","null","","","","","","","learning/Slide109.JPG","null","","","","","",""
"html-keyboard-response","332","375728","0.0-7.0-1.28","FL","pbt3n7l1gj","1920","1080","0","1","0","5f63d70e4e460f141abccbc1","","null","","","learningBlock2","","","","That was a wug.","null","","","","","",""
"html-keyboard-response","333","376729","0.0-7.0-2.28","FL","pbt3n7l1gj","1920","1080","0","1","0","5f63d70e4e460f141abccbc1","","null","","","learningBlock2","","","","<div style=""font-size:60px;""> </div>","null","FL","learning/Slide109.JPG","That was a wug.","","",""
"image-keyboard-response","334","376905","0.0-7.0-0.29","FL","pbt3n7l1gj","1920","1080","0","1","0","5f63d70e4e460f141abccbc1","","null","","","","","","","learning/Slide110.JPG","null","","","","","",""
"html-keyboard-response","335","378058","0.0-7.0-1.29","FL","pbt3n7l1gj","1920","1080","0","1","0","5f63d70e4e460f141abccbc1","","null","","","learningBlock2","","","","That was a bim.","null","","","","","",""
"html-keyboard-response","336","379059","0.0-7.0-2.29","FL","pbt3n7l1gj","1920","1080","0","1","0","5f63d70e4e460f141abccbc1","","null","","","learningBlock2","","","","<div style=""font-size:60px;""> </div>","null","FL","learning/Slide110.JPG","That was a bim.","","",""
"image-keyboard-response","337","379237","0.0-7.0-0.30","FL","pbt3n7l1gj","1920","1080","0","1","0","5f63d70e4e460f141abccbc1","","null","","","","","","","learning/Slide111.JPG","null","","","","","",""
"html-keyboard-response","338","380390","0.0-7.0-1.30","FL","pbt3n7l1gj","1920","1080","0","1","0","5f63d70e4e460f141abccbc1","","null","","","learningBlock2","","","","That was a tob.","null","","","","","",""
"html-keyboard-response","339","381391","0.0-7.0-2.30","FL","pbt3n7l1gj","1920","1080","0","1","0","5f63d70e4e460f141abccbc1","","null","","","learningBlock2","","","","<div style=""font-size:60px;""> </div>","null","FL","learning/Slide111.JPG","That was a tob.","","",""
"image-keyboard-response","340","381568","0.0-7.0-0.31","FL","pbt3n7l1gj","1920","1080","0","1","0","5f63d70e4e460f141abccbc1","","null","","","","","","","learning/Slide112.JPG","null","","","","","",""
"html-keyboard-response","341","382720","0.0-7.0-1.31","FL","pbt3n7l1gj","1920","1080","0","1","0","5f63d70e4e460f141abccbc1","","null","","","learningBlock2","","","","That was a wug.","null","","","","","",""
"html-keyboard-response","342","383722","0.0-7.0-2.31","FL","pbt3n7l1gj","1920","1080","0","1","0","5f63d70e4e460f141abccbc1","","null","","","learningBlock2","","","","<div style=""font-size:60px;""> </div>","null","FL","learning/Slide112.JPG","That was a wug.","","",""
"image-keyboard-response","343","383899","0.0-7.0-0.32","FL","pbt3n7l1gj","1920","1080","0","1","0","5f63d70e4e460f141abccbc1","","null","","","","","","","learning/Slide113.JPG","null","","","","","",""
"html-keyboard-response","344","385050","0.0-7.0-1.32","FL","pbt3n7l1gj","1920","1080","0","1","0","5f63d70e4e460f141abccbc1","","null","","","learningBlock2","","","","That was a tob.","null","","","","","",""
"html-keyboard-response","345","386052","0.0-7.0-2.32","FL","pbt3n7l1gj","1920","1080","0","1","0","5f63d70e4e460f141abccbc1","","null","","","learningBlock2","","","","<div style=""font-size:60px;""> </div>","null","FL","learning/Slide113.JPG","That was a tob.","","",""
"image-keyboard-response","346","386229","0.0-7.0-0.33","FL","pbt3n7l1gj","1920","1080","0","1","0","5f63d70e4e460f141abccbc1","","null","","","","","","","learning/Slide114.JPG","null","","","","","",""
"html-keyboard-response","347","387381","0.0-7.0-1.33","FL","pbt3n7l1gj","1920","1080","0","1","0","5f63d70e4e460f141abccbc1","","null","","","learningBlock2","","","","That was a wug.","null","","","","","",""
"html-keyboard-response","348","388382","0.0-7.0-2.33","FL","pbt3n7l1gj","1920","1080","0","1","0","5f63d70e4e460f141abccbc1","","null","","","learningBlock2","","","","<div style=""font-size:60px;""> </div>","null","FL","learning/Slide114.JPG","That was a wug.","","",""
"image-keyboard-response","349","388558","0.0-7.0-0.34","FL","pbt3n7l1gj","1920","1080","0","1","0","5f63d70e4e460f141abccbc1","","null","","","","","","","learning/Slide115.JPG","null","","","","","",""
"html-keyboard-response","350","389711","0.0-7.0-1.34","FL","pbt3n7l1gj","1920","1080","0","1","0","5f63d70e4e460f141abccbc1","","null","","","learningBlock2","","","","That was a bim.","null","","","","","",""
"html-keyboard-response","351","390712","0.0-7.0-2.34","FL","pbt3n7l1gj","1920","1080","0","1","0","5f63d70e4e460f141abccbc1","","null","","","learningBlock2","","","","<div style=""font-size:60px;""> </div>","null","FL","learning/Slide115.JPG","That was a bim.","","",""
"image-keyboard-response","352","390889","0.0-7.0-0.35","FL","pbt3n7l1gj","1920","1080","0","1","0","5f63d70e4e460f141abccbc1","","null","","","","","","","learning/Slide116.JPG","null","","","","","",""
"html-keyboard-response","353","392040","0.0-7.0-1.35","FL","pbt3n7l1gj","1920","1080","0","1","0","5f63d70e4e460f141abccbc1","","null","","","learningBlock2","","","","That was a dep.","null","","","","","",""
"html-keyboard-response","354","393042","0.0-7.0-2.35","FL","pbt3n7l1gj","1920","1080","0","1","0","5f63d70e4e460f141abccbc1","","null","","","learningBlock2","","","","<div style=""font-size:60px;""> </div>","null","FL","learning/Slide116.JPG","That was a dep.","","",""
"image-keyboard-response","355","393218","0.0-7.0-0.36","FL","pbt3n7l1gj","1920","1080","0","1","0","5f63d70e4e460f141abccbc1","","null","","","","","","","learning/Slide117.JPG","null","","","","","",""
"html-keyboard-response","356","394370","0.0-7.0-1.36","FL","pbt3n7l1gj","1920","1080","0","1","0","5f63d70e4e460f141abccbc1","","null","","","learningBlock2","","","","That was a tob.","null","","","","","",""
"html-keyboard-response","357","395372","0.0-7.0-2.36","FL","pbt3n7l1gj","1920","1080","0","1","0","5f63d70e4e460f141abccbc1","","null","","","learningBlock2","","","","<div style=""font-size:60px;""> </div>","null","FL","learning/Slide117.JPG","That was a tob.","","",""
"image-keyboard-response","358","395549","0.0-7.0-0.37","FL","pbt3n7l1gj","1920","1080","0","1","0","5f63d70e4e460f141abccbc1","","null","","","","","","","learning/Slide118.JPG","null","","","","","",""
"html-keyboard-response","359","396701","0.0-7.0-1.37","FL","pbt3n7l1gj","1920","1080","0","1","0","5f63d70e4e460f141abccbc1","","null","","","learningBlock2","","","","That was a dep.","null","","","","","",""
"html-keyboard-response","360","397702","0.0-7.0-2.37","FL","pbt3n7l1gj","1920","1080","0","1","0","5f63d70e4e460f141abccbc1","","null","","","learningBlock2","","","","<div style=""font-size:60px;""> </div>","null","FL","learning/Slide118.JPG","That was a dep.","","",""
"image-keyboard-response","361","397879","0.0-7.0-0.38","FL","pbt3n7l1gj","1920","1080","0","1","0","5f63d70e4e460f141abccbc1","","null","","","","","","","learning/Slide119.JPG","null","","","","","",""
"html-keyboard-response","362","399031","0.0-7.0-1.38","FL","pbt3n7l1gj","1920","1080","0","1","0","5f63d70e4e460f141abccbc1","","null","","","learningBlock2","","","","That was a wug.","null","","","","","",""
"html-keyboard-response","363","400032","0.0-7.0-2.38","FL","pbt3n7l1gj","1920","1080","0","1","0","5f63d70e4e460f141abccbc1","","null","","","learningBlock2","","","","<div style=""font-size:60px;""> </div>","null","FL","learning/Slide119.JPG","That was a wug.","","",""
"image-keyboard-response","364","400208","0.0-7.0-0.39","FL","pbt3n7l1gj","1920","1080","0","1","0","5f63d70e4e460f141abccbc1","","null","","","","","","","learning/Slide120.JPG","null","","","","","",""
"html-keyboard-response","365","401360","0.0-7.0-1.39","FL","pbt3n7l1gj","1920","1080","0","1","0","5f63d70e4e460f141abccbc1","","null","","","learningBlock2","","","","That was a dep.","null","","","","","",""
"html-keyboard-response","366","402361","0.0-7.0-2.39","FL","pbt3n7l1gj","1920","1080","0","1","0","5f63d70e4e460f141abccbc1","","null","","","learningBlock2","","","","<div style=""font-size:60px;""> </div>","null","FL","learning/Slide120.JPG","That was a dep.","","",""
"image-keyboard-response","367","402538","0.0-7.0-0.40","FL","pbt3n7l1gj","1920","1080","0","1","0","5f63d70e4e460f141abccbc1","","null","","","","","","","learning/Slide121.JPG","null","","","","","",""
"html-keyboard-response","368","403690","0.0-7.0-1.40","FL","pbt3n7l1gj","1920","1080","0","1","0","5f63d70e4e460f141abccbc1","","null","","","learningBlock2","","","","That was a bim.","null","","","","","",""
"html-keyboard-response","369","404691","0.0-7.0-2.40","FL","pbt3n7l1gj","1920","1080","0","1","0","5f63d70e4e460f141abccbc1","","null","","","learningBlock2","","","","<div style=""font-size:60px;""> </div>","null","FL","learning/Slide121.JPG","That was a bim.","","",""
"image-keyboard-response","370","404867","0.0-7.0-0.41","FL","pbt3n7l1gj","1920","1080","0","1","0","5f63d70e4e460f141abccbc1","","null","","","","","","","learning/Slide122.JPG","null","","","","","",""
"html-keyboard-response","371","406019","0.0-7.0-1.41","FL","pbt3n7l1gj","1920","1080","0","1","0","5f63d70e4e460f141abccbc1","","null","","","learningBlock2","","","","That was a wug.","null","","","","","",""
"html-keyboard-response","372","407020","0.0-7.0-2.41","FL","pbt3n7l1gj","1920","1080","0","1","0","5f63d70e4e460f141abccbc1","","null","","","learningBlock2","","","","<div style=""font-size:60px;""> </div>","null","FL","learning/Slide122.JPG","That was a wug.","","",""
"image-keyboard-response","373","407197","0.0-7.0-0.42","FL","pbt3n7l1gj","1920","1080","0","1","0","5f63d70e4e460f141abccbc1","","null","","","","","","","learning/Slide123.JPG","null","","","","","",""
"html-keyboard-response","374","408349","0.0-7.0-1.42","FL","pbt3n7l1gj","1920","1080","0","1","0","5f63d70e4e460f141abccbc1","","null","","","learningBlock2","","","","That was a bim.","null","","","","","",""
"html-keyboard-response","375","409350","0.0-7.0-2.42","FL","pbt3n7l1gj","1920","1080","0","1","0","5f63d70e4e460f141abccbc1","","null","","","learningBlock2","","","","<div style=""font-size:60px;""> </div>","null","FL","learning/Slide123.JPG","That was a bim.","","",""
"image-keyboard-response","376","409526","0.0-7.0-0.43","FL","pbt3n7l1gj","1920","1080","0","1","0","5f63d70e4e460f141abccbc1","","null","","","","","","","learning/Slide124.JPG","null","","","","","",""
"html-keyboard-response","377","410678","0.0-7.0-1.43","FL","pbt3n7l1gj","1920","1080","0","1","0","5f63d70e4e460f141abccbc1","","null","","","learningBlock2","","","","That was a tob.","null","","","","","",""
"html-keyboard-response","378","411679","0.0-7.0-2.43","FL","pbt3n7l1gj","1920","1080","0","1","0","5f63d70e4e460f141abccbc1","","null","","","learningBlock2","","","","<div style=""font-size:60px;""> </div>","null","FL","learning/Slide124.JPG","That was a tob.","","",""
"image-keyboard-response","379","411856","0.0-7.0-0.44","FL","pbt3n7l1gj","1920","1080","0","1","0","5f63d70e4e460f141abccbc1","","null","","","","","","","learning/Slide125.JPG","null","","","","","",""
"html-keyboard-response","380","413008","0.0-7.0-1.44","FL","pbt3n7l1gj","1920","1080","0","1","0","5f63d70e4e460f141abccbc1","","null","","","learningBlock2","","","","That was a bim.","null","","","","","",""
"html-keyboard-response","381","414009","0.0-7.0-2.44","FL","pbt3n7l1gj","1920","1080","0","1","0","5f63d70e4e460f141abccbc1","","null","","","learningBlock2","","","","<div style=""font-size:60px;""> </div>","null","FL","learning/Slide125.JPG","That was a bim.","","",""
"image-keyboard-response","382","414185","0.0-7.0-0.45","FL","pbt3n7l1gj","1920","1080","0","1","0","5f63d70e4e460f141abccbc1","","null","","","","","","","learning/Slide126.JPG","null","","","","","",""
"html-keyboard-response","383","415337","0.0-7.0-1.45","FL","pbt3n7l1gj","1920","1080","0","1","0","5f63d70e4e460f141abccbc1","","null","","","learningBlock2","","","","That was a tob.","null","","","","","",""
"html-keyboard-response","384","416338","0.0-7.0-2.45","FL","pbt3n7l1gj","1920","1080","0","1","0","5f63d70e4e460f141abccbc1","","null","","","learningBlock2","","","","<div style=""font-size:60px;""> </div>","null","FL","learning/Slide126.JPG","That was a tob.","","",""
"image-keyboard-response","385","416514","0.0-7.0-0.46","FL","pbt3n7l1gj","1920","1080","0","1","0","5f63d70e4e460f141abccbc1","","null","","","","","","","learning/Slide127.JPG","null","","","","","",""
"html-keyboard-response","386","417665","0.0-7.0-1.46","FL","pbt3n7l1gj","1920","1080","0","1","0","5f63d70e4e460f141abccbc1","","null","","","learningBlock2","","","","That was a dep.","null","","","","","",""
"html-keyboard-response","387","418667","0.0-7.0-2.46","FL","pbt3n7l1gj","1920","1080","0","1","0","5f63d70e4e460f141abccbc1","","null","","","learningBlock2","","","","<div style=""font-size:60px;""> </div>","null","FL","learning/Slide127.JPG","That was a dep.","","",""
"image-keyboard-response","388","418843","0.0-7.0-0.47","FL","pbt3n7l1gj","1920","1080","0","1","0","5f63d70e4e460f141abccbc1","","null","","","","","","","learning/Slide128.JPG","null","","","","","",""
"html-keyboard-response","389","419995","0.0-7.0-1.47","FL","pbt3n7l1gj","1920","1080","0","1","0","5f63d70e4e460f141abccbc1","","null","","","learningBlock2","","","","That was a wug.","null","","","","","",""
"html-keyboard-response","390","420996","0.0-7.0-2.47","FL","pbt3n7l1gj","1920","1080","0","1","0","5f63d70e4e460f141abccbc1","","null","","","learningBlock2","","","","<div style=""font-size:60px;""> </div>","null","FL","learning/Slide128.JPG","That was a wug.","","",""
"image-keyboard-response","391","421172","0.0-7.0-0.48","FL","pbt3n7l1gj","1920","1080","0","1","0","5f63d70e4e460f141abccbc1","","null","","","","","","","learning/Slide129.JPG","null","","","","","",""
"html-keyboard-response","392","422324","0.0-7.0-1.48","FL","pbt3n7l1gj","1920","1080","0","1","0","5f63d70e4e460f141abccbc1","","null","","","learningBlock2","","","","That was a tob.","null","","","","","",""
"html-keyboard-response","393","423325","0.0-7.0-2.48","FL","pbt3n7l1gj","1920","1080","0","1","0","5f63d70e4e460f141abccbc1","","null","","","learningBlock2","","","","<div style=""font-size:60px;""> </div>","null","FL","learning/Slide129.JPG","That was a tob.","","",""
"image-keyboard-response","394","423501","0.0-7.0-0.49","FL","pbt3n7l1gj","1920","1080","0","1","0","5f63d70e4e460f141abccbc1","","null","","","","","","","learning/Slide130.JPG","null","","","","","",""
"html-keyboard-response","395","424653","0.0-7.0-1.49","FL","pbt3n7l1gj","1920","1080","0","1","0","5f63d70e4e460f141abccbc1","","null","","","learningBlock2","","","","That was a wug.","null","","","","","",""
"html-keyboard-response","396","425654","0.0-7.0-2.49","FL","pbt3n7l1gj","1920","1080","0","1","0","5f63d70e4e460f141abccbc1","","null","","","learningBlock2","","","","<div style=""font-size:60px;""> </div>","null","FL","learning/Slide130.JPG","That was a wug.","","",""
"image-keyboard-response","397","425830","0.0-7.0-0.50","FL","pbt3n7l1gj","1920","1080","0","1","0","5f63d70e4e460f141abccbc1","","null","","","","","","","learning/Slide131.JPG","null","","","","","",""
"html-keyboard-response","398","426982","0.0-7.0-1.50","FL","pbt3n7l1gj","1920","1080","0","1","0","5f63d70e4e460f141abccbc1","","null","","","learningBlock2","","","","That was a bim.","null","","","","","",""
"html-keyboard-response","399","427983","0.0-7.0-2.50","FL","pbt3n7l1gj","1920","1080","0","1","0","5f63d70e4e460f141abccbc1","","null","","","learningBlock2","","","","<div style=""font-size:60px;""> </div>","null","FL","learning/Slide131.JPG","That was a bim.","","",""
"image-keyboard-response","400","428159","0.0-7.0-0.51","FL","pbt3n7l1gj","1920","1080","0","1","0","5f63d70e4e460f141abccbc1","","null","","","","","","","learning/Slide132.JPG","null","","","","","",""
"html-keyboard-response","401","429311","0.0-7.0-1.51","FL","pbt3n7l1gj","1920","1080","0","1","0","5f63d70e4e460f141abccbc1","","null","","","learningBlock2","","","","That was a dep.","null","","","","","",""
"html-keyboard-response","402","430312","0.0-7.0-2.51","FL","pbt3n7l1gj","1920","1080","0","1","0","5f63d70e4e460f141abccbc1","","null","","","learningBlock2","","","","<div style=""font-size:60px;""> </div>","null","FL","learning/Slide132.JPG","That was a dep.","","",""
"image-keyboard-response","403","430488","0.0-7.0-0.52","FL","pbt3n7l1gj","1920","1080","0","1","0","5f63d70e4e460f141abccbc1","","null","","","","","","","learning/Slide133.JPG","null","","","","","",""
"html-keyboard-response","404","431641","0.0-7.0-1.52","FL","pbt3n7l1gj","1920","1080","0","1","0","5f63d70e4e460f141abccbc1","","null","","","learningBlock2","","","","That was a tob.","null","","","","","",""
"html-keyboard-response","405","432642","0.0-7.0-2.52","FL","pbt3n7l1gj","1920","1080","0","1","0","5f63d70e4e460f141abccbc1","","null","","","learningBlock2","","","","<div style=""font-size:60px;""> </div>","null","FL","learning/Slide133.JPG","That was a tob.","","",""
"image-keyboard-response","406","432818","0.0-7.0-0.53","FL","pbt3n7l1gj","1920","1080","0","1","0","5f63d70e4e460f141abccbc1","","null","","","","","","","learning/Slide134.JPG","null","","","","","",""
"html-keyboard-response","407","433971","0.0-7.0-1.53","FL","pbt3n7l1gj","1920","1080","0","1","0","5f63d70e4e460f141abccbc1","","null","","","learningBlock2","","","","That was a dep.","null","","","","","",""
"html-keyboard-response","408","434972","0.0-7.0-2.53","FL","pbt3n7l1gj","1920","1080","0","1","0","5f63d70e4e460f141abccbc1","","null","","","learningBlock2","","","","<div style=""font-size:60px;""> </div>","null","FL","learning/Slide134.JPG","That was a dep.","","",""
"image-keyboard-response","409","435148","0.0-7.0-0.54","FL","pbt3n7l1gj","1920","1080","0","1","0","5f63d70e4e460f141abccbc1","","null","","","","","","","learning/Slide135.JPG","null","","","","","",""
"html-keyboard-response","410","436300","0.0-7.0-1.54","FL","pbt3n7l1gj","1920","1080","0","1","0","5f63d70e4e460f141abccbc1","","null","","","learningBlock2","","","","That was a tob.","null","","","","","",""
"html-keyboard-response","411","437301","0.0-7.0-2.54","FL","pbt3n7l1gj","1920","1080","0","1","0","5f63d70e4e460f141abccbc1","","null","","","learningBlock2","","","","<div style=""font-size:60px;""> </div>","null","FL","learning/Slide135.JPG","That was a tob.","","",""
"image-keyboard-response","412","437477","0.0-7.0-0.55","FL","pbt3n7l1gj","1920","1080","0","1","0","5f63d70e4e460f141abccbc1","","null","","","","","","","learning/Slide136.JPG","null","","","","","",""
"html-keyboard-response","413","438630","0.0-7.0-1.55","FL","pbt3n7l1gj","1920","1080","0","1","0","5f63d70e4e460f141abccbc1","","null","","","learningBlock2","","","","That was a wug.","null","","","","","",""
"html-keyboard-response","414","439630","0.0-7.0-2.55","FL","pbt3n7l1gj","1920","1080","0","1","0","5f63d70e4e460f141abccbc1","","null","","","learningBlock2","","","","<div style=""font-size:60px;""> </div>","null","FL","learning/Slide136.JPG","That was a wug.","","",""
"image-keyboard-response","415","439807","0.0-7.0-0.56","FL","pbt3n7l1gj","1920","1080","0","1","0","5f63d70e4e460f141abccbc1","","null","","","","","","","learning/Slide137.JPG","null","","","","","",""
"html-keyboard-response","416","440959","0.0-7.0-1.56","FL","pbt3n7l1gj","1920","1080","0","1","0","5f63d70e4e460f141abccbc1","","null","","","learningBlock2","","","","That was a tob.","null","","","","","",""
"html-keyboard-response","417","441960","0.0-7.0-2.56","FL","pbt3n7l1gj","1920","1080","0","1","0","5f63d70e4e460f141abccbc1","","null","","","learningBlock2","","","","<div style=""font-size:60px;""> </div>","null","FL","learning/Slide137.JPG","That was a tob.","","",""
"image-keyboard-response","418","442136","0.0-7.0-0.57","FL","pbt3n7l1gj","1920","1080","0","1","0","5f63d70e4e460f141abccbc1","","null","","","","","","","learning/Slide138.JPG","null","","","","","",""
"html-keyboard-response","419","443288","0.0-7.0-1.57","FL","pbt3n7l1gj","1920","1080","0","1","0","5f63d70e4e460f141abccbc1","","null","","","learningBlock2","","","","That was a bim.","null","","","","","",""
"html-keyboard-response","420","444289","0.0-7.0-2.57","FL","pbt3n7l1gj","1920","1080","0","1","0","5f63d70e4e460f141abccbc1","","null","","","learningBlock2","","","","<div style=""font-size:60px;""> </div>","null","FL","learning/Slide138.JPG","That was a bim.","","",""
"image-keyboard-response","421","444467","0.0-7.0-0.58","FL","pbt3n7l1gj","1920","1080","0","1","0","5f63d70e4e460f141abccbc1","","null","","","","","","","learning/Slide139.JPG","null","","","","","",""
"html-keyboard-response","422","445619","0.0-7.0-1.58","FL","pbt3n7l1gj","1920","1080","0","1","0","5f63d70e4e460f141abccbc1","","null","","","learningBlock2","","","","That was a wug.","null","","","","","",""
"html-keyboard-response","423","446620","0.0-7.0-2.58","FL","pbt3n7l1gj","1920","1080","0","1","0","5f63d70e4e460f141abccbc1","","null","","","learningBlock2","","","","<div style=""font-size:60px;""> </div>","null","FL","learning/Slide139.JPG","That was a wug.","","",""
"image-keyboard-response","424","446796","0.0-7.0-0.59","FL","pbt3n7l1gj","1920","1080","0","1","0","5f63d70e4e460f141abccbc1","","null","","","","","","","learning/Slide140.JPG","null","","","","","",""
"html-keyboard-response","425","447948","0.0-7.0-1.59","FL","pbt3n7l1gj","1920","1080","0","1","0","5f63d70e4e460f141abccbc1","","null","","","learningBlock2","","","","That was a dep.","null","","","","","",""
"html-keyboard-response","426","448949","0.0-7.0-2.59","FL","pbt3n7l1gj","1920","1080","0","1","0","5f63d70e4e460f141abccbc1","","null","","","learningBlock2","","","","<div style=""font-size:60px;""> </div>","null","FL","learning/Slide140.JPG","That was a dep.","","",""
"image-keyboard-response","427","449125","0.0-7.0-0.60","FL","pbt3n7l1gj","1920","1080","0","1","0","5f63d70e4e460f141abccbc1","","null","","","","","","","learning/Slide141.JPG","null","","","","","",""
"html-keyboard-response","428","450277","0.0-7.0-1.60","FL","pbt3n7l1gj","1920","1080","0","1","0","5f63d70e4e460f141abccbc1","","null","","","learningBlock2","","","","That was a tob.","null","","","","","",""
"html-keyboard-response","429","451278","0.0-7.0-2.60","FL","pbt3n7l1gj","1920","1080","0","1","0","5f63d70e4e460f141abccbc1","","null","","","learningBlock2","","","","<div style=""font-size:60px;""> </div>","null","FL","learning/Slide141.JPG","That was a tob.","","",""
"image-keyboard-response","430","451454","0.0-7.0-0.61","FL","pbt3n7l1gj","1920","1080","0","1","0","5f63d70e4e460f141abccbc1","","null","","","","","","","learning/Slide142.JPG","null","","","","","",""
"html-keyboard-response","431","452606","0.0-7.0-1.61","FL","pbt3n7l1gj","1920","1080","0","1","0","5f63d70e4e460f141abccbc1","","null","","","learningBlock2","","","","That was a wug.","null","","","","","",""
"html-keyboard-response","432","453607","0.0-7.0-2.61","FL","pbt3n7l1gj","1920","1080","0","1","0","5f63d70e4e460f141abccbc1","","null","","","learningBlock2","","","","<div style=""font-size:60px;""> </div>","null","FL","learning/Slide142.JPG","That was a wug.","","",""
"image-keyboard-response","433","453783","0.0-7.0-0.62","FL","pbt3n7l1gj","1920","1080","0","1","0","5f63d70e4e460f141abccbc1","","null","","","","","","","learning/Slide143.JPG","null","","","","","",""
"html-keyboard-response","434","454935","0.0-7.0-1.62","FL","pbt3n7l1gj","1920","1080","0","1","0","5f63d70e4e460f141abccbc1","","null","","","learningBlock2","","","","That was a bim.","null","","","","","",""
