"trial_type","trial_index","time_elapsed","internal_node_id","condition","subject","screen_width","screen_height","attention","distraction","conscientious","prolificID","success","rt","url","view_history","test_part","final_height_px","final_width_px","scale_factor","stimulus","key_press","learningType","presentedImage","presentedLabel","button_pressed","response","responses"
"pavlovia","0","29","0.0-0.0","FL","3a2waojqmg","1280","720","0","1","0","5e6a2c7c5b057b08e930e89d","","","","","","","","","","","","","","","",""
"fullscreen","1","3034","0.0-1.0","FL","3a2waojqmg","1280","720","0","1","0","5e6a2c7c5b057b08e930e89d","true","","","","","","","","","","","","","","",""
"external-html","2","8355","0.0-2.0-0.0","FL","3a2waojqmg","1280","720","0","1","0","5e6a2c7c5b057b08e930e89d","","5274.764999980107","text/information_english.html","","","","","","","","","","","","",""
"external-html","3","18043","0.0-2.0-1.0","FL","3a2waojqmg","1280","720","0","1","0","5e6a2c7c5b057b08e930e89d","","9646.74500003457","text/consent_english.html","","","","","","","","","","","","",""
"instructions","4","25076","0.0-3.0","FL","3a2waojqmg","1280","720","0","1","0","5e6a2c7c5b057b08e930e89d","","NA","","[{""page_index"":0,""viewing_time"":1598.340000025928},{""page_index"":1,""viewing_time"":5429.394999984652}]","instructions","","","","","","","","","","",""
"resize","5","37578","0.0-4.0","FL","3a2waojqmg","1280","720","0","1","0","5e6a2c7c5b057b08e930e89d","","","","","","","312","1.9809523809523808","","","","","","","",""
"image-keyboard-response","6","37756","0.0-5.0-0.0","FL","3a2waojqmg","1280","720","0","1","0","5e6a2c7c5b057b08e930e89d","","null","","","","","","","learning/Slide1.JPG","null","","","","","",""
"html-keyboard-response","7","38912","0.0-5.0-1.0","FL","3a2waojqmg","1280","720","0","1","0","5e6a2c7c5b057b08e930e89d","","null","","","learningBlock1","","","","That was a tob.","null","","","","","",""
"html-keyboard-response","8","39920","0.0-5.0-2.0","FL","3a2waojqmg","1280","720","0","1","0","5e6a2c7c5b057b08e930e89d","","null","","","learningBlock1","","","","<div style=""font-size:60px;""> </div>","null","FL","learning/Slide1.JPG","That was a tob.","","",""
"image-keyboard-response","9","40097","0.0-5.0-0.1","FL","3a2waojqmg","1280","720","0","1","0","5e6a2c7c5b057b08e930e89d","","null","","","","","","","learning/Slide2.JPG","null","","","","","",""
"html-keyboard-response","10","41263","0.0-5.0-1.1","FL","3a2waojqmg","1280","720","0","1","0","5e6a2c7c5b057b08e930e89d","","null","","","learningBlock1","","","","That was a wug.","null","","","","","",""
"html-keyboard-response","11","42275","0.0-5.0-2.1","FL","3a2waojqmg","1280","720","0","1","0","5e6a2c7c5b057b08e930e89d","","null","","","learningBlock1","","","","<div style=""font-size:60px;""> </div>","null","FL","learning/Slide2.JPG","That was a wug.","","",""
"image-keyboard-response","12","42453","0.0-5.0-0.2","FL","3a2waojqmg","1280","720","0","1","0","5e6a2c7c5b057b08e930e89d","","null","","","","","","","learning/Slide3.JPG","null","","","","","",""
"html-keyboard-response","13","43624","0.0-5.0-1.2","FL","3a2waojqmg","1280","720","0","1","0","5e6a2c7c5b057b08e930e89d","","null","","","learningBlock1","","","","That was a bim.","null","","","","","",""
"html-keyboard-response","14","44628","0.0-5.0-2.2","FL","3a2waojqmg","1280","720","0","1","0","5e6a2c7c5b057b08e930e89d","","null","","","learningBlock1","","","","<div style=""font-size:60px;""> </div>","null","FL","learning/Slide3.JPG","That was a bim.","","",""
"image-keyboard-response","15","44815","0.0-5.0-0.3","FL","3a2waojqmg","1280","720","0","1","0","5e6a2c7c5b057b08e930e89d","","null","","","","","","","learning/Slide4.JPG","null","","","","","",""
"html-keyboard-response","16","45978","0.0-5.0-1.3","FL","3a2waojqmg","1280","720","0","1","0","5e6a2c7c5b057b08e930e89d","","null","","","learningBlock1","","","","That was a dep.","null","","","","","",""
"html-keyboard-response","17","46980","0.0-5.0-2.3","FL","3a2waojqmg","1280","720","0","1","0","5e6a2c7c5b057b08e930e89d","","null","","","learningBlock1","","","","<div style=""font-size:60px;""> </div>","null","FL","learning/Slide4.JPG","That was a dep.","","",""
"image-keyboard-response","18","47167","0.0-5.0-0.4","FL","3a2waojqmg","1280","720","0","1","0","5e6a2c7c5b057b08e930e89d","","null","","","","","","","learning/Slide5.JPG","null","","","","","",""
"html-keyboard-response","19","48338","0.0-5.0-1.4","FL","3a2waojqmg","1280","720","0","1","0","5e6a2c7c5b057b08e930e89d","","null","","","learningBlock1","","","","That was a wug.","null","","","","","",""
"html-keyboard-response","20","49342","0.0-5.0-2.4","FL","3a2waojqmg","1280","720","0","1","0","5e6a2c7c5b057b08e930e89d","","null","","","learningBlock1","","","","<div style=""font-size:60px;""> </div>","null","FL","learning/Slide5.JPG","That was a wug.","","",""
"image-keyboard-response","21","49521","0.0-5.0-0.5","FL","3a2waojqmg","1280","720","0","1","0","5e6a2c7c5b057b08e930e89d","","null","","","","","","","learning/Slide6.JPG","null","","","","","",""
"html-keyboard-response","22","50693","0.0-5.0-1.5","FL","3a2waojqmg","1280","720","0","1","0","5e6a2c7c5b057b08e930e89d","","null","","","learningBlock1","","","","That was a dep.","null","","","","","",""
"html-keyboard-response","23","51700","0.0-5.0-2.5","FL","3a2waojqmg","1280","720","0","1","0","5e6a2c7c5b057b08e930e89d","","null","","","learningBlock1","","","","<div style=""font-size:60px;""> </div>","null","FL","learning/Slide6.JPG","That was a dep.","","",""
"image-keyboard-response","24","51881","0.0-5.0-0.6","FL","3a2waojqmg","1280","720","0","1","0","5e6a2c7c5b057b08e930e89d","","null","","","","","","","learning/Slide7.JPG","null","","","","","",""
"html-keyboard-response","25","53044","0.0-5.0-1.6","FL","3a2waojqmg","1280","720","0","1","0","5e6a2c7c5b057b08e930e89d","","null","","","learningBlock1","","","","That was a wug.","null","","","","","",""
"html-keyboard-response","26","54058","0.0-5.0-2.6","FL","3a2waojqmg","1280","720","0","1","0","5e6a2c7c5b057b08e930e89d","","null","","","learningBlock1","","","","<div style=""font-size:60px;""> </div>","null","FL","learning/Slide7.JPG","That was a wug.","","",""
"image-keyboard-response","27","54243","0.0-5.0-0.7","FL","3a2waojqmg","1280","720","0","1","0","5e6a2c7c5b057b08e930e89d","","null","","","","","","","learning/Slide8.JPG","null","","","","","",""
"html-keyboard-response","28","55414","0.0-5.0-1.7","FL","3a2waojqmg","1280","720","0","1","0","5e6a2c7c5b057b08e930e89d","","null","","","learningBlock1","","","","That was a bim.","null","","","","","",""
"html-keyboard-response","29","56421","0.0-5.0-2.7","FL","3a2waojqmg","1280","720","0","1","0","5e6a2c7c5b057b08e930e89d","","null","","","learningBlock1","","","","<div style=""font-size:60px;""> </div>","null","FL","learning/Slide8.JPG","That was a bim.","","",""
"image-keyboard-response","30","56610","0.0-5.0-0.8","FL","3a2waojqmg","1280","720","0","1","0","5e6a2c7c5b057b08e930e89d","","null","","","","","","","learning/Slide9.JPG","null","","","","","",""
"html-keyboard-response","31","57777","0.0-5.0-1.8","FL","3a2waojqmg","1280","720","0","1","0","5e6a2c7c5b057b08e930e89d","","null","","","learningBlock1","","","","That was a wug.","null","","","","","",""
"html-keyboard-response","32","58779","0.0-5.0-2.8","FL","3a2waojqmg","1280","720","0","1","0","5e6a2c7c5b057b08e930e89d","","null","","","learningBlock1","","","","<div style=""font-size:60px;""> </div>","null","FL","learning/Slide9.JPG","That was a wug.","","",""
"image-keyboard-response","33","58967","0.0-5.0-0.9","FL","3a2waojqmg","1280","720","0","1","0","5e6a2c7c5b057b08e930e89d","","null","","","","","","","learning/Slide10.JPG","null","","","","","",""
"html-keyboard-response","34","60130","0.0-5.0-1.9","FL","3a2waojqmg","1280","720","0","1","0","5e6a2c7c5b057b08e930e89d","","null","","","learningBlock1","","","","That was a dep.","null","","","","","",""
"html-keyboard-response","35","61140","0.0-5.0-2.9","FL","3a2waojqmg","1280","720","0","1","0","5e6a2c7c5b057b08e930e89d","","null","","","learningBlock1","","","","<div style=""font-size:60px;""> </div>","null","FL","learning/Slide10.JPG","That was a dep.","","",""
"image-keyboard-response","36","61320","0.0-5.0-0.10","FL","3a2waojqmg","1280","720","0","1","0","5e6a2c7c5b057b08e930e89d","","null","","","","","","","learning/Slide11.JPG","null","","","","","",""
"html-keyboard-response","37","62484","0.0-5.0-1.10","FL","3a2waojqmg","1280","720","0","1","0","5e6a2c7c5b057b08e930e89d","","null","","","learningBlock1","","","","That was a tob.","null","","","","","",""
"html-keyboard-response","38","63498","0.0-5.0-2.10","FL","3a2waojqmg","1280","720","0","1","0","5e6a2c7c5b057b08e930e89d","","null","","","learningBlock1","","","","<div style=""font-size:60px;""> </div>","null","FL","learning/Slide11.JPG","That was a tob.","","",""
"image-keyboard-response","39","63687","0.0-5.0-0.11","FL","3a2waojqmg","1280","720","0","1","0","5e6a2c7c5b057b08e930e89d","","null","","","","","","","learning/Slide12.JPG","null","","","","","",""
"html-keyboard-response","40","64852","0.0-5.0-1.11","FL","3a2waojqmg","1280","720","0","1","0","5e6a2c7c5b057b08e930e89d","","null","","","learningBlock1","","","","That was a dep.","null","","","","","",""
"html-keyboard-response","41","65858","0.0-5.0-2.11","FL","3a2waojqmg","1280","720","0","1","0","5e6a2c7c5b057b08e930e89d","","null","","","learningBlock1","","","","<div style=""font-size:60px;""> </div>","null","FL","learning/Slide12.JPG","That was a dep.","","",""
"image-keyboard-response","42","66040","0.0-5.0-0.12","FL","3a2waojqmg","1280","720","0","1","0","5e6a2c7c5b057b08e930e89d","","null","","","","","","","learning/Slide13.JPG","null","","","","","",""
"html-keyboard-response","43","67209","0.0-5.0-1.12","FL","3a2waojqmg","1280","720","0","1","0","5e6a2c7c5b057b08e930e89d","","null","","","learningBlock1","","","","That was a bim.","null","","","","","",""
"html-keyboard-response","44","68219","0.0-5.0-2.12","FL","3a2waojqmg","1280","720","0","1","0","5e6a2c7c5b057b08e930e89d","","null","","","learningBlock1","","","","<div style=""font-size:60px;""> </div>","null","FL","learning/Slide13.JPG","That was a bim.","","",""
"image-keyboard-response","45","68405","0.0-5.0-0.13","FL","3a2waojqmg","1280","720","0","1","0","5e6a2c7c5b057b08e930e89d","","null","","","","","","","learning/Slide14.JPG","null","","","","","",""
"html-keyboard-response","46","69579","0.0-5.0-1.13","FL","3a2waojqmg","1280","720","0","1","0","5e6a2c7c5b057b08e930e89d","","null","","","learningBlock1","","","","That was a wug.","null","","","","","",""
"html-keyboard-response","47","70596","0.0-5.0-2.13","FL","3a2waojqmg","1280","720","0","1","0","5e6a2c7c5b057b08e930e89d","","null","","","learningBlock1","","","","<div style=""font-size:60px;""> </div>","null","FL","learning/Slide14.JPG","That was a wug.","","",""
"image-keyboard-response","48","70779","0.0-5.0-0.14","FL","3a2waojqmg","1280","720","0","1","0","5e6a2c7c5b057b08e930e89d","","null","","","","","","","learning/Slide15.JPG","null","","","","","",""
"html-keyboard-response","49","71947","0.0-5.0-1.14","FL","3a2waojqmg","1280","720","0","1","0","5e6a2c7c5b057b08e930e89d","","null","","","learningBlock1","","","","That was a tob.","null","","","","","",""
"html-keyboard-response","50","72956","0.0-5.0-2.14","FL","3a2waojqmg","1280","720","0","1","0","5e6a2c7c5b057b08e930e89d","","null","","","learningBlock1","","","","<div style=""font-size:60px;""> </div>","null","FL","learning/Slide15.JPG","That was a tob.","","",""
"image-keyboard-response","51","73143","0.0-5.0-0.15","FL","3a2waojqmg","1280","720","0","1","0","5e6a2c7c5b057b08e930e89d","","null","","","","","","","learning/Slide16.JPG","null","","","","","",""
"html-keyboard-response","52","74311","0.0-5.0-1.15","FL","3a2waojqmg","1280","720","0","1","0","5e6a2c7c5b057b08e930e89d","","null","","","learningBlock1","","","","That was a dep.","null","","","","","",""
"html-keyboard-response","53","75315","0.0-5.0-2.15","FL","3a2waojqmg","1280","720","0","1","0","5e6a2c7c5b057b08e930e89d","","null","","","learningBlock1","","","","<div style=""font-size:60px;""> </div>","null","FL","learning/Slide16.JPG","That was a dep.","","",""
"image-keyboard-response","54","75497","0.0-5.0-0.16","FL","3a2waojqmg","1280","720","0","1","0","5e6a2c7c5b057b08e930e89d","","null","","","","","","","learning/Slide17.JPG","null","","","","","",""
"html-keyboard-response","55","76667","0.0-5.0-1.16","FL","3a2waojqmg","1280","720","0","1","0","5e6a2c7c5b057b08e930e89d","","null","","","learningBlock1","","","","That was a bim.","null","","","","","",""
"html-keyboard-response","56","77683","0.0-5.0-2.16","FL","3a2waojqmg","1280","720","0","1","0","5e6a2c7c5b057b08e930e89d","","null","","","learningBlock1","","","","<div style=""font-size:60px;""> </div>","null","FL","learning/Slide17.JPG","That was a bim.","","",""
"image-keyboard-response","57","77871","0.0-5.0-0.17","FL","3a2waojqmg","1280","720","0","1","0","5e6a2c7c5b057b08e930e89d","","null","","","","","","","learning/Slide18.JPG","null","","","","","",""
"html-keyboard-response","58","79028","0.0-5.0-1.17","FL","3a2waojqmg","1280","720","0","1","0","5e6a2c7c5b057b08e930e89d","","null","","","learningBlock1","","","","That was a tob.","null","","","","","",""
"html-keyboard-response","59","80036","0.0-5.0-2.17","FL","3a2waojqmg","1280","720","0","1","0","5e6a2c7c5b057b08e930e89d","","null","","","learningBlock1","","","","<div style=""font-size:60px;""> </div>","null","FL","learning/Slide18.JPG","That was a tob.","","",""
"image-keyboard-response","60","80222","0.0-5.0-0.18","FL","3a2waojqmg","1280","720","0","1","0","5e6a2c7c5b057b08e930e89d","","null","","","","","","","learning/Slide19.JPG","null","","","","","",""
"html-keyboard-response","61","81391","0.0-5.0-1.18","FL","3a2waojqmg","1280","720","0","1","0","5e6a2c7c5b057b08e930e89d","","null","","","learningBlock1","","","","That was a wug.","null","","","","","",""
"html-keyboard-response","62","82406","0.0-5.0-2.18","FL","3a2waojqmg","1280","720","0","1","0","5e6a2c7c5b057b08e930e89d","","null","","","learningBlock1","","","","<div style=""font-size:60px;""> </div>","null","FL","learning/Slide19.JPG","That was a wug.","","",""
"image-keyboard-response","63","82585","0.0-5.0-0.19","FL","3a2waojqmg","1280","720","0","1","0","5e6a2c7c5b057b08e930e89d","","null","","","","","","","learning/Slide20.JPG","null","","","","","",""
"html-keyboard-response","64","83758","0.0-5.0-1.19","FL","3a2waojqmg","1280","720","0","1","0","5e6a2c7c5b057b08e930e89d","","null","","","learningBlock1","","","","That was a bim.","null","","","","","",""
"html-keyboard-response","65","84773","0.0-5.0-2.19","FL","3a2waojqmg","1280","720","0","1","0","5e6a2c7c5b057b08e930e89d","","null","","","learningBlock1","","","","<div style=""font-size:60px;""> </div>","null","FL","learning/Slide20.JPG","That was a bim.","","",""
"image-keyboard-response","66","84954","0.0-5.0-0.20","FL","3a2waojqmg","1280","720","0","1","0","5e6a2c7c5b057b08e930e89d","","null","","","","","","","learning/Slide21.JPG","null","","","","","",""
"html-keyboard-response","67","86111","0.0-5.0-1.20","FL","3a2waojqmg","1280","720","0","1","0","5e6a2c7c5b057b08e930e89d","","null","","","learningBlock1","","","","That was a dep.","null","","","","","",""
"html-keyboard-response","68","87121","0.0-5.0-2.20","FL","3a2waojqmg","1280","720","0","1","0","5e6a2c7c5b057b08e930e89d","","null","","","learningBlock1","","","","<div style=""font-size:60px;""> </div>","null","FL","learning/Slide21.JPG","That was a dep.","","",""
"image-keyboard-response","69","87307","0.0-5.0-0.21","FL","3a2waojqmg","1280","720","0","1","0","5e6a2c7c5b057b08e930e89d","","null","","","","","","","learning/Slide22.JPG","null","","","","","",""
"html-keyboard-response","70","88476","0.0-5.0-1.21","FL","3a2waojqmg","1280","720","0","1","0","5e6a2c7c5b057b08e930e89d","","null","","","learningBlock1","","","","That was a bim.","null","","","","","",""
"html-keyboard-response","71","89488","0.0-5.0-2.21","FL","3a2waojqmg","1280","720","0","1","0","5e6a2c7c5b057b08e930e89d","","null","","","learningBlock1","","","","<div style=""font-size:60px;""> </div>","null","FL","learning/Slide22.JPG","That was a bim.","","",""
"image-keyboard-response","72","89668","0.0-5.0-0.22","FL","3a2waojqmg","1280","720","0","1","0","5e6a2c7c5b057b08e930e89d","","null","","","","","","","learning/Slide23.JPG","null","","","","","",""
"html-keyboard-response","73","90847","0.0-5.0-1.22","FL","3a2waojqmg","1280","720","0","1","0","5e6a2c7c5b057b08e930e89d","","null","","","learningBlock1","","","","That was a tob.","null","","","","","",""
"html-keyboard-response","74","91852","0.0-5.0-2.22","FL","3a2waojqmg","1280","720","0","1","0","5e6a2c7c5b057b08e930e89d","","null","","","learningBlock1","","","","<div style=""font-size:60px;""> </div>","null","FL","learning/Slide23.JPG","That was a tob.","","",""
"image-keyboard-response","75","92035","0.0-5.0-0.23","FL","3a2waojqmg","1280","720","0","1","0","5e6a2c7c5b057b08e930e89d","","null","","","","","","","learning/Slide24.JPG","null","","","","","",""
"html-keyboard-response","76","93200","0.0-5.0-1.23","FL","3a2waojqmg","1280","720","0","1","0","5e6a2c7c5b057b08e930e89d","","null","","","learningBlock1","","","","That was a wug.","null","","","","","",""
"html-keyboard-response","77","94208","0.0-5.0-2.23","FL","3a2waojqmg","1280","720","0","1","0","5e6a2c7c5b057b08e930e89d","","null","","","learningBlock1","","","","<div style=""font-size:60px;""> </div>","null","FL","learning/Slide24.JPG","That was a wug.","","",""
"image-keyboard-response","78","94388","0.0-5.0-0.24","FL","3a2waojqmg","1280","720","0","1","0","5e6a2c7c5b057b08e930e89d","","null","","","","","","","learning/Slide25.JPG","null","","","","","",""
"html-keyboard-response","79","95551","0.0-5.0-1.24","FL","3a2waojqmg","1280","720","0","1","0","5e6a2c7c5b057b08e930e89d","","null","","","learningBlock1","","","","That was a dep.","null","","","","","",""
"html-keyboard-response","80","96563","0.0-5.0-2.24","FL","3a2waojqmg","1280","720","0","1","0","5e6a2c7c5b057b08e930e89d","","null","","","learningBlock1","","","","<div style=""font-size:60px;""> </div>","null","FL","learning/Slide25.JPG","That was a dep.","","",""
"image-keyboard-response","81","96746","0.0-5.0-0.25","FL","3a2waojqmg","1280","720","0","1","0","5e6a2c7c5b057b08e930e89d","","null","","","","","","","learning/Slide26.JPG","null","","","","","",""
"html-keyboard-response","82","97906","0.0-5.0-1.25","FL","3a2waojqmg","1280","720","0","1","0","5e6a2c7c5b057b08e930e89d","","null","","","learningBlock1","","","","That was a wug.","null","","","","","",""
"html-keyboard-response","83","98910","0.0-5.0-2.25","FL","3a2waojqmg","1280","720","0","1","0","5e6a2c7c5b057b08e930e89d","","null","","","learningBlock1","","","","<div style=""font-size:60px;""> </div>","null","FL","learning/Slide26.JPG","That was a wug.","","",""
"image-keyboard-response","84","99096","0.0-5.0-0.26","FL","3a2waojqmg","1280","720","0","1","0","5e6a2c7c5b057b08e930e89d","","null","","","","","","","learning/Slide27.JPG","null","","","","","",""
"html-keyboard-response","85","100260","0.0-5.0-1.26","FL","3a2waojqmg","1280","720","0","1","0","5e6a2c7c5b057b08e930e89d","","null","","","learningBlock1","","","","That was a bim.","null","","","","","",""
"html-keyboard-response","86","101271","0.0-5.0-2.26","FL","3a2waojqmg","1280","720","0","1","0","5e6a2c7c5b057b08e930e89d","","null","","","learningBlock1","","","","<div style=""font-size:60px;""> </div>","null","FL","learning/Slide27.JPG","That was a bim.","","",""
"image-keyboard-response","87","101459","0.0-5.0-0.27","FL","3a2waojqmg","1280","720","0","1","0","5e6a2c7c5b057b08e930e89d","","null","","","","","","","learning/Slide28.JPG","null","","","","","",""
"html-keyboard-response","88","102633","0.0-5.0-1.27","FL","3a2waojqmg","1280","720","0","1","0","5e6a2c7c5b057b08e930e89d","","null","","","learningBlock1","","","","That was a dep.","null","","","","","",""
"html-keyboard-response","89","103650","0.0-5.0-2.27","FL","3a2waojqmg","1280","720","0","1","0","5e6a2c7c5b057b08e930e89d","","null","","","learningBlock1","","","","<div style=""font-size:60px;""> </div>","null","FL","learning/Slide28.JPG","That was a dep.","","",""
"image-keyboard-response","90","103837","0.0-5.0-0.28","FL","3a2waojqmg","1280","720","0","1","0","5e6a2c7c5b057b08e930e89d","","null","","","","","","","learning/Slide29.JPG","null","","","","","",""
"html-keyboard-response","91","105000","0.0-5.0-1.28","FL","3a2waojqmg","1280","720","0","1","0","5e6a2c7c5b057b08e930e89d","","null","","","learningBlock1","","","","That was a tob.","null","","","","","",""
"html-keyboard-response","92","106005","0.0-5.0-2.28","FL","3a2waojqmg","1280","720","0","1","0","5e6a2c7c5b057b08e930e89d","","null","","","learningBlock1","","","","<div style=""font-size:60px;""> </div>","null","FL","learning/Slide29.JPG","That was a tob.","","",""
"image-keyboard-response","93","106193","0.0-5.0-0.29","FL","3a2waojqmg","1280","720","0","1","0","5e6a2c7c5b057b08e930e89d","","null","","","","","","","learning/Slide30.JPG","null","","","","","",""
"html-keyboard-response","94","107363","0.0-5.0-1.29","FL","3a2waojqmg","1280","720","0","1","0","5e6a2c7c5b057b08e930e89d","","null","","","learningBlock1","","","","That was a dep.","null","","","","","",""
"html-keyboard-response","95","108376","0.0-5.0-2.29","FL","3a2waojqmg","1280","720","0","1","0","5e6a2c7c5b057b08e930e89d","","null","","","learningBlock1","","","","<div style=""font-size:60px;""> </div>","null","FL","learning/Slide30.JPG","That was a dep.","","",""
"image-keyboard-response","96","108556","0.0-5.0-0.30","FL","3a2waojqmg","1280","720","0","1","0","5e6a2c7c5b057b08e930e89d","","null","","","","","","","learning/Slide31.JPG","null","","","","","",""
"html-keyboard-response","97","109719","0.0-5.0-1.30","FL","3a2waojqmg","1280","720","0","1","0","5e6a2c7c5b057b08e930e89d","","null","","","learningBlock1","","","","That was a wug.","null","","","","","",""
"html-keyboard-response","98","110737","0.0-5.0-2.30","FL","3a2waojqmg","1280","720","0","1","0","5e6a2c7c5b057b08e930e89d","","null","","","learningBlock1","","","","<div style=""font-size:60px;""> </div>","null","FL","learning/Slide31.JPG","That was a wug.","","",""
"image-keyboard-response","99","110919","0.0-5.0-0.31","FL","3a2waojqmg","1280","720","0","1","0","5e6a2c7c5b057b08e930e89d","","null","","","","","","","learning/Slide32.JPG","null","","","","","",""
"html-keyboard-response","100","112083","0.0-5.0-1.31","FL","3a2waojqmg","1280","720","0","1","0","5e6a2c7c5b057b08e930e89d","","null","","","learningBlock1","","","","That was a tob.","null","","","","","",""
"html-keyboard-response","101","113101","0.0-5.0-2.31","FL","3a2waojqmg","1280","720","0","1","0","5e6a2c7c5b057b08e930e89d","","null","","","learningBlock1","","","","<div style=""font-size:60px;""> </div>","null","FL","learning/Slide32.JPG","That was a tob.","","",""
"image-keyboard-response","102","113285","0.0-5.0-0.32","FL","3a2waojqmg","1280","720","0","1","0","5e6a2c7c5b057b08e930e89d","","null","","","","","","","learning/Slide33.JPG","null","","","","","",""
"html-keyboard-response","103","114442","0.0-5.0-1.32","FL","3a2waojqmg","1280","720","0","1","0","5e6a2c7c5b057b08e930e89d","","null","","","learningBlock1","","","","That was a bim.","null","","","","","",""
"html-keyboard-response","104","115444","0.0-5.0-2.32","FL","3a2waojqmg","1280","720","0","1","0","5e6a2c7c5b057b08e930e89d","","null","","","learningBlock1","","","","<div style=""font-size:60px;""> </div>","null","FL","learning/Slide33.JPG","That was a bim.","","",""
"image-keyboard-response","105","115623","0.0-5.0-0.33","FL","3a2waojqmg","1280","720","0","1","0","5e6a2c7c5b057b08e930e89d","","null","","","","","","","learning/Slide34.JPG","null","","","","","",""
"html-keyboard-response","106","116805","0.0-5.0-1.33","FL","3a2waojqmg","1280","720","0","1","0","5e6a2c7c5b057b08e930e89d","","null","","","learningBlock1","","","","That was a tob.","null","","","","","",""
"html-keyboard-response","107","117821","0.0-5.0-2.33","FL","3a2waojqmg","1280","720","0","1","0","5e6a2c7c5b057b08e930e89d","","null","","","learningBlock1","","","","<div style=""font-size:60px;""> </div>","null","FL","learning/Slide34.JPG","That was a tob.","","",""
"image-keyboard-response","108","118004","0.0-5.0-0.34","FL","3a2waojqmg","1280","720","0","1","0","5e6a2c7c5b057b08e930e89d","","null","","","","","","","learning/Slide35.JPG","null","","","","","",""
"html-keyboard-response","109","119175","0.0-5.0-1.34","FL","3a2waojqmg","1280","720","0","1","0","5e6a2c7c5b057b08e930e89d","","null","","","learningBlock1","","","","That was a bim.","null","","","","","",""
"html-keyboard-response","110","120181","0.0-5.0-2.34","FL","3a2waojqmg","1280","720","0","1","0","5e6a2c7c5b057b08e930e89d","","null","","","learningBlock1","","","","<div style=""font-size:60px;""> </div>","null","FL","learning/Slide35.JPG","That was a bim.","","",""
"image-keyboard-response","111","120359","0.0-5.0-0.35","FL","3a2waojqmg","1280","720","0","1","0","5e6a2c7c5b057b08e930e89d","","null","","","","","","","learning/Slide36.JPG","null","","","","","",""
"html-keyboard-response","112","121518","0.0-5.0-1.35","FL","3a2waojqmg","1280","720","0","1","0","5e6a2c7c5b057b08e930e89d","","null","","","learningBlock1","","","","That was a dep.","null","","","","","",""
"html-keyboard-response","113","122532","0.0-5.0-2.35","FL","3a2waojqmg","1280","720","0","1","0","5e6a2c7c5b057b08e930e89d","","null","","","learningBlock1","","","","<div style=""font-size:60px;""> </div>","null","FL","learning/Slide36.JPG","That was a dep.","","",""
"image-keyboard-response","114","122720","0.0-5.0-0.36","FL","3a2waojqmg","1280","720","0","1","0","5e6a2c7c5b057b08e930e89d","","null","","","","","","","learning/Slide37.JPG","null","","","","","",""
"html-keyboard-response","115","123883","0.0-5.0-1.36","FL","3a2waojqmg","1280","720","0","1","0","5e6a2c7c5b057b08e930e89d","","null","","","learningBlock1","","","","That was a tob.","null","","","","","",""
"html-keyboard-response","116","124893","0.0-5.0-2.36","FL","3a2waojqmg","1280","720","0","1","0","5e6a2c7c5b057b08e930e89d","","null","","","learningBlock1","","","","<div style=""font-size:60px;""> </div>","null","FL","learning/Slide37.JPG","That was a tob.","","",""
"image-keyboard-response","117","125074","0.0-5.0-0.37","FL","3a2waojqmg","1280","720","0","1","0","5e6a2c7c5b057b08e930e89d","","null","","","","","","","learning/Slide38.JPG","null","","","","","",""
"html-keyboard-response","118","126232","0.0-5.0-1.37","FL","3a2waojqmg","1280","720","0","1","0","5e6a2c7c5b057b08e930e89d","","null","","","learningBlock1","","","","That was a wug.","null","","","","","",""
"html-keyboard-response","119","127243","0.0-5.0-2.37","FL","3a2waojqmg","1280","720","0","1","0","5e6a2c7c5b057b08e930e89d","","null","","","learningBlock1","","","","<div style=""font-size:60px;""> </div>","null","FL","learning/Slide38.JPG","That was a wug.","","",""
"image-keyboard-response","120","127421","0.0-5.0-0.38","FL","3a2waojqmg","1280","720","0","1","0","5e6a2c7c5b057b08e930e89d","","null","","","","","","","learning/Slide39.JPG","null","","","","","",""
"html-keyboard-response","121","128597","0.0-5.0-1.38","FL","3a2waojqmg","1280","720","0","1","0","5e6a2c7c5b057b08e930e89d","","null","","","learningBlock1","","","","That was a bim.","null","","","","","",""
"html-keyboard-response","122","129606","0.0-5.0-2.38","FL","3a2waojqmg","1280","720","0","1","0","5e6a2c7c5b057b08e930e89d","","null","","","learningBlock1","","","","<div style=""font-size:60px;""> </div>","null","FL","learning/Slide39.JPG","That was a bim.","","",""
"image-keyboard-response","123","129788","0.0-5.0-0.39","FL","3a2waojqmg","1280","720","0","1","0","5e6a2c7c5b057b08e930e89d","","null","","","","","","","learning/Slide40.JPG","null","","","","","",""
"html-keyboard-response","124","130959","0.0-5.0-1.39","FL","3a2waojqmg","1280","720","0","1","0","5e6a2c7c5b057b08e930e89d","","null","","","learningBlock1","","","","That was a tob.","null","","","","","",""
"html-keyboard-response","125","131962","0.0-5.0-2.39","FL","3a2waojqmg","1280","720","0","1","0","5e6a2c7c5b057b08e930e89d","","null","","","learningBlock1","","","","<div style=""font-size:60px;""> </div>","null","FL","learning/Slide40.JPG","That was a tob.","","",""
"image-keyboard-response","126","132150","0.0-5.0-0.40","FL","3a2waojqmg","1280","720","0","1","0","5e6a2c7c5b057b08e930e89d","","null","","","","","","","learning/Slide41.JPG","null","","","","","",""
"html-keyboard-response","127","133310","0.0-5.0-1.40","FL","3a2waojqmg","1280","720","0","1","0","5e6a2c7c5b057b08e930e89d","","null","","","learningBlock1","","","","That was a bim.","null","","","","","",""
"html-keyboard-response","128","134326","0.0-5.0-2.40","FL","3a2waojqmg","1280","720","0","1","0","5e6a2c7c5b057b08e930e89d","","null","","","learningBlock1","","","","<div style=""font-size:60px;""> </div>","null","FL","learning/Slide41.JPG","That was a bim.","","",""
"image-keyboard-response","129","134503","0.0-5.0-0.41","FL","3a2waojqmg","1280","720","0","1","0","5e6a2c7c5b057b08e930e89d","","null","","","","","","","learning/Slide42.JPG","null","","","","","",""
"html-keyboard-response","130","135678","0.0-5.0-1.41","FL","3a2waojqmg","1280","720","0","1","0","5e6a2c7c5b057b08e930e89d","","null","","","learningBlock1","","","","That was a dep.","null","","","","","",""
"html-keyboard-response","131","136694","0.0-5.0-2.41","FL","3a2waojqmg","1280","720","0","1","0","5e6a2c7c5b057b08e930e89d","","null","","","learningBlock1","","","","<div style=""font-size:60px;""> </div>","null","FL","learning/Slide42.JPG","That was a dep.","","",""
"image-keyboard-response","132","136874","0.0-5.0-0.42","FL","3a2waojqmg","1280","720","0","1","0","5e6a2c7c5b057b08e930e89d","","null","","","","","","","learning/Slide43.JPG","null","","","","","",""
"html-keyboard-response","133","138041","0.0-5.0-1.42","FL","3a2waojqmg","1280","720","0","1","0","5e6a2c7c5b057b08e930e89d","","null","","","learningBlock1","","","","That was a wug.","null","","","","","",""
"html-keyboard-response","134","139050","0.0-5.0-2.42","FL","3a2waojqmg","1280","720","0","1","0","5e6a2c7c5b057b08e930e89d","","null","","","learningBlock1","","","","<div style=""font-size:60px;""> </div>","null","FL","learning/Slide43.JPG","That was a wug.","","",""
"image-keyboard-response","135","139239","0.0-5.0-0.43","FL","3a2waojqmg","1280","720","0","1","0","5e6a2c7c5b057b08e930e89d","","null","","","","","","","learning/Slide44.JPG","null","","","","","",""
"html-keyboard-response","136","140398","0.0-5.0-1.43","FL","3a2waojqmg","1280","720","0","1","0","5e6a2c7c5b057b08e930e89d","","null","","","learningBlock1","","","","That was a bim.","null","","","","","",""
"html-keyboard-response","137","141416","0.0-5.0-2.43","FL","3a2waojqmg","1280","720","0","1","0","5e6a2c7c5b057b08e930e89d","","null","","","learningBlock1","","","","<div style=""font-size:60px;""> </div>","null","FL","learning/Slide44.JPG","That was a bim.","","",""
"image-keyboard-response","138","141606","0.0-5.0-0.44","FL","3a2waojqmg","1280","720","0","1","0","5e6a2c7c5b057b08e930e89d","","null","","","","","","","learning/Slide45.JPG","null","","","","","",""
"html-keyboard-response","139","142777","0.0-5.0-1.44","FL","3a2waojqmg","1280","720","0","1","0","5e6a2c7c5b057b08e930e89d","","null","","","learningBlock1","","","","That was a wug.","null","","","","","",""
"html-keyboard-response","140","143780","0.0-5.0-2.44","FL","3a2waojqmg","1280","720","0","1","0","5e6a2c7c5b057b08e930e89d","","null","","","learningBlock1","","","","<div style=""font-size:60px;""> </div>","null","FL","learning/Slide45.JPG","That was a wug.","","",""
"image-keyboard-response","141","143972","0.0-5.0-0.45","FL","3a2waojqmg","1280","720","0","1","0","5e6a2c7c5b057b08e930e89d","","null","","","","","","","learning/Slide46.JPG","null","","","","","",""
"html-keyboard-response","142","145133","0.0-5.0-1.45","FL","3a2waojqmg","1280","720","0","1","0","5e6a2c7c5b057b08e930e89d","","null","","","learningBlock1","","","","That was a dep.","null","","","","","",""
"html-keyboard-response","143","146140","0.0-5.0-2.45","FL","3a2waojqmg","1280","720","0","1","0","5e6a2c7c5b057b08e930e89d","","null","","","learningBlock1","","","","<div style=""font-size:60px;""> </div>","null","FL","learning/Slide46.JPG","That was a dep.","","",""
"image-keyboard-response","144","146328","0.0-5.0-0.46","FL","3a2waojqmg","1280","720","0","1","0","5e6a2c7c5b057b08e930e89d","","null","","","","","","","learning/Slide47.JPG","null","","","","","",""
"html-keyboard-response","145","147493","0.0-5.0-1.46","FL","3a2waojqmg","1280","720","0","1","0","5e6a2c7c5b057b08e930e89d","","null","","","learningBlock1","","","","That was a tob.","null","","","","","",""
"html-keyboard-response","146","148506","0.0-5.0-2.46","FL","3a2waojqmg","1280","720","0","1","0","5e6a2c7c5b057b08e930e89d","","null","","","learningBlock1","","","","<div style=""font-size:60px;""> </div>","null","FL","learning/Slide47.JPG","That was a tob.","","",""
"image-keyboard-response","147","148688","0.0-5.0-0.47","FL","3a2waojqmg","1280","720","0","1","0","5e6a2c7c5b057b08e930e89d","","null","","","","","","","learning/Slide48.JPG","null","","","","","",""
"html-keyboard-response","148","149852","0.0-5.0-1.47","FL","3a2waojqmg","1280","720","0","1","0","5e6a2c7c5b057b08e930e89d","","null","","","learningBlock1","","","","That was a bim.","null","","","","","",""
"html-keyboard-response","149","150865","0.0-5.0-2.47","FL","3a2waojqmg","1280","720","0","1","0","5e6a2c7c5b057b08e930e89d","","null","","","learningBlock1","","","","<div style=""font-size:60px;""> </div>","null","FL","learning/Slide48.JPG","That was a bim.","","",""
"image-keyboard-response","150","151049","0.0-5.0-0.48","FL","3a2waojqmg","1280","720","0","1","0","5e6a2c7c5b057b08e930e89d","","null","","","","","","","learning/Slide49.JPG","null","","","","","",""
"html-keyboard-response","151","152221","0.0-5.0-1.48","FL","3a2waojqmg","1280","720","0","1","0","5e6a2c7c5b057b08e930e89d","","null","","","learningBlock1","","","","That was a dep.","null","","","","","",""
"html-keyboard-response","152","153229","0.0-5.0-2.48","FL","3a2waojqmg","1280","720","0","1","0","5e6a2c7c5b057b08e930e89d","","null","","","learningBlock1","","","","<div style=""font-size:60px;""> </div>","null","FL","learning/Slide49.JPG","That was a dep.","","",""
"image-keyboard-response","153","153410","0.0-5.0-0.49","FL","3a2waojqmg","1280","720","0","1","0","5e6a2c7c5b057b08e930e89d","","null","","","","","","","learning/Slide50.JPG","null","","","","","",""
"html-keyboard-response","154","154577","0.0-5.0-1.49","FL","3a2waojqmg","1280","720","0","1","0","5e6a2c7c5b057b08e930e89d","","null","","","learningBlock1","","","","That was a tob.","null","","","","","",""
"html-keyboard-response","155","155579","0.0-5.0-2.49","FL","3a2waojqmg","1280","720","0","1","0","5e6a2c7c5b057b08e930e89d","","null","","","learningBlock1","","","","<div style=""font-size:60px;""> </div>","null","FL","learning/Slide50.JPG","That was a tob.","","",""
"image-keyboard-response","156","155767","0.0-5.0-0.50","FL","3a2waojqmg","1280","720","0","1","0","5e6a2c7c5b057b08e930e89d","","null","","","","","","","learning/Slide51.JPG","null","","","","","",""
"html-keyboard-response","157","156943","0.0-5.0-1.50","FL","3a2waojqmg","1280","720","0","1","0","5e6a2c7c5b057b08e930e89d","","null","","","learningBlock1","","","","That was a bim.","null","","","","","",""
"html-keyboard-response","158","157960","0.0-5.0-2.50","FL","3a2waojqmg","1280","720","0","1","0","5e6a2c7c5b057b08e930e89d","","null","","","learningBlock1","","","","<div style=""font-size:60px;""> </div>","null","FL","learning/Slide51.JPG","That was a bim.","","",""
"image-keyboard-response","159","158140","0.0-5.0-0.51","FL","3a2waojqmg","1280","720","0","1","0","5e6a2c7c5b057b08e930e89d","","null","","","","","","","learning/Slide52.JPG","null","","","","","",""
"html-keyboard-response","160","159311","0.0-5.0-1.51","FL","3a2waojqmg","1280","720","0","1","0","5e6a2c7c5b057b08e930e89d","","null","","","learningBlock1","","","","That was a wug.","null","","","","","",""
"html-keyboard-response","161","160321","0.0-5.0-2.51","FL","3a2waojqmg","1280","720","0","1","0","5e6a2c7c5b057b08e930e89d","","null","","","learningBlock1","","","","<div style=""font-size:60px;""> </div>","null","FL","learning/Slide52.JPG","That was a wug.","","",""
"image-keyboard-response","162","160498","0.0-5.0-0.52","FL","3a2waojqmg","1280","720","0","1","0","5e6a2c7c5b057b08e930e89d","","null","","","","","","","learning/Slide53.JPG","null","","","","","",""
"html-keyboard-response","163","161667","0.0-5.0-1.52","FL","3a2waojqmg","1280","720","0","1","0","5e6a2c7c5b057b08e930e89d","","null","","","learningBlock1","","","","That was a tob.","null","","","","","",""
"html-keyboard-response","164","162671","0.0-5.0-2.52","FL","3a2waojqmg","1280","720","0","1","0","5e6a2c7c5b057b08e930e89d","","null","","","learningBlock1","","","","<div style=""font-size:60px;""> </div>","null","FL","learning/Slide53.JPG","That was a tob.","","",""
"image-keyboard-response","165","162857","0.0-5.0-0.53","FL","3a2waojqmg","1280","720","0","1","0","5e6a2c7c5b057b08e930e89d","","null","","","","","","","learning/Slide54.JPG","null","","","","","",""
"html-keyboard-response","166","164030","0.0-5.0-1.53","FL","3a2waojqmg","1280","720","0","1","0","5e6a2c7c5b057b08e930e89d","","null","","","learningBlock1","","","","That was a dep.","null","","","","","",""
"html-keyboard-response","167","165047","0.0-5.0-2.53","FL","3a2waojqmg","1280","720","0","1","0","5e6a2c7c5b057b08e930e89d","","null","","","learningBlock1","","","","<div style=""font-size:60px;""> </div>","null","FL","learning/Slide54.JPG","That was a dep.","","",""
"image-keyboard-response","168","165228","0.0-5.0-0.54","FL","3a2waojqmg","1280","720","0","1","0","5e6a2c7c5b057b08e930e89d","","null","","","","","","","learning/Slide55.JPG","null","","","","","",""
"html-keyboard-response","169","166395","0.0-5.0-1.54","FL","3a2waojqmg","1280","720","0","1","0","5e6a2c7c5b057b08e930e89d","","null","","","learningBlock1","","","","That was a bim.","null","","","","","",""
"html-keyboard-response","170","167402","0.0-5.0-2.54","FL","3a2waojqmg","1280","720","0","1","0","5e6a2c7c5b057b08e930e89d","","null","","","learningBlock1","","","","<div style=""font-size:60px;""> </div>","null","FL","learning/Slide55.JPG","That was a bim.","","",""
"image-keyboard-response","171","167580","0.0-5.0-0.55","FL","3a2waojqmg","1280","720","0","1","0","5e6a2c7c5b057b08e930e89d","","null","","","","","","","learning/Slide56.JPG","null","","","","","",""
"html-keyboard-response","172","168745","0.0-5.0-1.55","FL","3a2waojqmg","1280","720","0","1","0","5e6a2c7c5b057b08e930e89d","","null","","","learningBlock1","","","","That was a tob.","null","","","","","",""
"html-keyboard-response","173","169751","0.0-5.0-2.55","FL","3a2waojqmg","1280","720","0","1","0","5e6a2c7c5b057b08e930e89d","","null","","","learningBlock1","","","","<div style=""font-size:60px;""> </div>","null","FL","learning/Slide56.JPG","That was a tob.","","",""
"image-keyboard-response","174","169931","0.0-5.0-0.56","FL","3a2waojqmg","1280","720","0","1","0","5e6a2c7c5b057b08e930e89d","","null","","","","","","","learning/Slide57.JPG","null","","","","","",""
"html-keyboard-response","175","171091","0.0-5.0-1.56","FL","3a2waojqmg","1280","720","0","1","0","5e6a2c7c5b057b08e930e89d","","null","","","learningBlock1","","","","That was a dep.","null","","","","","",""
"html-keyboard-response","176","172094","0.0-5.0-2.56","FL","3a2waojqmg","1280","720","0","1","0","5e6a2c7c5b057b08e930e89d","","null","","","learningBlock1","","","","<div style=""font-size:60px;""> </div>","null","FL","learning/Slide57.JPG","That was a dep.","","",""
"image-keyboard-response","177","172278","0.0-5.0-0.57","FL","3a2waojqmg","1280","720","0","1","0","5e6a2c7c5b057b08e930e89d","","null","","","","","","","learning/Slide58.JPG","null","","","","","",""
"html-keyboard-response","178","173444","0.0-5.0-1.57","FL","3a2waojqmg","1280","720","0","1","0","5e6a2c7c5b057b08e930e89d","","null","","","learningBlock1","","","","That was a wug.","null","","","","","",""
"html-keyboard-response","179","174447","0.0-5.0-2.57","FL","3a2waojqmg","1280","720","0","1","0","5e6a2c7c5b057b08e930e89d","","null","","","learningBlock1","","","","<div style=""font-size:60px;""> </div>","null","FL","learning/Slide58.JPG","That was a wug.","","",""
"image-keyboard-response","180","174634","0.0-5.0-0.58","FL","3a2waojqmg","1280","720","0","1","0","5e6a2c7c5b057b08e930e89d","","null","","","","","","","learning/Slide59.JPG","null","","","","","",""
"html-keyboard-response","181","175801","0.0-5.0-1.58","FL","3a2waojqmg","1280","720","0","1","0","5e6a2c7c5b057b08e930e89d","","null","","","learningBlock1","","","","That was a dep.","null","","","","","",""
"html-keyboard-response","182","176817","0.0-5.0-2.58","FL","3a2waojqmg","1280","720","0","1","0","5e6a2c7c5b057b08e930e89d","","null","","","learningBlock1","","","","<div style=""font-size:60px;""> </div>","null","FL","learning/Slide59.JPG","That was a dep.","","",""
"image-keyboard-response","183","177007","0.0-5.0-0.59","FL","3a2waojqmg","1280","720","0","1","0","5e6a2c7c5b057b08e930e89d","","null","","","","","","","learning/Slide60.JPG","null","","","","","",""
"html-keyboard-response","184","178174","0.0-5.0-1.59","FL","3a2waojqmg","1280","720","0","1","0","5e6a2c7c5b057b08e930e89d","","null","","","learningBlock1","","","","That was a wug.","null","","","","","",""
"html-keyboard-response","185","179191","0.0-5.0-2.59","FL","3a2waojqmg","1280","720","0","1","0","5e6a2c7c5b057b08e930e89d","","null","","","learningBlock1","","","","<div style=""font-size:60px;""> </div>","null","FL","learning/Slide60.JPG","That was a wug.","","",""
"image-keyboard-response","186","179378","0.0-5.0-0.60","FL","3a2waojqmg","1280","720","0","1","0","5e6a2c7c5b057b08e930e89d","","null","","","","","","","learning/Slide61.JPG","null","","","","","",""
"html-keyboard-response","187","180551","0.0-5.0-1.60","FL","3a2waojqmg","1280","720","0","1","0","5e6a2c7c5b057b08e930e89d","","null","","","learningBlock1","","","","That was a bim.","null","","","","","",""
"html-keyboard-response","188","181558","0.0-5.0-2.60","FL","3a2waojqmg","1280","720","0","1","0","5e6a2c7c5b057b08e930e89d","","null","","","learningBlock1","","","","<div style=""font-size:60px;""> </div>","null","FL","learning/Slide61.JPG","That was a bim.","","",""
"image-keyboard-response","189","181740","0.0-5.0-0.61","FL","3a2waojqmg","1280","720","0","1","0","5e6a2c7c5b057b08e930e89d","","null","","","","","","","learning/Slide62.JPG","null","","","","","",""
"html-keyboard-response","190","182905","0.0-5.0-1.61","FL","3a2waojqmg","1280","720","0","1","0","5e6a2c7c5b057b08e930e89d","","null","","","learningBlock1","","","","That was a dep.","null","","","","","",""
"html-keyboard-response","191","183909","0.0-5.0-2.61","FL","3a2waojqmg","1280","720","0","1","0","5e6a2c7c5b057b08e930e89d","","null","","","learningBlock1","","","","<div style=""font-size:60px;""> </div>","null","FL","learning/Slide62.JPG","That was a dep.","","",""
"image-keyboard-response","192","184097","0.0-5.0-0.62","FL","3a2waojqmg","1280","720","0","1","0","5e6a2c7c5b057b08e930e89d","","null","","","","","","","learning/Slide63.JPG","null","","","","","",""
"html-keyboard-response","193","185266","0.0-5.0-1.62","FL","3a2waojqmg","1280","720","0","1","0","5e6a2c7c5b057b08e930e89d","","null","","","learningBlock1","","","","That was a bim.","null","","","","","",""
"html-keyboard-response","194","186276","0.0-5.0-2.62","FL","3a2waojqmg","1280","720","0","1","0","5e6a2c7c5b057b08e930e89d","","null","","","learningBlock1","","","","<div style=""font-size:60px;""> </div>","null","FL","learning/Slide63.JPG","That was a bim.","","",""
"image-keyboard-response","195","186460","0.0-5.0-0.63","FL","3a2waojqmg","1280","720","0","1","0","5e6a2c7c5b057b08e930e89d","","null","","","","","","","learning/Slide64.JPG","null","","","","","",""
"html-keyboard-response","196","187626","0.0-5.0-1.63","FL","3a2waojqmg","1280","720","0","1","0","5e6a2c7c5b057b08e930e89d","","null","","","learningBlock1","","","","That was a tob.","null","","","","","",""
"html-keyboard-response","197","188638","0.0-5.0-2.63","FL","3a2waojqmg","1280","720","0","1","0","5e6a2c7c5b057b08e930e89d","","null","","","learningBlock1","","","","<div style=""font-size:60px;""> </div>","null","FL","learning/Slide64.JPG","That was a tob.","","",""
"image-keyboard-response","198","188822","0.0-5.0-0.64","FL","3a2waojqmg","1280","720","0","1","0","5e6a2c7c5b057b08e930e89d","","null","","","","","","","learning/Slide65.JPG","null","","","","","",""
"html-keyboard-response","199","189999","0.0-5.0-1.64","FL","3a2waojqmg","1280","720","0","1","0","5e6a2c7c5b057b08e930e89d","","null","","","learningBlock1","","","","That was a wug.","null","","","","","",""
"html-keyboard-response","200","191017","0.0-5.0-2.64","FL","3a2waojqmg","1280","720","0","1","0","5e6a2c7c5b057b08e930e89d","","null","","","learningBlock1","","","","<div style=""font-size:60px;""> </div>","null","FL","learning/Slide65.JPG","That was a wug.","","",""
"image-keyboard-response","201","191194","0.0-5.0-0.65","FL","3a2waojqmg","1280","720","0","1","0","5e6a2c7c5b057b08e930e89d","","null","","","","","","","learning/Slide66.JPG","null","","","","","",""
"html-keyboard-response","202","192352","0.0-5.0-1.65","FL","3a2waojqmg","1280","720","0","1","0","5e6a2c7c5b057b08e930e89d","","null","","","learningBlock1","","","","That was a dep.","null","","","","","",""
"html-keyboard-response","203","193358","0.0-5.0-2.65","FL","3a2waojqmg","1280","720","0","1","0","5e6a2c7c5b057b08e930e89d","","null","","","learningBlock1","","","","<div style=""font-size:60px;""> </div>","null","FL","learning/Slide66.JPG","That was a dep.","","",""
"image-keyboard-response","204","193543","0.0-5.0-0.66","FL","3a2waojqmg","1280","720","0","1","0","5e6a2c7c5b057b08e930e89d","","null","","","","","","","learning/Slide67.JPG","null","","","","","",""
"html-keyboard-response","205","194709","0.0-5.0-1.66","FL","3a2waojqmg","1280","720","0","1","0","5e6a2c7c5b057b08e930e89d","","null","","","learningBlock1","","","","That was a tob.","null","","","","","",""
"html-keyboard-response","206","195725","0.0-5.0-2.66","FL","3a2waojqmg","1280","720","0","1","0","5e6a2c7c5b057b08e930e89d","","null","","","learningBlock1","","","","<div style=""font-size:60px;""> </div>","null","FL","learning/Slide67.JPG","That was a tob.","","",""
"image-keyboard-response","207","195914","0.0-5.0-0.67","FL","3a2waojqmg","1280","720","0","1","0","5e6a2c7c5b057b08e930e89d","","null","","","","","","","learning/Slide68.JPG","null","","","","","",""
"html-keyboard-response","208","197080","0.0-5.0-1.67","FL","3a2waojqmg","1280","720","0","1","0","5e6a2c7c5b057b08e930e89d","","null","","","learningBlock1","","","","That was a wug.","null","","","","","",""
"html-keyboard-response","209","198083","0.0-5.0-2.67","FL","3a2waojqmg","1280","720","0","1","0","5e6a2c7c5b057b08e930e89d","","null","","","learningBlock1","","","","<div style=""font-size:60px;""> </div>","null","FL","learning/Slide68.JPG","That was a wug.","","",""
"image-keyboard-response","210","198262","0.0-5.0-0.68","FL","3a2waojqmg","1280","720","0","1","0","5e6a2c7c5b057b08e930e89d","","null","","","","","","","learning/Slide69.JPG","null","","","","","",""
"html-keyboard-response","211","199425","0.0-5.0-1.68","FL","3a2waojqmg","1280","720","0","1","0","5e6a2c7c5b057b08e930e89d","","null","","","learningBlock1","","","","That was a tob.","null","","","","","",""
"html-keyboard-response","212","200427","0.0-5.0-2.68","FL","3a2waojqmg","1280","720","0","1","0","5e6a2c7c5b057b08e930e89d","","null","","","learningBlock1","","","","<div style=""font-size:60px;""> </div>","null","FL","learning/Slide69.JPG","That was a tob.","","",""
"image-keyboard-response","213","200615","0.0-5.0-0.69","FL","3a2waojqmg","1280","720","0","1","0","5e6a2c7c5b057b08e930e89d","","null","","","","","","","learning/Slide70.JPG","null","","","","","",""
"html-keyboard-response","214","201784","0.0-5.0-1.69","FL","3a2waojqmg","1280","720","0","1","0","5e6a2c7c5b057b08e930e89d","","null","","","learningBlock1","","","","That was a dep.","null","","","","","",""
"html-keyboard-response","215","202792","0.0-5.0-2.69","FL","3a2waojqmg","1280","720","0","1","0","5e6a2c7c5b057b08e930e89d","","null","","","learningBlock1","","","","<div style=""font-size:60px;""> </div>","null","FL","learning/Slide70.JPG","That was a dep.","","",""
"image-keyboard-response","216","202980","0.0-5.0-0.70","FL","3a2waojqmg","1280","720","0","1","0","5e6a2c7c5b057b08e930e89d","","null","","","","","","","learning/Slide71.JPG","null","","","","","",""
"html-keyboard-response","217","204135","0.0-5.0-1.70","FL","3a2waojqmg","1280","720","0","1","0","5e6a2c7c5b057b08e930e89d","","null","","","learningBlock1","","","","That was a wug.","null","","","","","",""
"html-keyboard-response","218","205140","0.0-5.0-2.70","FL","3a2waojqmg","1280","720","0","1","0","5e6a2c7c5b057b08e930e89d","","null","","","learningBlock1","","","","<div style=""font-size:60px;""> </div>","null","FL","learning/Slide71.JPG","That was a wug.","","",""
"image-keyboard-response","219","205319","0.0-5.0-0.71","FL","3a2waojqmg","1280","720","0","1","0","5e6a2c7c5b057b08e930e89d","","null","","","","","","","learning/Slide72.JPG","null","","","","","",""
"html-keyboard-response","220","206475","0.0-5.0-1.71","FL","3a2waojqmg","1280","720","0","1","0","5e6a2c7c5b057b08e930e89d","","null","","","learningBlock1","","","","That was a bim.","null","","","","","",""
"html-keyboard-response","221","207488","0.0-5.0-2.71","FL","3a2waojqmg","1280","720","0","1","0","5e6a2c7c5b057b08e930e89d","","null","","","learningBlock1","","","","<div style=""font-size:60px;""> </div>","null","FL","learning/Slide72.JPG","That was a bim.","","",""
"image-keyboard-response","222","207665","0.0-5.0-0.72","FL","3a2waojqmg","1280","720","0","1","0","5e6a2c7c5b057b08e930e89d","","null","","","","","","","learning/Slide73.JPG","null","","","","","",""
"html-keyboard-response","223","208837","0.0-5.0-1.72","FL","3a2waojqmg","1280","720","0","1","0","5e6a2c7c5b057b08e930e89d","","null","","","learningBlock1","","","","That was a wug.","null","","","","","",""
"html-keyboard-response","224","209846","0.0-5.0-2.72","FL","3a2waojqmg","1280","720","0","1","0","5e6a2c7c5b057b08e930e89d","","null","","","learningBlock1","","","","<div style=""font-size:60px;""> </div>","null","FL","learning/Slide73.JPG","That was a wug.","","",""
"image-keyboard-response","225","210028","0.0-5.0-0.73","FL","3a2waojqmg","1280","720","0","1","0","5e6a2c7c5b057b08e930e89d","","null","","","","","","","learning/Slide74.JPG","null","","","","","",""
"html-keyboard-response","226","211193","0.0-5.0-1.73","FL","3a2waojqmg","1280","720","0","1","0","5e6a2c7c5b057b08e930e89d","","null","","","learningBlock1","","","","That was a dep.","null","","","","","",""
"html-keyboard-response","227","212201","0.0-5.0-2.73","FL","3a2waojqmg","1280","720","0","1","0","5e6a2c7c5b057b08e930e89d","","null","","","learningBlock1","","","","<div style=""font-size:60px;""> </div>","null","FL","learning/Slide74.JPG","That was a dep.","","",""
"image-keyboard-response","228","212391","0.0-5.0-0.74","FL","3a2waojqmg","1280","720","0","1","0","5e6a2c7c5b057b08e930e89d","","null","","","","","","","learning/Slide75.JPG","null","","","","","",""
"html-keyboard-response","229","213559","0.0-5.0-1.74","FL","3a2waojqmg","1280","720","0","1","0","5e6a2c7c5b057b08e930e89d","","null","","","learningBlock1","","","","That was a tob.","null","","","","","",""
"html-keyboard-response","230","214566","0.0-5.0-2.74","FL","3a2waojqmg","1280","720","0","1","0","5e6a2c7c5b057b08e930e89d","","null","","","learningBlock1","","","","<div style=""font-size:60px;""> </div>","null","FL","learning/Slide75.JPG","That was a tob.","","",""
"image-keyboard-response","231","214747","0.0-5.0-0.75","FL","3a2waojqmg","1280","720","0","1","0","5e6a2c7c5b057b08e930e89d","","null","","","","","","","learning/Slide76.JPG","null","","","","","",""
"html-keyboard-response","232","215910","0.0-5.0-1.75","FL","3a2waojqmg","1280","720","0","1","0","5e6a2c7c5b057b08e930e89d","","null","","","learningBlock1","","","","That was a bim.","null","","","","","",""
"html-keyboard-response","233","216919","0.0-5.0-2.75","FL","3a2waojqmg","1280","720","0","1","0","5e6a2c7c5b057b08e930e89d","","null","","","learningBlock1","","","","<div style=""font-size:60px;""> </div>","null","FL","learning/Slide76.JPG","That was a bim.","","",""
"image-keyboard-response","234","217109","0.0-5.0-0.76","FL","3a2waojqmg","1280","720","0","1","0","5e6a2c7c5b057b08e930e89d","","null","","","","","","","learning/Slide77.JPG","null","","","","","",""
"html-keyboard-response","235","218287","0.0-5.0-1.76","FL","3a2waojqmg","1280","720","0","1","0","5e6a2c7c5b057b08e930e89d","","null","","","learningBlock1","","","","That was a tob.","null","","","","","",""
"html-keyboard-response","236","219295","0.0-5.0-2.76","FL","3a2waojqmg","1280","720","0","1","0","5e6a2c7c5b057b08e930e89d","","null","","","learningBlock1","","","","<div style=""font-size:60px;""> </div>","null","FL","learning/Slide77.JPG","That was a tob.","","",""
"image-keyboard-response","237","219477","0.0-5.0-0.77","FL","3a2waojqmg","1280","720","0","1","0","5e6a2c7c5b057b08e930e89d","","null","","","","","","","learning/Slide78.JPG","null","","","","","",""
"html-keyboard-response","238","220635","0.0-5.0-1.77","FL","3a2waojqmg","1280","720","0","1","0","5e6a2c7c5b057b08e930e89d","","null","","","learningBlock1","","","","That was a wug.","null","","","","","",""
"html-keyboard-response","239","221647","0.0-5.0-2.77","FL","3a2waojqmg","1280","720","0","1","0","5e6a2c7c5b057b08e930e89d","","null","","","learningBlock1","","","","<div style=""font-size:60px;""> </div>","null","FL","learning/Slide78.JPG","That was a wug.","","",""
"image-keyboard-response","240","221830","0.0-5.0-0.78","FL","3a2waojqmg","1280","720","0","1","0","5e6a2c7c5b057b08e930e89d","","null","","","","","","","learning/Slide79.JPG","null","","","","","",""
"html-keyboard-response","241","222999","0.0-5.0-1.78","FL","3a2waojqmg","1280","720","0","1","0","5e6a2c7c5b057b08e930e89d","","null","","","learningBlock1","","","","That was a bim.","null","","","","","",""
"html-keyboard-response","242","224016","0.0-5.0-2.78","FL","3a2waojqmg","1280","720","0","1","0","5e6a2c7c5b057b08e930e89d","","null","","","learningBlock1","","","","<div style=""font-size:60px;""> </div>","null","FL","learning/Slide79.JPG","That was a bim.","","",""
"image-keyboard-response","243","224204","0.0-5.0-0.79","FL","3a2waojqmg","1280","720","0","1","0","5e6a2c7c5b057b08e930e89d","","null","","","","","","","learning/Slide80.JPG","null","","","","","",""
"html-keyboard-response","244","225367","0.0-5.0-1.79","FL","3a2waojqmg","1280","720","0","1","0","5e6a2c7c5b057b08e930e89d","","null","","","learningBlock1","","","","That was a tob.","null","","","","","",""
"html-keyboard-response","245","226383","0.0-5.0-2.79","FL","3a2waojqmg","1280","720","0","1","0","5e6a2c7c5b057b08e930e89d","","null","","","learningBlock1","","","","<div style=""font-size:60px;""> </div>","null","FL","learning/Slide80.JPG","That was a tob.","","",""
"instructions","246","232581","0.0-6.0","FL","3a2waojqmg","1280","720","0","1","0","5e6a2c7c5b057b08e930e89d","","NA","","[{""page_index"":0,""viewing_time"":6196.355000138283}]","instructions","","","","","","","","","","",""
"image-keyboard-response","247","232759","0.0-7.0-0.0","FL","3a2waojqmg","1280","720","0","1","0","5e6a2c7c5b057b08e930e89d","","null","","","","","","","learning/Slide81.JPG","null","","","","","",""
"html-keyboard-response","248","233924","0.0-7.0-1.0","FL","3a2waojqmg","1280","720","0","1","0","5e6a2c7c5b057b08e930e89d","","null","","","learningBlock2","","","","That was a wug.","null","","","","","",""
"html-keyboard-response","249","234929","0.0-7.0-2.0","FL","3a2waojqmg","1280","720","0","1","0","5e6a2c7c5b057b08e930e89d","","null","","","learningBlock2","","","","<div style=""font-size:60px;""> </div>","null","FL","learning/Slide81.JPG","That was a wug.","","",""
"image-keyboard-response","250","235114","0.0-7.0-0.1","FL","3a2waojqmg","1280","720","0","1","0","5e6a2c7c5b057b08e930e89d","","null","","","","","","","learning/Slide82.JPG","null","","","","","",""
"html-keyboard-response","251","236287","0.0-7.0-1.1","FL","3a2waojqmg","1280","720","0","1","0","5e6a2c7c5b057b08e930e89d","","null","","","learningBlock2","","","","That was a bim.","null","","","","","",""
"html-keyboard-response","252","237291","0.0-7.0-2.1","FL","3a2waojqmg","1280","720","0","1","0","5e6a2c7c5b057b08e930e89d","","null","","","learningBlock2","","","","<div style=""font-size:60px;""> </div>","null","FL","learning/Slide82.JPG","That was a bim.","","",""
"image-keyboard-response","253","237476","0.0-7.0-0.2","FL","3a2waojqmg","1280","720","0","1","0","5e6a2c7c5b057b08e930e89d","","null","","","","","","","learning/Slide83.JPG","null","","","","","",""
"html-keyboard-response","254","238631","0.0-7.0-1.2","FL","3a2waojqmg","1280","720","0","1","0","5e6a2c7c5b057b08e930e89d","","null","","","learningBlock2","","","","That was a wug.","null","","","","","",""
"html-keyboard-response","255","239644","0.0-7.0-2.2","FL","3a2waojqmg","1280","720","0","1","0","5e6a2c7c5b057b08e930e89d","","null","","","learningBlock2","","","","<div style=""font-size:60px;""> </div>","null","FL","learning/Slide83.JPG","That was a wug.","","",""
"image-keyboard-response","256","239826","0.0-7.0-0.3","FL","3a2waojqmg","1280","720","0","1","0","5e6a2c7c5b057b08e930e89d","","null","","","","","","","learning/Slide84.JPG","null","","","","","",""
"html-keyboard-response","257","240984","0.0-7.0-1.3","FL","3a2waojqmg","1280","720","0","1","0","5e6a2c7c5b057b08e930e89d","","null","","","learningBlock2","","","","That was a dep.","null","","","","","",""
"html-keyboard-response","258","241993","0.0-7.0-2.3","FL","3a2waojqmg","1280","720","0","1","0","5e6a2c7c5b057b08e930e89d","","null","","","learningBlock2","","","","<div style=""font-size:60px;""> </div>","null","FL","learning/Slide84.JPG","That was a dep.","","",""
"image-keyboard-response","259","242182","0.0-7.0-0.4","FL","3a2waojqmg","1280","720","0","1","0","5e6a2c7c5b057b08e930e89d","","null","","","","","","","learning/Slide85.JPG","null","","","","","",""
"html-keyboard-response","260","243343","0.0-7.0-1.4","FL","3a2waojqmg","1280","720","0","1","0","5e6a2c7c5b057b08e930e89d","","null","","","learningBlock2","","","","That was a bim.","null","","","","","",""
"html-keyboard-response","261","244360","0.0-7.0-2.4","FL","3a2waojqmg","1280","720","0","1","0","5e6a2c7c5b057b08e930e89d","","null","","","learningBlock2","","","","<div style=""font-size:60px;""> </div>","null","FL","learning/Slide85.JPG","That was a bim.","","",""
"image-keyboard-response","262","244547","0.0-7.0-0.5","FL","3a2waojqmg","1280","720","0","1","0","5e6a2c7c5b057b08e930e89d","","null","","","","","","","learning/Slide86.JPG","null","","","","","",""
"html-keyboard-response","263","245719","0.0-7.0-1.5","FL","3a2waojqmg","1280","720","0","1","0","5e6a2c7c5b057b08e930e89d","","null","","","learningBlock2","","","","That was a tob.","null","","","","","",""
"html-keyboard-response","264","246721","0.0-7.0-2.5","FL","3a2waojqmg","1280","720","0","1","0","5e6a2c7c5b057b08e930e89d","","null","","","learningBlock2","","","","<div style=""font-size:60px;""> </div>","null","FL","learning/Slide86.JPG","That was a tob.","","",""
"image-keyboard-response","265","246909","0.0-7.0-0.6","FL","3a2waojqmg","1280","720","0","1","0","5e6a2c7c5b057b08e930e89d","","null","","","","","","","learning/Slide87.JPG","null","","","","","",""
"html-keyboard-response","266","248081","0.0-7.0-1.6","FL","3a2waojqmg","1280","720","0","1","0","5e6a2c7c5b057b08e930e89d","","null","","","learningBlock2","","","","That was a wug.","null","","","","","",""
"html-keyboard-response","267","249087","0.0-7.0-2.6","FL","3a2waojqmg","1280","720","0","1","0","5e6a2c7c5b057b08e930e89d","","null","","","learningBlock2","","","","<div style=""font-size:60px;""> </div>","null","FL","learning/Slide87.JPG","That was a wug.","","",""
"image-keyboard-response","268","249271","0.0-7.0-0.7","FL","3a2waojqmg","1280","720","0","1","0","5e6a2c7c5b057b08e930e89d","","null","","","","","","","learning/Slide88.JPG","null","","","","","",""
"html-keyboard-response","269","250446","0.0-7.0-1.7","FL","3a2waojqmg","1280","720","0","1","0","5e6a2c7c5b057b08e930e89d","","null","","","learningBlock2","","","","That was a tob.","null","","","","","",""
"html-keyboard-response","270","251462","0.0-7.0-2.7","FL","3a2waojqmg","1280","720","0","1","0","5e6a2c7c5b057b08e930e89d","","null","","","learningBlock2","","","","<div style=""font-size:60px;""> </div>","null","FL","learning/Slide88.JPG","That was a tob.","","",""
"image-keyboard-response","271","251645","0.0-7.0-0.8","FL","3a2waojqmg","1280","720","0","1","0","5e6a2c7c5b057b08e930e89d","","null","","","","","","","learning/Slide89.JPG","null","","","","","",""
"html-keyboard-response","272","252800","0.0-7.0-1.8","FL","3a2waojqmg","1280","720","0","1","0","5e6a2c7c5b057b08e930e89d","","null","","","learningBlock2","","","","That was a bim.","null","","","","","",""
"html-keyboard-response","273","253812","0.0-7.0-2.8","FL","3a2waojqmg","1280","720","0","1","0","5e6a2c7c5b057b08e930e89d","","null","","","learningBlock2","","","","<div style=""font-size:60px;""> </div>","null","FL","learning/Slide89.JPG","That was a bim.","","",""
"image-keyboard-response","274","254003","0.0-7.0-0.9","FL","3a2waojqmg","1280","720","0","1","0","5e6a2c7c5b057b08e930e89d","","null","","","","","","","learning/Slide90.JPG","null","","","","","",""
"html-keyboard-response","275","255158","0.0-7.0-1.9","FL","3a2waojqmg","1280","720","0","1","0","5e6a2c7c5b057b08e930e89d","","null","","","learningBlock2","","","","That was a dep.","null","","","","","",""
"html-keyboard-response","276","256166","0.0-7.0-2.9","FL","3a2waojqmg","1280","720","0","1","0","5e6a2c7c5b057b08e930e89d","","null","","","learningBlock2","","","","<div style=""font-size:60px;""> </div>","null","FL","learning/Slide90.JPG","That was a dep.","","",""
"image-keyboard-response","277","256358","0.0-7.0-0.10","FL","3a2waojqmg","1280","720","0","1","0","5e6a2c7c5b057b08e930e89d","","null","","","","","","","learning/Slide91.JPG","null","","","","","",""
"html-keyboard-response","278","257531","0.0-7.0-1.10","FL","3a2waojqmg","1280","720","0","1","0","5e6a2c7c5b057b08e930e89d","","null","","","learningBlock2","","","","That was a wug.","null","","","","","",""
"html-keyboard-response","279","258538","0.0-7.0-2.10","FL","3a2waojqmg","1280","720","0","1","0","5e6a2c7c5b057b08e930e89d","","null","","","learningBlock2","","","","<div style=""font-size:60px;""> </div>","null","FL","learning/Slide91.JPG","That was a wug.","","",""
"image-keyboard-response","280","258719","0.0-7.0-0.11","FL","3a2waojqmg","1280","720","0","1","0","5e6a2c7c5b057b08e930e89d","","null","","","","","","","learning/Slide92.JPG","null","","","","","",""
"html-keyboard-response","281","259878","0.0-7.0-1.11","FL","3a2waojqmg","1280","720","0","1","0","5e6a2c7c5b057b08e930e89d","","null","","","learningBlock2","","","","That was a tob.","null","","","","","",""
"html-keyboard-response","282","260885","0.0-7.0-2.11","FL","3a2waojqmg","1280","720","0","1","0","5e6a2c7c5b057b08e930e89d","","null","","","learningBlock2","","","","<div style=""font-size:60px;""> </div>","null","FL","learning/Slide92.JPG","That was a tob.","","",""
"image-keyboard-response","283","261073","0.0-7.0-0.12","FL","3a2waojqmg","1280","720","0","1","0","5e6a2c7c5b057b08e930e89d","","null","","","","","","","learning/Slide93.JPG","null","","","","","",""
"html-keyboard-response","284","262237","0.0-7.0-1.12","FL","3a2waojqmg","1280","720","0","1","0","5e6a2c7c5b057b08e930e89d","","null","","","learningBlock2","","","","That was a bim.","null","","","","","",""
"html-keyboard-response","285","263244","0.0-7.0-2.12","FL","3a2waojqmg","1280","720","0","1","0","5e6a2c7c5b057b08e930e89d","","null","","","learningBlock2","","","","<div style=""font-size:60px;""> </div>","null","FL","learning/Slide93.JPG","That was a bim.","","",""
"image-keyboard-response","286","263425","0.0-7.0-0.13","FL","3a2waojqmg","1280","720","0","1","0","5e6a2c7c5b057b08e930e89d","","null","","","","","","","learning/Slide94.JPG","null","","","","","",""
"html-keyboard-response","287","264599","0.0-7.0-1.13","FL","3a2waojqmg","1280","720","0","1","0","5e6a2c7c5b057b08e930e89d","","null","","","learningBlock2","","","","That was a tob.","null","","","","","",""
"html-keyboard-response","288","265616","0.0-7.0-2.13","FL","3a2waojqmg","1280","720","0","1","0","5e6a2c7c5b057b08e930e89d","","null","","","learningBlock2","","","","<div style=""font-size:60px;""> </div>","null","FL","learning/Slide94.JPG","That was a tob.","","",""
"image-keyboard-response","289","265801","0.0-7.0-0.14","FL","3a2waojqmg","1280","720","0","1","0","5e6a2c7c5b057b08e930e89d","","null","","","","","","","learning/Slide95.JPG","null","","","","","",""
"html-keyboard-response","290","266959","0.0-7.0-1.14","FL","3a2waojqmg","1280","720","0","1","0","5e6a2c7c5b057b08e930e89d","","null","","","learningBlock2","","","","That was a wug.","null","","","","","",""
"html-keyboard-response","291","267961","0.0-7.0-2.14","FL","3a2waojqmg","1280","720","0","1","0","5e6a2c7c5b057b08e930e89d","","null","","","learningBlock2","","","","<div style=""font-size:60px;""> </div>","null","FL","learning/Slide95.JPG","That was a wug.","","",""
"image-keyboard-response","292","268144","0.0-7.0-0.15","FL","3a2waojqmg","1280","720","0","1","0","5e6a2c7c5b057b08e930e89d","","null","","","","","","","learning/Slide96.JPG","null","","","","","",""
"html-keyboard-response","293","269315","0.0-7.0-1.15","FL","3a2waojqmg","1280","720","0","1","0","5e6a2c7c5b057b08e930e89d","","null","","","learningBlock2","","","","That was a tob.","null","","","","","",""
"html-keyboard-response","294","270328","0.0-7.0-2.15","FL","3a2waojqmg","1280","720","0","1","0","5e6a2c7c5b057b08e930e89d","","null","","","learningBlock2","","","","<div style=""font-size:60px;""> </div>","null","FL","learning/Slide96.JPG","That was a tob.","","",""
"image-keyboard-response","295","270512","0.0-7.0-0.16","FL","3a2waojqmg","1280","720","0","1","0","5e6a2c7c5b057b08e930e89d","","null","","","","","","","learning/Slide97.JPG","null","","","","","",""
"html-keyboard-response","296","271681","0.0-7.0-1.16","FL","3a2waojqmg","1280","720","0","1","0","5e6a2c7c5b057b08e930e89d","","null","","","learningBlock2","","","","That was a dep.","null","","","","","",""
"html-keyboard-response","297","272697","0.0-7.0-2.16","FL","3a2waojqmg","1280","720","0","1","0","5e6a2c7c5b057b08e930e89d","","null","","","learningBlock2","","","","<div style=""font-size:60px;""> </div>","null","FL","learning/Slide97.JPG","That was a dep.","","",""
"image-keyboard-response","298","272883","0.0-7.0-0.17","FL","3a2waojqmg","1280","720","0","1","0","5e6a2c7c5b057b08e930e89d","","null","","","","","","","learning/Slide98.JPG","null","","","","","",""
"html-keyboard-response","299","274040","0.0-7.0-1.17","FL","3a2waojqmg","1280","720","0","1","0","5e6a2c7c5b057b08e930e89d","","null","","","learningBlock2","","","","That was a bim.","null","","","","","",""
"html-keyboard-response","300","275046","0.0-7.0-2.17","FL","3a2waojqmg","1280","720","0","1","0","5e6a2c7c5b057b08e930e89d","","null","","","learningBlock2","","","","<div style=""font-size:60px;""> </div>","null","FL","learning/Slide98.JPG","That was a bim.","","",""
"image-keyboard-response","301","275226","0.0-7.0-0.18","FL","3a2waojqmg","1280","720","0","1","0","5e6a2c7c5b057b08e930e89d","","null","","","","","","","learning/Slide99.JPG","null","","","","","",""
"html-keyboard-response","302","276380","0.0-7.0-1.18","FL","3a2waojqmg","1280","720","0","1","0","5e6a2c7c5b057b08e930e89d","","null","","","learningBlock2","","","","That was a dep.","null","","","","","",""
"html-keyboard-response","303","277398","0.0-7.0-2.18","FL","3a2waojqmg","1280","720","0","1","0","5e6a2c7c5b057b08e930e89d","","null","","","learningBlock2","","","","<div style=""font-size:60px;""> </div>","null","FL","learning/Slide99.JPG","That was a dep.","","",""
"image-keyboard-response","304","277585","0.0-7.0-0.19","FL","3a2waojqmg","1280","720","0","1","0","5e6a2c7c5b057b08e930e89d","","null","","","","","","","learning/Slide100.JPG","null","","","","","",""
"html-keyboard-response","305","278750","0.0-7.0-1.19","FL","3a2waojqmg","1280","720","0","1","0","5e6a2c7c5b057b08e930e89d","","null","","","learningBlock2","","","","That was a bim.","null","","","","","",""
"html-keyboard-response","306","279754","0.0-7.0-2.19","FL","3a2waojqmg","1280","720","0","1","0","5e6a2c7c5b057b08e930e89d","","null","","","learningBlock2","","","","<div style=""font-size:60px;""> </div>","null","FL","learning/Slide100.JPG","That was a bim.","","",""
"image-keyboard-response","307","279944","0.0-7.0-0.20","FL","3a2waojqmg","1280","720","0","1","0","5e6a2c7c5b057b08e930e89d","","null","","","","","","","learning/Slide101.JPG","null","","","","","",""
"html-keyboard-response","308","281107","0.0-7.0-1.20","FL","3a2waojqmg","1280","720","0","1","0","5e6a2c7c5b057b08e930e89d","","null","","","learningBlock2","","","","That was a tob.","null","","","","","",""
"html-keyboard-response","309","282120","0.0-7.0-2.20","FL","3a2waojqmg","1280","720","0","1","0","5e6a2c7c5b057b08e930e89d","","null","","","learningBlock2","","","","<div style=""font-size:60px;""> </div>","null","FL","learning/Slide101.JPG","That was a tob.","","",""
"image-keyboard-response","310","282299","0.0-7.0-0.21","FL","3a2waojqmg","1280","720","0","1","0","5e6a2c7c5b057b08e930e89d","","null","","","","","","","learning/Slide102.JPG","null","","","","","",""
"html-keyboard-response","311","283471","0.0-7.0-1.21","FL","3a2waojqmg","1280","720","0","1","0","5e6a2c7c5b057b08e930e89d","","null","","","learningBlock2","","","","That was a bim.","null","","","","","",""
"html-keyboard-response","312","284484","0.0-7.0-2.21","FL","3a2waojqmg","1280","720","0","1","0","5e6a2c7c5b057b08e930e89d","","null","","","learningBlock2","","","","<div style=""font-size:60px;""> </div>","null","FL","learning/Slide102.JPG","That was a bim.","","",""
"image-keyboard-response","313","284666","0.0-7.0-0.22","FL","3a2waojqmg","1280","720","0","1","0","5e6a2c7c5b057b08e930e89d","","null","","","","","","","learning/Slide103.JPG","null","","","","","",""
"html-keyboard-response","314","285836","0.0-7.0-1.22","FL","3a2waojqmg","1280","720","0","1","0","5e6a2c7c5b057b08e930e89d","","null","","","learningBlock2","","","","That was a dep.","null","","","","","",""
"html-keyboard-response","315","286839","0.0-7.0-2.22","FL","3a2waojqmg","1280","720","0","1","0","5e6a2c7c5b057b08e930e89d","","null","","","learningBlock2","","","","<div style=""font-size:60px;""> </div>","null","FL","learning/Slide103.JPG","That was a dep.","","",""
"image-keyboard-response","316","287026","0.0-7.0-0.23","FL","3a2waojqmg","1280","720","0","1","0","5e6a2c7c5b057b08e930e89d","","null","","","","","","","learning/Slide104.JPG","null","","","","","",""
"html-keyboard-response","317","288193","0.0-7.0-1.23","FL","3a2waojqmg","1280","720","0","1","0","5e6a2c7c5b057b08e930e89d","","null","","","learningBlock2","","","","That was a tob.","null","","","","","",""
"html-keyboard-response","318","289204","0.0-7.0-2.23","FL","3a2waojqmg","1280","720","0","1","0","5e6a2c7c5b057b08e930e89d","","null","","","learningBlock2","","","","<div style=""font-size:60px;""> </div>","null","FL","learning/Slide104.JPG","That was a tob.","","",""
"image-keyboard-response","319","289395","0.0-7.0-0.24","FL","3a2waojqmg","1280","720","0","1","0","5e6a2c7c5b057b08e930e89d","","null","","","","","","","learning/Slide105.JPG","null","","","","","",""
"html-keyboard-response","320","290554","0.0-7.0-1.24","FL","3a2waojqmg","1280","720","0","1","0","5e6a2c7c5b057b08e930e89d","","null","","","learningBlock2","","","","That was a dep.","null","","","","","",""
"html-keyboard-response","321","291555","0.0-7.0-2.24","FL","3a2waojqmg","1280","720","0","1","0","5e6a2c7c5b057b08e930e89d","","null","","","learningBlock2","","","","<div style=""font-size:60px;""> </div>","null","FL","learning/Slide105.JPG","That was a dep.","","",""
"image-keyboard-response","322","291738","0.0-7.0-0.25","FL","3a2waojqmg","1280","720","0","1","0","5e6a2c7c5b057b08e930e89d","","null","","","","","","","learning/Slide106.JPG","null","","","","","",""
"html-keyboard-response","323","292892","0.0-7.0-1.25","FL","3a2waojqmg","1280","720","0","1","0","5e6a2c7c5b057b08e930e89d","","null","","","learningBlock2","","","","That was a wug.","null","","","","","",""
"html-keyboard-response","324","293899","0.0-7.0-2.25","FL","3a2waojqmg","1280","720","0","1","0","5e6a2c7c5b057b08e930e89d","","null","","","learningBlock2","","","","<div style=""font-size:60px;""> </div>","null","FL","learning/Slide106.JPG","That was a wug.","","",""
"image-keyboard-response","325","294085","0.0-7.0-0.26","FL","3a2waojqmg","1280","720","0","1","0","5e6a2c7c5b057b08e930e89d","","null","","","","","","","learning/Slide107.JPG","null","","","","","",""
"html-keyboard-response","326","295261","0.0-7.0-1.26","FL","3a2waojqmg","1280","720","0","1","0","5e6a2c7c5b057b08e930e89d","","null","","","learningBlock2","","","","That was a bim.","null","","","","","",""
"html-keyboard-response","327","296266","0.0-7.0-2.26","FL","3a2waojqmg","1280","720","0","1","0","5e6a2c7c5b057b08e930e89d","","null","","","learningBlock2","","","","<div style=""font-size:60px;""> </div>","null","FL","learning/Slide107.JPG","That was a bim.","","",""
"image-keyboard-response","328","296446","0.0-7.0-0.27","FL","3a2waojqmg","1280","720","0","1","0","5e6a2c7c5b057b08e930e89d","","null","","","","","","","learning/Slide108.JPG","null","","","","","",""
"html-keyboard-response","329","297625","0.0-7.0-1.27","FL","3a2waojqmg","1280","720","0","1","0","5e6a2c7c5b057b08e930e89d","","null","","","learningBlock2","","","","That was a dep.","null","","","","","",""
"html-keyboard-response","330","298627","0.0-7.0-2.27","FL","3a2waojqmg","1280","720","0","1","0","5e6a2c7c5b057b08e930e89d","","null","","","learningBlock2","","","","<div style=""font-size:60px;""> </div>","null","FL","learning/Slide108.JPG","That was a dep.","","",""
"image-keyboard-response","331","298808","0.0-7.0-0.28","FL","3a2waojqmg","1280","720","0","1","0","5e6a2c7c5b057b08e930e89d","","null","","","","","","","learning/Slide109.JPG","null","","","","","",""
"html-keyboard-response","332","299968","0.0-7.0-1.28","FL","3a2waojqmg","1280","720","0","1","0","5e6a2c7c5b057b08e930e89d","","null","","","learningBlock2","","","","That was a wug.","null","","","","","",""
"html-keyboard-response","333","300985","0.0-7.0-2.28","FL","3a2waojqmg","1280","720","0","1","0","5e6a2c7c5b057b08e930e89d","","null","","","learningBlock2","","","","<div style=""font-size:60px;""> </div>","null","FL","learning/Slide109.JPG","That was a wug.","","",""
"image-keyboard-response","334","301170","0.0-7.0-0.29","FL","3a2waojqmg","1280","720","0","1","0","5e6a2c7c5b057b08e930e89d","","null","","","","","","","learning/Slide110.JPG","null","","","","","",""
"html-keyboard-response","335","302334","0.0-7.0-1.29","FL","3a2waojqmg","1280","720","0","1","0","5e6a2c7c5b057b08e930e89d","","null","","","learningBlock2","","","","That was a bim.","null","","","","","",""
"html-keyboard-response","336","303351","0.0-7.0-2.29","FL","3a2waojqmg","1280","720","0","1","0","5e6a2c7c5b057b08e930e89d","","null","","","learningBlock2","","","","<div style=""font-size:60px;""> </div>","null","FL","learning/Slide110.JPG","That was a bim.","","",""
"image-keyboard-response","337","303529","0.0-7.0-0.30","FL","3a2waojqmg","1280","720","0","1","0","5e6a2c7c5b057b08e930e89d","","null","","","","","","","learning/Slide111.JPG","null","","","","","",""
"html-keyboard-response","338","304696","0.0-7.0-1.30","FL","3a2waojqmg","1280","720","0","1","0","5e6a2c7c5b057b08e930e89d","","null","","","learningBlock2","","","","That was a tob.","null","","","","","",""
"html-keyboard-response","339","305698","0.0-7.0-2.30","FL","3a2waojqmg","1280","720","0","1","0","5e6a2c7c5b057b08e930e89d","","null","","","learningBlock2","","","","<div style=""font-size:60px;""> </div>","null","FL","learning/Slide111.JPG","That was a tob.","","",""
"image-keyboard-response","340","305878","0.0-7.0-0.31","FL","3a2waojqmg","1280","720","0","1","0","5e6a2c7c5b057b08e930e89d","","null","","","","","","","learning/Slide112.JPG","null","","","","","",""
"html-keyboard-response","341","307037","0.0-7.0-1.31","FL","3a2waojqmg","1280","720","0","1","0","5e6a2c7c5b057b08e930e89d","","null","","","learningBlock2","","","","That was a wug.","null","","","","","",""
"html-keyboard-response","342","308039","0.0-7.0-2.31","FL","3a2waojqmg","1280","720","0","1","0","5e6a2c7c5b057b08e930e89d","","null","","","learningBlock2","","","","<div style=""font-size:60px;""> </div>","null","FL","learning/Slide112.JPG","That was a wug.","","",""
"image-keyboard-response","343","308219","0.0-7.0-0.32","FL","3a2waojqmg","1280","720","0","1","0","5e6a2c7c5b057b08e930e89d","","null","","","","","","","learning/Slide113.JPG","null","","","","","",""
"html-keyboard-response","344","309385","0.0-7.0-1.32","FL","3a2waojqmg","1280","720","0","1","0","5e6a2c7c5b057b08e930e89d","","null","","","learningBlock2","","","","That was a tob.","null","","","","","",""
"html-keyboard-response","345","310402","0.0-7.0-2.32","FL","3a2waojqmg","1280","720","0","1","0","5e6a2c7c5b057b08e930e89d","","null","","","learningBlock2","","","","<div style=""font-size:60px;""> </div>","null","FL","learning/Slide113.JPG","That was a tob.","","",""
"image-keyboard-response","346","310582","0.0-7.0-0.33","FL","3a2waojqmg","1280","720","0","1","0","5e6a2c7c5b057b08e930e89d","","null","","","","","","","learning/Slide114.JPG","null","","","","","",""
"html-keyboard-response","347","311749","0.0-7.0-1.33","FL","3a2waojqmg","1280","720","0","1","0","5e6a2c7c5b057b08e930e89d","","null","","","learningBlock2","","","","That was a wug.","null","","","","","",""
"html-keyboard-response","348","312753","0.0-7.0-2.33","FL","3a2waojqmg","1280","720","0","1","0","5e6a2c7c5b057b08e930e89d","","null","","","learningBlock2","","","","<div style=""font-size:60px;""> </div>","null","FL","learning/Slide114.JPG","That was a wug.","","",""
"image-keyboard-response","349","312940","0.0-7.0-0.34","FL","3a2waojqmg","1280","720","0","1","0","5e6a2c7c5b057b08e930e89d","","null","","","","","","","learning/Slide115.JPG","null","","","","","",""
"html-keyboard-response","350","314110","0.0-7.0-1.34","FL","3a2waojqmg","1280","720","0","1","0","5e6a2c7c5b057b08e930e89d","","null","","","learningBlock2","","","","That was a bim.","null","","","","","",""
"html-keyboard-response","351","315128","0.0-7.0-2.34","FL","3a2waojqmg","1280","720","0","1","0","5e6a2c7c5b057b08e930e89d","","null","","","learningBlock2","","","","<div style=""font-size:60px;""> </div>","null","FL","learning/Slide115.JPG","That was a bim.","","",""
"image-keyboard-response","352","315317","0.0-7.0-0.35","FL","3a2waojqmg","1280","720","0","1","0","5e6a2c7c5b057b08e930e89d","","null","","","","","","","learning/Slide116.JPG","null","","","","","",""
"html-keyboard-response","353","316486","0.0-7.0-1.35","FL","3a2waojqmg","1280","720","0","1","0","5e6a2c7c5b057b08e930e89d","","null","","","learningBlock2","","","","That was a dep.","null","","","","","",""
"html-keyboard-response","354","317489","0.0-7.0-2.35","FL","3a2waojqmg","1280","720","0","1","0","5e6a2c7c5b057b08e930e89d","","null","","","learningBlock2","","","","<div style=""font-size:60px;""> </div>","null","FL","learning/Slide116.JPG","That was a dep.","","",""
"image-keyboard-response","355","317681","0.0-7.0-0.36","FL","3a2waojqmg","1280","720","0","1","0","5e6a2c7c5b057b08e930e89d","","null","","","","","","","learning/Slide117.JPG","null","","","","","",""
"html-keyboard-response","356","318841","0.0-7.0-1.36","FL","3a2waojqmg","1280","720","0","1","0","5e6a2c7c5b057b08e930e89d","","null","","","learningBlock2","","","","That was a tob.","null","","","","","",""
"html-keyboard-response","357","319844","0.0-7.0-2.36","FL","3a2waojqmg","1280","720","0","1","0","5e6a2c7c5b057b08e930e89d","","null","","","learningBlock2","","","","<div style=""font-size:60px;""> </div>","null","FL","learning/Slide117.JPG","That was a tob.","","",""
"image-keyboard-response","358","320032","0.0-7.0-0.37","FL","3a2waojqmg","1280","720","0","1","0","5e6a2c7c5b057b08e930e89d","","null","","","","","","","learning/Slide118.JPG","null","","","","","",""
"html-keyboard-response","359","321209","0.0-7.0-1.37","FL","3a2waojqmg","1280","720","0","1","0","5e6a2c7c5b057b08e930e89d","","null","","","learningBlock2","","","","That was a dep.","null","","","","","",""
"html-keyboard-response","360","322227","0.0-7.0-2.37","FL","3a2waojqmg","1280","720","0","1","0","5e6a2c7c5b057b08e930e89d","","null","","","learningBlock2","","","","<div style=""font-size:60px;""> </div>","null","FL","learning/Slide118.JPG","That was a dep.","","",""
"image-keyboard-response","361","322414","0.0-7.0-0.38","FL","3a2waojqmg","1280","720","0","1","0","5e6a2c7c5b057b08e930e89d","","null","","","","","","","learning/Slide119.JPG","null","","","","","",""
"html-keyboard-response","362","323581","0.0-7.0-1.38","FL","3a2waojqmg","1280","720","0","1","0","5e6a2c7c5b057b08e930e89d","","null","","","learningBlock2","","","","That was a wug.","null","","","","","",""
"html-keyboard-response","363","324593","0.0-7.0-2.38","FL","3a2waojqmg","1280","720","0","1","0","5e6a2c7c5b057b08e930e89d","","null","","","learningBlock2","","","","<div style=""font-size:60px;""> </div>","null","FL","learning/Slide119.JPG","That was a wug.","","",""
"image-keyboard-response","364","324781","0.0-7.0-0.39","FL","3a2waojqmg","1280","720","0","1","0","5e6a2c7c5b057b08e930e89d","","null","","","","","","","learning/Slide120.JPG","null","","","","","",""
"html-keyboard-response","365","325946","0.0-7.0-1.39","FL","3a2waojqmg","1280","720","0","1","0","5e6a2c7c5b057b08e930e89d","","null","","","learningBlock2","","","","That was a dep.","null","","","","","",""
"html-keyboard-response","366","326952","0.0-7.0-2.39","FL","3a2waojqmg","1280","720","0","1","0","5e6a2c7c5b057b08e930e89d","","null","","","learningBlock2","","","","<div style=""font-size:60px;""> </div>","null","FL","learning/Slide120.JPG","That was a dep.","","",""
"image-keyboard-response","367","327135","0.0-7.0-0.40","FL","3a2waojqmg","1280","720","0","1","0","5e6a2c7c5b057b08e930e89d","","null","","","","","","","learning/Slide121.JPG","null","","","","","",""
"html-keyboard-response","368","328302","0.0-7.0-1.40","FL","3a2waojqmg","1280","720","0","1","0","5e6a2c7c5b057b08e930e89d","","null","","","learningBlock2","","","","That was a bim.","null","","","","","",""
"html-keyboard-response","369","329308","0.0-7.0-2.40","FL","3a2waojqmg","1280","720","0","1","0","5e6a2c7c5b057b08e930e89d","","null","","","learningBlock2","","","","<div style=""font-size:60px;""> </div>","null","FL","learning/Slide121.JPG","That was a bim.","","",""
"image-keyboard-response","370","329493","0.0-7.0-0.41","FL","3a2waojqmg","1280","720","0","1","0","5e6a2c7c5b057b08e930e89d","","null","","","","","","","learning/Slide122.JPG","null","","","","","",""
"html-keyboard-response","371","330666","0.0-7.0-1.41","FL","3a2waojqmg","1280","720","0","1","0","5e6a2c7c5b057b08e930e89d","","null","","","learningBlock2","","","","That was a wug.","null","","","","","",""
"html-keyboard-response","372","331682","0.0-7.0-2.41","FL","3a2waojqmg","1280","720","0","1","0","5e6a2c7c5b057b08e930e89d","","null","","","learningBlock2","","","","<div style=""font-size:60px;""> </div>","null","FL","learning/Slide122.JPG","That was a wug.","","",""
"image-keyboard-response","373","331865","0.0-7.0-0.42","FL","3a2waojqmg","1280","720","0","1","0","5e6a2c7c5b057b08e930e89d","","null","","","","","","","learning/Slide123.JPG","null","","","","","",""
"html-keyboard-response","374","333026","0.0-7.0-1.42","FL","3a2waojqmg","1280","720","0","1","0","5e6a2c7c5b057b08e930e89d","","null","","","learningBlock2","","","","That was a bim.","null","","","","","",""
"html-keyboard-response","375","334042","0.0-7.0-2.42","FL","3a2waojqmg","1280","720","0","1","0","5e6a2c7c5b057b08e930e89d","","null","","","learningBlock2","","","","<div style=""font-size:60px;""> </div>","null","FL","learning/Slide123.JPG","That was a bim.","","",""
"image-keyboard-response","376","334227","0.0-7.0-0.43","FL","3a2waojqmg","1280","720","0","1","0","5e6a2c7c5b057b08e930e89d","","null","","","","","","","learning/Slide124.JPG","null","","","","","",""
"html-keyboard-response","377","335396","0.0-7.0-1.43","FL","3a2waojqmg","1280","720","0","1","0","5e6a2c7c5b057b08e930e89d","","null","","","learningBlock2","","","","That was a tob.","null","","","","","",""
"html-keyboard-response","378","336411","0.0-7.0-2.43","FL","3a2waojqmg","1280","720","0","1","0","5e6a2c7c5b057b08e930e89d","","null","","","learningBlock2","","","","<div style=""font-size:60px;""> </div>","null","FL","learning/Slide124.JPG","That was a tob.","","",""
"image-keyboard-response","379","336603","0.0-7.0-0.44","FL","3a2waojqmg","1280","720","0","1","0","5e6a2c7c5b057b08e930e89d","","null","","","","","","","learning/Slide125.JPG","null","","","","","",""
"html-keyboard-response","380","337761","0.0-7.0-1.44","FL","3a2waojqmg","1280","720","0","1","0","5e6a2c7c5b057b08e930e89d","","null","","","learningBlock2","","","","That was a bim.","null","","","","","",""
"html-keyboard-response","381","338763","0.0-7.0-2.44","FL","3a2waojqmg","1280","720","0","1","0","5e6a2c7c5b057b08e930e89d","","null","","","learningBlock2","","","","<div style=""font-size:60px;""> </div>","null","FL","learning/Slide125.JPG","That was a bim.","","",""
"image-keyboard-response","382","338945","0.0-7.0-0.45","FL","3a2waojqmg","1280","720","0","1","0","5e6a2c7c5b057b08e930e89d","","null","","","","","","","learning/Slide126.JPG","null","","","","","",""
"html-keyboard-response","383","340108","0.0-7.0-1.45","FL","3a2waojqmg","1280","720","0","1","0","5e6a2c7c5b057b08e930e89d","","null","","","learningBlock2","","","","That was a tob.","null","","","","","",""
"html-keyboard-response","384","341114","0.0-7.0-2.45","FL","3a2waojqmg","1280","720","0","1","0","5e6a2c7c5b057b08e930e89d","","null","","","learningBlock2","","","","<div style=""font-size:60px;""> </div>","null","FL","learning/Slide126.JPG","That was a tob.","","",""
"image-keyboard-response","385","341299","0.0-7.0-0.46","FL","3a2waojqmg","1280","720","0","1","0","5e6a2c7c5b057b08e930e89d","","null","","","","","","","learning/Slide127.JPG","null","","","","","",""
"html-keyboard-response","386","342465","0.0-7.0-1.46","FL","3a2waojqmg","1280","720","0","1","0","5e6a2c7c5b057b08e930e89d","","null","","","learningBlock2","","","","That was a dep.","null","","","","","",""
"html-keyboard-response","387","343467","0.0-7.0-2.46","FL","3a2waojqmg","1280","720","0","1","0","5e6a2c7c5b057b08e930e89d","","null","","","learningBlock2","","","","<div style=""font-size:60px;""> </div>","null","FL","learning/Slide127.JPG","That was a dep.","","",""
"image-keyboard-response","388","343654","0.0-7.0-0.47","FL","3a2waojqmg","1280","720","0","1","0","5e6a2c7c5b057b08e930e89d","","null","","","","","","","learning/Slide128.JPG","null","","","","","",""
"html-keyboard-response","389","344821","0.0-7.0-1.47","FL","3a2waojqmg","1280","720","0","1","0","5e6a2c7c5b057b08e930e89d","","null","","","learningBlock2","","","","That was a wug.","null","","","","","",""
"html-keyboard-response","390","345825","0.0-7.0-2.47","FL","3a2waojqmg","1280","720","0","1","0","5e6a2c7c5b057b08e930e89d","","null","","","learningBlock2","","","","<div style=""font-size:60px;""> </div>","null","FL","learning/Slide128.JPG","That was a wug.","","",""
"image-keyboard-response","391","346017","0.0-7.0-0.48","FL","3a2waojqmg","1280","720","0","1","0","5e6a2c7c5b057b08e930e89d","","null","","","","","","","learning/Slide129.JPG","null","","","","","",""
"html-keyboard-response","392","347183","0.0-7.0-1.48","FL","3a2waojqmg","1280","720","0","1","0","5e6a2c7c5b057b08e930e89d","","null","","","learningBlock2","","","","That was a tob.","null","","","","","",""
"html-keyboard-response","393","348189","0.0-7.0-2.48","FL","3a2waojqmg","1280","720","0","1","0","5e6a2c7c5b057b08e930e89d","","null","","","learningBlock2","","","","<div style=""font-size:60px;""> </div>","null","FL","learning/Slide129.JPG","That was a tob.","","",""
"image-keyboard-response","394","348367","0.0-7.0-0.49","FL","3a2waojqmg","1280","720","0","1","0","5e6a2c7c5b057b08e930e89d","","null","","","","","","","learning/Slide130.JPG","null","","","","","",""
"html-keyboard-response","395","349522","0.0-7.0-1.49","FL","3a2waojqmg","1280","720","0","1","0","5e6a2c7c5b057b08e930e89d","","null","","","learningBlock2","","","","That was a wug.","null","","","","","",""
"html-keyboard-response","396","350525","0.0-7.0-2.49","FL","3a2waojqmg","1280","720","0","1","0","5e6a2c7c5b057b08e930e89d","","null","","","learningBlock2","","","","<div style=""font-size:60px;""> </div>","null","FL","learning/Slide130.JPG","That was a wug.","","",""
"image-keyboard-response","397","350704","0.0-7.0-0.50","FL","3a2waojqmg","1280","720","0","1","0","5e6a2c7c5b057b08e930e89d","","null","","","","","","","learning/Slide131.JPG","null","","","","","",""
"html-keyboard-response","398","351872","0.0-7.0-1.50","FL","3a2waojqmg","1280","720","0","1","0","5e6a2c7c5b057b08e930e89d","","null","","","learningBlock2","","","","That was a bim.","null","","","","","",""
"html-keyboard-response","399","352882","0.0-7.0-2.50","FL","3a2waojqmg","1280","720","0","1","0","5e6a2c7c5b057b08e930e89d","","null","","","learningBlock2","","","","<div style=""font-size:60px;""> </div>","null","FL","learning/Slide131.JPG","That was a bim.","","",""
"image-keyboard-response","400","353063","0.0-7.0-0.51","FL","3a2waojqmg","1280","720","0","1","0","5e6a2c7c5b057b08e930e89d","","null","","","","","","","learning/Slide132.JPG","null","","","","","",""
"html-keyboard-response","401","354238","0.0-7.0-1.51","FL","3a2waojqmg","1280","720","0","1","0","5e6a2c7c5b057b08e930e89d","","null","","","learningBlock2","","","","That was a dep.","null","","","","","",""
"html-keyboard-response","402","355253","0.0-7.0-2.51","FL","3a2waojqmg","1280","720","0","1","0","5e6a2c7c5b057b08e930e89d","","null","","","learningBlock2","","","","<div style=""font-size:60px;""> </div>","null","FL","learning/Slide132.JPG","That was a dep.","","",""
"image-keyboard-response","403","355441","0.0-7.0-0.52","FL","3a2waojqmg","1280","720","0","1","0","5e6a2c7c5b057b08e930e89d","","null","","","","","","","learning/Slide133.JPG","null","","","","","",""
"html-keyboard-response","404","356617","0.0-7.0-1.52","FL","3a2waojqmg","1280","720","0","1","0","5e6a2c7c5b057b08e930e89d","","null","","","learningBlock2","","","","That was a tob.","null","","","","","",""
"html-keyboard-response","405","357635","0.0-7.0-2.52","FL","3a2waojqmg","1280","720","0","1","0","5e6a2c7c5b057b08e930e89d","","null","","","learningBlock2","","","","<div style=""font-size:60px;""> </div>","null","FL","learning/Slide133.JPG","That was a tob.","","",""
"image-keyboard-response","406","357827","0.0-7.0-0.53","FL","3a2waojqmg","1280","720","0","1","0","5e6a2c7c5b057b08e930e89d","","null","","","","","","","learning/Slide134.JPG","null","","","","","",""
"html-keyboard-response","407","359001","0.0-7.0-1.53","FL","3a2waojqmg","1280","720","0","1","0","5e6a2c7c5b057b08e930e89d","","null","","","learningBlock2","","","","That was a dep.","null","","","","","",""
"html-keyboard-response","408","360011","0.0-7.0-2.53","FL","3a2waojqmg","1280","720","0","1","0","5e6a2c7c5b057b08e930e89d","","null","","","learningBlock2","","","","<div style=""font-size:60px;""> </div>","null","FL","learning/Slide134.JPG","That was a dep.","","",""
"image-keyboard-response","409","360189","0.0-7.0-0.54","FL","3a2waojqmg","1280","720","0","1","0","5e6a2c7c5b057b08e930e89d","","null","","","","","","","learning/Slide135.JPG","null","","","","","",""
"html-keyboard-response","410","361365","0.0-7.0-1.54","FL","3a2waojqmg","1280","720","0","1","0","5e6a2c7c5b057b08e930e89d","","null","","","learningBlock2","","","","That was a tob.","null","","","","","",""
"html-keyboard-response","411","362376","0.0-7.0-2.54","FL","3a2waojqmg","1280","720","0","1","0","5e6a2c7c5b057b08e930e89d","","null","","","learningBlock2","","","","<div style=""font-size:60px;""> </div>","null","FL","learning/Slide135.JPG","That was a tob.","","",""
"image-keyboard-response","412","362566","0.0-7.0-0.55","FL","3a2waojqmg","1280","720","0","1","0","5e6a2c7c5b057b08e930e89d","","null","","","","","","","learning/Slide136.JPG","null","","","","","",""
"html-keyboard-response","413","363730","0.0-7.0-1.55","FL","3a2waojqmg","1280","720","0","1","0","5e6a2c7c5b057b08e930e89d","","null","","","learningBlock2","","","","That was a wug.","null","","","","","",""
"html-keyboard-response","414","364738","0.0-7.0-2.55","FL","3a2waojqmg","1280","720","0","1","0","5e6a2c7c5b057b08e930e89d","","null","","","learningBlock2","","","","<div style=""font-size:60px;""> </div>","null","FL","learning/Slide136.JPG","That was a wug.","","",""
"image-keyboard-response","415","364920","0.0-7.0-0.56","FL","3a2waojqmg","1280","720","0","1","0","5e6a2c7c5b057b08e930e89d","","null","","","","","","","learning/Slide137.JPG","null","","","","","",""
"html-keyboard-response","416","366092","0.0-7.0-1.56","FL","3a2waojqmg","1280","720","0","1","0","5e6a2c7c5b057b08e930e89d","","null","","","learningBlock2","","","","That was a tob.","null","","","","","",""
"html-keyboard-response","417","367099","0.0-7.0-2.56","FL","3a2waojqmg","1280","720","0","1","0","5e6a2c7c5b057b08e930e89d","","null","","","learningBlock2","","","","<div style=""font-size:60px;""> </div>","null","FL","learning/Slide137.JPG","That was a tob.","","",""
"image-keyboard-response","418","367284","0.0-7.0-0.57","FL","3a2waojqmg","1280","720","0","1","0","5e6a2c7c5b057b08e930e89d","","null","","","","","","","learning/Slide138.JPG","null","","","","","",""
"html-keyboard-response","419","368441","0.0-7.0-1.57","FL","3a2waojqmg","1280","720","0","1","0","5e6a2c7c5b057b08e930e89d","","null","","","learningBlock2","","","","That was a bim.","null","","","","","",""
"html-keyboard-response","420","369446","0.0-7.0-2.57","FL","3a2waojqmg","1280","720","0","1","0","5e6a2c7c5b057b08e930e89d","","null","","","learningBlock2","","","","<div style=""font-size:60px;""> </div>","null","FL","learning/Slide138.JPG","That was a bim.","","",""
"image-keyboard-response","421","369629","0.0-7.0-0.58","FL","3a2waojqmg","1280","720","0","1","0","5e6a2c7c5b057b08e930e89d","","null","","","","","","","learning/Slide139.JPG","null","","","","","",""
"html-keyboard-response","422","370791","0.0-7.0-1.58","FL","3a2waojqmg","1280","720","0","1","0","5e6a2c7c5b057b08e930e89d","","null","","","learningBlock2","","","","That was a wug.","null","","","","","",""
"html-keyboard-response","423","371802","0.0-7.0-2.58","FL","3a2waojqmg","1280","720","0","1","0","5e6a2c7c5b057b08e930e89d","","null","","","learningBlock2","","","","<div style=""font-size:60px;""> </div>","null","FL","learning/Slide139.JPG","That was a wug.","","",""
"image-keyboard-response","424","371980","0.0-7.0-0.59","FL","3a2waojqmg","1280","720","0","1","0","5e6a2c7c5b057b08e930e89d","","null","","","","","","","learning/Slide140.JPG","null","","","","","",""
"html-keyboard-response","425","373144","0.0-7.0-1.59","FL","3a2waojqmg","1280","720","0","1","0","5e6a2c7c5b057b08e930e89d","","null","","","learningBlock2","","","","That was a dep.","null","","","","","",""
"html-keyboard-response","426","374157","0.0-7.0-2.59","FL","3a2waojqmg","1280","720","0","1","0","5e6a2c7c5b057b08e930e89d","","null","","","learningBlock2","","","","<div style=""font-size:60px;""> </div>","null","FL","learning/Slide140.JPG","That was a dep.","","",""
"image-keyboard-response","427","374340","0.0-7.0-0.60","FL","3a2waojqmg","1280","720","0","1","0","5e6a2c7c5b057b08e930e89d","","null","","","","","","","learning/Slide141.JPG","null","","","","","",""
"html-keyboard-response","428","375510","0.0-7.0-1.60","FL","3a2waojqmg","1280","720","0","1","0","5e6a2c7c5b057b08e930e89d","","null","","","learningBlock2","","","","That was a tob.","null","","","","","",""
"html-keyboard-response","429","376527","0.0-7.0-2.60","FL","3a2waojqmg","1280","720","0","1","0","5e6a2c7c5b057b08e930e89d","","null","","","learningBlock2","","","","<div style=""font-size:60px;""> </div>","null","FL","learning/Slide141.JPG","That was a tob.","","",""
"image-keyboard-response","430","376707","0.0-7.0-0.61","FL","3a2waojqmg","1280","720","0","1","0","5e6a2c7c5b057b08e930e89d","","null","","","","","","","learning/Slide142.JPG","null","","","","","",""
"html-keyboard-response","431","377880","0.0-7.0-1.61","FL","3a2waojqmg","1280","720","0","1","0","5e6a2c7c5b057b08e930e89d","","null","","","learningBlock2","","","","That was a wug.","null","","","","","",""
"html-keyboard-response","432","378883","0.0-7.0-2.61","FL","3a2waojqmg","1280","720","0","1","0","5e6a2c7c5b057b08e930e89d","","null","","","learningBlock2","","","","<div style=""font-size:60px;""> </div>","null","FL","learning/Slide142.JPG","That was a wug.","","",""
"image-keyboard-response","433","379068","0.0-7.0-0.62","FL","3a2waojqmg","1280","720","0","1","0","5e6a2c7c5b057b08e930e89d","","null","","","","","","","learning/Slide143.JPG","null","","","","","",""
"html-keyboard-response","434","380229","0.0-7.0-1.62","FL","3a2waojqmg","1280","720","0","1","0","5e6a2c7c5b057b08e930e89d","","null","","","learningBlock2","","","","That was a bim.","null","","","","","",""
"html-keyboard-response","435","381241","0.0-7.0-2.62","FL","3a2waojqmg","1280","720","0","1","0","5e6a2c7c5b057b08e930e89d","","null","","","learningBlock2","","","","<div style=""font-size:60px;""> </div>","null","FL","learning/Slide143.JPG","That was a bim.","","",""
"image-keyboard-response","436","381428","0.0-7.0-0.63","FL","3a2waojqmg","1280","720","0","1","0","5e6a2c7c5b057b08e930e89d","","null","","","","","","","learning/Slide144.JPG","null","","","","","",""
"html-keyboard-response","437","382585","0.0-7.0-1.63","FL","3a2waojqmg","1280","720","0","1","0","5e6a2c7c5b057b08e930e89d","","null","","","learningBlock2","","","","That was a dep.","null","","","","","",""
