"trial_type","trial_index","time_elapsed","internal_node_id","condition","subject","screen_width","screen_height","attention","distraction","conscientious","prolificID","success","rt","url","view_history","test_part","final_height_px","final_width_px","scale_factor","stimulus","key_press","learningType","presentedImage","presentedLabel","button_pressed","response","responses"
"pavlovia","0","16","0.0-0.0","FL","zq33udleq5","1536","864","0","1","0","5ec527351fc19046fdd6cd59","","","","","","","","","","","","","","","",""
"fullscreen","1","8475","0.0-1.0","FL","zq33udleq5","1536","864","0","1","0","5ec527351fc19046fdd6cd59","true","","","","","","","","","","","","","","",""
"external-html","2","44093","0.0-2.0-0.0","FL","zq33udleq5","1536","864","0","1","0","5ec527351fc19046fdd6cd59","","35571.83000000032","text/information_english.html","","","","","","","","","","","","",""
"external-html","3","60683","0.0-2.0-1.0","FL","zq33udleq5","1536","864","0","1","0","5ec527351fc19046fdd6cd59","","16544.630000000325","text/consent_english.html","","","","","","","","","","","","",""
"instructions","4","83261","0.0-3.0","FL","zq33udleq5","1536","864","0","1","0","5ec527351fc19046fdd6cd59","","NA","","[{""page_index"":0,""viewing_time"":6663.555000000088},{""page_index"":1,""viewing_time"":15909.879999999699}]","instructions","","","","","","","","","","",""
"resize","5","129609","0.0-4.0","FL","zq33udleq5","1536","864","0","1","0","5ec527351fc19046fdd6cd59","","","","","","","382","2.425396825396825","","","","","","","",""
"image-keyboard-response","6","129792","0.0-5.0-0.0","FL","zq33udleq5","1536","864","0","1","0","5ec527351fc19046fdd6cd59","","null","","","","","","","learning/Slide1.JPG","null","","","","","",""
"html-keyboard-response","7","130949","0.0-5.0-1.0","FL","zq33udleq5","1536","864","0","1","0","5ec527351fc19046fdd6cd59","","null","","","learningBlock1","","","","That was a tob.","null","","","","","",""
"html-keyboard-response","8","131962","0.0-5.0-2.0","FL","zq33udleq5","1536","864","0","1","0","5ec527351fc19046fdd6cd59","","null","","","learningBlock1","","","","<div style=""font-size:60px;""> </div>","null","FL","learning/Slide1.JPG","That was a tob.","","",""
"image-keyboard-response","9","132150","0.0-5.0-0.1","FL","zq33udleq5","1536","864","0","1","0","5ec527351fc19046fdd6cd59","","null","","","","","","","learning/Slide2.JPG","null","","","","","",""
"html-keyboard-response","10","133308","0.0-5.0-1.1","FL","zq33udleq5","1536","864","0","1","0","5ec527351fc19046fdd6cd59","","null","","","learningBlock1","","","","That was a wug.","null","","","","","",""
"html-keyboard-response","11","134309","0.0-5.0-2.1","FL","zq33udleq5","1536","864","0","1","0","5ec527351fc19046fdd6cd59","","null","","","learningBlock1","","","","<div style=""font-size:60px;""> </div>","null","FL","learning/Slide2.JPG","That was a wug.","","",""
"image-keyboard-response","12","134495","0.0-5.0-0.2","FL","zq33udleq5","1536","864","0","1","0","5ec527351fc19046fdd6cd59","","null","","","","","","","learning/Slide3.JPG","null","","","","","",""
"html-keyboard-response","13","135650","0.0-5.0-1.2","FL","zq33udleq5","1536","864","0","1","0","5ec527351fc19046fdd6cd59","","null","","","learningBlock1","","","","That was a bim.","null","","","","","",""
"html-keyboard-response","14","136652","0.0-5.0-2.2","FL","zq33udleq5","1536","864","0","1","0","5ec527351fc19046fdd6cd59","","null","","","learningBlock1","","","","<div style=""font-size:60px;""> </div>","null","FL","learning/Slide3.JPG","That was a bim.","","",""
"image-keyboard-response","15","136829","0.0-5.0-0.3","FL","zq33udleq5","1536","864","0","1","0","5ec527351fc19046fdd6cd59","","null","","","","","","","learning/Slide4.JPG","null","","","","","",""
"html-keyboard-response","16","138010","0.0-5.0-1.3","FL","zq33udleq5","1536","864","0","1","0","5ec527351fc19046fdd6cd59","","null","","","learningBlock1","","","","That was a dep.","null","","","","","",""
"html-keyboard-response","17","139026","0.0-5.0-2.3","FL","zq33udleq5","1536","864","0","1","0","5ec527351fc19046fdd6cd59","","null","","","learningBlock1","","","","<div style=""font-size:60px;""> </div>","null","FL","learning/Slide4.JPG","That was a dep.","","",""
"image-keyboard-response","18","139213","0.0-5.0-0.4","FL","zq33udleq5","1536","864","0","1","0","5ec527351fc19046fdd6cd59","","null","","","","","","","learning/Slide5.JPG","null","","","","","",""
"html-keyboard-response","19","140386","0.0-5.0-1.4","FL","zq33udleq5","1536","864","0","1","0","5ec527351fc19046fdd6cd59","","null","","","learningBlock1","","","","That was a wug.","null","","","","","",""
"html-keyboard-response","20","141401","0.0-5.0-2.4","FL","zq33udleq5","1536","864","0","1","0","5ec527351fc19046fdd6cd59","","null","","","learningBlock1","","","","<div style=""font-size:60px;""> </div>","null","FL","learning/Slide5.JPG","That was a wug.","","",""
"image-keyboard-response","21","141588","0.0-5.0-0.5","FL","zq33udleq5","1536","864","0","1","0","5ec527351fc19046fdd6cd59","","null","","","","","","","learning/Slide6.JPG","null","","","","","",""
"html-keyboard-response","22","142761","0.0-5.0-1.5","FL","zq33udleq5","1536","864","0","1","0","5ec527351fc19046fdd6cd59","","null","","","learningBlock1","","","","That was a dep.","null","","","","","",""
"html-keyboard-response","23","143777","0.0-5.0-2.5","FL","zq33udleq5","1536","864","0","1","0","5ec527351fc19046fdd6cd59","","null","","","learningBlock1","","","","<div style=""font-size:60px;""> </div>","null","FL","learning/Slide6.JPG","That was a dep.","","",""
"image-keyboard-response","24","143961","0.0-5.0-0.6","FL","zq33udleq5","1536","864","0","1","0","5ec527351fc19046fdd6cd59","","null","","","","","","","learning/Slide7.JPG","null","","","","","",""
"html-keyboard-response","25","145135","0.0-5.0-1.6","FL","zq33udleq5","1536","864","0","1","0","5ec527351fc19046fdd6cd59","","null","","","learningBlock1","","","","That was a wug.","null","","","","","",""
"html-keyboard-response","26","146150","0.0-5.0-2.6","FL","zq33udleq5","1536","864","0","1","0","5ec527351fc19046fdd6cd59","","null","","","learningBlock1","","","","<div style=""font-size:60px;""> </div>","null","FL","learning/Slide7.JPG","That was a wug.","","",""
"image-keyboard-response","27","146338","0.0-5.0-0.7","FL","zq33udleq5","1536","864","0","1","0","5ec527351fc19046fdd6cd59","","null","","","","","","","learning/Slide8.JPG","null","","","","","",""
"html-keyboard-response","28","147511","0.0-5.0-1.7","FL","zq33udleq5","1536","864","0","1","0","5ec527351fc19046fdd6cd59","","null","","","learningBlock1","","","","That was a bim.","null","","","","","",""
"html-keyboard-response","29","148525","0.0-5.0-2.7","FL","zq33udleq5","1536","864","0","1","0","5ec527351fc19046fdd6cd59","","null","","","learningBlock1","","","","<div style=""font-size:60px;""> </div>","null","FL","learning/Slide8.JPG","That was a bim.","","",""
"image-keyboard-response","30","148713","0.0-5.0-0.8","FL","zq33udleq5","1536","864","0","1","0","5ec527351fc19046fdd6cd59","","null","","","","","","","learning/Slide9.JPG","null","","","","","",""
"html-keyboard-response","31","149879","0.0-5.0-1.8","FL","zq33udleq5","1536","864","0","1","0","5ec527351fc19046fdd6cd59","","null","","","learningBlock1","","","","That was a wug.","null","","","","","",""
"html-keyboard-response","32","150886","0.0-5.0-2.8","FL","zq33udleq5","1536","864","0","1","0","5ec527351fc19046fdd6cd59","","null","","","learningBlock1","","","","<div style=""font-size:60px;""> </div>","null","FL","learning/Slide9.JPG","That was a wug.","","",""
"image-keyboard-response","33","151073","0.0-5.0-0.9","FL","zq33udleq5","1536","864","0","1","0","5ec527351fc19046fdd6cd59","","null","","","","","","","learning/Slide10.JPG","null","","","","","",""
"html-keyboard-response","34","152245","0.0-5.0-1.9","FL","zq33udleq5","1536","864","0","1","0","5ec527351fc19046fdd6cd59","","null","","","learningBlock1","","","","That was a dep.","null","","","","","",""
"html-keyboard-response","35","153260","0.0-5.0-2.9","FL","zq33udleq5","1536","864","0","1","0","5ec527351fc19046fdd6cd59","","null","","","learningBlock1","","","","<div style=""font-size:60px;""> </div>","null","FL","learning/Slide10.JPG","That was a dep.","","",""
"image-keyboard-response","36","153447","0.0-5.0-0.10","FL","zq33udleq5","1536","864","0","1","0","5ec527351fc19046fdd6cd59","","null","","","","","","","learning/Slide11.JPG","null","","","","","",""
"html-keyboard-response","37","154603","0.0-5.0-1.10","FL","zq33udleq5","1536","864","0","1","0","5ec527351fc19046fdd6cd59","","null","","","learningBlock1","","","","That was a tob.","null","","","","","",""
"html-keyboard-response","38","155619","0.0-5.0-2.10","FL","zq33udleq5","1536","864","0","1","0","5ec527351fc19046fdd6cd59","","null","","","learningBlock1","","","","<div style=""font-size:60px;""> </div>","null","FL","learning/Slide11.JPG","That was a tob.","","",""
"image-keyboard-response","39","155807","0.0-5.0-0.11","FL","zq33udleq5","1536","864","0","1","0","5ec527351fc19046fdd6cd59","","null","","","","","","","learning/Slide12.JPG","null","","","","","",""
"html-keyboard-response","40","156981","0.0-5.0-1.11","FL","zq33udleq5","1536","864","0","1","0","5ec527351fc19046fdd6cd59","","null","","","learningBlock1","","","","That was a dep.","null","","","","","",""
"html-keyboard-response","41","157995","0.0-5.0-2.11","FL","zq33udleq5","1536","864","0","1","0","5ec527351fc19046fdd6cd59","","null","","","learningBlock1","","","","<div style=""font-size:60px;""> </div>","null","FL","learning/Slide12.JPG","That was a dep.","","",""
"image-keyboard-response","42","158182","0.0-5.0-0.12","FL","zq33udleq5","1536","864","0","1","0","5ec527351fc19046fdd6cd59","","null","","","","","","","learning/Slide13.JPG","null","","","","","",""
"html-keyboard-response","43","159336","0.0-5.0-1.12","FL","zq33udleq5","1536","864","0","1","0","5ec527351fc19046fdd6cd59","","null","","","learningBlock1","","","","That was a bim.","null","","","","","",""
"html-keyboard-response","44","160339","0.0-5.0-2.12","FL","zq33udleq5","1536","864","0","1","0","5ec527351fc19046fdd6cd59","","null","","","learningBlock1","","","","<div style=""font-size:60px;""> </div>","null","FL","learning/Slide13.JPG","That was a bim.","","",""
"image-keyboard-response","45","160526","0.0-5.0-0.13","FL","zq33udleq5","1536","864","0","1","0","5ec527351fc19046fdd6cd59","","null","","","","","","","learning/Slide14.JPG","null","","","","","",""
"html-keyboard-response","46","161683","0.0-5.0-1.13","FL","zq33udleq5","1536","864","0","1","0","5ec527351fc19046fdd6cd59","","null","","","learningBlock1","","","","That was a wug.","null","","","","","",""
"html-keyboard-response","47","162697","0.0-5.0-2.13","FL","zq33udleq5","1536","864","0","1","0","5ec527351fc19046fdd6cd59","","null","","","learningBlock1","","","","<div style=""font-size:60px;""> </div>","null","FL","learning/Slide14.JPG","That was a wug.","","",""
"image-keyboard-response","48","162884","0.0-5.0-0.14","FL","zq33udleq5","1536","864","0","1","0","5ec527351fc19046fdd6cd59","","null","","","","","","","learning/Slide15.JPG","null","","","","","",""
"html-keyboard-response","49","164040","0.0-5.0-1.14","FL","zq33udleq5","1536","864","0","1","0","5ec527351fc19046fdd6cd59","","null","","","learningBlock1","","","","That was a tob.","null","","","","","",""
"html-keyboard-response","50","165056","0.0-5.0-2.14","FL","zq33udleq5","1536","864","0","1","0","5ec527351fc19046fdd6cd59","","null","","","learningBlock1","","","","<div style=""font-size:60px;""> </div>","null","FL","learning/Slide15.JPG","That was a tob.","","",""
"image-keyboard-response","51","165243","0.0-5.0-0.15","FL","zq33udleq5","1536","864","0","1","0","5ec527351fc19046fdd6cd59","","null","","","","","","","learning/Slide16.JPG","null","","","","","",""
"html-keyboard-response","52","166401","0.0-5.0-1.15","FL","zq33udleq5","1536","864","0","1","0","5ec527351fc19046fdd6cd59","","null","","","learningBlock1","","","","That was a dep.","null","","","","","",""
"html-keyboard-response","53","167416","0.0-5.0-2.15","FL","zq33udleq5","1536","864","0","1","0","5ec527351fc19046fdd6cd59","","null","","","learningBlock1","","","","<div style=""font-size:60px;""> </div>","null","FL","learning/Slide16.JPG","That was a dep.","","",""
"image-keyboard-response","54","167605","0.0-5.0-0.16","FL","zq33udleq5","1536","864","0","1","0","5ec527351fc19046fdd6cd59","","null","","","","","","","learning/Slide17.JPG","null","","","","","",""
"html-keyboard-response","55","168775","0.0-5.0-1.16","FL","zq33udleq5","1536","864","0","1","0","5ec527351fc19046fdd6cd59","","null","","","learningBlock1","","","","That was a bim.","null","","","","","",""
"html-keyboard-response","56","169790","0.0-5.0-2.16","FL","zq33udleq5","1536","864","0","1","0","5ec527351fc19046fdd6cd59","","null","","","learningBlock1","","","","<div style=""font-size:60px;""> </div>","null","FL","learning/Slide17.JPG","That was a bim.","","",""
"image-keyboard-response","57","169976","0.0-5.0-0.17","FL","zq33udleq5","1536","864","0","1","0","5ec527351fc19046fdd6cd59","","null","","","","","","","learning/Slide18.JPG","null","","","","","",""
"html-keyboard-response","58","171149","0.0-5.0-1.17","FL","zq33udleq5","1536","864","0","1","0","5ec527351fc19046fdd6cd59","","null","","","learningBlock1","","","","That was a tob.","null","","","","","",""
"html-keyboard-response","59","172165","0.0-5.0-2.17","FL","zq33udleq5","1536","864","0","1","0","5ec527351fc19046fdd6cd59","","null","","","learningBlock1","","","","<div style=""font-size:60px;""> </div>","null","FL","learning/Slide18.JPG","That was a tob.","","",""
"image-keyboard-response","60","172353","0.0-5.0-0.18","FL","zq33udleq5","1536","864","0","1","0","5ec527351fc19046fdd6cd59","","null","","","","","","","learning/Slide19.JPG","null","","","","","",""
"html-keyboard-response","61","173525","0.0-5.0-1.18","FL","zq33udleq5","1536","864","0","1","0","5ec527351fc19046fdd6cd59","","null","","","learningBlock1","","","","That was a wug.","null","","","","","",""
"html-keyboard-response","62","174540","0.0-5.0-2.18","FL","zq33udleq5","1536","864","0","1","0","5ec527351fc19046fdd6cd59","","null","","","learningBlock1","","","","<div style=""font-size:60px;""> </div>","null","FL","learning/Slide19.JPG","That was a wug.","","",""
"image-keyboard-response","63","174729","0.0-5.0-0.19","FL","zq33udleq5","1536","864","0","1","0","5ec527351fc19046fdd6cd59","","null","","","","","","","learning/Slide20.JPG","null","","","","","",""
"html-keyboard-response","64","175886","0.0-5.0-1.19","FL","zq33udleq5","1536","864","0","1","0","5ec527351fc19046fdd6cd59","","null","","","learningBlock1","","","","That was a bim.","null","","","","","",""
"html-keyboard-response","65","176901","0.0-5.0-2.19","FL","zq33udleq5","1536","864","0","1","0","5ec527351fc19046fdd6cd59","","null","","","learningBlock1","","","","<div style=""font-size:60px;""> </div>","null","FL","learning/Slide20.JPG","That was a bim.","","",""
"image-keyboard-response","66","177088","0.0-5.0-0.20","FL","zq33udleq5","1536","864","0","1","0","5ec527351fc19046fdd6cd59","","null","","","","","","","learning/Slide21.JPG","null","","","","","",""
"html-keyboard-response","67","178259","0.0-5.0-1.20","FL","zq33udleq5","1536","864","0","1","0","5ec527351fc19046fdd6cd59","","null","","","learningBlock1","","","","That was a dep.","null","","","","","",""
"html-keyboard-response","68","179275","0.0-5.0-2.20","FL","zq33udleq5","1536","864","0","1","0","5ec527351fc19046fdd6cd59","","null","","","learningBlock1","","","","<div style=""font-size:60px;""> </div>","null","FL","learning/Slide21.JPG","That was a dep.","","",""
"image-keyboard-response","69","179463","0.0-5.0-0.21","FL","zq33udleq5","1536","864","0","1","0","5ec527351fc19046fdd6cd59","","null","","","","","","","learning/Slide22.JPG","null","","","","","",""
"html-keyboard-response","70","180635","0.0-5.0-1.21","FL","zq33udleq5","1536","864","0","1","0","5ec527351fc19046fdd6cd59","","null","","","learningBlock1","","","","That was a bim.","null","","","","","",""
"html-keyboard-response","71","181651","0.0-5.0-2.21","FL","zq33udleq5","1536","864","0","1","0","5ec527351fc19046fdd6cd59","","null","","","learningBlock1","","","","<div style=""font-size:60px;""> </div>","null","FL","learning/Slide22.JPG","That was a bim.","","",""
"image-keyboard-response","72","181838","0.0-5.0-0.22","FL","zq33udleq5","1536","864","0","1","0","5ec527351fc19046fdd6cd59","","null","","","","","","","learning/Slide23.JPG","null","","","","","",""
"html-keyboard-response","73","183010","0.0-5.0-1.22","FL","zq33udleq5","1536","864","0","1","0","5ec527351fc19046fdd6cd59","","null","","","learningBlock1","","","","That was a tob.","null","","","","","",""
"html-keyboard-response","74","184026","0.0-5.0-2.22","FL","zq33udleq5","1536","864","0","1","0","5ec527351fc19046fdd6cd59","","null","","","learningBlock1","","","","<div style=""font-size:60px;""> </div>","null","FL","learning/Slide23.JPG","That was a tob.","","",""
"image-keyboard-response","75","184213","0.0-5.0-0.23","FL","zq33udleq5","1536","864","0","1","0","5ec527351fc19046fdd6cd59","","null","","","","","","","learning/Slide24.JPG","null","","","","","",""
"html-keyboard-response","76","185384","0.0-5.0-1.23","FL","zq33udleq5","1536","864","0","1","0","5ec527351fc19046fdd6cd59","","null","","","learningBlock1","","","","That was a wug.","null","","","","","",""
"html-keyboard-response","77","186388","0.0-5.0-2.23","FL","zq33udleq5","1536","864","0","1","0","5ec527351fc19046fdd6cd59","","null","","","learningBlock1","","","","<div style=""font-size:60px;""> </div>","null","FL","learning/Slide24.JPG","That was a wug.","","",""
"image-keyboard-response","78","186574","0.0-5.0-0.24","FL","zq33udleq5","1536","864","0","1","0","5ec527351fc19046fdd6cd59","","null","","","","","","","learning/Slide25.JPG","null","","","","","",""
"html-keyboard-response","79","187745","0.0-5.0-1.24","FL","zq33udleq5","1536","864","0","1","0","5ec527351fc19046fdd6cd59","","null","","","learningBlock1","","","","That was a dep.","null","","","","","",""
"html-keyboard-response","80","188760","0.0-5.0-2.24","FL","zq33udleq5","1536","864","0","1","0","5ec527351fc19046fdd6cd59","","null","","","learningBlock1","","","","<div style=""font-size:60px;""> </div>","null","FL","learning/Slide25.JPG","That was a dep.","","",""
"image-keyboard-response","81","188947","0.0-5.0-0.25","FL","zq33udleq5","1536","864","0","1","0","5ec527351fc19046fdd6cd59","","null","","","","","","","learning/Slide26.JPG","null","","","","","",""
"html-keyboard-response","82","190103","0.0-5.0-1.25","FL","zq33udleq5","1536","864","0","1","0","5ec527351fc19046fdd6cd59","","null","","","learningBlock1","","","","That was a wug.","null","","","","","",""
"html-keyboard-response","83","191119","0.0-5.0-2.25","FL","zq33udleq5","1536","864","0","1","0","5ec527351fc19046fdd6cd59","","null","","","learningBlock1","","","","<div style=""font-size:60px;""> </div>","null","FL","learning/Slide26.JPG","That was a wug.","","",""
"image-keyboard-response","84","191307","0.0-5.0-0.26","FL","zq33udleq5","1536","864","0","1","0","5ec527351fc19046fdd6cd59","","null","","","","","","","learning/Slide27.JPG","null","","","","","",""
"html-keyboard-response","85","192478","0.0-5.0-1.26","FL","zq33udleq5","1536","864","0","1","0","5ec527351fc19046fdd6cd59","","null","","","learningBlock1","","","","That was a bim.","null","","","","","",""
"html-keyboard-response","86","193494","0.0-5.0-2.26","FL","zq33udleq5","1536","864","0","1","0","5ec527351fc19046fdd6cd59","","null","","","learningBlock1","","","","<div style=""font-size:60px;""> </div>","null","FL","learning/Slide27.JPG","That was a bim.","","",""
"image-keyboard-response","87","193681","0.0-5.0-0.27","FL","zq33udleq5","1536","864","0","1","0","5ec527351fc19046fdd6cd59","","null","","","","","","","learning/Slide28.JPG","null","","","","","",""
"html-keyboard-response","88","194854","0.0-5.0-1.27","FL","zq33udleq5","1536","864","0","1","0","5ec527351fc19046fdd6cd59","","null","","","learningBlock1","","","","That was a dep.","null","","","","","",""
"html-keyboard-response","89","195869","0.0-5.0-2.27","FL","zq33udleq5","1536","864","0","1","0","5ec527351fc19046fdd6cd59","","null","","","learningBlock1","","","","<div style=""font-size:60px;""> </div>","null","FL","learning/Slide28.JPG","That was a dep.","","",""
"image-keyboard-response","90","196058","0.0-5.0-0.28","FL","zq33udleq5","1536","864","0","1","0","5ec527351fc19046fdd6cd59","","null","","","","","","","learning/Slide29.JPG","null","","","","","",""
"html-keyboard-response","91","197213","0.0-5.0-1.28","FL","zq33udleq5","1536","864","0","1","0","5ec527351fc19046fdd6cd59","","null","","","learningBlock1","","","","That was a tob.","null","","","","","",""
"html-keyboard-response","92","198229","0.0-5.0-2.28","FL","zq33udleq5","1536","864","0","1","0","5ec527351fc19046fdd6cd59","","null","","","learningBlock1","","","","<div style=""font-size:60px;""> </div>","null","FL","learning/Slide29.JPG","That was a tob.","","",""
"image-keyboard-response","93","198417","0.0-5.0-0.29","FL","zq33udleq5","1536","864","0","1","0","5ec527351fc19046fdd6cd59","","null","","","","","","","learning/Slide30.JPG","null","","","","","",""
"html-keyboard-response","94","199588","0.0-5.0-1.29","FL","zq33udleq5","1536","864","0","1","0","5ec527351fc19046fdd6cd59","","null","","","learningBlock1","","","","That was a dep.","null","","","","","",""
"html-keyboard-response","95","200604","0.0-5.0-2.29","FL","zq33udleq5","1536","864","0","1","0","5ec527351fc19046fdd6cd59","","null","","","learningBlock1","","","","<div style=""font-size:60px;""> </div>","null","FL","learning/Slide30.JPG","That was a dep.","","",""
"image-keyboard-response","96","200791","0.0-5.0-0.30","FL","zq33udleq5","1536","864","0","1","0","5ec527351fc19046fdd6cd59","","null","","","","","","","learning/Slide31.JPG","null","","","","","",""
"html-keyboard-response","97","201953","0.0-5.0-1.30","FL","zq33udleq5","1536","864","0","1","0","5ec527351fc19046fdd6cd59","","null","","","learningBlock1","","","","That was a wug.","null","","","","","",""
"html-keyboard-response","98","202969","0.0-5.0-2.30","FL","zq33udleq5","1536","864","0","1","0","5ec527351fc19046fdd6cd59","","null","","","learningBlock1","","","","<div style=""font-size:60px;""> </div>","null","FL","learning/Slide31.JPG","That was a wug.","","",""
"image-keyboard-response","99","203146","0.0-5.0-0.31","FL","zq33udleq5","1536","864","0","1","0","5ec527351fc19046fdd6cd59","","null","","","","","","","learning/Slide32.JPG","null","","","","","",""
"html-keyboard-response","100","204313","0.0-5.0-1.31","FL","zq33udleq5","1536","864","0","1","0","5ec527351fc19046fdd6cd59","","null","","","learningBlock1","","","","That was a tob.","null","","","","","",""
"html-keyboard-response","101","205328","0.0-5.0-2.31","FL","zq33udleq5","1536","864","0","1","0","5ec527351fc19046fdd6cd59","","null","","","learningBlock1","","","","<div style=""font-size:60px;""> </div>","null","FL","learning/Slide32.JPG","That was a tob.","","",""
"image-keyboard-response","102","205516","0.0-5.0-0.32","FL","zq33udleq5","1536","864","0","1","0","5ec527351fc19046fdd6cd59","","null","","","","","","","learning/Slide33.JPG","null","","","","","",""
"html-keyboard-response","103","206681","0.0-5.0-1.32","FL","zq33udleq5","1536","864","0","1","0","5ec527351fc19046fdd6cd59","","null","","","learningBlock1","","","","That was a bim.","null","","","","","",""
"html-keyboard-response","104","207697","0.0-5.0-2.32","FL","zq33udleq5","1536","864","0","1","0","5ec527351fc19046fdd6cd59","","null","","","learningBlock1","","","","<div style=""font-size:60px;""> </div>","null","FL","learning/Slide33.JPG","That was a bim.","","",""
"image-keyboard-response","105","207885","0.0-5.0-0.33","FL","zq33udleq5","1536","864","0","1","0","5ec527351fc19046fdd6cd59","","null","","","","","","","learning/Slide34.JPG","null","","","","","",""
"html-keyboard-response","106","209042","0.0-5.0-1.33","FL","zq33udleq5","1536","864","0","1","0","5ec527351fc19046fdd6cd59","","null","","","learningBlock1","","","","That was a tob.","null","","","","","",""
"html-keyboard-response","107","210058","0.0-5.0-2.33","FL","zq33udleq5","1536","864","0","1","0","5ec527351fc19046fdd6cd59","","null","","","learningBlock1","","","","<div style=""font-size:60px;""> </div>","null","FL","learning/Slide34.JPG","That was a tob.","","",""
"image-keyboard-response","108","210234","0.0-5.0-0.34","FL","zq33udleq5","1536","864","0","1","0","5ec527351fc19046fdd6cd59","","null","","","","","","","learning/Slide35.JPG","null","","","","","",""
"html-keyboard-response","109","211387","0.0-5.0-1.34","FL","zq33udleq5","1536","864","0","1","0","5ec527351fc19046fdd6cd59","","null","","","learningBlock1","","","","That was a bim.","null","","","","","",""
"html-keyboard-response","110","212400","0.0-5.0-2.34","FL","zq33udleq5","1536","864","0","1","0","5ec527351fc19046fdd6cd59","","null","","","learningBlock1","","","","<div style=""font-size:60px;""> </div>","null","FL","learning/Slide35.JPG","That was a bim.","","",""
"image-keyboard-response","111","212577","0.0-5.0-0.35","FL","zq33udleq5","1536","864","0","1","0","5ec527351fc19046fdd6cd59","","null","","","","","","","learning/Slide36.JPG","null","","","","","",""
"html-keyboard-response","112","213730","0.0-5.0-1.35","FL","zq33udleq5","1536","864","0","1","0","5ec527351fc19046fdd6cd59","","null","","","learningBlock1","","","","That was a dep.","null","","","","","",""
"html-keyboard-response","113","214744","0.0-5.0-2.35","FL","zq33udleq5","1536","864","0","1","0","5ec527351fc19046fdd6cd59","","null","","","learningBlock1","","","","<div style=""font-size:60px;""> </div>","null","FL","learning/Slide36.JPG","That was a dep.","","",""
"image-keyboard-response","114","214932","0.0-5.0-0.36","FL","zq33udleq5","1536","864","0","1","0","5ec527351fc19046fdd6cd59","","null","","","","","","","learning/Slide37.JPG","null","","","","","",""
"html-keyboard-response","115","216104","0.0-5.0-1.36","FL","zq33udleq5","1536","864","0","1","0","5ec527351fc19046fdd6cd59","","null","","","learningBlock1","","","","That was a tob.","null","","","","","",""
"html-keyboard-response","116","217119","0.0-5.0-2.36","FL","zq33udleq5","1536","864","0","1","0","5ec527351fc19046fdd6cd59","","null","","","learningBlock1","","","","<div style=""font-size:60px;""> </div>","null","FL","learning/Slide37.JPG","That was a tob.","","",""
"image-keyboard-response","117","217307","0.0-5.0-0.37","FL","zq33udleq5","1536","864","0","1","0","5ec527351fc19046fdd6cd59","","null","","","","","","","learning/Slide38.JPG","null","","","","","",""
"html-keyboard-response","118","218478","0.0-5.0-1.37","FL","zq33udleq5","1536","864","0","1","0","5ec527351fc19046fdd6cd59","","null","","","learningBlock1","","","","That was a wug.","null","","","","","",""
"html-keyboard-response","119","219479","0.0-5.0-2.37","FL","zq33udleq5","1536","864","0","1","0","5ec527351fc19046fdd6cd59","","null","","","learningBlock1","","","","<div style=""font-size:60px;""> </div>","null","FL","learning/Slide38.JPG","That was a wug.","","",""
"image-keyboard-response","120","219656","0.0-5.0-0.38","FL","zq33udleq5","1536","864","0","1","0","5ec527351fc19046fdd6cd59","","null","","","","","","","learning/Slide39.JPG","null","","","","","",""
"html-keyboard-response","121","220808","0.0-5.0-1.38","FL","zq33udleq5","1536","864","0","1","0","5ec527351fc19046fdd6cd59","","null","","","learningBlock1","","","","That was a bim.","null","","","","","",""
"html-keyboard-response","122","221822","0.0-5.0-2.38","FL","zq33udleq5","1536","864","0","1","0","5ec527351fc19046fdd6cd59","","null","","","learningBlock1","","","","<div style=""font-size:60px;""> </div>","null","FL","learning/Slide39.JPG","That was a bim.","","",""
"image-keyboard-response","123","222011","0.0-5.0-0.39","FL","zq33udleq5","1536","864","0","1","0","5ec527351fc19046fdd6cd59","","null","","","","","","","learning/Slide40.JPG","null","","","","","",""
"html-keyboard-response","124","223166","0.0-5.0-1.39","FL","zq33udleq5","1536","864","0","1","0","5ec527351fc19046fdd6cd59","","null","","","learningBlock1","","","","That was a tob.","null","","","","","",""
"html-keyboard-response","125","224182","0.0-5.0-2.39","FL","zq33udleq5","1536","864","0","1","0","5ec527351fc19046fdd6cd59","","null","","","learningBlock1","","","","<div style=""font-size:60px;""> </div>","null","FL","learning/Slide40.JPG","That was a tob.","","",""
"image-keyboard-response","126","224370","0.0-5.0-0.40","FL","zq33udleq5","1536","864","0","1","0","5ec527351fc19046fdd6cd59","","null","","","","","","","learning/Slide41.JPG","null","","","","","",""
"html-keyboard-response","127","225527","0.0-5.0-1.40","FL","zq33udleq5","1536","864","0","1","0","5ec527351fc19046fdd6cd59","","null","","","learningBlock1","","","","That was a bim.","null","","","","","",""
"html-keyboard-response","128","226541","0.0-5.0-2.40","FL","zq33udleq5","1536","864","0","1","0","5ec527351fc19046fdd6cd59","","null","","","learningBlock1","","","","<div style=""font-size:60px;""> </div>","null","FL","learning/Slide41.JPG","That was a bim.","","",""
"image-keyboard-response","129","226717","0.0-5.0-0.41","FL","zq33udleq5","1536","864","0","1","0","5ec527351fc19046fdd6cd59","","null","","","","","","","learning/Slide42.JPG","null","","","","","",""
"html-keyboard-response","130","227870","0.0-5.0-1.41","FL","zq33udleq5","1536","864","0","1","0","5ec527351fc19046fdd6cd59","","null","","","learningBlock1","","","","That was a dep.","null","","","","","",""
"html-keyboard-response","131","228886","0.0-5.0-2.41","FL","zq33udleq5","1536","864","0","1","0","5ec527351fc19046fdd6cd59","","null","","","learningBlock1","","","","<div style=""font-size:60px;""> </div>","null","FL","learning/Slide42.JPG","That was a dep.","","",""
"image-keyboard-response","132","229063","0.0-5.0-0.42","FL","zq33udleq5","1536","864","0","1","0","5ec527351fc19046fdd6cd59","","null","","","","","","","learning/Slide43.JPG","null","","","","","",""
"html-keyboard-response","133","230229","0.0-5.0-1.42","FL","zq33udleq5","1536","864","0","1","0","5ec527351fc19046fdd6cd59","","null","","","learningBlock1","","","","That was a wug.","null","","","","","",""
"html-keyboard-response","134","231245","0.0-5.0-2.42","FL","zq33udleq5","1536","864","0","1","0","5ec527351fc19046fdd6cd59","","null","","","learningBlock1","","","","<div style=""font-size:60px;""> </div>","null","FL","learning/Slide43.JPG","That was a wug.","","",""
"image-keyboard-response","135","231432","0.0-5.0-0.43","FL","zq33udleq5","1536","864","0","1","0","5ec527351fc19046fdd6cd59","","null","","","","","","","learning/Slide44.JPG","null","","","","","",""
"html-keyboard-response","136","232603","0.0-5.0-1.43","FL","zq33udleq5","1536","864","0","1","0","5ec527351fc19046fdd6cd59","","null","","","learningBlock1","","","","That was a bim.","null","","","","","",""
"html-keyboard-response","137","233605","0.0-5.0-2.43","FL","zq33udleq5","1536","864","0","1","0","5ec527351fc19046fdd6cd59","","null","","","learningBlock1","","","","<div style=""font-size:60px;""> </div>","null","FL","learning/Slide44.JPG","That was a bim.","","",""
"image-keyboard-response","138","233791","0.0-5.0-0.44","FL","zq33udleq5","1536","864","0","1","0","5ec527351fc19046fdd6cd59","","null","","","","","","","learning/Slide45.JPG","null","","","","","",""
"html-keyboard-response","139","234963","0.0-5.0-1.44","FL","zq33udleq5","1536","864","0","1","0","5ec527351fc19046fdd6cd59","","null","","","learningBlock1","","","","That was a wug.","null","","","","","",""
"html-keyboard-response","140","235978","0.0-5.0-2.44","FL","zq33udleq5","1536","864","0","1","0","5ec527351fc19046fdd6cd59","","null","","","learningBlock1","","","","<div style=""font-size:60px;""> </div>","null","FL","learning/Slide45.JPG","That was a wug.","","",""
"image-keyboard-response","141","236167","0.0-5.0-0.45","FL","zq33udleq5","1536","864","0","1","0","5ec527351fc19046fdd6cd59","","null","","","","","","","learning/Slide46.JPG","null","","","","","",""
"html-keyboard-response","142","237338","0.0-5.0-1.45","FL","zq33udleq5","1536","864","0","1","0","5ec527351fc19046fdd6cd59","","null","","","learningBlock1","","","","That was a dep.","null","","","","","",""
"html-keyboard-response","143","238350","0.0-5.0-2.45","FL","zq33udleq5","1536","864","0","1","0","5ec527351fc19046fdd6cd59","","null","","","learningBlock1","","","","<div style=""font-size:60px;""> </div>","null","FL","learning/Slide46.JPG","That was a dep.","","",""
"image-keyboard-response","144","238527","0.0-5.0-0.46","FL","zq33udleq5","1536","864","0","1","0","5ec527351fc19046fdd6cd59","","null","","","","","","","learning/Slide47.JPG","null","","","","","",""
"html-keyboard-response","145","239683","0.0-5.0-1.46","FL","zq33udleq5","1536","864","0","1","0","5ec527351fc19046fdd6cd59","","null","","","learningBlock1","","","","That was a tob.","null","","","","","",""
"html-keyboard-response","146","240698","0.0-5.0-2.46","FL","zq33udleq5","1536","864","0","1","0","5ec527351fc19046fdd6cd59","","null","","","learningBlock1","","","","<div style=""font-size:60px;""> </div>","null","FL","learning/Slide47.JPG","That was a tob.","","",""
"image-keyboard-response","147","240886","0.0-5.0-0.47","FL","zq33udleq5","1536","864","0","1","0","5ec527351fc19046fdd6cd59","","null","","","","","","","learning/Slide48.JPG","null","","","","","",""
"html-keyboard-response","148","242058","0.0-5.0-1.47","FL","zq33udleq5","1536","864","0","1","0","5ec527351fc19046fdd6cd59","","null","","","learningBlock1","","","","That was a bim.","null","","","","","",""
"html-keyboard-response","149","243072","0.0-5.0-2.47","FL","zq33udleq5","1536","864","0","1","0","5ec527351fc19046fdd6cd59","","null","","","learningBlock1","","","","<div style=""font-size:60px;""> </div>","null","FL","learning/Slide48.JPG","That was a bim.","","",""
"image-keyboard-response","150","243248","0.0-5.0-0.48","FL","zq33udleq5","1536","864","0","1","0","5ec527351fc19046fdd6cd59","","null","","","","","","","learning/Slide49.JPG","null","","","","","",""
"html-keyboard-response","151","244404","0.0-5.0-1.48","FL","zq33udleq5","1536","864","0","1","0","5ec527351fc19046fdd6cd59","","null","","","learningBlock1","","","","That was a dep.","null","","","","","",""
"html-keyboard-response","152","245416","0.0-5.0-2.48","FL","zq33udleq5","1536","864","0","1","0","5ec527351fc19046fdd6cd59","","null","","","learningBlock1","","","","<div style=""font-size:60px;""> </div>","null","FL","learning/Slide49.JPG","That was a dep.","","",""
"image-keyboard-response","153","245605","0.0-5.0-0.49","FL","zq33udleq5","1536","864","0","1","0","5ec527351fc19046fdd6cd59","","null","","","","","","","learning/Slide50.JPG","null","","","","","",""
"html-keyboard-response","154","246777","0.0-5.0-1.49","FL","zq33udleq5","1536","864","0","1","0","5ec527351fc19046fdd6cd59","","null","","","learningBlock1","","","","That was a tob.","null","","","","","",""
"html-keyboard-response","155","247792","0.0-5.0-2.49","FL","zq33udleq5","1536","864","0","1","0","5ec527351fc19046fdd6cd59","","null","","","learningBlock1","","","","<div style=""font-size:60px;""> </div>","null","FL","learning/Slide50.JPG","That was a tob.","","",""
"image-keyboard-response","156","247978","0.0-5.0-0.50","FL","zq33udleq5","1536","864","0","1","0","5ec527351fc19046fdd6cd59","","null","","","","","","","learning/Slide51.JPG","null","","","","","",""
"html-keyboard-response","157","249143","0.0-5.0-1.50","FL","zq33udleq5","1536","864","0","1","0","5ec527351fc19046fdd6cd59","","null","","","learningBlock1","","","","That was a bim.","null","","","","","",""
"html-keyboard-response","158","250159","0.0-5.0-2.50","FL","zq33udleq5","1536","864","0","1","0","5ec527351fc19046fdd6cd59","","null","","","learningBlock1","","","","<div style=""font-size:60px;""> </div>","null","FL","learning/Slide51.JPG","That was a bim.","","",""
"image-keyboard-response","159","250346","0.0-5.0-0.51","FL","zq33udleq5","1536","864","0","1","0","5ec527351fc19046fdd6cd59","","null","","","","","","","learning/Slide52.JPG","null","","","","","",""
"html-keyboard-response","160","251517","0.0-5.0-1.51","FL","zq33udleq5","1536","864","0","1","0","5ec527351fc19046fdd6cd59","","null","","","learningBlock1","","","","That was a wug.","null","","","","","",""
"html-keyboard-response","161","252520","0.0-5.0-2.51","FL","zq33udleq5","1536","864","0","1","0","5ec527351fc19046fdd6cd59","","null","","","learningBlock1","","","","<div style=""font-size:60px;""> </div>","null","FL","learning/Slide52.JPG","That was a wug.","","",""
"image-keyboard-response","162","252709","0.0-5.0-0.52","FL","zq33udleq5","1536","864","0","1","0","5ec527351fc19046fdd6cd59","","null","","","","","","","learning/Slide53.JPG","null","","","","","",""
"html-keyboard-response","163","253864","0.0-5.0-1.52","FL","zq33udleq5","1536","864","0","1","0","5ec527351fc19046fdd6cd59","","null","","","learningBlock1","","","","That was a tob.","null","","","","","",""
"html-keyboard-response","164","254871","0.0-5.0-2.52","FL","zq33udleq5","1536","864","0","1","0","5ec527351fc19046fdd6cd59","","null","","","learningBlock1","","","","<div style=""font-size:60px;""> </div>","null","FL","learning/Slide53.JPG","That was a tob.","","",""
"image-keyboard-response","165","255047","0.0-5.0-0.53","FL","zq33udleq5","1536","864","0","1","0","5ec527351fc19046fdd6cd59","","null","","","","","","","learning/Slide54.JPG","null","","","","","",""
"html-keyboard-response","166","256212","0.0-5.0-1.53","FL","zq33udleq5","1536","864","0","1","0","5ec527351fc19046fdd6cd59","","null","","","learningBlock1","","","","That was a dep.","null","","","","","",""
"html-keyboard-response","167","257214","0.0-5.0-2.53","FL","zq33udleq5","1536","864","0","1","0","5ec527351fc19046fdd6cd59","","null","","","learningBlock1","","","","<div style=""font-size:60px;""> </div>","null","FL","learning/Slide54.JPG","That was a dep.","","",""
"image-keyboard-response","168","257401","0.0-5.0-0.54","FL","zq33udleq5","1536","864","0","1","0","5ec527351fc19046fdd6cd59","","null","","","","","","","learning/Slide55.JPG","null","","","","","",""
"html-keyboard-response","169","258573","0.0-5.0-1.54","FL","zq33udleq5","1536","864","0","1","0","5ec527351fc19046fdd6cd59","","null","","","learningBlock1","","","","That was a bim.","null","","","","","",""
"html-keyboard-response","170","259588","0.0-5.0-2.54","FL","zq33udleq5","1536","864","0","1","0","5ec527351fc19046fdd6cd59","","null","","","learningBlock1","","","","<div style=""font-size:60px;""> </div>","null","FL","learning/Slide55.JPG","That was a bim.","","",""
"image-keyboard-response","171","259777","0.0-5.0-0.55","FL","zq33udleq5","1536","864","0","1","0","5ec527351fc19046fdd6cd59","","null","","","","","","","learning/Slide56.JPG","null","","","","","",""
"html-keyboard-response","172","260947","0.0-5.0-1.55","FL","zq33udleq5","1536","864","0","1","0","5ec527351fc19046fdd6cd59","","null","","","learningBlock1","","","","That was a tob.","null","","","","","",""
"html-keyboard-response","173","261963","0.0-5.0-2.55","FL","zq33udleq5","1536","864","0","1","0","5ec527351fc19046fdd6cd59","","null","","","learningBlock1","","","","<div style=""font-size:60px;""> </div>","null","FL","learning/Slide56.JPG","That was a tob.","","",""
"image-keyboard-response","174","262151","0.0-5.0-0.56","FL","zq33udleq5","1536","864","0","1","0","5ec527351fc19046fdd6cd59","","null","","","","","","","learning/Slide57.JPG","null","","","","","",""
"html-keyboard-response","175","263323","0.0-5.0-1.56","FL","zq33udleq5","1536","864","0","1","0","5ec527351fc19046fdd6cd59","","null","","","learningBlock1","","","","That was a dep.","null","","","","","",""
"html-keyboard-response","176","264338","0.0-5.0-2.56","FL","zq33udleq5","1536","864","0","1","0","5ec527351fc19046fdd6cd59","","null","","","learningBlock1","","","","<div style=""font-size:60px;""> </div>","null","FL","learning/Slide57.JPG","That was a dep.","","",""
"image-keyboard-response","177","264525","0.0-5.0-0.57","FL","zq33udleq5","1536","864","0","1","0","5ec527351fc19046fdd6cd59","","null","","","","","","","learning/Slide58.JPG","null","","","","","",""
"html-keyboard-response","178","265697","0.0-5.0-1.57","FL","zq33udleq5","1536","864","0","1","0","5ec527351fc19046fdd6cd59","","null","","","learningBlock1","","","","That was a wug.","null","","","","","",""
"html-keyboard-response","179","266699","0.0-5.0-2.57","FL","zq33udleq5","1536","864","0","1","0","5ec527351fc19046fdd6cd59","","null","","","learningBlock1","","","","<div style=""font-size:60px;""> </div>","null","FL","learning/Slide58.JPG","That was a wug.","","",""
"image-keyboard-response","180","266886","0.0-5.0-0.58","FL","zq33udleq5","1536","864","0","1","0","5ec527351fc19046fdd6cd59","","null","","","","","","","learning/Slide59.JPG","null","","","","","",""
"html-keyboard-response","181","268042","0.0-5.0-1.58","FL","zq33udleq5","1536","864","0","1","0","5ec527351fc19046fdd6cd59","","null","","","learningBlock1","","","","That was a dep.","null","","","","","",""
"html-keyboard-response","182","269057","0.0-5.0-2.58","FL","zq33udleq5","1536","864","0","1","0","5ec527351fc19046fdd6cd59","","null","","","learningBlock1","","","","<div style=""font-size:60px;""> </div>","null","FL","learning/Slide59.JPG","That was a dep.","","",""
"image-keyboard-response","183","269245","0.0-5.0-0.59","FL","zq33udleq5","1536","864","0","1","0","5ec527351fc19046fdd6cd59","","null","","","","","","","learning/Slide60.JPG","null","","","","","",""
"html-keyboard-response","184","270405","0.0-5.0-1.59","FL","zq33udleq5","1536","864","0","1","0","5ec527351fc19046fdd6cd59","","null","","","learningBlock1","","","","That was a wug.","null","","","","","",""
"html-keyboard-response","185","271416","0.0-5.0-2.59","FL","zq33udleq5","1536","864","0","1","0","5ec527351fc19046fdd6cd59","","null","","","learningBlock1","","","","<div style=""font-size:60px;""> </div>","null","FL","learning/Slide60.JPG","That was a wug.","","",""
"image-keyboard-response","186","271604","0.0-5.0-0.60","FL","zq33udleq5","1536","864","0","1","0","5ec527351fc19046fdd6cd59","","null","","","","","","","learning/Slide61.JPG","null","","","","","",""
"html-keyboard-response","187","272775","0.0-5.0-1.60","FL","zq33udleq5","1536","864","0","1","0","5ec527351fc19046fdd6cd59","","null","","","learningBlock1","","","","That was a bim.","null","","","","","",""
"html-keyboard-response","188","273791","0.0-5.0-2.60","FL","zq33udleq5","1536","864","0","1","0","5ec527351fc19046fdd6cd59","","null","","","learningBlock1","","","","<div style=""font-size:60px;""> </div>","null","FL","learning/Slide61.JPG","That was a bim.","","",""
"image-keyboard-response","189","273979","0.0-5.0-0.61","FL","zq33udleq5","1536","864","0","1","0","5ec527351fc19046fdd6cd59","","null","","","","","","","learning/Slide62.JPG","null","","","","","",""
"html-keyboard-response","190","275151","0.0-5.0-1.61","FL","zq33udleq5","1536","864","0","1","0","5ec527351fc19046fdd6cd59","","null","","","learningBlock1","","","","That was a dep.","null","","","","","",""
"html-keyboard-response","191","276165","0.0-5.0-2.61","FL","zq33udleq5","1536","864","0","1","0","5ec527351fc19046fdd6cd59","","null","","","learningBlock1","","","","<div style=""font-size:60px;""> </div>","null","FL","learning/Slide62.JPG","That was a dep.","","",""
"image-keyboard-response","192","276353","0.0-5.0-0.62","FL","zq33udleq5","1536","864","0","1","0","5ec527351fc19046fdd6cd59","","null","","","","","","","learning/Slide63.JPG","null","","","","","",""
"html-keyboard-response","193","277511","0.0-5.0-1.62","FL","zq33udleq5","1536","864","0","1","0","5ec527351fc19046fdd6cd59","","null","","","learningBlock1","","","","That was a bim.","null","","","","","",""
"html-keyboard-response","194","278526","0.0-5.0-2.62","FL","zq33udleq5","1536","864","0","1","0","5ec527351fc19046fdd6cd59","","null","","","learningBlock1","","","","<div style=""font-size:60px;""> </div>","null","FL","learning/Slide63.JPG","That was a bim.","","",""
"image-keyboard-response","195","278714","0.0-5.0-0.63","FL","zq33udleq5","1536","864","0","1","0","5ec527351fc19046fdd6cd59","","null","","","","","","","learning/Slide64.JPG","null","","","","","",""
"html-keyboard-response","196","279885","0.0-5.0-1.63","FL","zq33udleq5","1536","864","0","1","0","5ec527351fc19046fdd6cd59","","null","","","learningBlock1","","","","That was a tob.","null","","","","","",""
"html-keyboard-response","197","280901","0.0-5.0-2.63","FL","zq33udleq5","1536","864","0","1","0","5ec527351fc19046fdd6cd59","","null","","","learningBlock1","","","","<div style=""font-size:60px;""> </div>","null","FL","learning/Slide64.JPG","That was a tob.","","",""
"image-keyboard-response","198","281089","0.0-5.0-0.64","FL","zq33udleq5","1536","864","0","1","0","5ec527351fc19046fdd6cd59","","null","","","","","","","learning/Slide65.JPG","null","","","","","",""
"html-keyboard-response","199","282260","0.0-5.0-1.64","FL","zq33udleq5","1536","864","0","1","0","5ec527351fc19046fdd6cd59","","null","","","learningBlock1","","","","That was a wug.","null","","","","","",""
"html-keyboard-response","200","283276","0.0-5.0-2.64","FL","zq33udleq5","1536","864","0","1","0","5ec527351fc19046fdd6cd59","","null","","","learningBlock1","","","","<div style=""font-size:60px;""> </div>","null","FL","learning/Slide65.JPG","That was a wug.","","",""
"image-keyboard-response","201","283463","0.0-5.0-0.65","FL","zq33udleq5","1536","864","0","1","0","5ec527351fc19046fdd6cd59","","null","","","","","","","learning/Slide66.JPG","null","","","","","",""
"html-keyboard-response","202","284622","0.0-5.0-1.65","FL","zq33udleq5","1536","864","0","1","0","5ec527351fc19046fdd6cd59","","null","","","learningBlock1","","","","That was a dep.","null","","","","","",""
"html-keyboard-response","203","285636","0.0-5.0-2.65","FL","zq33udleq5","1536","864","0","1","0","5ec527351fc19046fdd6cd59","","null","","","learningBlock1","","","","<div style=""font-size:60px;""> </div>","null","FL","learning/Slide66.JPG","That was a dep.","","",""
"image-keyboard-response","204","285822","0.0-5.0-0.66","FL","zq33udleq5","1536","864","0","1","0","5ec527351fc19046fdd6cd59","","null","","","","","","","learning/Slide67.JPG","null","","","","","",""
"html-keyboard-response","205","286979","0.0-5.0-1.66","FL","zq33udleq5","1536","864","0","1","0","5ec527351fc19046fdd6cd59","","null","","","learningBlock1","","","","That was a tob.","null","","","","","",""
"html-keyboard-response","206","287995","0.0-5.0-2.66","FL","zq33udleq5","1536","864","0","1","0","5ec527351fc19046fdd6cd59","","null","","","learningBlock1","","","","<div style=""font-size:60px;""> </div>","null","FL","learning/Slide67.JPG","That was a tob.","","",""
"image-keyboard-response","207","288181","0.0-5.0-0.67","FL","zq33udleq5","1536","864","0","1","0","5ec527351fc19046fdd6cd59","","null","","","","","","","learning/Slide68.JPG","null","","","","","",""
"html-keyboard-response","208","289354","0.0-5.0-1.67","FL","zq33udleq5","1536","864","0","1","0","5ec527351fc19046fdd6cd59","","null","","","learningBlock1","","","","That was a wug.","null","","","","","",""
"html-keyboard-response","209","290370","0.0-5.0-2.67","FL","zq33udleq5","1536","864","0","1","0","5ec527351fc19046fdd6cd59","","null","","","learningBlock1","","","","<div style=""font-size:60px;""> </div>","null","FL","learning/Slide68.JPG","That was a wug.","","",""
"image-keyboard-response","210","290557","0.0-5.0-0.68","FL","zq33udleq5","1536","864","0","1","0","5ec527351fc19046fdd6cd59","","null","","","","","","","learning/Slide69.JPG","null","","","","","",""
"html-keyboard-response","211","291714","0.0-5.0-1.68","FL","zq33udleq5","1536","864","0","1","0","5ec527351fc19046fdd6cd59","","null","","","learningBlock1","","","","That was a tob.","null","","","","","",""
"html-keyboard-response","212","292730","0.0-5.0-2.68","FL","zq33udleq5","1536","864","0","1","0","5ec527351fc19046fdd6cd59","","null","","","learningBlock1","","","","<div style=""font-size:60px;""> </div>","null","FL","learning/Slide69.JPG","That was a tob.","","",""
"image-keyboard-response","213","292917","0.0-5.0-0.69","FL","zq33udleq5","1536","864","0","1","0","5ec527351fc19046fdd6cd59","","null","","","","","","","learning/Slide70.JPG","null","","","","","",""
"html-keyboard-response","214","294074","0.0-5.0-1.69","FL","zq33udleq5","1536","864","0","1","0","5ec527351fc19046fdd6cd59","","null","","","learningBlock1","","","","That was a dep.","null","","","","","",""
"html-keyboard-response","215","295089","0.0-5.0-2.69","FL","zq33udleq5","1536","864","0","1","0","5ec527351fc19046fdd6cd59","","null","","","learningBlock1","","","","<div style=""font-size:60px;""> </div>","null","FL","learning/Slide70.JPG","That was a dep.","","",""
"image-keyboard-response","216","295267","0.0-5.0-0.70","FL","zq33udleq5","1536","864","0","1","0","5ec527351fc19046fdd6cd59","","null","","","","","","","learning/Slide71.JPG","null","","","","","",""
"html-keyboard-response","217","296449","0.0-5.0-1.70","FL","zq33udleq5","1536","864","0","1","0","5ec527351fc19046fdd6cd59","","null","","","learningBlock1","","","","That was a wug.","null","","","","","",""
"html-keyboard-response","218","297464","0.0-5.0-2.70","FL","zq33udleq5","1536","864","0","1","0","5ec527351fc19046fdd6cd59","","null","","","learningBlock1","","","","<div style=""font-size:60px;""> </div>","null","FL","learning/Slide71.JPG","That was a wug.","","",""
"image-keyboard-response","219","297652","0.0-5.0-0.71","FL","zq33udleq5","1536","864","0","1","0","5ec527351fc19046fdd6cd59","","null","","","","","","","learning/Slide72.JPG","null","","","","","",""
"html-keyboard-response","220","298823","0.0-5.0-1.71","FL","zq33udleq5","1536","864","0","1","0","5ec527351fc19046fdd6cd59","","null","","","learningBlock1","","","","That was a bim.","null","","","","","",""
"html-keyboard-response","221","299838","0.0-5.0-2.71","FL","zq33udleq5","1536","864","0","1","0","5ec527351fc19046fdd6cd59","","null","","","learningBlock1","","","","<div style=""font-size:60px;""> </div>","null","FL","learning/Slide72.JPG","That was a bim.","","",""
"image-keyboard-response","222","300026","0.0-5.0-0.72","FL","zq33udleq5","1536","864","0","1","0","5ec527351fc19046fdd6cd59","","null","","","","","","","learning/Slide73.JPG","null","","","","","",""
"html-keyboard-response","223","301182","0.0-5.0-1.72","FL","zq33udleq5","1536","864","0","1","0","5ec527351fc19046fdd6cd59","","null","","","learningBlock1","","","","That was a wug.","null","","","","","",""
"html-keyboard-response","224","302197","0.0-5.0-2.72","FL","zq33udleq5","1536","864","0","1","0","5ec527351fc19046fdd6cd59","","null","","","learningBlock1","","","","<div style=""font-size:60px;""> </div>","null","FL","learning/Slide73.JPG","That was a wug.","","",""
"image-keyboard-response","225","302384","0.0-5.0-0.73","FL","zq33udleq5","1536","864","0","1","0","5ec527351fc19046fdd6cd59","","null","","","","","","","learning/Slide74.JPG","null","","","","","",""
"html-keyboard-response","226","303541","0.0-5.0-1.73","FL","zq33udleq5","1536","864","0","1","0","5ec527351fc19046fdd6cd59","","null","","","learningBlock1","","","","That was a dep.","null","","","","","",""
"html-keyboard-response","227","304557","0.0-5.0-2.73","FL","zq33udleq5","1536","864","0","1","0","5ec527351fc19046fdd6cd59","","null","","","learningBlock1","","","","<div style=""font-size:60px;""> </div>","null","FL","learning/Slide74.JPG","That was a dep.","","",""
"image-keyboard-response","228","304745","0.0-5.0-0.74","FL","zq33udleq5","1536","864","0","1","0","5ec527351fc19046fdd6cd59","","null","","","","","","","learning/Slide75.JPG","null","","","","","",""
"html-keyboard-response","229","305917","0.0-5.0-1.74","FL","zq33udleq5","1536","864","0","1","0","5ec527351fc19046fdd6cd59","","null","","","learningBlock1","","","","That was a tob.","null","","","","","",""
"html-keyboard-response","230","306932","0.0-5.0-2.74","FL","zq33udleq5","1536","864","0","1","0","5ec527351fc19046fdd6cd59","","null","","","learningBlock1","","","","<div style=""font-size:60px;""> </div>","null","FL","learning/Slide75.JPG","That was a tob.","","",""
"image-keyboard-response","231","307120","0.0-5.0-0.75","FL","zq33udleq5","1536","864","0","1","0","5ec527351fc19046fdd6cd59","","null","","","","","","","learning/Slide76.JPG","null","","","","","",""
"html-keyboard-response","232","308291","0.0-5.0-1.75","FL","zq33udleq5","1536","864","0","1","0","5ec527351fc19046fdd6cd59","","null","","","learningBlock1","","","","That was a bim.","null","","","","","",""
"html-keyboard-response","233","309306","0.0-5.0-2.75","FL","zq33udleq5","1536","864","0","1","0","5ec527351fc19046fdd6cd59","","null","","","learningBlock1","","","","<div style=""font-size:60px;""> </div>","null","FL","learning/Slide76.JPG","That was a bim.","","",""
"image-keyboard-response","234","309493","0.0-5.0-0.76","FL","zq33udleq5","1536","864","0","1","0","5ec527351fc19046fdd6cd59","","null","","","","","","","learning/Slide77.JPG","null","","","","","",""
"html-keyboard-response","235","310665","0.0-5.0-1.76","FL","zq33udleq5","1536","864","0","1","0","5ec527351fc19046fdd6cd59","","null","","","learningBlock1","","","","That was a tob.","null","","","","","",""
"html-keyboard-response","236","311682","0.0-5.0-2.76","FL","zq33udleq5","1536","864","0","1","0","5ec527351fc19046fdd6cd59","","null","","","learningBlock1","","","","<div style=""font-size:60px;""> </div>","null","FL","learning/Slide77.JPG","That was a tob.","","",""
"image-keyboard-response","237","311871","0.0-5.0-0.77","FL","zq33udleq5","1536","864","0","1","0","5ec527351fc19046fdd6cd59","","null","","","","","","","learning/Slide78.JPG","null","","","","","",""
"html-keyboard-response","238","313025","0.0-5.0-1.77","FL","zq33udleq5","1536","864","0","1","0","5ec527351fc19046fdd6cd59","","null","","","learningBlock1","","","","That was a wug.","null","","","","","",""
"html-keyboard-response","239","314040","0.0-5.0-2.77","FL","zq33udleq5","1536","864","0","1","0","5ec527351fc19046fdd6cd59","","null","","","learningBlock1","","","","<div style=""font-size:60px;""> </div>","null","FL","learning/Slide78.JPG","That was a wug.","","",""
"image-keyboard-response","240","314228","0.0-5.0-0.78","FL","zq33udleq5","1536","864","0","1","0","5ec527351fc19046fdd6cd59","","null","","","","","","","learning/Slide79.JPG","null","","","","","",""
"html-keyboard-response","241","315401","0.0-5.0-1.78","FL","zq33udleq5","1536","864","0","1","0","5ec527351fc19046fdd6cd59","","null","","","learningBlock1","","","","That was a bim.","null","","","","","",""
"html-keyboard-response","242","316415","0.0-5.0-2.78","FL","zq33udleq5","1536","864","0","1","0","5ec527351fc19046fdd6cd59","","null","","","learningBlock1","","","","<div style=""font-size:60px;""> </div>","null","FL","learning/Slide79.JPG","That was a bim.","","",""
"image-keyboard-response","243","316603","0.0-5.0-0.79","FL","zq33udleq5","1536","864","0","1","0","5ec527351fc19046fdd6cd59","","null","","","","","","","learning/Slide80.JPG","null","","","","","",""
"html-keyboard-response","244","317775","0.0-5.0-1.79","FL","zq33udleq5","1536","864","0","1","0","5ec527351fc19046fdd6cd59","","null","","","learningBlock1","","","","That was a tob.","null","","","","","",""
"html-keyboard-response","245","318791","0.0-5.0-2.79","FL","zq33udleq5","1536","864","0","1","0","5ec527351fc19046fdd6cd59","","null","","","learningBlock1","","","","<div style=""font-size:60px;""> </div>","null","FL","learning/Slide80.JPG","That was a tob.","","",""
"instructions","246","323375","0.0-6.0","FL","zq33udleq5","1536","864","0","1","0","5ec527351fc19046fdd6cd59","","NA","","[{""page_index"":0,""viewing_time"":4582.350000000151}]","instructions","","","","","","","","","","",""
"image-keyboard-response","247","323558","0.0-7.0-0.0","FL","zq33udleq5","1536","864","0","1","0","5ec527351fc19046fdd6cd59","","null","","","","","","","learning/Slide81.JPG","null","","","","","",""
"html-keyboard-response","248","324728","0.0-7.0-1.0","FL","zq33udleq5","1536","864","0","1","0","5ec527351fc19046fdd6cd59","","null","","","learningBlock2","","","","That was a wug.","null","","","","","",""
"html-keyboard-response","249","325731","0.0-7.0-2.0","FL","zq33udleq5","1536","864","0","1","0","5ec527351fc19046fdd6cd59","","null","","","learningBlock2","","","","<div style=""font-size:60px;""> </div>","null","FL","learning/Slide81.JPG","That was a wug.","","",""
"image-keyboard-response","250","325918","0.0-7.0-0.1","FL","zq33udleq5","1536","864","0","1","0","5ec527351fc19046fdd6cd59","","null","","","","","","","learning/Slide82.JPG","null","","","","","",""
"html-keyboard-response","251","327088","0.0-7.0-1.1","FL","zq33udleq5","1536","864","0","1","0","5ec527351fc19046fdd6cd59","","null","","","learningBlock2","","","","That was a bim.","null","","","","","",""
"html-keyboard-response","252","328103","0.0-7.0-2.1","FL","zq33udleq5","1536","864","0","1","0","5ec527351fc19046fdd6cd59","","null","","","learningBlock2","","","","<div style=""font-size:60px;""> </div>","null","FL","learning/Slide82.JPG","That was a bim.","","",""
"image-keyboard-response","253","328292","0.0-7.0-0.2","FL","zq33udleq5","1536","864","0","1","0","5ec527351fc19046fdd6cd59","","null","","","","","","","learning/Slide83.JPG","null","","","","","",""
"html-keyboard-response","254","329462","0.0-7.0-1.2","FL","zq33udleq5","1536","864","0","1","0","5ec527351fc19046fdd6cd59","","null","","","learningBlock2","","","","That was a wug.","null","","","","","",""
"html-keyboard-response","255","330477","0.0-7.0-2.2","FL","zq33udleq5","1536","864","0","1","0","5ec527351fc19046fdd6cd59","","null","","","learningBlock2","","","","<div style=""font-size:60px;""> </div>","null","FL","learning/Slide83.JPG","That was a wug.","","",""
"image-keyboard-response","256","330654","0.0-7.0-0.3","FL","zq33udleq5","1536","864","0","1","0","5ec527351fc19046fdd6cd59","","null","","","","","","","learning/Slide84.JPG","null","","","","","",""
"html-keyboard-response","257","331822","0.0-7.0-1.3","FL","zq33udleq5","1536","864","0","1","0","5ec527351fc19046fdd6cd59","","null","","","learningBlock2","","","","That was a dep.","null","","","","","",""
"html-keyboard-response","258","332823","0.0-7.0-2.3","FL","zq33udleq5","1536","864","0","1","0","5ec527351fc19046fdd6cd59","","null","","","learningBlock2","","","","<div style=""font-size:60px;""> </div>","null","FL","learning/Slide84.JPG","That was a dep.","","",""
"image-keyboard-response","259","333010","0.0-7.0-0.4","FL","zq33udleq5","1536","864","0","1","0","5ec527351fc19046fdd6cd59","","null","","","","","","","learning/Slide85.JPG","null","","","","","",""
"html-keyboard-response","260","334166","0.0-7.0-1.4","FL","zq33udleq5","1536","864","0","1","0","5ec527351fc19046fdd6cd59","","null","","","learningBlock2","","","","That was a bim.","null","","","","","",""
"html-keyboard-response","261","335168","0.0-7.0-2.4","FL","zq33udleq5","1536","864","0","1","0","5ec527351fc19046fdd6cd59","","null","","","learningBlock2","","","","<div style=""font-size:60px;""> </div>","null","FL","learning/Slide85.JPG","That was a bim.","","",""
"image-keyboard-response","262","335355","0.0-7.0-0.5","FL","zq33udleq5","1536","864","0","1","0","5ec527351fc19046fdd6cd59","","null","","","","","","","learning/Slide86.JPG","null","","","","","",""
"html-keyboard-response","263","336525","0.0-7.0-1.5","FL","zq33udleq5","1536","864","0","1","0","5ec527351fc19046fdd6cd59","","null","","","learningBlock2","","","","That was a tob.","null","","","","","",""
"html-keyboard-response","264","337541","0.0-7.0-2.5","FL","zq33udleq5","1536","864","0","1","0","5ec527351fc19046fdd6cd59","","null","","","learningBlock2","","","","<div style=""font-size:60px;""> </div>","null","FL","learning/Slide86.JPG","That was a tob.","","",""
"image-keyboard-response","265","337729","0.0-7.0-0.6","FL","zq33udleq5","1536","864","0","1","0","5ec527351fc19046fdd6cd59","","null","","","","","","","learning/Slide87.JPG","null","","","","","",""
"html-keyboard-response","266","338901","0.0-7.0-1.6","FL","zq33udleq5","1536","864","0","1","0","5ec527351fc19046fdd6cd59","","null","","","learningBlock2","","","","That was a wug.","null","","","","","",""
"html-keyboard-response","267","339916","0.0-7.0-2.6","FL","zq33udleq5","1536","864","0","1","0","5ec527351fc19046fdd6cd59","","null","","","learningBlock2","","","","<div style=""font-size:60px;""> </div>","null","FL","learning/Slide87.JPG","That was a wug.","","",""
"image-keyboard-response","268","340092","0.0-7.0-0.7","FL","zq33udleq5","1536","864","0","1","0","5ec527351fc19046fdd6cd59","","null","","","","","","","learning/Slide88.JPG","null","","","","","",""
"html-keyboard-response","269","341260","0.0-7.0-1.7","FL","zq33udleq5","1536","864","0","1","0","5ec527351fc19046fdd6cd59","","null","","","learningBlock2","","","","That was a tob.","null","","","","","",""
"html-keyboard-response","270","342275","0.0-7.0-2.7","FL","zq33udleq5","1536","864","0","1","0","5ec527351fc19046fdd6cd59","","null","","","learningBlock2","","","","<div style=""font-size:60px;""> </div>","null","FL","learning/Slide88.JPG","That was a tob.","","",""
"image-keyboard-response","271","342464","0.0-7.0-0.8","FL","zq33udleq5","1536","864","0","1","0","5ec527351fc19046fdd6cd59","","null","","","","","","","learning/Slide89.JPG","null","","","","","",""
"html-keyboard-response","272","343636","0.0-7.0-1.8","FL","zq33udleq5","1536","864","0","1","0","5ec527351fc19046fdd6cd59","","null","","","learningBlock2","","","","That was a bim.","null","","","","","",""
"html-keyboard-response","273","344651","0.0-7.0-2.8","FL","zq33udleq5","1536","864","0","1","0","5ec527351fc19046fdd6cd59","","null","","","learningBlock2","","","","<div style=""font-size:60px;""> </div>","null","FL","learning/Slide89.JPG","That was a bim.","","",""
"image-keyboard-response","274","344838","0.0-7.0-0.9","FL","zq33udleq5","1536","864","0","1","0","5ec527351fc19046fdd6cd59","","null","","","","","","","learning/Slide90.JPG","null","","","","","",""
"html-keyboard-response","275","345995","0.0-7.0-1.9","FL","zq33udleq5","1536","864","0","1","0","5ec527351fc19046fdd6cd59","","null","","","learningBlock2","","","","That was a dep.","null","","","","","",""
"html-keyboard-response","276","347010","0.0-7.0-2.9","FL","zq33udleq5","1536","864","0","1","0","5ec527351fc19046fdd6cd59","","null","","","learningBlock2","","","","<div style=""font-size:60px;""> </div>","null","FL","learning/Slide90.JPG","That was a dep.","","",""
"image-keyboard-response","277","347196","0.0-7.0-0.10","FL","zq33udleq5","1536","864","0","1","0","5ec527351fc19046fdd6cd59","","null","","","","","","","learning/Slide91.JPG","null","","","","","",""
"html-keyboard-response","278","348359","0.0-7.0-1.10","FL","zq33udleq5","1536","864","0","1","0","5ec527351fc19046fdd6cd59","","null","","","learningBlock2","","","","That was a wug.","null","","","","","",""
"html-keyboard-response","279","349370","0.0-7.0-2.10","FL","zq33udleq5","1536","864","0","1","0","5ec527351fc19046fdd6cd59","","null","","","learningBlock2","","","","<div style=""font-size:60px;""> </div>","null","FL","learning/Slide91.JPG","That was a wug.","","",""
"image-keyboard-response","280","349558","0.0-7.0-0.11","FL","zq33udleq5","1536","864","0","1","0","5ec527351fc19046fdd6cd59","","null","","","","","","","learning/Slide92.JPG","null","","","","","",""
"html-keyboard-response","281","350730","0.0-7.0-1.11","FL","zq33udleq5","1536","864","0","1","0","5ec527351fc19046fdd6cd59","","null","","","learningBlock2","","","","That was a tob.","null","","","","","",""
"html-keyboard-response","282","351745","0.0-7.0-2.11","FL","zq33udleq5","1536","864","0","1","0","5ec527351fc19046fdd6cd59","","null","","","learningBlock2","","","","<div style=""font-size:60px;""> </div>","null","FL","learning/Slide92.JPG","That was a tob.","","",""
"image-keyboard-response","283","351934","0.0-7.0-0.12","FL","zq33udleq5","1536","864","0","1","0","5ec527351fc19046fdd6cd59","","null","","","","","","","learning/Slide93.JPG","null","","","","","",""
"html-keyboard-response","284","353103","0.0-7.0-1.12","FL","zq33udleq5","1536","864","0","1","0","5ec527351fc19046fdd6cd59","","null","","","learningBlock2","","","","That was a bim.","null","","","","","",""
"html-keyboard-response","285","354105","0.0-7.0-2.12","FL","zq33udleq5","1536","864","0","1","0","5ec527351fc19046fdd6cd59","","null","","","learningBlock2","","","","<div style=""font-size:60px;""> </div>","null","FL","learning/Slide93.JPG","That was a bim.","","",""
"image-keyboard-response","286","354292","0.0-7.0-0.13","FL","zq33udleq5","1536","864","0","1","0","5ec527351fc19046fdd6cd59","","null","","","","","","","learning/Slide94.JPG","null","","","","","",""
"html-keyboard-response","287","355463","0.0-7.0-1.13","FL","zq33udleq5","1536","864","0","1","0","5ec527351fc19046fdd6cd59","","null","","","learningBlock2","","","","That was a tob.","null","","","","","",""
"html-keyboard-response","288","356475","0.0-7.0-2.13","FL","zq33udleq5","1536","864","0","1","0","5ec527351fc19046fdd6cd59","","null","","","learningBlock2","","","","<div style=""font-size:60px;""> </div>","null","FL","learning/Slide94.JPG","That was a tob.","","",""
"image-keyboard-response","289","356666","0.0-7.0-0.14","FL","zq33udleq5","1536","864","0","1","0","5ec527351fc19046fdd6cd59","","null","","","","","","","learning/Slide95.JPG","null","","","","","",""
"html-keyboard-response","290","357823","0.0-7.0-1.14","FL","zq33udleq5","1536","864","0","1","0","5ec527351fc19046fdd6cd59","","null","","","learningBlock2","","","","That was a wug.","null","","","","","",""
"html-keyboard-response","291","358826","0.0-7.0-2.14","FL","zq33udleq5","1536","864","0","1","0","5ec527351fc19046fdd6cd59","","null","","","learningBlock2","","","","<div style=""font-size:60px;""> </div>","null","FL","learning/Slide95.JPG","That was a wug.","","",""
"image-keyboard-response","292","359002","0.0-7.0-0.15","FL","zq33udleq5","1536","864","0","1","0","5ec527351fc19046fdd6cd59","","null","","","","","","","learning/Slide96.JPG","null","","","","","",""
"html-keyboard-response","293","360167","0.0-7.0-1.15","FL","zq33udleq5","1536","864","0","1","0","5ec527351fc19046fdd6cd59","","null","","","learningBlock2","","","","That was a tob.","null","","","","","",""
"html-keyboard-response","294","361168","0.0-7.0-2.15","FL","zq33udleq5","1536","864","0","1","0","5ec527351fc19046fdd6cd59","","null","","","learningBlock2","","","","<div style=""font-size:60px;""> </div>","null","FL","learning/Slide96.JPG","That was a tob.","","",""
"image-keyboard-response","295","361356","0.0-7.0-0.16","FL","zq33udleq5","1536","864","0","1","0","5ec527351fc19046fdd6cd59","","null","","","","","","","learning/Slide97.JPG","null","","","","","",""
"html-keyboard-response","296","362526","0.0-7.0-1.16","FL","zq33udleq5","1536","864","0","1","0","5ec527351fc19046fdd6cd59","","null","","","learningBlock2","","","","That was a dep.","null","","","","","",""
"html-keyboard-response","297","363542","0.0-7.0-2.16","FL","zq33udleq5","1536","864","0","1","0","5ec527351fc19046fdd6cd59","","null","","","learningBlock2","","","","<div style=""font-size:60px;""> </div>","null","FL","learning/Slide97.JPG","That was a dep.","","",""
"image-keyboard-response","298","363719","0.0-7.0-0.17","FL","zq33udleq5","1536","864","0","1","0","5ec527351fc19046fdd6cd59","","null","","","","","","","learning/Slide98.JPG","null","","","","","",""
"html-keyboard-response","299","364885","0.0-7.0-1.17","FL","zq33udleq5","1536","864","0","1","0","5ec527351fc19046fdd6cd59","","null","","","learningBlock2","","","","That was a bim.","null","","","","","",""
"html-keyboard-response","300","365887","0.0-7.0-2.17","FL","zq33udleq5","1536","864","0","1","0","5ec527351fc19046fdd6cd59","","null","","","learningBlock2","","","","<div style=""font-size:60px;""> </div>","null","FL","learning/Slide98.JPG","That was a bim.","","",""
"image-keyboard-response","301","366063","0.0-7.0-0.18","FL","zq33udleq5","1536","864","0","1","0","5ec527351fc19046fdd6cd59","","null","","","","","","","learning/Slide99.JPG","null","","","","","",""
"html-keyboard-response","302","367228","0.0-7.0-1.18","FL","zq33udleq5","1536","864","0","1","0","5ec527351fc19046fdd6cd59","","null","","","learningBlock2","","","","That was a dep.","null","","","","","",""
"html-keyboard-response","303","368229","0.0-7.0-2.18","FL","zq33udleq5","1536","864","0","1","0","5ec527351fc19046fdd6cd59","","null","","","learningBlock2","","","","<div style=""font-size:60px;""> </div>","null","FL","learning/Slide99.JPG","That was a dep.","","",""
"image-keyboard-response","304","368417","0.0-7.0-0.19","FL","zq33udleq5","1536","864","0","1","0","5ec527351fc19046fdd6cd59","","null","","","","","","","learning/Slide100.JPG","null","","","","","",""
"html-keyboard-response","305","369579","0.0-7.0-1.19","FL","zq33udleq5","1536","864","0","1","0","5ec527351fc19046fdd6cd59","","null","","","learningBlock2","","","","That was a bim.","null","","","","","",""
"html-keyboard-response","306","370590","0.0-7.0-2.19","FL","zq33udleq5","1536","864","0","1","0","5ec527351fc19046fdd6cd59","","null","","","learningBlock2","","","","<div style=""font-size:60px;""> </div>","null","FL","learning/Slide100.JPG","That was a bim.","","",""
"image-keyboard-response","307","370778","0.0-7.0-0.20","FL","zq33udleq5","1536","864","0","1","0","5ec527351fc19046fdd6cd59","","null","","","","","","","learning/Slide101.JPG","null","","","","","",""
"html-keyboard-response","308","371950","0.0-7.0-1.20","FL","zq33udleq5","1536","864","0","1","0","5ec527351fc19046fdd6cd59","","null","","","learningBlock2","","","","That was a tob.","null","","","","","",""
"html-keyboard-response","309","372964","0.0-7.0-2.20","FL","zq33udleq5","1536","864","0","1","0","5ec527351fc19046fdd6cd59","","null","","","learningBlock2","","","","<div style=""font-size:60px;""> </div>","null","FL","learning/Slide101.JPG","That was a tob.","","",""
"image-keyboard-response","310","373150","0.0-7.0-0.21","FL","zq33udleq5","1536","864","0","1","0","5ec527351fc19046fdd6cd59","","null","","","","","","","learning/Slide102.JPG","null","","","","","",""
"html-keyboard-response","311","374308","0.0-7.0-1.21","FL","zq33udleq5","1536","864","0","1","0","5ec527351fc19046fdd6cd59","","null","","","learningBlock2","","","","That was a bim.","null","","","","","",""
"html-keyboard-response","312","375313","0.0-7.0-2.21","FL","zq33udleq5","1536","864","0","1","0","5ec527351fc19046fdd6cd59","","null","","","learningBlock2","","","","<div style=""font-size:60px;""> </div>","null","FL","learning/Slide102.JPG","That was a bim.","","",""
"image-keyboard-response","313","375501","0.0-7.0-0.22","FL","zq33udleq5","1536","864","0","1","0","5ec527351fc19046fdd6cd59","","null","","","","","","","learning/Slide103.JPG","null","","","","","",""
"html-keyboard-response","314","376673","0.0-7.0-1.22","FL","zq33udleq5","1536","864","0","1","0","5ec527351fc19046fdd6cd59","","null","","","learningBlock2","","","","That was a dep.","null","","","","","",""
"html-keyboard-response","315","377688","0.0-7.0-2.22","FL","zq33udleq5","1536","864","0","1","0","5ec527351fc19046fdd6cd59","","null","","","learningBlock2","","","","<div style=""font-size:60px;""> </div>","null","FL","learning/Slide103.JPG","That was a dep.","","",""
"image-keyboard-response","316","377877","0.0-7.0-0.23","FL","zq33udleq5","1536","864","0","1","0","5ec527351fc19046fdd6cd59","","null","","","","","","","learning/Slide104.JPG","null","","","","","",""
"html-keyboard-response","317","379046","0.0-7.0-1.23","FL","zq33udleq5","1536","864","0","1","0","5ec527351fc19046fdd6cd59","","null","","","learningBlock2","","","","That was a tob.","null","","","","","",""
"html-keyboard-response","318","380063","0.0-7.0-2.23","FL","zq33udleq5","1536","864","0","1","0","5ec527351fc19046fdd6cd59","","null","","","learningBlock2","","","","<div style=""font-size:60px;""> </div>","null","FL","learning/Slide104.JPG","That was a tob.","","",""
"image-keyboard-response","319","380250","0.0-7.0-0.24","FL","zq33udleq5","1536","864","0","1","0","5ec527351fc19046fdd6cd59","","null","","","","","","","learning/Slide105.JPG","null","","","","","",""
"html-keyboard-response","320","381422","0.0-7.0-1.24","FL","zq33udleq5","1536","864","0","1","0","5ec527351fc19046fdd6cd59","","null","","","learningBlock2","","","","That was a dep.","null","","","","","",""
"html-keyboard-response","321","382438","0.0-7.0-2.24","FL","zq33udleq5","1536","864","0","1","0","5ec527351fc19046fdd6cd59","","null","","","learningBlock2","","","","<div style=""font-size:60px;""> </div>","null","FL","learning/Slide105.JPG","That was a dep.","","",""
"image-keyboard-response","322","382627","0.0-7.0-0.25","FL","zq33udleq5","1536","864","0","1","0","5ec527351fc19046fdd6cd59","","null","","","","","","","learning/Slide106.JPG","null","","","","","",""
"html-keyboard-response","323","383796","0.0-7.0-1.25","FL","zq33udleq5","1536","864","0","1","0","5ec527351fc19046fdd6cd59","","null","","","learningBlock2","","","","That was a wug.","null","","","","","",""
"html-keyboard-response","324","384807","0.0-7.0-2.25","FL","zq33udleq5","1536","864","0","1","0","5ec527351fc19046fdd6cd59","","null","","","learningBlock2","","","","<div style=""font-size:60px;""> </div>","null","FL","learning/Slide106.JPG","That was a wug.","","",""
"image-keyboard-response","325","384995","0.0-7.0-0.26","FL","zq33udleq5","1536","864","0","1","0","5ec527351fc19046fdd6cd59","","null","","","","","","","learning/Slide107.JPG","null","","","","","",""
"html-keyboard-response","326","386165","0.0-7.0-1.26","FL","zq33udleq5","1536","864","0","1","0","5ec527351fc19046fdd6cd59","","null","","","learningBlock2","","","","That was a bim.","null","","","","","",""
"html-keyboard-response","327","387168","0.0-7.0-2.26","FL","zq33udleq5","1536","864","0","1","0","5ec527351fc19046fdd6cd59","","null","","","learningBlock2","","","","<div style=""font-size:60px;""> </div>","null","FL","learning/Slide107.JPG","That was a bim.","","",""
"image-keyboard-response","328","387356","0.0-7.0-0.27","FL","zq33udleq5","1536","864","0","1","0","5ec527351fc19046fdd6cd59","","null","","","","","","","learning/Slide108.JPG","null","","","","","",""
"html-keyboard-response","329","388526","0.0-7.0-1.27","FL","zq33udleq5","1536","864","0","1","0","5ec527351fc19046fdd6cd59","","null","","","learningBlock2","","","","That was a dep.","null","","","","","",""
"html-keyboard-response","330","389542","0.0-7.0-2.27","FL","zq33udleq5","1536","864","0","1","0","5ec527351fc19046fdd6cd59","","null","","","learningBlock2","","","","<div style=""font-size:60px;""> </div>","null","FL","learning/Slide108.JPG","That was a dep.","","",""
"image-keyboard-response","331","389729","0.0-7.0-0.28","FL","zq33udleq5","1536","864","0","1","0","5ec527351fc19046fdd6cd59","","null","","","","","","","learning/Slide109.JPG","null","","","","","",""
"html-keyboard-response","332","390899","0.0-7.0-1.28","FL","zq33udleq5","1536","864","0","1","0","5ec527351fc19046fdd6cd59","","null","","","learningBlock2","","","","That was a wug.","null","","","","","",""
"html-keyboard-response","333","391901","0.0-7.0-2.28","FL","zq33udleq5","1536","864","0","1","0","5ec527351fc19046fdd6cd59","","null","","","learningBlock2","","","","<div style=""font-size:60px;""> </div>","null","FL","learning/Slide109.JPG","That was a wug.","","",""
"image-keyboard-response","334","392089","0.0-7.0-0.29","FL","zq33udleq5","1536","864","0","1","0","5ec527351fc19046fdd6cd59","","null","","","","","","","learning/Slide110.JPG","null","","","","","",""
"html-keyboard-response","335","393260","0.0-7.0-1.29","FL","zq33udleq5","1536","864","0","1","0","5ec527351fc19046fdd6cd59","","null","","","learningBlock2","","","","That was a bim.","null","","","","","",""
"html-keyboard-response","336","394276","0.0-7.0-2.29","FL","zq33udleq5","1536","864","0","1","0","5ec527351fc19046fdd6cd59","","null","","","learningBlock2","","","","<div style=""font-size:60px;""> </div>","null","FL","learning/Slide110.JPG","That was a bim.","","",""
"image-keyboard-response","337","394463","0.0-7.0-0.30","FL","zq33udleq5","1536","864","0","1","0","5ec527351fc19046fdd6cd59","","null","","","","","","","learning/Slide111.JPG","null","","","","","",""
"html-keyboard-response","338","395636","0.0-7.0-1.30","FL","zq33udleq5","1536","864","0","1","0","5ec527351fc19046fdd6cd59","","null","","","learningBlock2","","","","That was a tob.","null","","","","","",""
"html-keyboard-response","339","396651","0.0-7.0-2.30","FL","zq33udleq5","1536","864","0","1","0","5ec527351fc19046fdd6cd59","","null","","","learningBlock2","","","","<div style=""font-size:60px;""> </div>","null","FL","learning/Slide111.JPG","That was a tob.","","",""
"image-keyboard-response","340","396838","0.0-7.0-0.31","FL","zq33udleq5","1536","864","0","1","0","5ec527351fc19046fdd6cd59","","null","","","","","","","learning/Slide112.JPG","null","","","","","",""
"html-keyboard-response","341","398010","0.0-7.0-1.31","FL","zq33udleq5","1536","864","0","1","0","5ec527351fc19046fdd6cd59","","null","","","learningBlock2","","","","That was a wug.","null","","","","","",""
"html-keyboard-response","342","399012","0.0-7.0-2.31","FL","zq33udleq5","1536","864","0","1","0","5ec527351fc19046fdd6cd59","","null","","","learningBlock2","","","","<div style=""font-size:60px;""> </div>","null","FL","learning/Slide112.JPG","That was a wug.","","",""
"image-keyboard-response","343","399199","0.0-7.0-0.32","FL","zq33udleq5","1536","864","0","1","0","5ec527351fc19046fdd6cd59","","null","","","","","","","learning/Slide113.JPG","null","","","","","",""
"html-keyboard-response","344","400370","0.0-7.0-1.32","FL","zq33udleq5","1536","864","0","1","0","5ec527351fc19046fdd6cd59","","null","","","learningBlock2","","","","That was a tob.","null","","","","","",""
"html-keyboard-response","345","401385","0.0-7.0-2.32","FL","zq33udleq5","1536","864","0","1","0","5ec527351fc19046fdd6cd59","","null","","","learningBlock2","","","","<div style=""font-size:60px;""> </div>","null","FL","learning/Slide113.JPG","That was a tob.","","",""
"image-keyboard-response","346","401572","0.0-7.0-0.33","FL","zq33udleq5","1536","864","0","1","0","5ec527351fc19046fdd6cd59","","null","","","","","","","learning/Slide114.JPG","null","","","","","",""
"html-keyboard-response","347","402728","0.0-7.0-1.33","FL","zq33udleq5","1536","864","0","1","0","5ec527351fc19046fdd6cd59","","null","","","learningBlock2","","","","That was a wug.","null","","","","","",""
"html-keyboard-response","348","403743","0.0-7.0-2.33","FL","zq33udleq5","1536","864","0","1","0","5ec527351fc19046fdd6cd59","","null","","","learningBlock2","","","","<div style=""font-size:60px;""> </div>","null","FL","learning/Slide114.JPG","That was a wug.","","",""
"image-keyboard-response","349","403933","0.0-7.0-0.34","FL","zq33udleq5","1536","864","0","1","0","5ec527351fc19046fdd6cd59","","null","","","","","","","learning/Slide115.JPG","null","","","","","",""
"html-keyboard-response","350","405104","0.0-7.0-1.34","FL","zq33udleq5","1536","864","0","1","0","5ec527351fc19046fdd6cd59","","null","","","learningBlock2","","","","That was a bim.","null","","","","","",""
"html-keyboard-response","351","406119","0.0-7.0-2.34","FL","zq33udleq5","1536","864","0","1","0","5ec527351fc19046fdd6cd59","","null","","","learningBlock2","","","","<div style=""font-size:60px;""> </div>","null","FL","learning/Slide115.JPG","That was a bim.","","",""
"image-keyboard-response","352","406307","0.0-7.0-0.35","FL","zq33udleq5","1536","864","0","1","0","5ec527351fc19046fdd6cd59","","null","","","","","","","learning/Slide116.JPG","null","","","","","",""
"html-keyboard-response","353","407479","0.0-7.0-1.35","FL","zq33udleq5","1536","864","0","1","0","5ec527351fc19046fdd6cd59","","null","","","learningBlock2","","","","That was a dep.","null","","","","","",""
"html-keyboard-response","354","408494","0.0-7.0-2.35","FL","zq33udleq5","1536","864","0","1","0","5ec527351fc19046fdd6cd59","","null","","","learningBlock2","","","","<div style=""font-size:60px;""> </div>","null","FL","learning/Slide116.JPG","That was a dep.","","",""
"image-keyboard-response","355","408681","0.0-7.0-0.36","FL","zq33udleq5","1536","864","0","1","0","5ec527351fc19046fdd6cd59","","null","","","","","","","learning/Slide117.JPG","null","","","","","",""
"html-keyboard-response","356","409841","0.0-7.0-1.36","FL","zq33udleq5","1536","864","0","1","0","5ec527351fc19046fdd6cd59","","null","","","learningBlock2","","","","That was a tob.","null","","","","","",""
"html-keyboard-response","357","410854","0.0-7.0-2.36","FL","zq33udleq5","1536","864","0","1","0","5ec527351fc19046fdd6cd59","","null","","","learningBlock2","","","","<div style=""font-size:60px;""> </div>","null","FL","learning/Slide117.JPG","That was a tob.","","",""
"image-keyboard-response","358","411041","0.0-7.0-0.37","FL","zq33udleq5","1536","864","0","1","0","5ec527351fc19046fdd6cd59","","null","","","","","","","learning/Slide118.JPG","null","","","","","",""
"html-keyboard-response","359","412198","0.0-7.0-1.37","FL","zq33udleq5","1536","864","0","1","0","5ec527351fc19046fdd6cd59","","null","","","learningBlock2","","","","That was a dep.","null","","","","","",""
"html-keyboard-response","360","413213","0.0-7.0-2.37","FL","zq33udleq5","1536","864","0","1","0","5ec527351fc19046fdd6cd59","","null","","","learningBlock2","","","","<div style=""font-size:60px;""> </div>","null","FL","learning/Slide118.JPG","That was a dep.","","",""
"image-keyboard-response","361","413400","0.0-7.0-0.38","FL","zq33udleq5","1536","864","0","1","0","5ec527351fc19046fdd6cd59","","null","","","","","","","learning/Slide119.JPG","null","","","","","",""
"html-keyboard-response","362","414558","0.0-7.0-1.38","FL","zq33udleq5","1536","864","0","1","0","5ec527351fc19046fdd6cd59","","null","","","learningBlock2","","","","That was a wug.","null","","","","","",""
"html-keyboard-response","363","415573","0.0-7.0-2.38","FL","zq33udleq5","1536","864","0","1","0","5ec527351fc19046fdd6cd59","","null","","","learningBlock2","","","","<div style=""font-size:60px;""> </div>","null","FL","learning/Slide119.JPG","That was a wug.","","",""
"image-keyboard-response","364","415761","0.0-7.0-0.39","FL","zq33udleq5","1536","864","0","1","0","5ec527351fc19046fdd6cd59","","null","","","","","","","learning/Slide120.JPG","null","","","","","",""
"html-keyboard-response","365","416915","0.0-7.0-1.39","FL","zq33udleq5","1536","864","0","1","0","5ec527351fc19046fdd6cd59","","null","","","learningBlock2","","","","That was a dep.","null","","","","","",""
"html-keyboard-response","366","417932","0.0-7.0-2.39","FL","zq33udleq5","1536","864","0","1","0","5ec527351fc19046fdd6cd59","","null","","","learningBlock2","","","","<div style=""font-size:60px;""> </div>","null","FL","learning/Slide120.JPG","That was a dep.","","",""
"image-keyboard-response","367","418117","0.0-7.0-0.40","FL","zq33udleq5","1536","864","0","1","0","5ec527351fc19046fdd6cd59","","null","","","","","","","learning/Slide121.JPG","null","","","","","",""
"html-keyboard-response","368","419274","0.0-7.0-1.40","FL","zq33udleq5","1536","864","0","1","0","5ec527351fc19046fdd6cd59","","null","","","learningBlock2","","","","That was a bim.","null","","","","","",""
"html-keyboard-response","369","420290","0.0-7.0-2.40","FL","zq33udleq5","1536","864","0","1","0","5ec527351fc19046fdd6cd59","","null","","","learningBlock2","","","","<div style=""font-size:60px;""> </div>","null","FL","learning/Slide121.JPG","That was a bim.","","",""
"image-keyboard-response","370","420478","0.0-7.0-0.41","FL","zq33udleq5","1536","864","0","1","0","5ec527351fc19046fdd6cd59","","null","","","","","","","learning/Slide122.JPG","null","","","","","",""
"html-keyboard-response","371","421646","0.0-7.0-1.41","FL","zq33udleq5","1536","864","0","1","0","5ec527351fc19046fdd6cd59","","null","","","learningBlock2","","","","That was a wug.","null","","","","","",""
"html-keyboard-response","372","422650","0.0-7.0-2.41","FL","zq33udleq5","1536","864","0","1","0","5ec527351fc19046fdd6cd59","","null","","","learningBlock2","","","","<div style=""font-size:60px;""> </div>","null","FL","learning/Slide122.JPG","That was a wug.","","",""
"image-keyboard-response","373","422837","0.0-7.0-0.42","FL","zq33udleq5","1536","864","0","1","0","5ec527351fc19046fdd6cd59","","null","","","","","","","learning/Slide123.JPG","null","","","","","",""
"html-keyboard-response","374","423994","0.0-7.0-1.42","FL","zq33udleq5","1536","864","0","1","0","5ec527351fc19046fdd6cd59","","null","","","learningBlock2","","","","That was a bim.","null","","","","","",""
"html-keyboard-response","375","425010","0.0-7.0-2.42","FL","zq33udleq5","1536","864","0","1","0","5ec527351fc19046fdd6cd59","","null","","","learningBlock2","","","","<div style=""font-size:60px;""> </div>","null","FL","learning/Slide123.JPG","That was a bim.","","",""
"image-keyboard-response","376","425197","0.0-7.0-0.43","FL","zq33udleq5","1536","864","0","1","0","5ec527351fc19046fdd6cd59","","null","","","","","","","learning/Slide124.JPG","null","","","","","",""
"html-keyboard-response","377","426355","0.0-7.0-1.43","FL","zq33udleq5","1536","864","0","1","0","5ec527351fc19046fdd6cd59","","null","","","learningBlock2","","","","That was a tob.","null","","","","","",""
"html-keyboard-response","378","427370","0.0-7.0-2.43","FL","zq33udleq5","1536","864","0","1","0","5ec527351fc19046fdd6cd59","","null","","","learningBlock2","","","","<div style=""font-size:60px;""> </div>","null","FL","learning/Slide124.JPG","That was a tob.","","",""
"image-keyboard-response","379","427557","0.0-7.0-0.44","FL","zq33udleq5","1536","864","0","1","0","5ec527351fc19046fdd6cd59","","null","","","","","","","learning/Slide125.JPG","null","","","","","",""
"html-keyboard-response","380","428729","0.0-7.0-1.44","FL","zq33udleq5","1536","864","0","1","0","5ec527351fc19046fdd6cd59","","null","","","learningBlock2","","","","That was a bim.","null","","","","","",""
"html-keyboard-response","381","429744","0.0-7.0-2.44","FL","zq33udleq5","1536","864","0","1","0","5ec527351fc19046fdd6cd59","","null","","","learningBlock2","","","","<div style=""font-size:60px;""> </div>","null","FL","learning/Slide125.JPG","That was a bim.","","",""
"image-keyboard-response","382","429932","0.0-7.0-0.45","FL","zq33udleq5","1536","864","0","1","0","5ec527351fc19046fdd6cd59","","null","","","","","","","learning/Slide126.JPG","null","","","","","",""
"html-keyboard-response","383","431105","0.0-7.0-1.45","FL","zq33udleq5","1536","864","0","1","0","5ec527351fc19046fdd6cd59","","null","","","learningBlock2","","","","That was a tob.","null","","","","","",""
"html-keyboard-response","384","432118","0.0-7.0-2.45","FL","zq33udleq5","1536","864","0","1","0","5ec527351fc19046fdd6cd59","","null","","","learningBlock2","","","","<div style=""font-size:60px;""> </div>","null","FL","learning/Slide126.JPG","That was a tob.","","",""
"image-keyboard-response","385","432306","0.0-7.0-0.46","FL","zq33udleq5","1536","864","0","1","0","5ec527351fc19046fdd6cd59","","null","","","","","","","learning/Slide127.JPG","null","","","","","",""
"html-keyboard-response","386","433478","0.0-7.0-1.46","FL","zq33udleq5","1536","864","0","1","0","5ec527351fc19046fdd6cd59","","null","","","learningBlock2","","","","That was a dep.","null","","","","","",""
"html-keyboard-response","387","434495","0.0-7.0-2.46","FL","zq33udleq5","1536","864","0","1","0","5ec527351fc19046fdd6cd59","","null","","","learningBlock2","","","","<div style=""font-size:60px;""> </div>","null","FL","learning/Slide127.JPG","That was a dep.","","",""
"image-keyboard-response","388","434681","0.0-7.0-0.47","FL","zq33udleq5","1536","864","0","1","0","5ec527351fc19046fdd6cd59","","null","","","","","","","learning/Slide128.JPG","null","","","","","",""
"html-keyboard-response","389","435854","0.0-7.0-1.47","FL","zq33udleq5","1536","864","0","1","0","5ec527351fc19046fdd6cd59","","null","","","learningBlock2","","","","That was a wug.","null","","","","","",""
"html-keyboard-response","390","436870","0.0-7.0-2.47","FL","zq33udleq5","1536","864","0","1","0","5ec527351fc19046fdd6cd59","","null","","","learningBlock2","","","","<div style=""font-size:60px;""> </div>","null","FL","learning/Slide128.JPG","That was a wug.","","",""
"image-keyboard-response","391","437058","0.0-7.0-0.48","FL","zq33udleq5","1536","864","0","1","0","5ec527351fc19046fdd6cd59","","null","","","","","","","learning/Slide129.JPG","null","","","","","",""
"html-keyboard-response","392","438229","0.0-7.0-1.48","FL","zq33udleq5","1536","864","0","1","0","5ec527351fc19046fdd6cd59","","null","","","learningBlock2","","","","That was a tob.","null","","","","","",""
"html-keyboard-response","393","439245","0.0-7.0-2.48","FL","zq33udleq5","1536","864","0","1","0","5ec527351fc19046fdd6cd59","","null","","","learningBlock2","","","","<div style=""font-size:60px;""> </div>","null","FL","learning/Slide129.JPG","That was a tob.","","",""
"image-keyboard-response","394","439432","0.0-7.0-0.49","FL","zq33udleq5","1536","864","0","1","0","5ec527351fc19046fdd6cd59","","null","","","","","","","learning/Slide130.JPG","null","","","","","",""
"html-keyboard-response","395","440604","0.0-7.0-1.49","FL","zq33udleq5","1536","864","0","1","0","5ec527351fc19046fdd6cd59","","null","","","learningBlock2","","","","That was a wug.","null","","","","","",""
"html-keyboard-response","396","441619","0.0-7.0-2.49","FL","zq33udleq5","1536","864","0","1","0","5ec527351fc19046fdd6cd59","","null","","","learningBlock2","","","","<div style=""font-size:60px;""> </div>","null","FL","learning/Slide130.JPG","That was a wug.","","",""
"image-keyboard-response","397","441807","0.0-7.0-0.50","FL","zq33udleq5","1536","864","0","1","0","5ec527351fc19046fdd6cd59","","null","","","","","","","learning/Slide131.JPG","null","","","","","",""
"html-keyboard-response","398","442975","0.0-7.0-1.50","FL","zq33udleq5","1536","864","0","1","0","5ec527351fc19046fdd6cd59","","null","","","learningBlock2","","","","That was a bim.","null","","","","","",""
"html-keyboard-response","399","443979","0.0-7.0-2.50","FL","zq33udleq5","1536","864","0","1","0","5ec527351fc19046fdd6cd59","","null","","","learningBlock2","","","","<div style=""font-size:60px;""> </div>","null","FL","learning/Slide131.JPG","That was a bim.","","",""
"image-keyboard-response","400","444157","0.0-7.0-0.51","FL","zq33udleq5","1536","864","0","1","0","5ec527351fc19046fdd6cd59","","null","","","","","","","learning/Slide132.JPG","null","","","","","",""
"html-keyboard-response","401","445323","0.0-7.0-1.51","FL","zq33udleq5","1536","864","0","1","0","5ec527351fc19046fdd6cd59","","null","","","learningBlock2","","","","That was a dep.","null","","","","","",""
"html-keyboard-response","402","446339","0.0-7.0-2.51","FL","zq33udleq5","1536","864","0","1","0","5ec527351fc19046fdd6cd59","","null","","","learningBlock2","","","","<div style=""font-size:60px;""> </div>","null","FL","learning/Slide132.JPG","That was a dep.","","",""
"image-keyboard-response","403","446526","0.0-7.0-0.52","FL","zq33udleq5","1536","864","0","1","0","5ec527351fc19046fdd6cd59","","null","","","","","","","learning/Slide133.JPG","null","","","","","",""
"html-keyboard-response","404","447682","0.0-7.0-1.52","FL","zq33udleq5","1536","864","0","1","0","5ec527351fc19046fdd6cd59","","null","","","learningBlock2","","","","That was a tob.","null","","","","","",""
"html-keyboard-response","405","448698","0.0-7.0-2.52","FL","zq33udleq5","1536","864","0","1","0","5ec527351fc19046fdd6cd59","","null","","","learningBlock2","","","","<div style=""font-size:60px;""> </div>","null","FL","learning/Slide133.JPG","That was a tob.","","",""
"image-keyboard-response","406","448885","0.0-7.0-0.53","FL","zq33udleq5","1536","864","0","1","0","5ec527351fc19046fdd6cd59","","null","","","","","","","learning/Slide134.JPG","null","","","","","",""
"html-keyboard-response","407","450050","0.0-7.0-1.53","FL","zq33udleq5","1536","864","0","1","0","5ec527351fc19046fdd6cd59","","null","","","learningBlock2","","","","That was a dep.","null","","","","","",""
"html-keyboard-response","408","451059","0.0-7.0-2.53","FL","zq33udleq5","1536","864","0","1","0","5ec527351fc19046fdd6cd59","","null","","","learningBlock2","","","","<div style=""font-size:60px;""> </div>","null","FL","learning/Slide134.JPG","That was a dep.","","",""
"image-keyboard-response","409","451246","0.0-7.0-0.54","FL","zq33udleq5","1536","864","0","1","0","5ec527351fc19046fdd6cd59","","null","","","","","","","learning/Slide135.JPG","null","","","","","",""
"html-keyboard-response","410","452401","0.0-7.0-1.54","FL","zq33udleq5","1536","864","0","1","0","5ec527351fc19046fdd6cd59","","null","","","learningBlock2","","","","That was a tob.","null","","","","","",""
"html-keyboard-response","411","453403","0.0-7.0-2.54","FL","zq33udleq5","1536","864","0","1","0","5ec527351fc19046fdd6cd59","","null","","","learningBlock2","","","","<div style=""font-size:60px;""> </div>","null","FL","learning/Slide135.JPG","That was a tob.","","",""
"image-keyboard-response","412","453579","0.0-7.0-0.55","FL","zq33udleq5","1536","864","0","1","0","5ec527351fc19046fdd6cd59","","null","","","","","","","learning/Slide136.JPG","null","","","","","",""
"html-keyboard-response","413","454760","0.0-7.0-1.55","FL","zq33udleq5","1536","864","0","1","0","5ec527351fc19046fdd6cd59","","null","","","learningBlock2","","","","That was a wug.","null","","","","","",""
"html-keyboard-response","414","455775","0.0-7.0-2.55","FL","zq33udleq5","1536","864","0","1","0","5ec527351fc19046fdd6cd59","","null","","","learningBlock2","","","","<div style=""font-size:60px;""> </div>","null","FL","learning/Slide136.JPG","That was a wug.","","",""
"image-keyboard-response","415","455964","0.0-7.0-0.56","FL","zq33udleq5","1536","864","0","1","0","5ec527351fc19046fdd6cd59","","null","","","","","","","learning/Slide137.JPG","null","","","","","",""
"html-keyboard-response","416","457136","0.0-7.0-1.56","FL","zq33udleq5","1536","864","0","1","0","5ec527351fc19046fdd6cd59","","null","","","learningBlock2","","","","That was a tob.","null","","","","","",""
"html-keyboard-response","417","458152","0.0-7.0-2.56","FL","zq33udleq5","1536","864","0","1","0","5ec527351fc19046fdd6cd59","","null","","","learningBlock2","","","","<div style=""font-size:60px;""> </div>","null","FL","learning/Slide137.JPG","That was a tob.","","",""
"image-keyboard-response","418","458338","0.0-7.0-0.57","FL","zq33udleq5","1536","864","0","1","0","5ec527351fc19046fdd6cd59","","null","","","","","","","learning/Slide138.JPG","null","","","","","",""
"html-keyboard-response","419","459495","0.0-7.0-1.57","FL","zq33udleq5","1536","864","0","1","0","5ec527351fc19046fdd6cd59","","null","","","learningBlock2","","","","That was a bim.","null","","","","","",""
"html-keyboard-response","420","460510","0.0-7.0-2.57","FL","zq33udleq5","1536","864","0","1","0","5ec527351fc19046fdd6cd59","","null","","","learningBlock2","","","","<div style=""font-size:60px;""> </div>","null","FL","learning/Slide138.JPG","That was a bim.","","",""
"image-keyboard-response","421","460700","0.0-7.0-0.58","FL","zq33udleq5","1536","864","0","1","0","5ec527351fc19046fdd6cd59","","null","","","","","","","learning/Slide139.JPG","null","","","","","",""
"html-keyboard-response","422","461857","0.0-7.0-1.58","FL","zq33udleq5","1536","864","0","1","0","5ec527351fc19046fdd6cd59","","null","","","learningBlock2","","","","That was a wug.","null","","","","","",""
"html-keyboard-response","423","462869","0.0-7.0-2.58","FL","zq33udleq5","1536","864","0","1","0","5ec527351fc19046fdd6cd59","","null","","","learningBlock2","","","","<div style=""font-size:60px;""> </div>","null","FL","learning/Slide139.JPG","That was a wug.","","",""
"image-keyboard-response","424","463045","0.0-7.0-0.59","FL","zq33udleq5","1536","864","0","1","0","5ec527351fc19046fdd6cd59","","null","","","","","","","learning/Slide140.JPG","null","","","","","",""
"html-keyboard-response","425","464199","0.0-7.0-1.59","FL","zq33udleq5","1536","864","0","1","0","5ec527351fc19046fdd6cd59","","null","","","learningBlock2","","","","That was a dep.","null","","","","","",""
"html-keyboard-response","426","465200","0.0-7.0-2.59","FL","zq33udleq5","1536","864","0","1","0","5ec527351fc19046fdd6cd59","","null","","","learningBlock2","","","","<div style=""font-size:60px;""> </div>","null","FL","learning/Slide140.JPG","That was a dep.","","",""
"image-keyboard-response","427","465377","0.0-7.0-0.60","FL","zq33udleq5","1536","864","0","1","0","5ec527351fc19046fdd6cd59","","null","","","","","","","learning/Slide141.JPG","null","","","","","",""
"html-keyboard-response","428","466541","0.0-7.0-1.60","FL","zq33udleq5","1536","864","0","1","0","5ec527351fc19046fdd6cd59","","null","","","learningBlock2","","","","That was a tob.","null","","","","","",""
"html-keyboard-response","429","467551","0.0-7.0-2.60","FL","zq33udleq5","1536","864","0","1","0","5ec527351fc19046fdd6cd59","","null","","","learningBlock2","","","","<div style=""font-size:60px;""> </div>","null","FL","learning/Slide141.JPG","That was a tob.","","",""
"image-keyboard-response","430","467743","0.0-7.0-0.61","FL","zq33udleq5","1536","864","0","1","0","5ec527351fc19046fdd6cd59","","null","","","","","","","learning/Slide142.JPG","null","","","","","",""
"html-keyboard-response","431","468909","0.0-7.0-1.61","FL","zq33udleq5","1536","864","0","1","0","5ec527351fc19046fdd6cd59","","null","","","learningBlock2","","","","That was a wug.","null","","","","","",""
"html-keyboard-response","432","469917","0.0-7.0-2.61","FL","zq33udleq5","1536","864","0","1","0","5ec527351fc19046fdd6cd59","","null","","","learningBlock2","","","","<div style=""font-size:60px;""> </div>","null","FL","learning/Slide142.JPG","That was a wug.","","",""
"image-keyboard-response","433","470104","0.0-7.0-0.62","FL","zq33udleq5","1536","864","0","1","0","5ec527351fc19046fdd6cd59","","null","","","","","","","learning/Slide143.JPG","null","","","","","",""
"html-keyboard-response","434","471262","0.0-7.0-1.62","FL","zq33udleq5","1536","864","0","1","0","5ec527351fc19046fdd6cd59","","null","","","learningBlock2","","","","That was a bim.","null","","","","","",""
"html-keyboard-response","435","472276","0.0-7.0-2.62","FL","zq33udleq5","1536","864","0","1","0","5ec527351fc19046fdd6cd59","","null","","","learningBlock2","","","","<div style=""font-size:60px;""> </div>","null","FL","learning/Slide143.JPG","That was a bim.","","",""
"image-keyboard-response","436","472465","0.0-7.0-0.63","FL","zq33udleq5","1536","864","0","1","0","5ec527351fc19046fdd6cd59","","null","","","","","","","learning/Slide144.JPG","null","","","","","",""
