"trial_type","trial_index","time_elapsed","internal_node_id","condition","subject","screen_width","screen_height","attention","distraction","conscientious","prolificID","success","rt","url","view_history","test_part","final_height_px","final_width_px","scale_factor","stimulus","key_press","learningType","presentedImage","presentedLabel","button_pressed","response","responses"
"pavlovia","0","52","0.0-0.0","FL","371addqx7x","1366","768","0","1","0","5d8cd4be7bd5180017d887a3","","","","","","","","","","","","","","","",""
"fullscreen","1","16696","0.0-1.0","FL","371addqx7x","1366","768","0","1","0","5d8cd4be7bd5180017d887a3","true","","","","","","","","","","","","","","",""
"external-html","2","40466","0.0-2.0-0.0","FL","371addqx7x","1366","768","0","1","0","5d8cd4be7bd5180017d887a3","","23516.255000024103","text/information_english.html","","","","","","","","","","","","",""
"external-html","3","78266","0.0-2.0-1.0","FL","371addqx7x","1366","768","0","1","0","5d8cd4be7bd5180017d887a3","","37521.884999994654","text/consent_english.html","","","","","","","","","","","","",""
"instructions","4","102681","0.0-3.0","FL","371addqx7x","1366","768","0","1","0","5d8cd4be7bd5180017d887a3","","NA","","[{""page_index"":0,""viewing_time"":5925.685000023805},{""page_index"":1,""viewing_time"":18480.074999970384}]","instructions","","","","","","","","","","",""
"resize","5","175889","0.0-4.0","FL","371addqx7x","1366","768","0","1","0","5d8cd4be7bd5180017d887a3","","","","","","","332","2.107936507936508","","","","","","","",""
"image-keyboard-response","6","176071","0.0-5.0-0.0","FL","371addqx7x","1366","768","0","1","0","5d8cd4be7bd5180017d887a3","","null","","","","","","","learning/Slide1.JPG","null","","","","","",""
"html-keyboard-response","7","177250","0.0-5.0-1.0","FL","371addqx7x","1366","768","0","1","0","5d8cd4be7bd5180017d887a3","","null","","","learningBlock1","","","","That was a tob.","null","","","","","",""
"html-keyboard-response","8","178253","0.0-5.0-2.0","FL","371addqx7x","1366","768","0","1","0","5d8cd4be7bd5180017d887a3","","null","","","learningBlock1","","","","<div style=""font-size:60px;""> </div>","null","FL","learning/Slide1.JPG","That was a tob.","","",""
"image-keyboard-response","9","178437","0.0-5.0-0.1","FL","371addqx7x","1366","768","0","1","0","5d8cd4be7bd5180017d887a3","","null","","","","","","","learning/Slide2.JPG","null","","","","","",""
"html-keyboard-response","10","179601","0.0-5.0-1.1","FL","371addqx7x","1366","768","0","1","0","5d8cd4be7bd5180017d887a3","","null","","","learningBlock1","","","","That was a wug.","null","","","","","",""
"html-keyboard-response","11","180604","0.0-5.0-2.1","FL","371addqx7x","1366","768","0","1","0","5d8cd4be7bd5180017d887a3","","null","","","learningBlock1","","","","<div style=""font-size:60px;""> </div>","null","FL","learning/Slide2.JPG","That was a wug.","","",""
"image-keyboard-response","12","180786","0.0-5.0-0.2","FL","371addqx7x","1366","768","0","1","0","5d8cd4be7bd5180017d887a3","","null","","","","","","","learning/Slide3.JPG","null","","","","","",""
"html-keyboard-response","13","181952","0.0-5.0-1.2","FL","371addqx7x","1366","768","0","1","0","5d8cd4be7bd5180017d887a3","","null","","","learningBlock1","","","","That was a bim.","null","","","","","",""
"html-keyboard-response","14","182960","0.0-5.0-2.2","FL","371addqx7x","1366","768","0","1","0","5d8cd4be7bd5180017d887a3","","null","","","learningBlock1","","","","<div style=""font-size:60px;""> </div>","null","FL","learning/Slide3.JPG","That was a bim.","","",""
"image-keyboard-response","15","183149","0.0-5.0-0.3","FL","371addqx7x","1366","768","0","1","0","5d8cd4be7bd5180017d887a3","","null","","","","","","","learning/Slide4.JPG","null","","","","","",""
"html-keyboard-response","16","184307","0.0-5.0-1.3","FL","371addqx7x","1366","768","0","1","0","5d8cd4be7bd5180017d887a3","","null","","","learningBlock1","","","","That was a dep.","null","","","","","",""
"html-keyboard-response","17","185318","0.0-5.0-2.3","FL","371addqx7x","1366","768","0","1","0","5d8cd4be7bd5180017d887a3","","null","","","learningBlock1","","","","<div style=""font-size:60px;""> </div>","null","FL","learning/Slide4.JPG","That was a dep.","","",""
"image-keyboard-response","18","185496","0.0-5.0-0.4","FL","371addqx7x","1366","768","0","1","0","5d8cd4be7bd5180017d887a3","","null","","","","","","","learning/Slide5.JPG","null","","","","","",""
"html-keyboard-response","19","186667","0.0-5.0-1.4","FL","371addqx7x","1366","768","0","1","0","5d8cd4be7bd5180017d887a3","","null","","","learningBlock1","","","","That was a wug.","null","","","","","",""
"html-keyboard-response","20","187683","0.0-5.0-2.4","FL","371addqx7x","1366","768","0","1","0","5d8cd4be7bd5180017d887a3","","null","","","learningBlock1","","","","<div style=""font-size:60px;""> </div>","null","FL","learning/Slide5.JPG","That was a wug.","","",""
"image-keyboard-response","21","187866","0.0-5.0-0.5","FL","371addqx7x","1366","768","0","1","0","5d8cd4be7bd5180017d887a3","","null","","","","","","","learning/Slide6.JPG","null","","","","","",""
"html-keyboard-response","22","189033","0.0-5.0-1.5","FL","371addqx7x","1366","768","0","1","0","5d8cd4be7bd5180017d887a3","","null","","","learningBlock1","","","","That was a dep.","null","","","","","",""
"html-keyboard-response","23","190037","0.0-5.0-2.5","FL","371addqx7x","1366","768","0","1","0","5d8cd4be7bd5180017d887a3","","null","","","learningBlock1","","","","<div style=""font-size:60px;""> </div>","null","FL","learning/Slide6.JPG","That was a dep.","","",""
"image-keyboard-response","24","190216","0.0-5.0-0.6","FL","371addqx7x","1366","768","0","1","0","5d8cd4be7bd5180017d887a3","","null","","","","","","","learning/Slide7.JPG","null","","","","","",""
"html-keyboard-response","25","191379","0.0-5.0-1.6","FL","371addqx7x","1366","768","0","1","0","5d8cd4be7bd5180017d887a3","","null","","","learningBlock1","","","","That was a wug.","null","","","","","",""
"html-keyboard-response","26","192382","0.0-5.0-2.6","FL","371addqx7x","1366","768","0","1","0","5d8cd4be7bd5180017d887a3","","null","","","learningBlock1","","","","<div style=""font-size:60px;""> </div>","null","FL","learning/Slide7.JPG","That was a wug.","","",""
"image-keyboard-response","27","192562","0.0-5.0-0.7","FL","371addqx7x","1366","768","0","1","0","5d8cd4be7bd5180017d887a3","","null","","","","","","","learning/Slide8.JPG","null","","","","","",""
"html-keyboard-response","28","193718","0.0-5.0-1.7","FL","371addqx7x","1366","768","0","1","0","5d8cd4be7bd5180017d887a3","","null","","","learningBlock1","","","","That was a bim.","null","","","","","",""
"html-keyboard-response","29","194731","0.0-5.0-2.7","FL","371addqx7x","1366","768","0","1","0","5d8cd4be7bd5180017d887a3","","null","","","learningBlock1","","","","<div style=""font-size:60px;""> </div>","null","FL","learning/Slide8.JPG","That was a bim.","","",""
"image-keyboard-response","30","194914","0.0-5.0-0.8","FL","371addqx7x","1366","768","0","1","0","5d8cd4be7bd5180017d887a3","","null","","","","","","","learning/Slide9.JPG","null","","","","","",""
"html-keyboard-response","31","196092","0.0-5.0-1.8","FL","371addqx7x","1366","768","0","1","0","5d8cd4be7bd5180017d887a3","","null","","","learningBlock1","","","","That was a wug.","null","","","","","",""
"html-keyboard-response","32","197097","0.0-5.0-2.8","FL","371addqx7x","1366","768","0","1","0","5d8cd4be7bd5180017d887a3","","null","","","learningBlock1","","","","<div style=""font-size:60px;""> </div>","null","FL","learning/Slide9.JPG","That was a wug.","","",""
"image-keyboard-response","33","197281","0.0-5.0-0.9","FL","371addqx7x","1366","768","0","1","0","5d8cd4be7bd5180017d887a3","","null","","","","","","","learning/Slide10.JPG","null","","","","","",""
"html-keyboard-response","34","198447","0.0-5.0-1.9","FL","371addqx7x","1366","768","0","1","0","5d8cd4be7bd5180017d887a3","","null","","","learningBlock1","","","","That was a dep.","null","","","","","",""
"html-keyboard-response","35","199463","0.0-5.0-2.9","FL","371addqx7x","1366","768","0","1","0","5d8cd4be7bd5180017d887a3","","null","","","learningBlock1","","","","<div style=""font-size:60px;""> </div>","null","FL","learning/Slide10.JPG","That was a dep.","","",""
"image-keyboard-response","36","199644","0.0-5.0-0.10","FL","371addqx7x","1366","768","0","1","0","5d8cd4be7bd5180017d887a3","","null","","","","","","","learning/Slide11.JPG","null","","","","","",""
"html-keyboard-response","37","200812","0.0-5.0-1.10","FL","371addqx7x","1366","768","0","1","0","5d8cd4be7bd5180017d887a3","","null","","","learningBlock1","","","","That was a tob.","null","","","","","",""
"html-keyboard-response","38","201822","0.0-5.0-2.10","FL","371addqx7x","1366","768","0","1","0","5d8cd4be7bd5180017d887a3","","null","","","learningBlock1","","","","<div style=""font-size:60px;""> </div>","null","FL","learning/Slide11.JPG","That was a tob.","","",""
"image-keyboard-response","39","202012","0.0-5.0-0.11","FL","371addqx7x","1366","768","0","1","0","5d8cd4be7bd5180017d887a3","","null","","","","","","","learning/Slide12.JPG","null","","","","","",""
"html-keyboard-response","40","203178","0.0-5.0-1.11","FL","371addqx7x","1366","768","0","1","0","5d8cd4be7bd5180017d887a3","","null","","","learningBlock1","","","","That was a dep.","null","","","","","",""
"html-keyboard-response","41","204191","0.0-5.0-2.11","FL","371addqx7x","1366","768","0","1","0","5d8cd4be7bd5180017d887a3","","null","","","learningBlock1","","","","<div style=""font-size:60px;""> </div>","null","FL","learning/Slide12.JPG","That was a dep.","","",""
"image-keyboard-response","42","204378","0.0-5.0-0.12","FL","371addqx7x","1366","768","0","1","0","5d8cd4be7bd5180017d887a3","","null","","","","","","","learning/Slide13.JPG","null","","","","","",""
"html-keyboard-response","43","205544","0.0-5.0-1.12","FL","371addqx7x","1366","768","0","1","0","5d8cd4be7bd5180017d887a3","","null","","","learningBlock1","","","","That was a bim.","null","","","","","",""
"html-keyboard-response","44","206558","0.0-5.0-2.12","FL","371addqx7x","1366","768","0","1","0","5d8cd4be7bd5180017d887a3","","null","","","learningBlock1","","","","<div style=""font-size:60px;""> </div>","null","FL","learning/Slide13.JPG","That was a bim.","","",""
"image-keyboard-response","45","206743","0.0-5.0-0.13","FL","371addqx7x","1366","768","0","1","0","5d8cd4be7bd5180017d887a3","","null","","","","","","","learning/Slide14.JPG","null","","","","","",""
"html-keyboard-response","46","207910","0.0-5.0-1.13","FL","371addqx7x","1366","768","0","1","0","5d8cd4be7bd5180017d887a3","","null","","","learningBlock1","","","","That was a wug.","null","","","","","",""
"html-keyboard-response","47","208926","0.0-5.0-2.13","FL","371addqx7x","1366","768","0","1","0","5d8cd4be7bd5180017d887a3","","null","","","learningBlock1","","","","<div style=""font-size:60px;""> </div>","null","FL","learning/Slide14.JPG","That was a wug.","","",""
"image-keyboard-response","48","209110","0.0-5.0-0.14","FL","371addqx7x","1366","768","0","1","0","5d8cd4be7bd5180017d887a3","","null","","","","","","","learning/Slide15.JPG","null","","","","","",""
"html-keyboard-response","49","210276","0.0-5.0-1.14","FL","371addqx7x","1366","768","0","1","0","5d8cd4be7bd5180017d887a3","","null","","","learningBlock1","","","","That was a tob.","null","","","","","",""
"html-keyboard-response","50","211279","0.0-5.0-2.14","FL","371addqx7x","1366","768","0","1","0","5d8cd4be7bd5180017d887a3","","null","","","learningBlock1","","","","<div style=""font-size:60px;""> </div>","null","FL","learning/Slide15.JPG","That was a tob.","","",""
"image-keyboard-response","51","211459","0.0-5.0-0.15","FL","371addqx7x","1366","768","0","1","0","5d8cd4be7bd5180017d887a3","","null","","","","","","","learning/Slide16.JPG","null","","","","","",""
"html-keyboard-response","52","212614","0.0-5.0-1.15","FL","371addqx7x","1366","768","0","1","0","5d8cd4be7bd5180017d887a3","","null","","","learningBlock1","","","","That was a dep.","null","","","","","",""
"html-keyboard-response","53","213625","0.0-5.0-2.15","FL","371addqx7x","1366","768","0","1","0","5d8cd4be7bd5180017d887a3","","null","","","learningBlock1","","","","<div style=""font-size:60px;""> </div>","null","FL","learning/Slide16.JPG","That was a dep.","","",""
"image-keyboard-response","54","213808","0.0-5.0-0.16","FL","371addqx7x","1366","768","0","1","0","5d8cd4be7bd5180017d887a3","","null","","","","","","","learning/Slide17.JPG","null","","","","","",""
"html-keyboard-response","55","214980","0.0-5.0-1.16","FL","371addqx7x","1366","768","0","1","0","5d8cd4be7bd5180017d887a3","","null","","","learningBlock1","","","","That was a bim.","null","","","","","",""
"html-keyboard-response","56","215990","0.0-5.0-2.16","FL","371addqx7x","1366","768","0","1","0","5d8cd4be7bd5180017d887a3","","null","","","learningBlock1","","","","<div style=""font-size:60px;""> </div>","null","FL","learning/Slide17.JPG","That was a bim.","","",""
"image-keyboard-response","57","216174","0.0-5.0-0.17","FL","371addqx7x","1366","768","0","1","0","5d8cd4be7bd5180017d887a3","","null","","","","","","","learning/Slide18.JPG","null","","","","","",""
"html-keyboard-response","58","217339","0.0-5.0-1.17","FL","371addqx7x","1366","768","0","1","0","5d8cd4be7bd5180017d887a3","","null","","","learningBlock1","","","","That was a tob.","null","","","","","",""
"html-keyboard-response","59","218356","0.0-5.0-2.17","FL","371addqx7x","1366","768","0","1","0","5d8cd4be7bd5180017d887a3","","null","","","learningBlock1","","","","<div style=""font-size:60px;""> </div>","null","FL","learning/Slide18.JPG","That was a tob.","","",""
"image-keyboard-response","60","218540","0.0-5.0-0.18","FL","371addqx7x","1366","768","0","1","0","5d8cd4be7bd5180017d887a3","","null","","","","","","","learning/Slide19.JPG","null","","","","","",""
"html-keyboard-response","61","219706","0.0-5.0-1.18","FL","371addqx7x","1366","768","0","1","0","5d8cd4be7bd5180017d887a3","","null","","","learningBlock1","","","","That was a wug.","null","","","","","",""
"html-keyboard-response","62","220723","0.0-5.0-2.18","FL","371addqx7x","1366","768","0","1","0","5d8cd4be7bd5180017d887a3","","null","","","learningBlock1","","","","<div style=""font-size:60px;""> </div>","null","FL","learning/Slide19.JPG","That was a wug.","","",""
"image-keyboard-response","63","220905","0.0-5.0-0.19","FL","371addqx7x","1366","768","0","1","0","5d8cd4be7bd5180017d887a3","","null","","","","","","","learning/Slide20.JPG","null","","","","","",""
"html-keyboard-response","64","222071","0.0-5.0-1.19","FL","371addqx7x","1366","768","0","1","0","5d8cd4be7bd5180017d887a3","","null","","","learningBlock1","","","","That was a bim.","null","","","","","",""
"html-keyboard-response","65","223081","0.0-5.0-2.19","FL","371addqx7x","1366","768","0","1","0","5d8cd4be7bd5180017d887a3","","null","","","learningBlock1","","","","<div style=""font-size:60px;""> </div>","null","FL","learning/Slide20.JPG","That was a bim.","","",""
"image-keyboard-response","66","223271","0.0-5.0-0.20","FL","371addqx7x","1366","768","0","1","0","5d8cd4be7bd5180017d887a3","","null","","","","","","","learning/Slide21.JPG","null","","","","","",""
"html-keyboard-response","67","224437","0.0-5.0-1.20","FL","371addqx7x","1366","768","0","1","0","5d8cd4be7bd5180017d887a3","","null","","","learningBlock1","","","","That was a dep.","null","","","","","",""
"html-keyboard-response","68","225445","0.0-5.0-2.20","FL","371addqx7x","1366","768","0","1","0","5d8cd4be7bd5180017d887a3","","null","","","learningBlock1","","","","<div style=""font-size:60px;""> </div>","null","FL","learning/Slide21.JPG","That was a dep.","","",""
"image-keyboard-response","69","225636","0.0-5.0-0.21","FL","371addqx7x","1366","768","0","1","0","5d8cd4be7bd5180017d887a3","","null","","","","","","","learning/Slide22.JPG","null","","","","","",""
"html-keyboard-response","70","226791","0.0-5.0-1.21","FL","371addqx7x","1366","768","0","1","0","5d8cd4be7bd5180017d887a3","","null","","","learningBlock1","","","","That was a bim.","null","","","","","",""
"html-keyboard-response","71","227803","0.0-5.0-2.21","FL","371addqx7x","1366","768","0","1","0","5d8cd4be7bd5180017d887a3","","null","","","learningBlock1","","","","<div style=""font-size:60px;""> </div>","null","FL","learning/Slide22.JPG","That was a bim.","","",""
"image-keyboard-response","72","227986","0.0-5.0-0.22","FL","371addqx7x","1366","768","0","1","0","5d8cd4be7bd5180017d887a3","","null","","","","","","","learning/Slide23.JPG","null","","","","","",""
"html-keyboard-response","73","229162","0.0-5.0-1.22","FL","371addqx7x","1366","768","0","1","0","5d8cd4be7bd5180017d887a3","","null","","","learningBlock1","","","","That was a tob.","null","","","","","",""
"html-keyboard-response","74","230169","0.0-5.0-2.22","FL","371addqx7x","1366","768","0","1","0","5d8cd4be7bd5180017d887a3","","null","","","learningBlock1","","","","<div style=""font-size:60px;""> </div>","null","FL","learning/Slide23.JPG","That was a tob.","","",""
"image-keyboard-response","75","230352","0.0-5.0-0.23","FL","371addqx7x","1366","768","0","1","0","5d8cd4be7bd5180017d887a3","","null","","","","","","","learning/Slide24.JPG","null","","","","","",""
"html-keyboard-response","76","231518","0.0-5.0-1.23","FL","371addqx7x","1366","768","0","1","0","5d8cd4be7bd5180017d887a3","","null","","","learningBlock1","","","","That was a wug.","null","","","","","",""
"html-keyboard-response","77","232530","0.0-5.0-2.23","FL","371addqx7x","1366","768","0","1","0","5d8cd4be7bd5180017d887a3","","null","","","learningBlock1","","","","<div style=""font-size:60px;""> </div>","null","FL","learning/Slide24.JPG","That was a wug.","","",""
"image-keyboard-response","78","232718","0.0-5.0-0.24","FL","371addqx7x","1366","768","0","1","0","5d8cd4be7bd5180017d887a3","","null","","","","","","","learning/Slide25.JPG","null","","","","","",""
"html-keyboard-response","79","233884","0.0-5.0-1.24","FL","371addqx7x","1366","768","0","1","0","5d8cd4be7bd5180017d887a3","","null","","","learningBlock1","","","","That was a dep.","null","","","","","",""
"html-keyboard-response","80","234898","0.0-5.0-2.24","FL","371addqx7x","1366","768","0","1","0","5d8cd4be7bd5180017d887a3","","null","","","learningBlock1","","","","<div style=""font-size:60px;""> </div>","null","FL","learning/Slide25.JPG","That was a dep.","","",""
"image-keyboard-response","81","235084","0.0-5.0-0.25","FL","371addqx7x","1366","768","0","1","0","5d8cd4be7bd5180017d887a3","","null","","","","","","","learning/Slide26.JPG","null","","","","","",""
"html-keyboard-response","82","236250","0.0-5.0-1.25","FL","371addqx7x","1366","768","0","1","0","5d8cd4be7bd5180017d887a3","","null","","","learningBlock1","","","","That was a wug.","null","","","","","",""
"html-keyboard-response","83","237262","0.0-5.0-2.25","FL","371addqx7x","1366","768","0","1","0","5d8cd4be7bd5180017d887a3","","null","","","learningBlock1","","","","<div style=""font-size:60px;""> </div>","null","FL","learning/Slide26.JPG","That was a wug.","","",""
"image-keyboard-response","84","237450","0.0-5.0-0.26","FL","371addqx7x","1366","768","0","1","0","5d8cd4be7bd5180017d887a3","","null","","","","","","","learning/Slide27.JPG","null","","","","","",""
"html-keyboard-response","85","238616","0.0-5.0-1.26","FL","371addqx7x","1366","768","0","1","0","5d8cd4be7bd5180017d887a3","","null","","","learningBlock1","","","","That was a bim.","null","","","","","",""
"html-keyboard-response","86","239621","0.0-5.0-2.26","FL","371addqx7x","1366","768","0","1","0","5d8cd4be7bd5180017d887a3","","null","","","learningBlock1","","","","<div style=""font-size:60px;""> </div>","null","FL","learning/Slide27.JPG","That was a bim.","","",""
"image-keyboard-response","87","239799","0.0-5.0-0.27","FL","371addqx7x","1366","768","0","1","0","5d8cd4be7bd5180017d887a3","","null","","","","","","","learning/Slide28.JPG","null","","","","","",""
"html-keyboard-response","88","240965","0.0-5.0-1.27","FL","371addqx7x","1366","768","0","1","0","5d8cd4be7bd5180017d887a3","","null","","","learningBlock1","","","","That was a dep.","null","","","","","",""
"html-keyboard-response","89","241973","0.0-5.0-2.27","FL","371addqx7x","1366","768","0","1","0","5d8cd4be7bd5180017d887a3","","null","","","learningBlock1","","","","<div style=""font-size:60px;""> </div>","null","FL","learning/Slide28.JPG","That was a dep.","","",""
"image-keyboard-response","90","242161","0.0-5.0-0.28","FL","371addqx7x","1366","768","0","1","0","5d8cd4be7bd5180017d887a3","","null","","","","","","","learning/Slide29.JPG","null","","","","","",""
"html-keyboard-response","91","243327","0.0-5.0-1.28","FL","371addqx7x","1366","768","0","1","0","5d8cd4be7bd5180017d887a3","","null","","","learningBlock1","","","","That was a tob.","null","","","","","",""
"html-keyboard-response","92","244330","0.0-5.0-2.28","FL","371addqx7x","1366","768","0","1","0","5d8cd4be7bd5180017d887a3","","null","","","learningBlock1","","","","<div style=""font-size:60px;""> </div>","null","FL","learning/Slide29.JPG","That was a tob.","","",""
"image-keyboard-response","93","244514","0.0-5.0-0.29","FL","371addqx7x","1366","768","0","1","0","5d8cd4be7bd5180017d887a3","","null","","","","","","","learning/Slide30.JPG","null","","","","","",""
"html-keyboard-response","94","245680","0.0-5.0-1.29","FL","371addqx7x","1366","768","0","1","0","5d8cd4be7bd5180017d887a3","","null","","","learningBlock1","","","","That was a dep.","null","","","","","",""
"html-keyboard-response","95","246692","0.0-5.0-2.29","FL","371addqx7x","1366","768","0","1","0","5d8cd4be7bd5180017d887a3","","null","","","learningBlock1","","","","<div style=""font-size:60px;""> </div>","null","FL","learning/Slide30.JPG","That was a dep.","","",""
"image-keyboard-response","96","246880","0.0-5.0-0.30","FL","371addqx7x","1366","768","0","1","0","5d8cd4be7bd5180017d887a3","","null","","","","","","","learning/Slide31.JPG","null","","","","","",""
"html-keyboard-response","97","248042","0.0-5.0-1.30","FL","371addqx7x","1366","768","0","1","0","5d8cd4be7bd5180017d887a3","","null","","","learningBlock1","","","","That was a wug.","null","","","","","",""
"html-keyboard-response","98","249045","0.0-5.0-2.30","FL","371addqx7x","1366","768","0","1","0","5d8cd4be7bd5180017d887a3","","null","","","learningBlock1","","","","<div style=""font-size:60px;""> </div>","null","FL","learning/Slide31.JPG","That was a wug.","","",""
"image-keyboard-response","99","249226","0.0-5.0-0.31","FL","371addqx7x","1366","768","0","1","0","5d8cd4be7bd5180017d887a3","","null","","","","","","","learning/Slide32.JPG","null","","","","","",""
"html-keyboard-response","100","250395","0.0-5.0-1.31","FL","371addqx7x","1366","768","0","1","0","5d8cd4be7bd5180017d887a3","","null","","","learningBlock1","","","","That was a tob.","null","","","","","",""
"html-keyboard-response","101","251408","0.0-5.0-2.31","FL","371addqx7x","1366","768","0","1","0","5d8cd4be7bd5180017d887a3","","null","","","learningBlock1","","","","<div style=""font-size:60px;""> </div>","null","FL","learning/Slide32.JPG","That was a tob.","","",""
"image-keyboard-response","102","251593","0.0-5.0-0.32","FL","371addqx7x","1366","768","0","1","0","5d8cd4be7bd5180017d887a3","","null","","","","","","","learning/Slide33.JPG","null","","","","","",""
"html-keyboard-response","103","252753","0.0-5.0-1.32","FL","371addqx7x","1366","768","0","1","0","5d8cd4be7bd5180017d887a3","","null","","","learningBlock1","","","","That was a bim.","null","","","","","",""
"html-keyboard-response","104","253761","0.0-5.0-2.32","FL","371addqx7x","1366","768","0","1","0","5d8cd4be7bd5180017d887a3","","null","","","learningBlock1","","","","<div style=""font-size:60px;""> </div>","null","FL","learning/Slide33.JPG","That was a bim.","","",""
"image-keyboard-response","105","253944","0.0-5.0-0.33","FL","371addqx7x","1366","768","0","1","0","5d8cd4be7bd5180017d887a3","","null","","","","","","","learning/Slide34.JPG","null","","","","","",""
"html-keyboard-response","106","255110","0.0-5.0-1.33","FL","371addqx7x","1366","768","0","1","0","5d8cd4be7bd5180017d887a3","","null","","","learningBlock1","","","","That was a tob.","null","","","","","",""
"html-keyboard-response","107","256123","0.0-5.0-2.33","FL","371addqx7x","1366","768","0","1","0","5d8cd4be7bd5180017d887a3","","null","","","learningBlock1","","","","<div style=""font-size:60px;""> </div>","null","FL","learning/Slide34.JPG","That was a tob.","","",""
"image-keyboard-response","108","256310","0.0-5.0-0.34","FL","371addqx7x","1366","768","0","1","0","5d8cd4be7bd5180017d887a3","","null","","","","","","","learning/Slide35.JPG","null","","","","","",""
"html-keyboard-response","109","257476","0.0-5.0-1.34","FL","371addqx7x","1366","768","0","1","0","5d8cd4be7bd5180017d887a3","","null","","","learningBlock1","","","","That was a bim.","null","","","","","",""
"html-keyboard-response","110","258481","0.0-5.0-2.34","FL","371addqx7x","1366","768","0","1","0","5d8cd4be7bd5180017d887a3","","null","","","learningBlock1","","","","<div style=""font-size:60px;""> </div>","null","FL","learning/Slide35.JPG","That was a bim.","","",""
"image-keyboard-response","111","258659","0.0-5.0-0.35","FL","371addqx7x","1366","768","0","1","0","5d8cd4be7bd5180017d887a3","","null","","","","","","","learning/Slide36.JPG","null","","","","","",""
"html-keyboard-response","112","259825","0.0-5.0-1.35","FL","371addqx7x","1366","768","0","1","0","5d8cd4be7bd5180017d887a3","","null","","","learningBlock1","","","","That was a dep.","null","","","","","",""
"html-keyboard-response","113","260829","0.0-5.0-2.35","FL","371addqx7x","1366","768","0","1","0","5d8cd4be7bd5180017d887a3","","null","","","learningBlock1","","","","<div style=""font-size:60px;""> </div>","null","FL","learning/Slide36.JPG","That was a dep.","","",""
"image-keyboard-response","114","261008","0.0-5.0-0.36","FL","371addqx7x","1366","768","0","1","0","5d8cd4be7bd5180017d887a3","","null","","","","","","","learning/Slide37.JPG","null","","","","","",""
"html-keyboard-response","115","262166","0.0-5.0-1.36","FL","371addqx7x","1366","768","0","1","0","5d8cd4be7bd5180017d887a3","","null","","","learningBlock1","","","","That was a tob.","null","","","","","",""
"html-keyboard-response","116","263174","0.0-5.0-2.36","FL","371addqx7x","1366","768","0","1","0","5d8cd4be7bd5180017d887a3","","null","","","learningBlock1","","","","<div style=""font-size:60px;""> </div>","null","FL","learning/Slide37.JPG","That was a tob.","","",""
"image-keyboard-response","117","263354","0.0-5.0-0.37","FL","371addqx7x","1366","768","0","1","0","5d8cd4be7bd5180017d887a3","","null","","","","","","","learning/Slide38.JPG","null","","","","","",""
"html-keyboard-response","118","264510","0.0-5.0-1.37","FL","371addqx7x","1366","768","0","1","0","5d8cd4be7bd5180017d887a3","","null","","","learningBlock1","","","","That was a wug.","null","","","","","",""
"html-keyboard-response","119","265514","0.0-5.0-2.37","FL","371addqx7x","1366","768","0","1","0","5d8cd4be7bd5180017d887a3","","null","","","learningBlock1","","","","<div style=""font-size:60px;""> </div>","null","FL","learning/Slide38.JPG","That was a wug.","","",""
"image-keyboard-response","120","265704","0.0-5.0-0.38","FL","371addqx7x","1366","768","0","1","0","5d8cd4be7bd5180017d887a3","","null","","","","","","","learning/Slide39.JPG","null","","","","","",""
"html-keyboard-response","121","266861","0.0-5.0-1.38","FL","371addqx7x","1366","768","0","1","0","5d8cd4be7bd5180017d887a3","","null","","","learningBlock1","","","","That was a bim.","null","","","","","",""
"html-keyboard-response","122","267872","0.0-5.0-2.38","FL","371addqx7x","1366","768","0","1","0","5d8cd4be7bd5180017d887a3","","null","","","learningBlock1","","","","<div style=""font-size:60px;""> </div>","null","FL","learning/Slide39.JPG","That was a bim.","","",""
"image-keyboard-response","123","268051","0.0-5.0-0.39","FL","371addqx7x","1366","768","0","1","0","5d8cd4be7bd5180017d887a3","","null","","","","","","","learning/Slide40.JPG","null","","","","","",""
"html-keyboard-response","124","269209","0.0-5.0-1.39","FL","371addqx7x","1366","768","0","1","0","5d8cd4be7bd5180017d887a3","","null","","","learningBlock1","","","","That was a tob.","null","","","","","",""
"html-keyboard-response","125","270222","0.0-5.0-2.39","FL","371addqx7x","1366","768","0","1","0","5d8cd4be7bd5180017d887a3","","null","","","learningBlock1","","","","<div style=""font-size:60px;""> </div>","null","FL","learning/Slide40.JPG","That was a tob.","","",""
"image-keyboard-response","126","270405","0.0-5.0-0.40","FL","371addqx7x","1366","768","0","1","0","5d8cd4be7bd5180017d887a3","","null","","","","","","","learning/Slide41.JPG","null","","","","","",""
"html-keyboard-response","127","271571","0.0-5.0-1.40","FL","371addqx7x","1366","768","0","1","0","5d8cd4be7bd5180017d887a3","","null","","","learningBlock1","","","","That was a bim.","null","","","","","",""
"html-keyboard-response","128","272584","0.0-5.0-2.40","FL","371addqx7x","1366","768","0","1","0","5d8cd4be7bd5180017d887a3","","null","","","learningBlock1","","","","<div style=""font-size:60px;""> </div>","null","FL","learning/Slide41.JPG","That was a bim.","","",""
"image-keyboard-response","129","272771","0.0-5.0-0.41","FL","371addqx7x","1366","768","0","1","0","5d8cd4be7bd5180017d887a3","","null","","","","","","","learning/Slide42.JPG","null","","","","","",""
"html-keyboard-response","130","273937","0.0-5.0-1.41","FL","371addqx7x","1366","768","0","1","0","5d8cd4be7bd5180017d887a3","","null","","","learningBlock1","","","","That was a dep.","null","","","","","",""
"html-keyboard-response","131","274941","0.0-5.0-2.41","FL","371addqx7x","1366","768","0","1","0","5d8cd4be7bd5180017d887a3","","null","","","learningBlock1","","","","<div style=""font-size:60px;""> </div>","null","FL","learning/Slide42.JPG","That was a dep.","","",""
"image-keyboard-response","132","275120","0.0-5.0-0.42","FL","371addqx7x","1366","768","0","1","0","5d8cd4be7bd5180017d887a3","","null","","","","","","","learning/Slide43.JPG","null","","","","","",""
"html-keyboard-response","133","276286","0.0-5.0-1.42","FL","371addqx7x","1366","768","0","1","0","5d8cd4be7bd5180017d887a3","","null","","","learningBlock1","","","","That was a wug.","null","","","","","",""
"html-keyboard-response","134","277294","0.0-5.0-2.42","FL","371addqx7x","1366","768","0","1","0","5d8cd4be7bd5180017d887a3","","null","","","learningBlock1","","","","<div style=""font-size:60px;""> </div>","null","FL","learning/Slide43.JPG","That was a wug.","","",""
"image-keyboard-response","135","277485","0.0-5.0-0.43","FL","371addqx7x","1366","768","0","1","0","5d8cd4be7bd5180017d887a3","","null","","","","","","","learning/Slide44.JPG","null","","","","","",""
"html-keyboard-response","136","278649","0.0-5.0-1.43","FL","371addqx7x","1366","768","0","1","0","5d8cd4be7bd5180017d887a3","","null","","","learningBlock1","","","","That was a bim.","null","","","","","",""
"html-keyboard-response","137","279652","0.0-5.0-2.43","FL","371addqx7x","1366","768","0","1","0","5d8cd4be7bd5180017d887a3","","null","","","learningBlock1","","","","<div style=""font-size:60px;""> </div>","null","FL","learning/Slide44.JPG","That was a bim.","","",""
"image-keyboard-response","138","279832","0.0-5.0-0.44","FL","371addqx7x","1366","768","0","1","0","5d8cd4be7bd5180017d887a3","","null","","","","","","","learning/Slide45.JPG","null","","","","","",""
"html-keyboard-response","139","280989","0.0-5.0-1.44","FL","371addqx7x","1366","768","0","1","0","5d8cd4be7bd5180017d887a3","","null","","","learningBlock1","","","","That was a wug.","null","","","","","",""
"html-keyboard-response","140","282001","0.0-5.0-2.44","FL","371addqx7x","1366","768","0","1","0","5d8cd4be7bd5180017d887a3","","null","","","learningBlock1","","","","<div style=""font-size:60px;""> </div>","null","FL","learning/Slide45.JPG","That was a wug.","","",""
"image-keyboard-response","141","282182","0.0-5.0-0.45","FL","371addqx7x","1366","768","0","1","0","5d8cd4be7bd5180017d887a3","","null","","","","","","","learning/Slide46.JPG","null","","","","","",""
"html-keyboard-response","142","283340","0.0-5.0-1.45","FL","371addqx7x","1366","768","0","1","0","5d8cd4be7bd5180017d887a3","","null","","","learningBlock1","","","","That was a dep.","null","","","","","",""
"html-keyboard-response","143","284343","0.0-5.0-2.45","FL","371addqx7x","1366","768","0","1","0","5d8cd4be7bd5180017d887a3","","null","","","learningBlock1","","","","<div style=""font-size:60px;""> </div>","null","FL","learning/Slide46.JPG","That was a dep.","","",""
"image-keyboard-response","144","284534","0.0-5.0-0.46","FL","371addqx7x","1366","768","0","1","0","5d8cd4be7bd5180017d887a3","","null","","","","","","","learning/Slide47.JPG","null","","","","","",""
"html-keyboard-response","145","285700","0.0-5.0-1.46","FL","371addqx7x","1366","768","0","1","0","5d8cd4be7bd5180017d887a3","","null","","","learningBlock1","","","","That was a tob.","null","","","","","",""
"html-keyboard-response","146","286703","0.0-5.0-2.46","FL","371addqx7x","1366","768","0","1","0","5d8cd4be7bd5180017d887a3","","null","","","learningBlock1","","","","<div style=""font-size:60px;""> </div>","null","FL","learning/Slide47.JPG","That was a tob.","","",""
"image-keyboard-response","147","286883","0.0-5.0-0.47","FL","371addqx7x","1366","768","0","1","0","5d8cd4be7bd5180017d887a3","","null","","","","","","","learning/Slide48.JPG","null","","","","","",""
"html-keyboard-response","148","288039","0.0-5.0-1.47","FL","371addqx7x","1366","768","0","1","0","5d8cd4be7bd5180017d887a3","","null","","","learningBlock1","","","","That was a bim.","null","","","","","",""
"html-keyboard-response","149","289043","0.0-5.0-2.47","FL","371addqx7x","1366","768","0","1","0","5d8cd4be7bd5180017d887a3","","null","","","learningBlock1","","","","<div style=""font-size:60px;""> </div>","null","FL","learning/Slide48.JPG","That was a bim.","","",""
"image-keyboard-response","150","289232","0.0-5.0-0.48","FL","371addqx7x","1366","768","0","1","0","5d8cd4be7bd5180017d887a3","","null","","","","","","","learning/Slide49.JPG","null","","","","","",""
"html-keyboard-response","151","290398","0.0-5.0-1.48","FL","371addqx7x","1366","768","0","1","0","5d8cd4be7bd5180017d887a3","","null","","","learningBlock1","","","","That was a dep.","null","","","","","",""
"html-keyboard-response","152","291407","0.0-5.0-2.48","FL","371addqx7x","1366","768","0","1","0","5d8cd4be7bd5180017d887a3","","null","","","learningBlock1","","","","<div style=""font-size:60px;""> </div>","null","FL","learning/Slide49.JPG","That was a dep.","","",""
"image-keyboard-response","153","291591","0.0-5.0-0.49","FL","371addqx7x","1366","768","0","1","0","5d8cd4be7bd5180017d887a3","","null","","","","","","","learning/Slide50.JPG","null","","","","","",""
"html-keyboard-response","154","292747","0.0-5.0-1.49","FL","371addqx7x","1366","768","0","1","0","5d8cd4be7bd5180017d887a3","","null","","","learningBlock1","","","","That was a tob.","null","","","","","",""
"html-keyboard-response","155","293751","0.0-5.0-2.49","FL","371addqx7x","1366","768","0","1","0","5d8cd4be7bd5180017d887a3","","null","","","learningBlock1","","","","<div style=""font-size:60px;""> </div>","null","FL","learning/Slide50.JPG","That was a tob.","","",""
"image-keyboard-response","156","293930","0.0-5.0-0.50","FL","371addqx7x","1366","768","0","1","0","5d8cd4be7bd5180017d887a3","","null","","","","","","","learning/Slide51.JPG","null","","","","","",""
"html-keyboard-response","157","295097","0.0-5.0-1.50","FL","371addqx7x","1366","768","0","1","0","5d8cd4be7bd5180017d887a3","","null","","","learningBlock1","","","","That was a bim.","null","","","","","",""
"html-keyboard-response","158","296113","0.0-5.0-2.50","FL","371addqx7x","1366","768","0","1","0","5d8cd4be7bd5180017d887a3","","null","","","learningBlock1","","","","<div style=""font-size:60px;""> </div>","null","FL","learning/Slide51.JPG","That was a bim.","","",""
"image-keyboard-response","159","296297","0.0-5.0-0.51","FL","371addqx7x","1366","768","0","1","0","5d8cd4be7bd5180017d887a3","","null","","","","","","","learning/Slide52.JPG","null","","","","","",""
"html-keyboard-response","160","297476","0.0-5.0-1.51","FL","371addqx7x","1366","768","0","1","0","5d8cd4be7bd5180017d887a3","","null","","","learningBlock1","","","","That was a wug.","null","","","","","",""
"html-keyboard-response","161","298479","0.0-5.0-2.51","FL","371addqx7x","1366","768","0","1","0","5d8cd4be7bd5180017d887a3","","null","","","learningBlock1","","","","<div style=""font-size:60px;""> </div>","null","FL","learning/Slide52.JPG","That was a wug.","","",""
"image-keyboard-response","162","298664","0.0-5.0-0.52","FL","371addqx7x","1366","768","0","1","0","5d8cd4be7bd5180017d887a3","","null","","","","","","","learning/Slide53.JPG","null","","","","","",""
"html-keyboard-response","163","299822","0.0-5.0-1.52","FL","371addqx7x","1366","768","0","1","0","5d8cd4be7bd5180017d887a3","","null","","","learningBlock1","","","","That was a tob.","null","","","","","",""
"html-keyboard-response","164","300828","0.0-5.0-2.52","FL","371addqx7x","1366","768","0","1","0","5d8cd4be7bd5180017d887a3","","null","","","learningBlock1","","","","<div style=""font-size:60px;""> </div>","null","FL","learning/Slide53.JPG","That was a tob.","","",""
"image-keyboard-response","165","301011","0.0-5.0-0.53","FL","371addqx7x","1366","768","0","1","0","5d8cd4be7bd5180017d887a3","","null","","","","","","","learning/Slide54.JPG","null","","","","","",""
"html-keyboard-response","166","302175","0.0-5.0-1.53","FL","371addqx7x","1366","768","0","1","0","5d8cd4be7bd5180017d887a3","","null","","","learningBlock1","","","","That was a dep.","null","","","","","",""
"html-keyboard-response","167","303177","0.0-5.0-2.53","FL","371addqx7x","1366","768","0","1","0","5d8cd4be7bd5180017d887a3","","null","","","learningBlock1","","","","<div style=""font-size:60px;""> </div>","null","FL","learning/Slide54.JPG","That was a dep.","","",""
"image-keyboard-response","168","303360","0.0-5.0-0.54","FL","371addqx7x","1366","768","0","1","0","5d8cd4be7bd5180017d887a3","","null","","","","","","","learning/Slide55.JPG","null","","","","","",""
"html-keyboard-response","169","304526","0.0-5.0-1.54","FL","371addqx7x","1366","768","0","1","0","5d8cd4be7bd5180017d887a3","","null","","","learningBlock1","","","","That was a bim.","null","","","","","",""
"html-keyboard-response","170","305541","0.0-5.0-2.54","FL","371addqx7x","1366","768","0","1","0","5d8cd4be7bd5180017d887a3","","null","","","learningBlock1","","","","<div style=""font-size:60px;""> </div>","null","FL","learning/Slide55.JPG","That was a bim.","","",""
"image-keyboard-response","171","305726","0.0-5.0-0.55","FL","371addqx7x","1366","768","0","1","0","5d8cd4be7bd5180017d887a3","","null","","","","","","","learning/Slide56.JPG","null","","","","","",""
"html-keyboard-response","172","306892","0.0-5.0-1.55","FL","371addqx7x","1366","768","0","1","0","5d8cd4be7bd5180017d887a3","","null","","","learningBlock1","","","","That was a tob.","null","","","","","",""
"html-keyboard-response","173","307898","0.0-5.0-2.55","FL","371addqx7x","1366","768","0","1","0","5d8cd4be7bd5180017d887a3","","null","","","learningBlock1","","","","<div style=""font-size:60px;""> </div>","null","FL","learning/Slide56.JPG","That was a tob.","","",""
"image-keyboard-response","174","308076","0.0-5.0-0.56","FL","371addqx7x","1366","768","0","1","0","5d8cd4be7bd5180017d887a3","","null","","","","","","","learning/Slide57.JPG","null","","","","","",""
"html-keyboard-response","175","309235","0.0-5.0-1.56","FL","371addqx7x","1366","768","0","1","0","5d8cd4be7bd5180017d887a3","","null","","","learningBlock1","","","","That was a dep.","null","","","","","",""
"html-keyboard-response","176","310237","0.0-5.0-2.56","FL","371addqx7x","1366","768","0","1","0","5d8cd4be7bd5180017d887a3","","null","","","learningBlock1","","","","<div style=""font-size:60px;""> </div>","null","FL","learning/Slide57.JPG","That was a dep.","","",""
"image-keyboard-response","177","310425","0.0-5.0-0.57","FL","371addqx7x","1366","768","0","1","0","5d8cd4be7bd5180017d887a3","","null","","","","","","","learning/Slide58.JPG","null","","","","","",""
"html-keyboard-response","178","311591","0.0-5.0-1.57","FL","371addqx7x","1366","768","0","1","0","5d8cd4be7bd5180017d887a3","","null","","","learningBlock1","","","","That was a wug.","null","","","","","",""
"html-keyboard-response","179","312604","0.0-5.0-2.57","FL","371addqx7x","1366","768","0","1","0","5d8cd4be7bd5180017d887a3","","null","","","learningBlock1","","","","<div style=""font-size:60px;""> </div>","null","FL","learning/Slide58.JPG","That was a wug.","","",""
"image-keyboard-response","180","312790","0.0-5.0-0.58","FL","371addqx7x","1366","768","0","1","0","5d8cd4be7bd5180017d887a3","","null","","","","","","","learning/Slide59.JPG","null","","","","","",""
"html-keyboard-response","181","313957","0.0-5.0-1.58","FL","371addqx7x","1366","768","0","1","0","5d8cd4be7bd5180017d887a3","","null","","","learningBlock1","","","","That was a dep.","null","","","","","",""
"html-keyboard-response","182","314967","0.0-5.0-2.58","FL","371addqx7x","1366","768","0","1","0","5d8cd4be7bd5180017d887a3","","null","","","learningBlock1","","","","<div style=""font-size:60px;""> </div>","null","FL","learning/Slide59.JPG","That was a dep.","","",""
"image-keyboard-response","183","315154","0.0-5.0-0.59","FL","371addqx7x","1366","768","0","1","0","5d8cd4be7bd5180017d887a3","","null","","","","","","","learning/Slide60.JPG","null","","","","","",""
"html-keyboard-response","184","316313","0.0-5.0-1.59","FL","371addqx7x","1366","768","0","1","0","5d8cd4be7bd5180017d887a3","","null","","","learningBlock1","","","","That was a wug.","null","","","","","",""
"html-keyboard-response","185","317316","0.0-5.0-2.59","FL","371addqx7x","1366","768","0","1","0","5d8cd4be7bd5180017d887a3","","null","","","learningBlock1","","","","<div style=""font-size:60px;""> </div>","null","FL","learning/Slide60.JPG","That was a wug.","","",""
"image-keyboard-response","186","317506","0.0-5.0-0.60","FL","371addqx7x","1366","768","0","1","0","5d8cd4be7bd5180017d887a3","","null","","","","","","","learning/Slide61.JPG","null","","","","","",""
"html-keyboard-response","187","318672","0.0-5.0-1.60","FL","371addqx7x","1366","768","0","1","0","5d8cd4be7bd5180017d887a3","","null","","","learningBlock1","","","","That was a bim.","null","","","","","",""
"html-keyboard-response","188","319685","0.0-5.0-2.60","FL","371addqx7x","1366","768","0","1","0","5d8cd4be7bd5180017d887a3","","null","","","learningBlock1","","","","<div style=""font-size:60px;""> </div>","null","FL","learning/Slide61.JPG","That was a bim.","","",""
"image-keyboard-response","189","319871","0.0-5.0-0.61","FL","371addqx7x","1366","768","0","1","0","5d8cd4be7bd5180017d887a3","","null","","","","","","","learning/Slide62.JPG","null","","","","","",""
"html-keyboard-response","190","321038","0.0-5.0-1.61","FL","371addqx7x","1366","768","0","1","0","5d8cd4be7bd5180017d887a3","","null","","","learningBlock1","","","","That was a dep.","null","","","","","",""
"html-keyboard-response","191","322045","0.0-5.0-2.61","FL","371addqx7x","1366","768","0","1","0","5d8cd4be7bd5180017d887a3","","null","","","learningBlock1","","","","<div style=""font-size:60px;""> </div>","null","FL","learning/Slide62.JPG","That was a dep.","","",""
"image-keyboard-response","192","322237","0.0-5.0-0.62","FL","371addqx7x","1366","768","0","1","0","5d8cd4be7bd5180017d887a3","","null","","","","","","","learning/Slide63.JPG","null","","","","","",""
"html-keyboard-response","193","323401","0.0-5.0-1.62","FL","371addqx7x","1366","768","0","1","0","5d8cd4be7bd5180017d887a3","","null","","","learningBlock1","","","","That was a bim.","null","","","","","",""
"html-keyboard-response","194","324405","0.0-5.0-2.62","FL","371addqx7x","1366","768","0","1","0","5d8cd4be7bd5180017d887a3","","null","","","learningBlock1","","","","<div style=""font-size:60px;""> </div>","null","FL","learning/Slide63.JPG","That was a bim.","","",""
"image-keyboard-response","195","324586","0.0-5.0-0.63","FL","371addqx7x","1366","768","0","1","0","5d8cd4be7bd5180017d887a3","","null","","","","","","","learning/Slide64.JPG","null","","","","","",""
"html-keyboard-response","196","325752","0.0-5.0-1.63","FL","371addqx7x","1366","768","0","1","0","5d8cd4be7bd5180017d887a3","","null","","","learningBlock1","","","","That was a tob.","null","","","","","",""
"html-keyboard-response","197","326769","0.0-5.0-2.63","FL","371addqx7x","1366","768","0","1","0","5d8cd4be7bd5180017d887a3","","null","","","learningBlock1","","","","<div style=""font-size:60px;""> </div>","null","FL","learning/Slide64.JPG","That was a tob.","","",""
"image-keyboard-response","198","326952","0.0-5.0-0.64","FL","371addqx7x","1366","768","0","1","0","5d8cd4be7bd5180017d887a3","","null","","","","","","","learning/Slide65.JPG","null","","","","","",""
"html-keyboard-response","199","328129","0.0-5.0-1.64","FL","371addqx7x","1366","768","0","1","0","5d8cd4be7bd5180017d887a3","","null","","","learningBlock1","","","","That was a wug.","null","","","","","",""
"html-keyboard-response","200","329135","0.0-5.0-2.64","FL","371addqx7x","1366","768","0","1","0","5d8cd4be7bd5180017d887a3","","null","","","learningBlock1","","","","<div style=""font-size:60px;""> </div>","null","FL","learning/Slide65.JPG","That was a wug.","","",""
"image-keyboard-response","201","329318","0.0-5.0-0.65","FL","371addqx7x","1366","768","0","1","0","5d8cd4be7bd5180017d887a3","","null","","","","","","","learning/Slide66.JPG","null","","","","","",""
"html-keyboard-response","202","330485","0.0-5.0-1.65","FL","371addqx7x","1366","768","0","1","0","5d8cd4be7bd5180017d887a3","","null","","","learningBlock1","","","","That was a dep.","null","","","","","",""
"html-keyboard-response","203","331500","0.0-5.0-2.65","FL","371addqx7x","1366","768","0","1","0","5d8cd4be7bd5180017d887a3","","null","","","learningBlock1","","","","<div style=""font-size:60px;""> </div>","null","FL","learning/Slide66.JPG","That was a dep.","","",""
"image-keyboard-response","204","331680","0.0-5.0-0.66","FL","371addqx7x","1366","768","0","1","0","5d8cd4be7bd5180017d887a3","","null","","","","","","","learning/Slide67.JPG","null","","","","","",""
"html-keyboard-response","205","332835","0.0-5.0-1.66","FL","371addqx7x","1366","768","0","1","0","5d8cd4be7bd5180017d887a3","","null","","","learningBlock1","","","","That was a tob.","null","","","","","",""
"html-keyboard-response","206","333840","0.0-5.0-2.66","FL","371addqx7x","1366","768","0","1","0","5d8cd4be7bd5180017d887a3","","null","","","learningBlock1","","","","<div style=""font-size:60px;""> </div>","null","FL","learning/Slide67.JPG","That was a tob.","","",""
"image-keyboard-response","207","334016","0.0-5.0-0.67","FL","371addqx7x","1366","768","0","1","0","5d8cd4be7bd5180017d887a3","","null","","","","","","","learning/Slide68.JPG","null","","","","","",""
"html-keyboard-response","208","335176","0.0-5.0-1.67","FL","371addqx7x","1366","768","0","1","0","5d8cd4be7bd5180017d887a3","","null","","","learningBlock1","","","","That was a wug.","null","","","","","",""
"html-keyboard-response","209","336182","0.0-5.0-2.67","FL","371addqx7x","1366","768","0","1","0","5d8cd4be7bd5180017d887a3","","null","","","learningBlock1","","","","<div style=""font-size:60px;""> </div>","null","FL","learning/Slide68.JPG","That was a wug.","","",""
"image-keyboard-response","210","336363","0.0-5.0-0.68","FL","371addqx7x","1366","768","0","1","0","5d8cd4be7bd5180017d887a3","","null","","","","","","","learning/Slide69.JPG","null","","","","","",""
"html-keyboard-response","211","337526","0.0-5.0-1.68","FL","371addqx7x","1366","768","0","1","0","5d8cd4be7bd5180017d887a3","","null","","","learningBlock1","","","","That was a tob.","null","","","","","",""
"html-keyboard-response","212","338529","0.0-5.0-2.68","FL","371addqx7x","1366","768","0","1","0","5d8cd4be7bd5180017d887a3","","null","","","learningBlock1","","","","<div style=""font-size:60px;""> </div>","null","FL","learning/Slide69.JPG","That was a tob.","","",""
"image-keyboard-response","213","338715","0.0-5.0-0.69","FL","371addqx7x","1366","768","0","1","0","5d8cd4be7bd5180017d887a3","","null","","","","","","","learning/Slide70.JPG","null","","","","","",""
"html-keyboard-response","214","339881","0.0-5.0-1.69","FL","371addqx7x","1366","768","0","1","0","5d8cd4be7bd5180017d887a3","","null","","","learningBlock1","","","","That was a dep.","null","","","","","",""
"html-keyboard-response","215","340887","0.0-5.0-2.69","FL","371addqx7x","1366","768","0","1","0","5d8cd4be7bd5180017d887a3","","null","","","learningBlock1","","","","<div style=""font-size:60px;""> </div>","null","FL","learning/Slide70.JPG","That was a dep.","","",""
"image-keyboard-response","216","341064","0.0-5.0-0.70","FL","371addqx7x","1366","768","0","1","0","5d8cd4be7bd5180017d887a3","","null","","","","","","","learning/Slide71.JPG","null","","","","","",""
"html-keyboard-response","217","342231","0.0-5.0-1.70","FL","371addqx7x","1366","768","0","1","0","5d8cd4be7bd5180017d887a3","","null","","","learningBlock1","","","","That was a wug.","null","","","","","",""
"html-keyboard-response","218","343237","0.0-5.0-2.70","FL","371addqx7x","1366","768","0","1","0","5d8cd4be7bd5180017d887a3","","null","","","learningBlock1","","","","<div style=""font-size:60px;""> </div>","null","FL","learning/Slide71.JPG","That was a wug.","","",""
"image-keyboard-response","219","343427","0.0-5.0-0.71","FL","371addqx7x","1366","768","0","1","0","5d8cd4be7bd5180017d887a3","","null","","","","","","","learning/Slide72.JPG","null","","","","","",""
"html-keyboard-response","220","344582","0.0-5.0-1.71","FL","371addqx7x","1366","768","0","1","0","5d8cd4be7bd5180017d887a3","","null","","","learningBlock1","","","","That was a bim.","null","","","","","",""
"html-keyboard-response","221","345596","0.0-5.0-2.71","FL","371addqx7x","1366","768","0","1","0","5d8cd4be7bd5180017d887a3","","null","","","learningBlock1","","","","<div style=""font-size:60px;""> </div>","null","FL","learning/Slide72.JPG","That was a bim.","","",""
"image-keyboard-response","222","345772","0.0-5.0-0.72","FL","371addqx7x","1366","768","0","1","0","5d8cd4be7bd5180017d887a3","","null","","","","","","","learning/Slide73.JPG","null","","","","","",""
"html-keyboard-response","223","346932","0.0-5.0-1.72","FL","371addqx7x","1366","768","0","1","0","5d8cd4be7bd5180017d887a3","","null","","","learningBlock1","","","","That was a wug.","null","","","","","",""
"html-keyboard-response","224","347937","0.0-5.0-2.72","FL","371addqx7x","1366","768","0","1","0","5d8cd4be7bd5180017d887a3","","null","","","learningBlock1","","","","<div style=""font-size:60px;""> </div>","null","FL","learning/Slide73.JPG","That was a wug.","","",""
"image-keyboard-response","225","348128","0.0-5.0-0.73","FL","371addqx7x","1366","768","0","1","0","5d8cd4be7bd5180017d887a3","","null","","","","","","","learning/Slide74.JPG","null","","","","","",""
"html-keyboard-response","226","349295","0.0-5.0-1.73","FL","371addqx7x","1366","768","0","1","0","5d8cd4be7bd5180017d887a3","","null","","","learningBlock1","","","","That was a dep.","null","","","","","",""
"html-keyboard-response","227","350298","0.0-5.0-2.73","FL","371addqx7x","1366","768","0","1","0","5d8cd4be7bd5180017d887a3","","null","","","learningBlock1","","","","<div style=""font-size:60px;""> </div>","null","FL","learning/Slide74.JPG","That was a dep.","","",""
"image-keyboard-response","228","350478","0.0-5.0-0.74","FL","371addqx7x","1366","768","0","1","0","5d8cd4be7bd5180017d887a3","","null","","","","","","","learning/Slide75.JPG","null","","","","","",""
"html-keyboard-response","229","351644","0.0-5.0-1.74","FL","371addqx7x","1366","768","0","1","0","5d8cd4be7bd5180017d887a3","","null","","","learningBlock1","","","","That was a tob.","null","","","","","",""
"html-keyboard-response","230","352652","0.0-5.0-2.74","FL","371addqx7x","1366","768","0","1","0","5d8cd4be7bd5180017d887a3","","null","","","learningBlock1","","","","<div style=""font-size:60px;""> </div>","null","FL","learning/Slide75.JPG","That was a tob.","","",""
"image-keyboard-response","231","352841","0.0-5.0-0.75","FL","371addqx7x","1366","768","0","1","0","5d8cd4be7bd5180017d887a3","","null","","","","","","","learning/Slide76.JPG","null","","","","","",""
"html-keyboard-response","232","354006","0.0-5.0-1.75","FL","371addqx7x","1366","768","0","1","0","5d8cd4be7bd5180017d887a3","","null","","","learningBlock1","","","","That was a bim.","null","","","","","",""
"html-keyboard-response","233","355009","0.0-5.0-2.75","FL","371addqx7x","1366","768","0","1","0","5d8cd4be7bd5180017d887a3","","null","","","learningBlock1","","","","<div style=""font-size:60px;""> </div>","null","FL","learning/Slide76.JPG","That was a bim.","","",""
"image-keyboard-response","234","355192","0.0-5.0-0.76","FL","371addqx7x","1366","768","0","1","0","5d8cd4be7bd5180017d887a3","","null","","","","","","","learning/Slide77.JPG","null","","","","","",""
"html-keyboard-response","235","356359","0.0-5.0-1.76","FL","371addqx7x","1366","768","0","1","0","5d8cd4be7bd5180017d887a3","","null","","","learningBlock1","","","","That was a tob.","null","","","","","",""
"html-keyboard-response","236","357364","0.0-5.0-2.76","FL","371addqx7x","1366","768","0","1","0","5d8cd4be7bd5180017d887a3","","null","","","learningBlock1","","","","<div style=""font-size:60px;""> </div>","null","FL","learning/Slide77.JPG","That was a tob.","","",""
"image-keyboard-response","237","357542","0.0-5.0-0.77","FL","371addqx7x","1366","768","0","1","0","5d8cd4be7bd5180017d887a3","","null","","","","","","","learning/Slide78.JPG","null","","","","","",""
"html-keyboard-response","238","358708","0.0-5.0-1.77","FL","371addqx7x","1366","768","0","1","0","5d8cd4be7bd5180017d887a3","","null","","","learningBlock1","","","","That was a wug.","null","","","","","",""
"html-keyboard-response","239","359720","0.0-5.0-2.77","FL","371addqx7x","1366","768","0","1","0","5d8cd4be7bd5180017d887a3","","null","","","learningBlock1","","","","<div style=""font-size:60px;""> </div>","null","FL","learning/Slide78.JPG","That was a wug.","","",""
"image-keyboard-response","240","359908","0.0-5.0-0.78","FL","371addqx7x","1366","768","0","1","0","5d8cd4be7bd5180017d887a3","","null","","","","","","","learning/Slide79.JPG","null","","","","","",""
"html-keyboard-response","241","361074","0.0-5.0-1.78","FL","371addqx7x","1366","768","0","1","0","5d8cd4be7bd5180017d887a3","","null","","","learningBlock1","","","","That was a bim.","null","","","","","",""
"html-keyboard-response","242","362082","0.0-5.0-2.78","FL","371addqx7x","1366","768","0","1","0","5d8cd4be7bd5180017d887a3","","null","","","learningBlock1","","","","<div style=""font-size:60px;""> </div>","null","FL","learning/Slide79.JPG","That was a bim.","","",""
"image-keyboard-response","243","362273","0.0-5.0-0.79","FL","371addqx7x","1366","768","0","1","0","5d8cd4be7bd5180017d887a3","","null","","","","","","","learning/Slide80.JPG","null","","","","","",""
"html-keyboard-response","244","363439","0.0-5.0-1.79","FL","371addqx7x","1366","768","0","1","0","5d8cd4be7bd5180017d887a3","","null","","","learningBlock1","","","","That was a tob.","null","","","","","",""
"html-keyboard-response","245","364445","0.0-5.0-2.79","FL","371addqx7x","1366","768","0","1","0","5d8cd4be7bd5180017d887a3","","null","","","learningBlock1","","","","<div style=""font-size:60px;""> </div>","null","FL","learning/Slide80.JPG","That was a tob.","","",""
"instructions","246","373665","0.0-6.0","FL","371addqx7x","1366","768","0","1","0","5d8cd4be7bd5180017d887a3","","NA","","[{""page_index"":0,""viewing_time"":9218.095000018366}]","instructions","","","","","","","","","","",""
"image-keyboard-response","247","373853","0.0-7.0-0.0","FL","371addqx7x","1366","768","0","1","0","5d8cd4be7bd5180017d887a3","","null","","","","","","","learning/Slide81.JPG","null","","","","","",""
"html-keyboard-response","248","375013","0.0-7.0-1.0","FL","371addqx7x","1366","768","0","1","0","5d8cd4be7bd5180017d887a3","","null","","","learningBlock2","","","","That was a wug.","null","","","","","",""
"html-keyboard-response","249","376019","0.0-7.0-2.0","FL","371addqx7x","1366","768","0","1","0","5d8cd4be7bd5180017d887a3","","null","","","learningBlock2","","","","<div style=""font-size:60px;""> </div>","null","FL","learning/Slide81.JPG","That was a wug.","","",""
"image-keyboard-response","250","376202","0.0-7.0-0.1","FL","371addqx7x","1366","768","0","1","0","5d8cd4be7bd5180017d887a3","","null","","","","","","","learning/Slide82.JPG","null","","","","","",""
"html-keyboard-response","251","377369","0.0-7.0-1.1","FL","371addqx7x","1366","768","0","1","0","5d8cd4be7bd5180017d887a3","","null","","","learningBlock2","","","","That was a bim.","null","","","","","",""
"html-keyboard-response","252","378373","0.0-7.0-2.1","FL","371addqx7x","1366","768","0","1","0","5d8cd4be7bd5180017d887a3","","null","","","learningBlock2","","","","<div style=""font-size:60px;""> </div>","null","FL","learning/Slide82.JPG","That was a bim.","","",""
"image-keyboard-response","253","378551","0.0-7.0-0.2","FL","371addqx7x","1366","768","0","1","0","5d8cd4be7bd5180017d887a3","","null","","","","","","","learning/Slide83.JPG","null","","","","","",""
"html-keyboard-response","254","379713","0.0-7.0-1.2","FL","371addqx7x","1366","768","0","1","0","5d8cd4be7bd5180017d887a3","","null","","","learningBlock2","","","","That was a wug.","null","","","","","",""
"html-keyboard-response","255","380717","0.0-7.0-2.2","FL","371addqx7x","1366","768","0","1","0","5d8cd4be7bd5180017d887a3","","null","","","learningBlock2","","","","<div style=""font-size:60px;""> </div>","null","FL","learning/Slide83.JPG","That was a wug.","","",""
"image-keyboard-response","256","380900","0.0-7.0-0.3","FL","371addqx7x","1366","768","0","1","0","5d8cd4be7bd5180017d887a3","","null","","","","","","","learning/Slide84.JPG","null","","","","","",""
"html-keyboard-response","257","382081","0.0-7.0-1.3","FL","371addqx7x","1366","768","0","1","0","5d8cd4be7bd5180017d887a3","","null","","","learningBlock2","","","","That was a dep.","null","","","","","",""
"html-keyboard-response","258","383084","0.0-7.0-2.3","FL","371addqx7x","1366","768","0","1","0","5d8cd4be7bd5180017d887a3","","null","","","learningBlock2","","","","<div style=""font-size:60px;""> </div>","null","FL","learning/Slide84.JPG","That was a dep.","","",""
"image-keyboard-response","259","383266","0.0-7.0-0.4","FL","371addqx7x","1366","768","0","1","0","5d8cd4be7bd5180017d887a3","","null","","","","","","","learning/Slide85.JPG","null","","","","","",""
"html-keyboard-response","260","384433","0.0-7.0-1.4","FL","371addqx7x","1366","768","0","1","0","5d8cd4be7bd5180017d887a3","","null","","","learningBlock2","","","","That was a bim.","null","","","","","",""
"html-keyboard-response","261","385449","0.0-7.0-2.4","FL","371addqx7x","1366","768","0","1","0","5d8cd4be7bd5180017d887a3","","null","","","learningBlock2","","","","<div style=""font-size:60px;""> </div>","null","FL","learning/Slide85.JPG","That was a bim.","","",""
"image-keyboard-response","262","385632","0.0-7.0-0.5","FL","371addqx7x","1366","768","0","1","0","5d8cd4be7bd5180017d887a3","","null","","","","","","","learning/Slide86.JPG","null","","","","","",""
"html-keyboard-response","263","386798","0.0-7.0-1.5","FL","371addqx7x","1366","768","0","1","0","5d8cd4be7bd5180017d887a3","","null","","","learningBlock2","","","","That was a tob.","null","","","","","",""
"html-keyboard-response","264","387815","0.0-7.0-2.5","FL","371addqx7x","1366","768","0","1","0","5d8cd4be7bd5180017d887a3","","null","","","learningBlock2","","","","<div style=""font-size:60px;""> </div>","null","FL","learning/Slide86.JPG","That was a tob.","","",""
"image-keyboard-response","265","387998","0.0-7.0-0.6","FL","371addqx7x","1366","768","0","1","0","5d8cd4be7bd5180017d887a3","","null","","","","","","","learning/Slide87.JPG","null","","","","","",""
"html-keyboard-response","266","389164","0.0-7.0-1.6","FL","371addqx7x","1366","768","0","1","0","5d8cd4be7bd5180017d887a3","","null","","","learningBlock2","","","","That was a wug.","null","","","","","",""
"html-keyboard-response","267","390181","0.0-7.0-2.6","FL","371addqx7x","1366","768","0","1","0","5d8cd4be7bd5180017d887a3","","null","","","learningBlock2","","","","<div style=""font-size:60px;""> </div>","null","FL","learning/Slide87.JPG","That was a wug.","","",""
"image-keyboard-response","268","390364","0.0-7.0-0.7","FL","371addqx7x","1366","768","0","1","0","5d8cd4be7bd5180017d887a3","","null","","","","","","","learning/Slide88.JPG","null","","","","","",""
"html-keyboard-response","269","391530","0.0-7.0-1.7","FL","371addqx7x","1366","768","0","1","0","5d8cd4be7bd5180017d887a3","","null","","","learningBlock2","","","","That was a tob.","null","","","","","",""
"html-keyboard-response","270","392543","0.0-7.0-2.7","FL","371addqx7x","1366","768","0","1","0","5d8cd4be7bd5180017d887a3","","null","","","learningBlock2","","","","<div style=""font-size:60px;""> </div>","null","FL","learning/Slide88.JPG","That was a tob.","","",""
"image-keyboard-response","271","392730","0.0-7.0-0.8","FL","371addqx7x","1366","768","0","1","0","5d8cd4be7bd5180017d887a3","","null","","","","","","","learning/Slide89.JPG","null","","","","","",""
"html-keyboard-response","272","393896","0.0-7.0-1.8","FL","371addqx7x","1366","768","0","1","0","5d8cd4be7bd5180017d887a3","","null","","","learningBlock2","","","","That was a bim.","null","","","","","",""
"html-keyboard-response","273","394904","0.0-7.0-2.8","FL","371addqx7x","1366","768","0","1","0","5d8cd4be7bd5180017d887a3","","null","","","learningBlock2","","","","<div style=""font-size:60px;""> </div>","null","FL","learning/Slide89.JPG","That was a bim.","","",""
"image-keyboard-response","274","395096","0.0-7.0-0.9","FL","371addqx7x","1366","768","0","1","0","5d8cd4be7bd5180017d887a3","","null","","","","","","","learning/Slide90.JPG","null","","","","","",""
"html-keyboard-response","275","396257","0.0-7.0-1.9","FL","371addqx7x","1366","768","0","1","0","5d8cd4be7bd5180017d887a3","","null","","","learningBlock2","","","","That was a dep.","null","","","","","",""
"html-keyboard-response","276","397261","0.0-7.0-2.9","FL","371addqx7x","1366","768","0","1","0","5d8cd4be7bd5180017d887a3","","null","","","learningBlock2","","","","<div style=""font-size:60px;""> </div>","null","FL","learning/Slide90.JPG","That was a dep.","","",""
"image-keyboard-response","277","397445","0.0-7.0-0.10","FL","371addqx7x","1366","768","0","1","0","5d8cd4be7bd5180017d887a3","","null","","","","","","","learning/Slide91.JPG","null","","","","","",""
"html-keyboard-response","278","398613","0.0-7.0-1.10","FL","371addqx7x","1366","768","0","1","0","5d8cd4be7bd5180017d887a3","","null","","","learningBlock2","","","","That was a wug.","null","","","","","",""
"html-keyboard-response","279","399624","0.0-7.0-2.10","FL","371addqx7x","1366","768","0","1","0","5d8cd4be7bd5180017d887a3","","null","","","learningBlock2","","","","<div style=""font-size:60px;""> </div>","null","FL","learning/Slide91.JPG","That was a wug.","","",""
"image-keyboard-response","280","399805","0.0-7.0-0.11","FL","371addqx7x","1366","768","0","1","0","5d8cd4be7bd5180017d887a3","","null","","","","","","","learning/Slide92.JPG","null","","","","","",""
"html-keyboard-response","281","400964","0.0-7.0-1.11","FL","371addqx7x","1366","768","0","1","0","5d8cd4be7bd5180017d887a3","","null","","","learningBlock2","","","","That was a tob.","null","","","","","",""
"html-keyboard-response","282","401977","0.0-7.0-2.11","FL","371addqx7x","1366","768","0","1","0","5d8cd4be7bd5180017d887a3","","null","","","learningBlock2","","","","<div style=""font-size:60px;""> </div>","null","FL","learning/Slide92.JPG","That was a tob.","","",""
"image-keyboard-response","283","402156","0.0-7.0-0.12","FL","371addqx7x","1366","768","0","1","0","5d8cd4be7bd5180017d887a3","","null","","","","","","","learning/Slide93.JPG","null","","","","","",""
"html-keyboard-response","284","403318","0.0-7.0-1.12","FL","371addqx7x","1366","768","0","1","0","5d8cd4be7bd5180017d887a3","","null","","","learningBlock2","","","","That was a bim.","null","","","","","",""
"html-keyboard-response","285","404326","0.0-7.0-2.12","FL","371addqx7x","1366","768","0","1","0","5d8cd4be7bd5180017d887a3","","null","","","learningBlock2","","","","<div style=""font-size:60px;""> </div>","null","FL","learning/Slide93.JPG","That was a bim.","","",""
"image-keyboard-response","286","404503","0.0-7.0-0.13","FL","371addqx7x","1366","768","0","1","0","5d8cd4be7bd5180017d887a3","","null","","","","","","","learning/Slide94.JPG","null","","","","","",""
"html-keyboard-response","287","405669","0.0-7.0-1.13","FL","371addqx7x","1366","768","0","1","0","5d8cd4be7bd5180017d887a3","","null","","","learningBlock2","","","","That was a tob.","null","","","","","",""
"html-keyboard-response","288","406675","0.0-7.0-2.13","FL","371addqx7x","1366","768","0","1","0","5d8cd4be7bd5180017d887a3","","null","","","learningBlock2","","","","<div style=""font-size:60px;""> </div>","null","FL","learning/Slide94.JPG","That was a tob.","","",""
"image-keyboard-response","289","406858","0.0-7.0-0.14","FL","371addqx7x","1366","768","0","1","0","5d8cd4be7bd5180017d887a3","","null","","","","","","","learning/Slide95.JPG","null","","","","","",""
"html-keyboard-response","290","408015","0.0-7.0-1.14","FL","371addqx7x","1366","768","0","1","0","5d8cd4be7bd5180017d887a3","","null","","","learningBlock2","","","","That was a wug.","null","","","","","",""
"html-keyboard-response","291","409019","0.0-7.0-2.14","FL","371addqx7x","1366","768","0","1","0","5d8cd4be7bd5180017d887a3","","null","","","learningBlock2","","","","<div style=""font-size:60px;""> </div>","null","FL","learning/Slide95.JPG","That was a wug.","","",""
"image-keyboard-response","292","409207","0.0-7.0-0.15","FL","371addqx7x","1366","768","0","1","0","5d8cd4be7bd5180017d887a3","","null","","","","","","","learning/Slide96.JPG","null","","","","","",""
"html-keyboard-response","293","410374","0.0-7.0-1.15","FL","371addqx7x","1366","768","0","1","0","5d8cd4be7bd5180017d887a3","","null","","","learningBlock2","","","","That was a tob.","null","","","","","",""
"html-keyboard-response","294","411377","0.0-7.0-2.15","FL","371addqx7x","1366","768","0","1","0","5d8cd4be7bd5180017d887a3","","null","","","learningBlock2","","","","<div style=""font-size:60px;""> </div>","null","FL","learning/Slide96.JPG","That was a tob.","","",""
"image-keyboard-response","295","411557","0.0-7.0-0.16","FL","371addqx7x","1366","768","0","1","0","5d8cd4be7bd5180017d887a3","","null","","","","","","","learning/Slide97.JPG","null","","","","","",""
"html-keyboard-response","296","412723","0.0-7.0-1.16","FL","371addqx7x","1366","768","0","1","0","5d8cd4be7bd5180017d887a3","","null","","","learningBlock2","","","","That was a dep.","null","","","","","",""
"html-keyboard-response","297","413738","0.0-7.0-2.16","FL","371addqx7x","1366","768","0","1","0","5d8cd4be7bd5180017d887a3","","null","","","learningBlock2","","","","<div style=""font-size:60px;""> </div>","null","FL","learning/Slide97.JPG","That was a dep.","","",""
"image-keyboard-response","298","413923","0.0-7.0-0.17","FL","371addqx7x","1366","768","0","1","0","5d8cd4be7bd5180017d887a3","","null","","","","","","","learning/Slide98.JPG","null","","","","","",""
"html-keyboard-response","299","415089","0.0-7.0-1.17","FL","371addqx7x","1366","768","0","1","0","5d8cd4be7bd5180017d887a3","","null","","","learningBlock2","","","","That was a bim.","null","","","","","",""
"html-keyboard-response","300","416095","0.0-7.0-2.17","FL","371addqx7x","1366","768","0","1","0","5d8cd4be7bd5180017d887a3","","null","","","learningBlock2","","","","<div style=""font-size:60px;""> </div>","null","FL","learning/Slide98.JPG","That was a bim.","","",""
"image-keyboard-response","301","416272","0.0-7.0-0.18","FL","371addqx7x","1366","768","0","1","0","5d8cd4be7bd5180017d887a3","","null","","","","","","","learning/Slide99.JPG","null","","","","","",""
"html-keyboard-response","302","417432","0.0-7.0-1.18","FL","371addqx7x","1366","768","0","1","0","5d8cd4be7bd5180017d887a3","","null","","","learningBlock2","","","","That was a dep.","null","","","","","",""
"html-keyboard-response","303","418437","0.0-7.0-2.18","FL","371addqx7x","1366","768","0","1","0","5d8cd4be7bd5180017d887a3","","null","","","learningBlock2","","","","<div style=""font-size:60px;""> </div>","null","FL","learning/Slide99.JPG","That was a dep.","","",""
"image-keyboard-response","304","418621","0.0-7.0-0.19","FL","371addqx7x","1366","768","0","1","0","5d8cd4be7bd5180017d887a3","","null","","","","","","","learning/Slide100.JPG","null","","","","","",""
"html-keyboard-response","305","419794","0.0-7.0-1.19","FL","371addqx7x","1366","768","0","1","0","5d8cd4be7bd5180017d887a3","","null","","","learningBlock2","","","","That was a bim.","null","","","","","",""
"html-keyboard-response","306","420801","0.0-7.0-2.19","FL","371addqx7x","1366","768","0","1","0","5d8cd4be7bd5180017d887a3","","null","","","learningBlock2","","","","<div style=""font-size:60px;""> </div>","null","FL","learning/Slide100.JPG","That was a bim.","","",""
"image-keyboard-response","307","420987","0.0-7.0-0.20","FL","371addqx7x","1366","768","0","1","0","5d8cd4be7bd5180017d887a3","","null","","","","","","","learning/Slide101.JPG","null","","","","","",""
"html-keyboard-response","308","422154","0.0-7.0-1.20","FL","371addqx7x","1366","768","0","1","0","5d8cd4be7bd5180017d887a3","","null","","","learningBlock2","","","","That was a tob.","null","","","","","",""
"html-keyboard-response","309","423168","0.0-7.0-2.20","FL","371addqx7x","1366","768","0","1","0","5d8cd4be7bd5180017d887a3","","null","","","learningBlock2","","","","<div style=""font-size:60px;""> </div>","null","FL","learning/Slide101.JPG","That was a tob.","","",""
"image-keyboard-response","310","423353","0.0-7.0-0.21","FL","371addqx7x","1366","768","0","1","0","5d8cd4be7bd5180017d887a3","","null","","","","","","","learning/Slide102.JPG","null","","","","","",""
"html-keyboard-response","311","424519","0.0-7.0-1.21","FL","371addqx7x","1366","768","0","1","0","5d8cd4be7bd5180017d887a3","","null","","","learningBlock2","","","","That was a bim.","null","","","","","",""
"html-keyboard-response","312","425536","0.0-7.0-2.21","FL","371addqx7x","1366","768","0","1","0","5d8cd4be7bd5180017d887a3","","null","","","learningBlock2","","","","<div style=""font-size:60px;""> </div>","null","FL","learning/Slide102.JPG","That was a bim.","","",""
"image-keyboard-response","313","425719","0.0-7.0-0.22","FL","371addqx7x","1366","768","0","1","0","5d8cd4be7bd5180017d887a3","","null","","","","","","","learning/Slide103.JPG","null","","","","","",""
"html-keyboard-response","314","426885","0.0-7.0-1.22","FL","371addqx7x","1366","768","0","1","0","5d8cd4be7bd5180017d887a3","","null","","","learningBlock2","","","","That was a dep.","null","","","","","",""
"html-keyboard-response","315","427893","0.0-7.0-2.22","FL","371addqx7x","1366","768","0","1","0","5d8cd4be7bd5180017d887a3","","null","","","learningBlock2","","","","<div style=""font-size:60px;""> </div>","null","FL","learning/Slide103.JPG","That was a dep.","","",""
"image-keyboard-response","316","428080","0.0-7.0-0.23","FL","371addqx7x","1366","768","0","1","0","5d8cd4be7bd5180017d887a3","","null","","","","","","","learning/Slide104.JPG","null","","","","","",""
"html-keyboard-response","317","429249","0.0-7.0-1.23","FL","371addqx7x","1366","768","0","1","0","5d8cd4be7bd5180017d887a3","","null","","","learningBlock2","","","","That was a tob.","null","","","","","",""
"html-keyboard-response","318","430251","0.0-7.0-2.23","FL","371addqx7x","1366","768","0","1","0","5d8cd4be7bd5180017d887a3","","null","","","learningBlock2","","","","<div style=""font-size:60px;""> </div>","null","FL","learning/Slide104.JPG","That was a tob.","","",""
"image-keyboard-response","319","430433","0.0-7.0-0.24","FL","371addqx7x","1366","768","0","1","0","5d8cd4be7bd5180017d887a3","","null","","","","","","","learning/Slide105.JPG","null","","","","","",""
"html-keyboard-response","320","431599","0.0-7.0-1.24","FL","371addqx7x","1366","768","0","1","0","5d8cd4be7bd5180017d887a3","","null","","","learningBlock2","","","","That was a dep.","null","","","","","",""
"html-keyboard-response","321","432611","0.0-7.0-2.24","FL","371addqx7x","1366","768","0","1","0","5d8cd4be7bd5180017d887a3","","null","","","learningBlock2","","","","<div style=""font-size:60px;""> </div>","null","FL","learning/Slide105.JPG","That was a dep.","","",""
"image-keyboard-response","322","432799","0.0-7.0-0.25","FL","371addqx7x","1366","768","0","1","0","5d8cd4be7bd5180017d887a3","","null","","","","","","","learning/Slide106.JPG","null","","","","","",""
"html-keyboard-response","323","433961","0.0-7.0-1.25","FL","371addqx7x","1366","768","0","1","0","5d8cd4be7bd5180017d887a3","","null","","","learningBlock2","","","","That was a wug.","null","","","","","",""
"html-keyboard-response","324","434966","0.0-7.0-2.25","FL","371addqx7x","1366","768","0","1","0","5d8cd4be7bd5180017d887a3","","null","","","learningBlock2","","","","<div style=""font-size:60px;""> </div>","null","FL","learning/Slide106.JPG","That was a wug.","","",""
"image-keyboard-response","325","435149","0.0-7.0-0.26","FL","371addqx7x","1366","768","0","1","0","5d8cd4be7bd5180017d887a3","","null","","","","","","","learning/Slide107.JPG","null","","","","","",""
"html-keyboard-response","326","436327","0.0-7.0-1.26","FL","371addqx7x","1366","768","0","1","0","5d8cd4be7bd5180017d887a3","","null","","","learningBlock2","","","","That was a bim.","null","","","","","",""
"html-keyboard-response","327","437331","0.0-7.0-2.26","FL","371addqx7x","1366","768","0","1","0","5d8cd4be7bd5180017d887a3","","null","","","learningBlock2","","","","<div style=""font-size:60px;""> </div>","null","FL","learning/Slide107.JPG","That was a bim.","","",""
"image-keyboard-response","328","437515","0.0-7.0-0.27","FL","371addqx7x","1366","768","0","1","0","5d8cd4be7bd5180017d887a3","","null","","","","","","","learning/Slide108.JPG","null","","","","","",""
"html-keyboard-response","329","438687","0.0-7.0-1.27","FL","371addqx7x","1366","768","0","1","0","5d8cd4be7bd5180017d887a3","","null","","","learningBlock2","","","","That was a dep.","null","","","","","",""
"html-keyboard-response","330","439695","0.0-7.0-2.27","FL","371addqx7x","1366","768","0","1","0","5d8cd4be7bd5180017d887a3","","null","","","learningBlock2","","","","<div style=""font-size:60px;""> </div>","null","FL","learning/Slide108.JPG","That was a dep.","","",""
"image-keyboard-response","331","439880","0.0-7.0-0.28","FL","371addqx7x","1366","768","0","1","0","5d8cd4be7bd5180017d887a3","","null","","","","","","","learning/Slide109.JPG","null","","","","","",""
"html-keyboard-response","332","441043","0.0-7.0-1.28","FL","371addqx7x","1366","768","0","1","0","5d8cd4be7bd5180017d887a3","","null","","","learningBlock2","","","","That was a wug.","null","","","","","",""
"html-keyboard-response","333","442047","0.0-7.0-2.28","FL","371addqx7x","1366","768","0","1","0","5d8cd4be7bd5180017d887a3","","null","","","learningBlock2","","","","<div style=""font-size:60px;""> </div>","null","FL","learning/Slide109.JPG","That was a wug.","","",""
"image-keyboard-response","334","442230","0.0-7.0-0.29","FL","371addqx7x","1366","768","0","1","0","5d8cd4be7bd5180017d887a3","","null","","","","","","","learning/Slide110.JPG","null","","","","","",""
"html-keyboard-response","335","443396","0.0-7.0-1.29","FL","371addqx7x","1366","768","0","1","0","5d8cd4be7bd5180017d887a3","","null","","","learningBlock2","","","","That was a bim.","null","","","","","",""
"html-keyboard-response","336","444400","0.0-7.0-2.29","FL","371addqx7x","1366","768","0","1","0","5d8cd4be7bd5180017d887a3","","null","","","learningBlock2","","","","<div style=""font-size:60px;""> </div>","null","FL","learning/Slide110.JPG","That was a bim.","","",""
"image-keyboard-response","337","444579","0.0-7.0-0.30","FL","371addqx7x","1366","768","0","1","0","5d8cd4be7bd5180017d887a3","","null","","","","","","","learning/Slide111.JPG","null","","","","","",""
"html-keyboard-response","338","445745","0.0-7.0-1.30","FL","371addqx7x","1366","768","0","1","0","5d8cd4be7bd5180017d887a3","","null","","","learningBlock2","","","","That was a tob.","null","","","","","",""
"html-keyboard-response","339","446751","0.0-7.0-2.30","FL","371addqx7x","1366","768","0","1","0","5d8cd4be7bd5180017d887a3","","null","","","learningBlock2","","","","<div style=""font-size:60px;""> </div>","null","FL","learning/Slide111.JPG","That was a tob.","","",""
"image-keyboard-response","340","446928","0.0-7.0-0.31","FL","371addqx7x","1366","768","0","1","0","5d8cd4be7bd5180017d887a3","","null","","","","","","","learning/Slide112.JPG","null","","","","","",""
"html-keyboard-response","341","448095","0.0-7.0-1.31","FL","371addqx7x","1366","768","0","1","0","5d8cd4be7bd5180017d887a3","","null","","","learningBlock2","","","","That was a wug.","null","","","","","",""
"html-keyboard-response","342","449110","0.0-7.0-2.31","FL","371addqx7x","1366","768","0","1","0","5d8cd4be7bd5180017d887a3","","null","","","learningBlock2","","","","<div style=""font-size:60px;""> </div>","null","FL","learning/Slide112.JPG","That was a wug.","","",""
"image-keyboard-response","343","449294","0.0-7.0-0.32","FL","371addqx7x","1366","768","0","1","0","5d8cd4be7bd5180017d887a3","","null","","","","","","","learning/Slide113.JPG","null","","","","","",""
"html-keyboard-response","344","450460","0.0-7.0-1.32","FL","371addqx7x","1366","768","0","1","0","5d8cd4be7bd5180017d887a3","","null","","","learningBlock2","","","","That was a tob.","null","","","","","",""
"html-keyboard-response","345","451468","0.0-7.0-2.32","FL","371addqx7x","1366","768","0","1","0","5d8cd4be7bd5180017d887a3","","null","","","learningBlock2","","","","<div style=""font-size:60px;""> </div>","null","FL","learning/Slide113.JPG","That was a tob.","","",""
"image-keyboard-response","346","451656","0.0-7.0-0.33","FL","371addqx7x","1366","768","0","1","0","5d8cd4be7bd5180017d887a3","","null","","","","","","","learning/Slide114.JPG","null","","","","","",""
"html-keyboard-response","347","452816","0.0-7.0-1.33","FL","371addqx7x","1366","768","0","1","0","5d8cd4be7bd5180017d887a3","","null","","","learningBlock2","","","","That was a wug.","null","","","","","",""
"html-keyboard-response","348","453821","0.0-7.0-2.33","FL","371addqx7x","1366","768","0","1","0","5d8cd4be7bd5180017d887a3","","null","","","learningBlock2","","","","<div style=""font-size:60px;""> </div>","null","FL","learning/Slide114.JPG","That was a wug.","","",""
"image-keyboard-response","349","454009","0.0-7.0-0.34","FL","371addqx7x","1366","768","0","1","0","5d8cd4be7bd5180017d887a3","","null","","","","","","","learning/Slide115.JPG","null","","","","","",""
"html-keyboard-response","350","455176","0.0-7.0-1.34","FL","371addqx7x","1366","768","0","1","0","5d8cd4be7bd5180017d887a3","","null","","","learningBlock2","","","","That was a bim.","null","","","","","",""
"html-keyboard-response","351","456178","0.0-7.0-2.34","FL","371addqx7x","1366","768","0","1","0","5d8cd4be7bd5180017d887a3","","null","","","learningBlock2","","","","<div style=""font-size:60px;""> </div>","null","FL","learning/Slide115.JPG","That was a bim.","","",""
"image-keyboard-response","352","456358","0.0-7.0-0.35","FL","371addqx7x","1366","768","0","1","0","5d8cd4be7bd5180017d887a3","","null","","","","","","","learning/Slide116.JPG","null","","","","","",""
"html-keyboard-response","353","457525","0.0-7.0-1.35","FL","371addqx7x","1366","768","0","1","0","5d8cd4be7bd5180017d887a3","","null","","","learningBlock2","","","","That was a dep.","null","","","","","",""
"html-keyboard-response","354","458532","0.0-7.0-2.35","FL","371addqx7x","1366","768","0","1","0","5d8cd4be7bd5180017d887a3","","null","","","learningBlock2","","","","<div style=""font-size:60px;""> </div>","null","FL","learning/Slide116.JPG","That was a dep.","","",""
"image-keyboard-response","355","458725","0.0-7.0-0.36","FL","371addqx7x","1366","768","0","1","0","5d8cd4be7bd5180017d887a3","","null","","","","","","","learning/Slide117.JPG","null","","","","","",""
"html-keyboard-response","356","459891","0.0-7.0-1.36","FL","371addqx7x","1366","768","0","1","0","5d8cd4be7bd5180017d887a3","","null","","","learningBlock2","","","","That was a tob.","null","","","","","",""
"html-keyboard-response","357","460897","0.0-7.0-2.36","FL","371addqx7x","1366","768","0","1","0","5d8cd4be7bd5180017d887a3","","null","","","learningBlock2","","","","<div style=""font-size:60px;""> </div>","null","FL","learning/Slide117.JPG","That was a tob.","","",""
"image-keyboard-response","358","461073","0.0-7.0-0.37","FL","371addqx7x","1366","768","0","1","0","5d8cd4be7bd5180017d887a3","","null","","","","","","","learning/Slide118.JPG","null","","","","","",""
"html-keyboard-response","359","462238","0.0-7.0-1.37","FL","371addqx7x","1366","768","0","1","0","5d8cd4be7bd5180017d887a3","","null","","","learningBlock2","","","","That was a dep.","null","","","","","",""
"html-keyboard-response","360","463243","0.0-7.0-2.37","FL","371addqx7x","1366","768","0","1","0","5d8cd4be7bd5180017d887a3","","null","","","learningBlock2","","","","<div style=""font-size:60px;""> </div>","null","FL","learning/Slide118.JPG","That was a dep.","","",""
"image-keyboard-response","361","463422","0.0-7.0-0.38","FL","371addqx7x","1366","768","0","1","0","5d8cd4be7bd5180017d887a3","","null","","","","","","","learning/Slide119.JPG","null","","","","","",""
"html-keyboard-response","362","464589","0.0-7.0-1.38","FL","371addqx7x","1366","768","0","1","0","5d8cd4be7bd5180017d887a3","","null","","","learningBlock2","","","","That was a wug.","null","","","","","",""
"html-keyboard-response","363","465593","0.0-7.0-2.38","FL","371addqx7x","1366","768","0","1","0","5d8cd4be7bd5180017d887a3","","null","","","learningBlock2","","","","<div style=""font-size:60px;""> </div>","null","FL","learning/Slide119.JPG","That was a wug.","","",""
"image-keyboard-response","364","465772","0.0-7.0-0.39","FL","371addqx7x","1366","768","0","1","0","5d8cd4be7bd5180017d887a3","","null","","","","","","","learning/Slide120.JPG","null","","","","","",""
"html-keyboard-response","365","466929","0.0-7.0-1.39","FL","371addqx7x","1366","768","0","1","0","5d8cd4be7bd5180017d887a3","","null","","","learningBlock2","","","","That was a dep.","null","","","","","",""
"html-keyboard-response","366","467933","0.0-7.0-2.39","FL","371addqx7x","1366","768","0","1","0","5d8cd4be7bd5180017d887a3","","null","","","learningBlock2","","","","<div style=""font-size:60px;""> </div>","null","FL","learning/Slide120.JPG","That was a dep.","","",""
"image-keyboard-response","367","468121","0.0-7.0-0.40","FL","371addqx7x","1366","768","0","1","0","5d8cd4be7bd5180017d887a3","","null","","","","","","","learning/Slide121.JPG","null","","","","","",""
"html-keyboard-response","368","469284","0.0-7.0-1.40","FL","371addqx7x","1366","768","0","1","0","5d8cd4be7bd5180017d887a3","","null","","","learningBlock2","","","","That was a bim.","null","","","","","",""
"html-keyboard-response","369","470287","0.0-7.0-2.40","FL","371addqx7x","1366","768","0","1","0","5d8cd4be7bd5180017d887a3","","null","","","learningBlock2","","","","<div style=""font-size:60px;""> </div>","null","FL","learning/Slide121.JPG","That was a bim.","","",""
"image-keyboard-response","370","470471","0.0-7.0-0.41","FL","371addqx7x","1366","768","0","1","0","5d8cd4be7bd5180017d887a3","","null","","","","","","","learning/Slide122.JPG","null","","","","","",""
"html-keyboard-response","371","471653","0.0-7.0-1.41","FL","371addqx7x","1366","768","0","1","0","5d8cd4be7bd5180017d887a3","","null","","","learningBlock2","","","","That was a wug.","null","","","","","",""
"html-keyboard-response","372","472659","0.0-7.0-2.41","FL","371addqx7x","1366","768","0","1","0","5d8cd4be7bd5180017d887a3","","null","","","learningBlock2","","","","<div style=""font-size:60px;""> </div>","null","FL","learning/Slide122.JPG","That was a wug.","","",""
"image-keyboard-response","373","472837","0.0-7.0-0.42","FL","371addqx7x","1366","768","0","1","0","5d8cd4be7bd5180017d887a3","","null","","","","","","","learning/Slide123.JPG","null","","","","","",""
"html-keyboard-response","374","473999","0.0-7.0-1.42","FL","371addqx7x","1366","768","0","1","0","5d8cd4be7bd5180017d887a3","","null","","","learningBlock2","","","","That was a bim.","null","","","","","",""
"html-keyboard-response","375","475002","0.0-7.0-2.42","FL","371addqx7x","1366","768","0","1","0","5d8cd4be7bd5180017d887a3","","null","","","learningBlock2","","","","<div style=""font-size:60px;""> </div>","null","FL","learning/Slide123.JPG","That was a bim.","","",""
"image-keyboard-response","376","475185","0.0-7.0-0.43","FL","371addqx7x","1366","768","0","1","0","5d8cd4be7bd5180017d887a3","","null","","","","","","","learning/Slide124.JPG","null","","","","","",""
"html-keyboard-response","377","476353","0.0-7.0-1.43","FL","371addqx7x","1366","768","0","1","0","5d8cd4be7bd5180017d887a3","","null","","","learningBlock2","","","","That was a tob.","null","","","","","",""
"html-keyboard-response","378","477357","0.0-7.0-2.43","FL","371addqx7x","1366","768","0","1","0","5d8cd4be7bd5180017d887a3","","null","","","learningBlock2","","","","<div style=""font-size:60px;""> </div>","null","FL","learning/Slide124.JPG","That was a tob.","","",""
"image-keyboard-response","379","477535","0.0-7.0-0.44","FL","371addqx7x","1366","768","0","1","0","5d8cd4be7bd5180017d887a3","","null","","","","","","","learning/Slide125.JPG","null","","","","","",""
"html-keyboard-response","380","478701","0.0-7.0-1.44","FL","371addqx7x","1366","768","0","1","0","5d8cd4be7bd5180017d887a3","","null","","","learningBlock2","","","","That was a bim.","null","","","","","",""
"html-keyboard-response","381","479704","0.0-7.0-2.44","FL","371addqx7x","1366","768","0","1","0","5d8cd4be7bd5180017d887a3","","null","","","learningBlock2","","","","<div style=""font-size:60px;""> </div>","null","FL","learning/Slide125.JPG","That was a bim.","","",""
"image-keyboard-response","382","479884","0.0-7.0-0.45","FL","371addqx7x","1366","768","0","1","0","5d8cd4be7bd5180017d887a3","","null","","","","","","","learning/Slide126.JPG","null","","","","","",""
"html-keyboard-response","383","481050","0.0-7.0-1.45","FL","371addqx7x","1366","768","0","1","0","5d8cd4be7bd5180017d887a3","","null","","","learningBlock2","","","","That was a tob.","null","","","","","",""
"html-keyboard-response","384","482053","0.0-7.0-2.45","FL","371addqx7x","1366","768","0","1","0","5d8cd4be7bd5180017d887a3","","null","","","learningBlock2","","","","<div style=""font-size:60px;""> </div>","null","FL","learning/Slide126.JPG","That was a tob.","","",""
"image-keyboard-response","385","482233","0.0-7.0-0.46","FL","371addqx7x","1366","768","0","1","0","5d8cd4be7bd5180017d887a3","","null","","","","","","","learning/Slide127.JPG","null","","","","","",""
"html-keyboard-response","386","483399","0.0-7.0-1.46","FL","371addqx7x","1366","768","0","1","0","5d8cd4be7bd5180017d887a3","","null","","","learningBlock2","","","","That was a dep.","null","","","","","",""
"html-keyboard-response","387","484412","0.0-7.0-2.46","FL","371addqx7x","1366","768","0","1","0","5d8cd4be7bd5180017d887a3","","null","","","learningBlock2","","","","<div style=""font-size:60px;""> </div>","null","FL","learning/Slide127.JPG","That was a dep.","","",""
"image-keyboard-response","388","484599","0.0-7.0-0.47","FL","371addqx7x","1366","768","0","1","0","5d8cd4be7bd5180017d887a3","","null","","","","","","","learning/Slide128.JPG","null","","","","","",""
"html-keyboard-response","389","485765","0.0-7.0-1.47","FL","371addqx7x","1366","768","0","1","0","5d8cd4be7bd5180017d887a3","","null","","","learningBlock2","","","","That was a wug.","null","","","","","",""
"html-keyboard-response","390","486769","0.0-7.0-2.47","FL","371addqx7x","1366","768","0","1","0","5d8cd4be7bd5180017d887a3","","null","","","learningBlock2","","","","<div style=""font-size:60px;""> </div>","null","FL","learning/Slide128.JPG","That was a wug.","","",""
"image-keyboard-response","391","486948","0.0-7.0-0.48","FL","371addqx7x","1366","768","0","1","0","5d8cd4be7bd5180017d887a3","","null","","","","","","","learning/Slide129.JPG","null","","","","","",""
"html-keyboard-response","392","488105","0.0-7.0-1.48","FL","371addqx7x","1366","768","0","1","0","5d8cd4be7bd5180017d887a3","","null","","","learningBlock2","","","","That was a tob.","null","","","","","",""
"html-keyboard-response","393","489114","0.0-7.0-2.48","FL","371addqx7x","1366","768","0","1","0","5d8cd4be7bd5180017d887a3","","null","","","learningBlock2","","","","<div style=""font-size:60px;""> </div>","null","FL","learning/Slide129.JPG","That was a tob.","","",""
"image-keyboard-response","394","489293","0.0-7.0-0.49","FL","371addqx7x","1366","768","0","1","0","5d8cd4be7bd5180017d887a3","","null","","","","","","","learning/Slide130.JPG","null","","","","","",""
"html-keyboard-response","395","490453","0.0-7.0-1.49","FL","371addqx7x","1366","768","0","1","0","5d8cd4be7bd5180017d887a3","","null","","","learningBlock2","","","","That was a wug.","null","","","","","",""
"html-keyboard-response","396","491456","0.0-7.0-2.49","FL","371addqx7x","1366","768","0","1","0","5d8cd4be7bd5180017d887a3","","null","","","learningBlock2","","","","<div style=""font-size:60px;""> </div>","null","FL","learning/Slide130.JPG","That was a wug.","","",""
"image-keyboard-response","397","491638","0.0-7.0-0.50","FL","371addqx7x","1366","768","0","1","0","5d8cd4be7bd5180017d887a3","","null","","","","","","","learning/Slide131.JPG","null","","","","","",""
"html-keyboard-response","398","492797","0.0-7.0-1.50","FL","371addqx7x","1366","768","0","1","0","5d8cd4be7bd5180017d887a3","","null","","","learningBlock2","","","","That was a bim.","null","","","","","",""
"html-keyboard-response","399","493804","0.0-7.0-2.50","FL","371addqx7x","1366","768","0","1","0","5d8cd4be7bd5180017d887a3","","null","","","learningBlock2","","","","<div style=""font-size:60px;""> </div>","null","FL","learning/Slide131.JPG","That was a bim.","","",""
"image-keyboard-response","400","493993","0.0-7.0-0.51","FL","371addqx7x","1366","768","0","1","0","5d8cd4be7bd5180017d887a3","","null","","","","","","","learning/Slide132.JPG","null","","","","","",""
"html-keyboard-response","401","495153","0.0-7.0-1.51","FL","371addqx7x","1366","768","0","1","0","5d8cd4be7bd5180017d887a3","","null","","","learningBlock2","","","","That was a dep.","null","","","","","",""
"html-keyboard-response","402","496157","0.0-7.0-2.51","FL","371addqx7x","1366","768","0","1","0","5d8cd4be7bd5180017d887a3","","null","","","learningBlock2","","","","<div style=""font-size:60px;""> </div>","null","FL","learning/Slide132.JPG","That was a dep.","","",""
"image-keyboard-response","403","496345","0.0-7.0-0.52","FL","371addqx7x","1366","768","0","1","0","5d8cd4be7bd5180017d887a3","","null","","","","","","","learning/Slide133.JPG","null","","","","","",""
"html-keyboard-response","404","497512","0.0-7.0-1.52","FL","371addqx7x","1366","768","0","1","0","5d8cd4be7bd5180017d887a3","","null","","","learningBlock2","","","","That was a tob.","null","","","","","",""
"html-keyboard-response","405","498528","0.0-7.0-2.52","FL","371addqx7x","1366","768","0","1","0","5d8cd4be7bd5180017d887a3","","null","","","learningBlock2","","","","<div style=""font-size:60px;""> </div>","null","FL","learning/Slide133.JPG","That was a tob.","","",""
"image-keyboard-response","406","498711","0.0-7.0-0.53","FL","371addqx7x","1366","768","0","1","0","5d8cd4be7bd5180017d887a3","","null","","","","","","","learning/Slide134.JPG","null","","","","","",""
"html-keyboard-response","407","499880","0.0-7.0-1.53","FL","371addqx7x","1366","768","0","1","0","5d8cd4be7bd5180017d887a3","","null","","","learningBlock2","","","","That was a dep.","null","","","","","",""
"html-keyboard-response","408","500883","0.0-7.0-2.53","FL","371addqx7x","1366","768","0","1","0","5d8cd4be7bd5180017d887a3","","null","","","learningBlock2","","","","<div style=""font-size:60px;""> </div>","null","FL","learning/Slide134.JPG","That was a dep.","","",""
"image-keyboard-response","409","501060","0.0-7.0-0.54","FL","371addqx7x","1366","768","0","1","0","5d8cd4be7bd5180017d887a3","","null","","","","","","","learning/Slide135.JPG","null","","","","","",""
"html-keyboard-response","410","502217","0.0-7.0-1.54","FL","371addqx7x","1366","768","0","1","0","5d8cd4be7bd5180017d887a3","","null","","","learningBlock2","","","","That was a tob.","null","","","","","",""
"html-keyboard-response","411","503221","0.0-7.0-2.54","FL","371addqx7x","1366","768","0","1","0","5d8cd4be7bd5180017d887a3","","null","","","learningBlock2","","","","<div style=""font-size:60px;""> </div>","null","FL","learning/Slide135.JPG","That was a tob.","","",""
"image-keyboard-response","412","503409","0.0-7.0-0.55","FL","371addqx7x","1366","768","0","1","0","5d8cd4be7bd5180017d887a3","","null","","","","","","","learning/Slide136.JPG","null","","","","","",""
"html-keyboard-response","413","504576","0.0-7.0-1.55","FL","371addqx7x","1366","768","0","1","0","5d8cd4be7bd5180017d887a3","","null","","","learningBlock2","","","","That was a wug.","null","","","","","",""
"html-keyboard-response","414","505584","0.0-7.0-2.55","FL","371addqx7x","1366","768","0","1","0","5d8cd4be7bd5180017d887a3","","null","","","learningBlock2","","","","<div style=""font-size:60px;""> </div>","null","FL","learning/Slide136.JPG","That was a wug.","","",""
"image-keyboard-response","415","505773","0.0-7.0-0.56","FL","371addqx7x","1366","768","0","1","0","5d8cd4be7bd5180017d887a3","","null","","","","","","","learning/Slide137.JPG","null","","","","","",""
"html-keyboard-response","416","506937","0.0-7.0-1.56","FL","371addqx7x","1366","768","0","1","0","5d8cd4be7bd5180017d887a3","","null","","","learningBlock2","","","","That was a tob.","null","","","","","",""
"html-keyboard-response","417","507941","0.0-7.0-2.56","FL","371addqx7x","1366","768","0","1","0","5d8cd4be7bd5180017d887a3","","null","","","learningBlock2","","","","<div style=""font-size:60px;""> </div>","null","FL","learning/Slide137.JPG","That was a tob.","","",""
"image-keyboard-response","418","508124","0.0-7.0-0.57","FL","371addqx7x","1366","768","0","1","0","5d8cd4be7bd5180017d887a3","","null","","","","","","","learning/Slide138.JPG","null","","","","","",""
"html-keyboard-response","419","509290","0.0-7.0-1.57","FL","371addqx7x","1366","768","0","1","0","5d8cd4be7bd5180017d887a3","","null","","","learningBlock2","","","","That was a bim.","null","","","","","",""
"html-keyboard-response","420","510295","0.0-7.0-2.57","FL","371addqx7x","1366","768","0","1","0","5d8cd4be7bd5180017d887a3","","null","","","learningBlock2","","","","<div style=""font-size:60px;""> </div>","null","FL","learning/Slide138.JPG","That was a bim.","","",""
"image-keyboard-response","421","510473","0.0-7.0-0.58","FL","371addqx7x","1366","768","0","1","0","5d8cd4be7bd5180017d887a3","","null","","","","","","","learning/Slide139.JPG","null","","","","","",""
"html-keyboard-response","422","511640","0.0-7.0-1.58","FL","371addqx7x","1366","768","0","1","0","5d8cd4be7bd5180017d887a3","","null","","","learningBlock2","","","","That was a wug.","null","","","","","",""
"html-keyboard-response","423","512645","0.0-7.0-2.58","FL","371addqx7x","1366","768","0","1","0","5d8cd4be7bd5180017d887a3","","null","","","learningBlock2","","","","<div style=""font-size:60px;""> </div>","null","FL","learning/Slide139.JPG","That was a wug.","","",""
"image-keyboard-response","424","512823","0.0-7.0-0.59","FL","371addqx7x","1366","768","0","1","0","5d8cd4be7bd5180017d887a3","","null","","","","","","","learning/Slide140.JPG","null","","","","","",""
"html-keyboard-response","425","513985","0.0-7.0-1.59","FL","371addqx7x","1366","768","0","1","0","5d8cd4be7bd5180017d887a3","","null","","","learningBlock2","","","","That was a dep.","null","","","","","",""
"html-keyboard-response","426","514989","0.0-7.0-2.59","FL","371addqx7x","1366","768","0","1","0","5d8cd4be7bd5180017d887a3","","null","","","learningBlock2","","","","<div style=""font-size:60px;""> </div>","null","FL","learning/Slide140.JPG","That was a dep.","","",""
"image-keyboard-response","427","515172","0.0-7.0-0.60","FL","371addqx7x","1366","768","0","1","0","5d8cd4be7bd5180017d887a3","","null","","","","","","","learning/Slide141.JPG","null","","","","","",""
"html-keyboard-response","428","516324","0.0-7.0-1.60","FL","371addqx7x","1366","768","0","1","0","5d8cd4be7bd5180017d887a3","","null","","","learningBlock2","","","","That was a tob.","null","","","","","",""
"html-keyboard-response","429","517338","0.0-7.0-2.60","FL","371addqx7x","1366","768","0","1","0","5d8cd4be7bd5180017d887a3","","null","","","learningBlock2","","","","<div style=""font-size:60px;""> </div>","null","FL","learning/Slide141.JPG","That was a tob.","","",""
"image-keyboard-response","430","517515","0.0-7.0-0.61","FL","371addqx7x","1366","768","0","1","0","5d8cd4be7bd5180017d887a3","","null","","","","","","","learning/Slide142.JPG","null","","","","","",""
"html-keyboard-response","431","518680","0.0-7.0-1.61","FL","371addqx7x","1366","768","0","1","0","5d8cd4be7bd5180017d887a3","","null","","","learningBlock2","","","","That was a wug.","null","","","","","",""
"html-keyboard-response","432","519687","0.0-7.0-2.61","FL","371addqx7x","1366","768","0","1","0","5d8cd4be7bd5180017d887a3","","null","","","learningBlock2","","","","<div style=""font-size:60px;""> </div>","null","FL","learning/Slide142.JPG","That was a wug.","","",""
"image-keyboard-response","433","519870","0.0-7.0-0.62","FL","371addqx7x","1366","768","0","1","0","5d8cd4be7bd5180017d887a3","","null","","","","","","","learning/Slide143.JPG","null","","","","","",""
"html-keyboard-response","434","521036","0.0-7.0-1.62","FL","371addqx7x","1366","768","0","1","0","5d8cd4be7bd5180017d887a3","","null","","","learningBlock2","","","","That was a bim.","null","","","","","",""
"html-keyboard-response","435","522048","0.0-7.0-2.62","FL","371addqx7x","1366","768","0","1","0","5d8cd4be7bd5180017d887a3","","null","","","learningBlock2","","","","<div style=""font-size:60px;""> </div>","null","FL","learning/Slide143.JPG","That was a bim.","","",""
"image-keyboard-response","436","522237","0.0-7.0-0.63","FL","371addqx7x","1366","768","0","1","0","5d8cd4be7bd5180017d887a3","","null","","","","","","","learning/Slide144.JPG","null","","","","","",""
