"trial_type","trial_index","time_elapsed","internal_node_id","condition","subject","screen_width","screen_height","attention","distraction","conscientious","prolificID","success","rt","url","view_history","test_part","final_height_px","final_width_px","scale_factor","stimulus","key_press","learningType","presentedImage","presentedLabel","button_pressed","response","responses"
"pavlovia","0","665","0.0-0.0","LF","yj9gmh2tyv","393","851","0","1","0","5e8dcc81e6686e035680594e","","","","","","","","","","","","","","","",""
"fullscreen","1","53797","0.0-1.0","LF","yj9gmh2tyv","393","851","0","1","0","5e8dcc81e6686e035680594e","true","","","","","","","","","","","","","","",""
"external-html","2","96529","0.0-2.0-0.0","LF","yj9gmh2tyv","393","851","0","1","0","5e8dcc81e6686e035680594e","","42472.80000000319","text/information_english.html","","","","","","","","","","","","",""
"external-html","3","105579","0.0-2.0-1.0","LF","yj9gmh2tyv","393","851","0","1","0","5e8dcc81e6686e035680594e","","8741.099999999278","text/consent_english.html","","","","","","","","","","","","",""
"instructions","4","139301","0.0-3.0","LF","yj9gmh2tyv","393","851","0","1","0","5e8dcc81e6686e035680594e","","NA","","[{""page_index"":0,""viewing_time"":1981.7000000039116},{""page_index"":1,""viewing_time"":31727.29999999865}]","instructions","","","","","","","","","","",""
"resize","5","165666","0.0-4.0","LF","yj9gmh2tyv","393","851","0","1","0","5e8dcc81e6686e035680594e","","","","","","","100","0.634920634920635","","","","","","","",""
"html-keyboard-response","6","166683","0.0-5.0-0.0","LF","yj9gmh2tyv","393","851","0","1","0","5e8dcc81e6686e035680594e","","null","","","learningBlock1","","","","This is a tob:","null","","","","","",""
"image-keyboard-response","7","167026","0.0-5.0-1.0","LF","yj9gmh2tyv","393","851","0","1","0","5e8dcc81e6686e035680594e","","null","","","","","","","learning/Slide1.JPG","null","","","","","",""
"html-keyboard-response","8","168035","0.0-5.0-2.0","LF","yj9gmh2tyv","393","851","0","1","0","5e8dcc81e6686e035680594e","","null","","","learningBlock1","","","","<div style=""font-size:60px;""> </div>","null","LF","learning/Slide1.JPG","This is a tob:","","",""
"html-keyboard-response","9","169048","0.0-5.0-0.1","LF","yj9gmh2tyv","393","851","0","1","0","5e8dcc81e6686e035680594e","","null","","","learningBlock1","","","","This is a wug:","null","","","","","",""
"image-keyboard-response","10","169383","0.0-5.0-1.1","LF","yj9gmh2tyv","393","851","0","1","0","5e8dcc81e6686e035680594e","","null","","","","","","","learning/Slide2.JPG","null","","","","","",""
"html-keyboard-response","11","170399","0.0-5.0-2.1","LF","yj9gmh2tyv","393","851","0","1","0","5e8dcc81e6686e035680594e","","null","","","learningBlock1","","","","<div style=""font-size:60px;""> </div>","null","LF","learning/Slide2.JPG","This is a wug:","","",""
"html-keyboard-response","12","171411","0.0-5.0-0.2","LF","yj9gmh2tyv","393","851","0","1","0","5e8dcc81e6686e035680594e","","null","","","learningBlock1","","","","This is a bim:","null","","","","","",""
"image-keyboard-response","13","171748","0.0-5.0-1.2","LF","yj9gmh2tyv","393","851","0","1","0","5e8dcc81e6686e035680594e","","null","","","","","","","learning/Slide3.JPG","null","","","","","",""
"html-keyboard-response","14","172756","0.0-5.0-2.2","LF","yj9gmh2tyv","393","851","0","1","0","5e8dcc81e6686e035680594e","","null","","","learningBlock1","","","","<div style=""font-size:60px;""> </div>","null","LF","learning/Slide3.JPG","This is a bim:","","",""
"html-keyboard-response","15","173766","0.0-5.0-0.3","LF","yj9gmh2tyv","393","851","0","1","0","5e8dcc81e6686e035680594e","","null","","","learningBlock1","","","","This is a dep:","null","","","","","",""
"image-keyboard-response","16","174111","0.0-5.0-1.3","LF","yj9gmh2tyv","393","851","0","1","0","5e8dcc81e6686e035680594e","","null","","","","","","","learning/Slide4.JPG","null","","","","","",""
"html-keyboard-response","17","175131","0.0-5.0-2.3","LF","yj9gmh2tyv","393","851","0","1","0","5e8dcc81e6686e035680594e","","null","","","learningBlock1","","","","<div style=""font-size:60px;""> </div>","null","LF","learning/Slide4.JPG","This is a dep:","","",""
"html-keyboard-response","18","176152","0.0-5.0-0.4","LF","yj9gmh2tyv","393","851","0","1","0","5e8dcc81e6686e035680594e","","null","","","learningBlock1","","","","This is a wug:","null","","","","","",""
"image-keyboard-response","19","176493","0.0-5.0-1.4","LF","yj9gmh2tyv","393","851","0","1","0","5e8dcc81e6686e035680594e","","null","","","","","","","learning/Slide5.JPG","null","","","","","",""
"html-keyboard-response","20","177511","0.0-5.0-2.4","LF","yj9gmh2tyv","393","851","0","1","0","5e8dcc81e6686e035680594e","","null","","","learningBlock1","","","","<div style=""font-size:60px;""> </div>","null","LF","learning/Slide5.JPG","This is a wug:","","",""
"html-keyboard-response","21","178528","0.0-5.0-0.5","LF","yj9gmh2tyv","393","851","0","1","0","5e8dcc81e6686e035680594e","","null","","","learningBlock1","","","","This is a dep:","null","","","","","",""
"image-keyboard-response","22","178866","0.0-5.0-1.5","LF","yj9gmh2tyv","393","851","0","1","0","5e8dcc81e6686e035680594e","","null","","","","","","","learning/Slide6.JPG","null","","","","","",""
"html-keyboard-response","23","179883","0.0-5.0-2.5","LF","yj9gmh2tyv","393","851","0","1","0","5e8dcc81e6686e035680594e","","null","","","learningBlock1","","","","<div style=""font-size:60px;""> </div>","null","LF","learning/Slide6.JPG","This is a dep:","","",""
"html-keyboard-response","24","180893","0.0-5.0-0.6","LF","yj9gmh2tyv","393","851","0","1","0","5e8dcc81e6686e035680594e","","null","","","learningBlock1","","","","This is a wug:","null","","","","","",""
"image-keyboard-response","25","181225","0.0-5.0-1.6","LF","yj9gmh2tyv","393","851","0","1","0","5e8dcc81e6686e035680594e","","null","","","","","","","learning/Slide7.JPG","null","","","","","",""
"html-keyboard-response","26","182232","0.0-5.0-2.6","LF","yj9gmh2tyv","393","851","0","1","0","5e8dcc81e6686e035680594e","","null","","","learningBlock1","","","","<div style=""font-size:60px;""> </div>","null","LF","learning/Slide7.JPG","This is a wug:","","",""
"html-keyboard-response","27","183248","0.0-5.0-0.7","LF","yj9gmh2tyv","393","851","0","1","0","5e8dcc81e6686e035680594e","","null","","","learningBlock1","","","","This is a bim:","null","","","","","",""
"image-keyboard-response","28","183583","0.0-5.0-1.7","LF","yj9gmh2tyv","393","851","0","1","0","5e8dcc81e6686e035680594e","","null","","","","","","","learning/Slide8.JPG","null","","","","","",""
"html-keyboard-response","29","184594","0.0-5.0-2.7","LF","yj9gmh2tyv","393","851","0","1","0","5e8dcc81e6686e035680594e","","null","","","learningBlock1","","","","<div style=""font-size:60px;""> </div>","null","LF","learning/Slide8.JPG","This is a bim:","","",""
"html-keyboard-response","30","185606","0.0-5.0-0.8","LF","yj9gmh2tyv","393","851","0","1","0","5e8dcc81e6686e035680594e","","null","","","learningBlock1","","","","This is a wug:","null","","","","","",""
"image-keyboard-response","31","185944","0.0-5.0-1.8","LF","yj9gmh2tyv","393","851","0","1","0","5e8dcc81e6686e035680594e","","null","","","","","","","learning/Slide9.JPG","null","","","","","",""
"html-keyboard-response","32","186955","0.0-5.0-2.8","LF","yj9gmh2tyv","393","851","0","1","0","5e8dcc81e6686e035680594e","","null","","","learningBlock1","","","","<div style=""font-size:60px;""> </div>","null","LF","learning/Slide9.JPG","This is a wug:","","",""
"html-keyboard-response","33","187966","0.0-5.0-0.9","LF","yj9gmh2tyv","393","851","0","1","0","5e8dcc81e6686e035680594e","","null","","","learningBlock1","","","","This is a dep:","null","","","","","",""
"image-keyboard-response","34","188301","0.0-5.0-1.9","LF","yj9gmh2tyv","393","851","0","1","0","5e8dcc81e6686e035680594e","","null","","","","","","","learning/Slide10.JPG","null","","","","","",""
"html-keyboard-response","35","189311","0.0-5.0-2.9","LF","yj9gmh2tyv","393","851","0","1","0","5e8dcc81e6686e035680594e","","null","","","learningBlock1","","","","<div style=""font-size:60px;""> </div>","null","LF","learning/Slide10.JPG","This is a dep:","","",""
"html-keyboard-response","36","190322","0.0-5.0-0.10","LF","yj9gmh2tyv","393","851","0","1","0","5e8dcc81e6686e035680594e","","null","","","learningBlock1","","","","This is a tob:","null","","","","","",""
"image-keyboard-response","37","190657","0.0-5.0-1.10","LF","yj9gmh2tyv","393","851","0","1","0","5e8dcc81e6686e035680594e","","null","","","","","","","learning/Slide11.JPG","null","","","","","",""
"html-keyboard-response","38","191665","0.0-5.0-2.10","LF","yj9gmh2tyv","393","851","0","1","0","5e8dcc81e6686e035680594e","","null","","","learningBlock1","","","","<div style=""font-size:60px;""> </div>","null","LF","learning/Slide11.JPG","This is a tob:","","",""
"html-keyboard-response","39","192678","0.0-5.0-0.11","LF","yj9gmh2tyv","393","851","0","1","0","5e8dcc81e6686e035680594e","","null","","","learningBlock1","","","","This is a dep:","null","","","","","",""
"image-keyboard-response","40","193025","0.0-5.0-1.11","LF","yj9gmh2tyv","393","851","0","1","0","5e8dcc81e6686e035680594e","","null","","","","","","","learning/Slide12.JPG","null","","","","","",""
"html-keyboard-response","41","194066","0.0-5.0-2.11","LF","yj9gmh2tyv","393","851","0","1","0","5e8dcc81e6686e035680594e","","null","","","learningBlock1","","","","<div style=""font-size:60px;""> </div>","null","LF","learning/Slide12.JPG","This is a dep:","","",""
"html-keyboard-response","42","195135","0.0-5.0-0.12","LF","yj9gmh2tyv","393","851","0","1","0","5e8dcc81e6686e035680594e","","null","","","learningBlock1","","","","This is a bim:","null","","","","","",""
"image-keyboard-response","43","195471","0.0-5.0-1.12","LF","yj9gmh2tyv","393","851","0","1","0","5e8dcc81e6686e035680594e","","null","","","","","","","learning/Slide13.JPG","null","","","","","",""
"html-keyboard-response","44","196479","0.0-5.0-2.12","LF","yj9gmh2tyv","393","851","0","1","0","5e8dcc81e6686e035680594e","","null","","","learningBlock1","","","","<div style=""font-size:60px;""> </div>","null","LF","learning/Slide13.JPG","This is a bim:","","",""
"html-keyboard-response","45","197495","0.0-5.0-0.13","LF","yj9gmh2tyv","393","851","0","1","0","5e8dcc81e6686e035680594e","","null","","","learningBlock1","","","","This is a wug:","null","","","","","",""
"image-keyboard-response","46","197831","0.0-5.0-1.13","LF","yj9gmh2tyv","393","851","0","1","0","5e8dcc81e6686e035680594e","","null","","","","","","","learning/Slide14.JPG","null","","","","","",""
"html-keyboard-response","47","198839","0.0-5.0-2.13","LF","yj9gmh2tyv","393","851","0","1","0","5e8dcc81e6686e035680594e","","null","","","learningBlock1","","","","<div style=""font-size:60px;""> </div>","null","LF","learning/Slide14.JPG","This is a wug:","","",""
"html-keyboard-response","48","199851","0.0-5.0-0.14","LF","yj9gmh2tyv","393","851","0","1","0","5e8dcc81e6686e035680594e","","null","","","learningBlock1","","","","This is a tob:","null","","","","","",""
"image-keyboard-response","49","200188","0.0-5.0-1.14","LF","yj9gmh2tyv","393","851","0","1","0","5e8dcc81e6686e035680594e","","null","","","","","","","learning/Slide15.JPG","null","","","","","",""
"html-keyboard-response","50","201199","0.0-5.0-2.14","LF","yj9gmh2tyv","393","851","0","1","0","5e8dcc81e6686e035680594e","","null","","","learningBlock1","","","","<div style=""font-size:60px;""> </div>","null","LF","learning/Slide15.JPG","This is a tob:","","",""
"html-keyboard-response","51","202211","0.0-5.0-0.15","LF","yj9gmh2tyv","393","851","0","1","0","5e8dcc81e6686e035680594e","","null","","","learningBlock1","","","","This is a dep:","null","","","","","",""
"image-keyboard-response","52","202547","0.0-5.0-1.15","LF","yj9gmh2tyv","393","851","0","1","0","5e8dcc81e6686e035680594e","","null","","","","","","","learning/Slide16.JPG","null","","","","","",""
"html-keyboard-response","53","203564","0.0-5.0-2.15","LF","yj9gmh2tyv","393","851","0","1","0","5e8dcc81e6686e035680594e","","null","","","learningBlock1","","","","<div style=""font-size:60px;""> </div>","null","LF","learning/Slide16.JPG","This is a dep:","","",""
"html-keyboard-response","54","204581","0.0-5.0-0.16","LF","yj9gmh2tyv","393","851","0","1","0","5e8dcc81e6686e035680594e","","null","","","learningBlock1","","","","This is a bim:","null","","","","","",""
"image-keyboard-response","55","204919","0.0-5.0-1.16","LF","yj9gmh2tyv","393","851","0","1","0","5e8dcc81e6686e035680594e","","null","","","","","","","learning/Slide17.JPG","null","","","","","",""
"html-keyboard-response","56","205930","0.0-5.0-2.16","LF","yj9gmh2tyv","393","851","0","1","0","5e8dcc81e6686e035680594e","","null","","","learningBlock1","","","","<div style=""font-size:60px;""> </div>","null","LF","learning/Slide17.JPG","This is a bim:","","",""
"html-keyboard-response","57","206947","0.0-5.0-0.17","LF","yj9gmh2tyv","393","851","0","1","0","5e8dcc81e6686e035680594e","","null","","","learningBlock1","","","","This is a tob:","null","","","","","",""
"image-keyboard-response","58","207286","0.0-5.0-1.17","LF","yj9gmh2tyv","393","851","0","1","0","5e8dcc81e6686e035680594e","","null","","","","","","","learning/Slide18.JPG","null","","","","","",""
"html-keyboard-response","59","208295","0.0-5.0-2.17","LF","yj9gmh2tyv","393","851","0","1","0","5e8dcc81e6686e035680594e","","null","","","learningBlock1","","","","<div style=""font-size:60px;""> </div>","null","LF","learning/Slide18.JPG","This is a tob:","","",""
"html-keyboard-response","60","209305","0.0-5.0-0.18","LF","yj9gmh2tyv","393","851","0","1","0","5e8dcc81e6686e035680594e","","null","","","learningBlock1","","","","This is a wug:","null","","","","","",""
"image-keyboard-response","61","209643","0.0-5.0-1.18","LF","yj9gmh2tyv","393","851","0","1","0","5e8dcc81e6686e035680594e","","null","","","","","","","learning/Slide19.JPG","null","","","","","",""
"html-keyboard-response","62","210653","0.0-5.0-2.18","LF","yj9gmh2tyv","393","851","0","1","0","5e8dcc81e6686e035680594e","","null","","","learningBlock1","","","","<div style=""font-size:60px;""> </div>","null","LF","learning/Slide19.JPG","This is a wug:","","",""
"html-keyboard-response","63","211661","0.0-5.0-0.19","LF","yj9gmh2tyv","393","851","0","1","0","5e8dcc81e6686e035680594e","","null","","","learningBlock1","","","","This is a bim:","null","","","","","",""
"image-keyboard-response","64","211998","0.0-5.0-1.19","LF","yj9gmh2tyv","393","851","0","1","0","5e8dcc81e6686e035680594e","","null","","","","","","","learning/Slide20.JPG","null","","","","","",""
"html-keyboard-response","65","213006","0.0-5.0-2.19","LF","yj9gmh2tyv","393","851","0","1","0","5e8dcc81e6686e035680594e","","null","","","learningBlock1","","","","<div style=""font-size:60px;""> </div>","null","LF","learning/Slide20.JPG","This is a bim:","","",""
"html-keyboard-response","66","214014","0.0-5.0-0.20","LF","yj9gmh2tyv","393","851","0","1","0","5e8dcc81e6686e035680594e","","null","","","learningBlock1","","","","This is a dep:","null","","","","","",""
"image-keyboard-response","67","214343","0.0-5.0-1.20","LF","yj9gmh2tyv","393","851","0","1","0","5e8dcc81e6686e035680594e","","null","","","","","","","learning/Slide21.JPG","null","","","","","",""
"html-keyboard-response","68","215349","0.0-5.0-2.20","LF","yj9gmh2tyv","393","851","0","1","0","5e8dcc81e6686e035680594e","","null","","","learningBlock1","","","","<div style=""font-size:60px;""> </div>","null","LF","learning/Slide21.JPG","This is a dep:","","",""
"html-keyboard-response","69","216396","0.0-5.0-0.21","LF","yj9gmh2tyv","393","851","0","1","0","5e8dcc81e6686e035680594e","","null","","","learningBlock1","","","","This is a bim:","null","","","","","",""
"image-keyboard-response","70","216732","0.0-5.0-1.21","LF","yj9gmh2tyv","393","851","0","1","0","5e8dcc81e6686e035680594e","","null","","","","","","","learning/Slide22.JPG","null","","","","","",""
"html-keyboard-response","71","217744","0.0-5.0-2.21","LF","yj9gmh2tyv","393","851","0","1","0","5e8dcc81e6686e035680594e","","null","","","learningBlock1","","","","<div style=""font-size:60px;""> </div>","null","LF","learning/Slide22.JPG","This is a bim:","","",""
"html-keyboard-response","72","218748","0.0-5.0-0.22","LF","yj9gmh2tyv","393","851","0","1","0","5e8dcc81e6686e035680594e","","null","","","learningBlock1","","","","This is a tob:","null","","","","","",""
"image-keyboard-response","73","219076","0.0-5.0-1.22","LF","yj9gmh2tyv","393","851","0","1","0","5e8dcc81e6686e035680594e","","null","","","","","","","learning/Slide23.JPG","null","","","","","",""
"html-keyboard-response","74","220081","0.0-5.0-2.22","LF","yj9gmh2tyv","393","851","0","1","0","5e8dcc81e6686e035680594e","","null","","","learningBlock1","","","","<div style=""font-size:60px;""> </div>","null","LF","learning/Slide23.JPG","This is a tob:","","",""
"html-keyboard-response","75","221093","0.0-5.0-0.23","LF","yj9gmh2tyv","393","851","0","1","0","5e8dcc81e6686e035680594e","","null","","","learningBlock1","","","","This is a wug:","null","","","","","",""
"image-keyboard-response","76","221427","0.0-5.0-1.23","LF","yj9gmh2tyv","393","851","0","1","0","5e8dcc81e6686e035680594e","","null","","","","","","","learning/Slide24.JPG","null","","","","","",""
"html-keyboard-response","77","222436","0.0-5.0-2.23","LF","yj9gmh2tyv","393","851","0","1","0","5e8dcc81e6686e035680594e","","null","","","learningBlock1","","","","<div style=""font-size:60px;""> </div>","null","LF","learning/Slide24.JPG","This is a wug:","","",""
"html-keyboard-response","78","223446","0.0-5.0-0.24","LF","yj9gmh2tyv","393","851","0","1","0","5e8dcc81e6686e035680594e","","null","","","learningBlock1","","","","This is a dep:","null","","","","","",""
"image-keyboard-response","79","223783","0.0-5.0-1.24","LF","yj9gmh2tyv","393","851","0","1","0","5e8dcc81e6686e035680594e","","null","","","","","","","learning/Slide25.JPG","null","","","","","",""
"html-keyboard-response","80","224791","0.0-5.0-2.24","LF","yj9gmh2tyv","393","851","0","1","0","5e8dcc81e6686e035680594e","","null","","","learningBlock1","","","","<div style=""font-size:60px;""> </div>","null","LF","learning/Slide25.JPG","This is a dep:","","",""
"html-keyboard-response","81","225804","0.0-5.0-0.25","LF","yj9gmh2tyv","393","851","0","1","0","5e8dcc81e6686e035680594e","","null","","","learningBlock1","","","","This is a wug:","null","","","","","",""
"image-keyboard-response","82","226136","0.0-5.0-1.25","LF","yj9gmh2tyv","393","851","0","1","0","5e8dcc81e6686e035680594e","","null","","","","","","","learning/Slide26.JPG","null","","","","","",""
"html-keyboard-response","83","227145","0.0-5.0-2.25","LF","yj9gmh2tyv","393","851","0","1","0","5e8dcc81e6686e035680594e","","null","","","learningBlock1","","","","<div style=""font-size:60px;""> </div>","null","LF","learning/Slide26.JPG","This is a wug:","","",""
"html-keyboard-response","84","228155","0.0-5.0-0.26","LF","yj9gmh2tyv","393","851","0","1","0","5e8dcc81e6686e035680594e","","null","","","learningBlock1","","","","This is a bim:","null","","","","","",""
"image-keyboard-response","85","228493","0.0-5.0-1.26","LF","yj9gmh2tyv","393","851","0","1","0","5e8dcc81e6686e035680594e","","null","","","","","","","learning/Slide27.JPG","null","","","","","",""
"html-keyboard-response","86","229501","0.0-5.0-2.26","LF","yj9gmh2tyv","393","851","0","1","0","5e8dcc81e6686e035680594e","","null","","","learningBlock1","","","","<div style=""font-size:60px;""> </div>","null","LF","learning/Slide27.JPG","This is a bim:","","",""
"html-keyboard-response","87","230512","0.0-5.0-0.27","LF","yj9gmh2tyv","393","851","0","1","0","5e8dcc81e6686e035680594e","","null","","","learningBlock1","","","","This is a dep:","null","","","","","",""
"image-keyboard-response","88","230849","0.0-5.0-1.27","LF","yj9gmh2tyv","393","851","0","1","0","5e8dcc81e6686e035680594e","","null","","","","","","","learning/Slide28.JPG","null","","","","","",""
"html-keyboard-response","89","231856","0.0-5.0-2.27","LF","yj9gmh2tyv","393","851","0","1","0","5e8dcc81e6686e035680594e","","null","","","learningBlock1","","","","<div style=""font-size:60px;""> </div>","null","LF","learning/Slide28.JPG","This is a dep:","","",""
"html-keyboard-response","90","232866","0.0-5.0-0.28","LF","yj9gmh2tyv","393","851","0","1","0","5e8dcc81e6686e035680594e","","null","","","learningBlock1","","","","This is a tob:","null","","","","","",""
"image-keyboard-response","91","233203","0.0-5.0-1.28","LF","yj9gmh2tyv","393","851","0","1","0","5e8dcc81e6686e035680594e","","null","","","","","","","learning/Slide29.JPG","null","","","","","",""
"html-keyboard-response","92","234214","0.0-5.0-2.28","LF","yj9gmh2tyv","393","851","0","1","0","5e8dcc81e6686e035680594e","","null","","","learningBlock1","","","","<div style=""font-size:60px;""> </div>","null","LF","learning/Slide29.JPG","This is a tob:","","",""
"html-keyboard-response","93","235224","0.0-5.0-0.29","LF","yj9gmh2tyv","393","851","0","1","0","5e8dcc81e6686e035680594e","","null","","","learningBlock1","","","","This is a dep:","null","","","","","",""
"image-keyboard-response","94","235564","0.0-5.0-1.29","LF","yj9gmh2tyv","393","851","0","1","0","5e8dcc81e6686e035680594e","","null","","","","","","","learning/Slide30.JPG","null","","","","","",""
"html-keyboard-response","95","236572","0.0-5.0-2.29","LF","yj9gmh2tyv","393","851","0","1","0","5e8dcc81e6686e035680594e","","null","","","learningBlock1","","","","<div style=""font-size:60px;""> </div>","null","LF","learning/Slide30.JPG","This is a dep:","","",""
"html-keyboard-response","96","237584","0.0-5.0-0.30","LF","yj9gmh2tyv","393","851","0","1","0","5e8dcc81e6686e035680594e","","null","","","learningBlock1","","","","This is a wug:","null","","","","","",""
"image-keyboard-response","97","237918","0.0-5.0-1.30","LF","yj9gmh2tyv","393","851","0","1","0","5e8dcc81e6686e035680594e","","null","","","","","","","learning/Slide31.JPG","null","","","","","",""
"html-keyboard-response","98","238925","0.0-5.0-2.30","LF","yj9gmh2tyv","393","851","0","1","0","5e8dcc81e6686e035680594e","","null","","","learningBlock1","","","","<div style=""font-size:60px;""> </div>","null","LF","learning/Slide31.JPG","This is a wug:","","",""
"html-keyboard-response","99","239933","0.0-5.0-0.31","LF","yj9gmh2tyv","393","851","0","1","0","5e8dcc81e6686e035680594e","","null","","","learningBlock1","","","","This is a tob:","null","","","","","",""
"image-keyboard-response","100","240269","0.0-5.0-1.31","LF","yj9gmh2tyv","393","851","0","1","0","5e8dcc81e6686e035680594e","","null","","","","","","","learning/Slide32.JPG","null","","","","","",""
"html-keyboard-response","101","241276","0.0-5.0-2.31","LF","yj9gmh2tyv","393","851","0","1","0","5e8dcc81e6686e035680594e","","null","","","learningBlock1","","","","<div style=""font-size:60px;""> </div>","null","LF","learning/Slide32.JPG","This is a tob:","","",""
"html-keyboard-response","102","242287","0.0-5.0-0.32","LF","yj9gmh2tyv","393","851","0","1","0","5e8dcc81e6686e035680594e","","null","","","learningBlock1","","","","This is a bim:","null","","","","","",""
"image-keyboard-response","103","242623","0.0-5.0-1.32","LF","yj9gmh2tyv","393","851","0","1","0","5e8dcc81e6686e035680594e","","null","","","","","","","learning/Slide33.JPG","null","","","","","",""
"html-keyboard-response","104","243631","0.0-5.0-2.32","LF","yj9gmh2tyv","393","851","0","1","0","5e8dcc81e6686e035680594e","","null","","","learningBlock1","","","","<div style=""font-size:60px;""> </div>","null","LF","learning/Slide33.JPG","This is a bim:","","",""
"html-keyboard-response","105","244641","0.0-5.0-0.33","LF","yj9gmh2tyv","393","851","0","1","0","5e8dcc81e6686e035680594e","","null","","","learningBlock1","","","","This is a tob:","null","","","","","",""
"image-keyboard-response","106","244976","0.0-5.0-1.33","LF","yj9gmh2tyv","393","851","0","1","0","5e8dcc81e6686e035680594e","","null","","","","","","","learning/Slide34.JPG","null","","","","","",""
"html-keyboard-response","107","245988","0.0-5.0-2.33","LF","yj9gmh2tyv","393","851","0","1","0","5e8dcc81e6686e035680594e","","null","","","learningBlock1","","","","<div style=""font-size:60px;""> </div>","null","LF","learning/Slide34.JPG","This is a tob:","","",""
"html-keyboard-response","108","246995","0.0-5.0-0.34","LF","yj9gmh2tyv","393","851","0","1","0","5e8dcc81e6686e035680594e","","null","","","learningBlock1","","","","This is a bim:","null","","","","","",""
"image-keyboard-response","109","247329","0.0-5.0-1.34","LF","yj9gmh2tyv","393","851","0","1","0","5e8dcc81e6686e035680594e","","null","","","","","","","learning/Slide35.JPG","null","","","","","",""
"html-keyboard-response","110","248336","0.0-5.0-2.34","LF","yj9gmh2tyv","393","851","0","1","0","5e8dcc81e6686e035680594e","","null","","","learningBlock1","","","","<div style=""font-size:60px;""> </div>","null","LF","learning/Slide35.JPG","This is a bim:","","",""
"html-keyboard-response","111","249344","0.0-5.0-0.35","LF","yj9gmh2tyv","393","851","0","1","0","5e8dcc81e6686e035680594e","","null","","","learningBlock1","","","","This is a dep:","null","","","","","",""
"image-keyboard-response","112","249676","0.0-5.0-1.35","LF","yj9gmh2tyv","393","851","0","1","0","5e8dcc81e6686e035680594e","","null","","","","","","","learning/Slide36.JPG","null","","","","","",""
"html-keyboard-response","113","250687","0.0-5.0-2.35","LF","yj9gmh2tyv","393","851","0","1","0","5e8dcc81e6686e035680594e","","null","","","learningBlock1","","","","<div style=""font-size:60px;""> </div>","null","LF","learning/Slide36.JPG","This is a dep:","","",""
"html-keyboard-response","114","251697","0.0-5.0-0.36","LF","yj9gmh2tyv","393","851","0","1","0","5e8dcc81e6686e035680594e","","null","","","learningBlock1","","","","This is a tob:","null","","","","","",""
"image-keyboard-response","115","252036","0.0-5.0-1.36","LF","yj9gmh2tyv","393","851","0","1","0","5e8dcc81e6686e035680594e","","null","","","","","","","learning/Slide37.JPG","null","","","","","",""
"html-keyboard-response","116","253040","0.0-5.0-2.36","LF","yj9gmh2tyv","393","851","0","1","0","5e8dcc81e6686e035680594e","","null","","","learningBlock1","","","","<div style=""font-size:60px;""> </div>","null","LF","learning/Slide37.JPG","This is a tob:","","",""
"html-keyboard-response","117","254043","0.0-5.0-0.37","LF","yj9gmh2tyv","393","851","0","1","0","5e8dcc81e6686e035680594e","","null","","","learningBlock1","","","","This is a wug:","null","","","","","",""
"image-keyboard-response","118","254380","0.0-5.0-1.37","LF","yj9gmh2tyv","393","851","0","1","0","5e8dcc81e6686e035680594e","","null","","","","","","","learning/Slide38.JPG","null","","","","","",""
"html-keyboard-response","119","255390","0.0-5.0-2.37","LF","yj9gmh2tyv","393","851","0","1","0","5e8dcc81e6686e035680594e","","null","","","learningBlock1","","","","<div style=""font-size:60px;""> </div>","null","LF","learning/Slide38.JPG","This is a wug:","","",""
"html-keyboard-response","120","256401","0.0-5.0-0.38","LF","yj9gmh2tyv","393","851","0","1","0","5e8dcc81e6686e035680594e","","null","","","learningBlock1","","","","This is a bim:","null","","","","","",""
"image-keyboard-response","121","256736","0.0-5.0-1.38","LF","yj9gmh2tyv","393","851","0","1","0","5e8dcc81e6686e035680594e","","null","","","","","","","learning/Slide39.JPG","null","","","","","",""
"html-keyboard-response","122","257745","0.0-5.0-2.38","LF","yj9gmh2tyv","393","851","0","1","0","5e8dcc81e6686e035680594e","","null","","","learningBlock1","","","","<div style=""font-size:60px;""> </div>","null","LF","learning/Slide39.JPG","This is a bim:","","",""
"html-keyboard-response","123","258765","0.0-5.0-0.39","LF","yj9gmh2tyv","393","851","0","1","0","5e8dcc81e6686e035680594e","","null","","","learningBlock1","","","","This is a tob:","null","","","","","",""
"image-keyboard-response","124","259100","0.0-5.0-1.39","LF","yj9gmh2tyv","393","851","0","1","0","5e8dcc81e6686e035680594e","","null","","","","","","","learning/Slide40.JPG","null","","","","","",""
"html-keyboard-response","125","260107","0.0-5.0-2.39","LF","yj9gmh2tyv","393","851","0","1","0","5e8dcc81e6686e035680594e","","null","","","learningBlock1","","","","<div style=""font-size:60px;""> </div>","null","LF","learning/Slide40.JPG","This is a tob:","","",""
"html-keyboard-response","126","261120","0.0-5.0-0.40","LF","yj9gmh2tyv","393","851","0","1","0","5e8dcc81e6686e035680594e","","null","","","learningBlock1","","","","This is a bim:","null","","","","","",""
"image-keyboard-response","127","261457","0.0-5.0-1.40","LF","yj9gmh2tyv","393","851","0","1","0","5e8dcc81e6686e035680594e","","null","","","","","","","learning/Slide41.JPG","null","","","","","",""
"html-keyboard-response","128","262467","0.0-5.0-2.40","LF","yj9gmh2tyv","393","851","0","1","0","5e8dcc81e6686e035680594e","","null","","","learningBlock1","","","","<div style=""font-size:60px;""> </div>","null","LF","learning/Slide41.JPG","This is a bim:","","",""
"html-keyboard-response","129","263473","0.0-5.0-0.41","LF","yj9gmh2tyv","393","851","0","1","0","5e8dcc81e6686e035680594e","","null","","","learningBlock1","","","","This is a dep:","null","","","","","",""
"image-keyboard-response","130","263809","0.0-5.0-1.41","LF","yj9gmh2tyv","393","851","0","1","0","5e8dcc81e6686e035680594e","","null","","","","","","","learning/Slide42.JPG","null","","","","","",""
"html-keyboard-response","131","264821","0.0-5.0-2.41","LF","yj9gmh2tyv","393","851","0","1","0","5e8dcc81e6686e035680594e","","null","","","learningBlock1","","","","<div style=""font-size:60px;""> </div>","null","LF","learning/Slide42.JPG","This is a dep:","","",""
"html-keyboard-response","132","265841","0.0-5.0-0.42","LF","yj9gmh2tyv","393","851","0","1","0","5e8dcc81e6686e035680594e","","null","","","learningBlock1","","","","This is a wug:","null","","","","","",""
"image-keyboard-response","133","266189","0.0-5.0-1.42","LF","yj9gmh2tyv","393","851","0","1","0","5e8dcc81e6686e035680594e","","null","","","","","","","learning/Slide43.JPG","null","","","","","",""
"html-keyboard-response","134","267201","0.0-5.0-2.42","LF","yj9gmh2tyv","393","851","0","1","0","5e8dcc81e6686e035680594e","","null","","","learningBlock1","","","","<div style=""font-size:60px;""> </div>","null","LF","learning/Slide43.JPG","This is a wug:","","",""
"html-keyboard-response","135","268218","0.0-5.0-0.43","LF","yj9gmh2tyv","393","851","0","1","0","5e8dcc81e6686e035680594e","","null","","","learningBlock1","","","","This is a bim:","null","","","","","",""
"image-keyboard-response","136","268556","0.0-5.0-1.43","LF","yj9gmh2tyv","393","851","0","1","0","5e8dcc81e6686e035680594e","","null","","","","","","","learning/Slide44.JPG","null","","","","","",""
"html-keyboard-response","137","269564","0.0-5.0-2.43","LF","yj9gmh2tyv","393","851","0","1","0","5e8dcc81e6686e035680594e","","null","","","learningBlock1","","","","<div style=""font-size:60px;""> </div>","null","LF","learning/Slide44.JPG","This is a bim:","","",""
"html-keyboard-response","138","270585","0.0-5.0-0.44","LF","yj9gmh2tyv","393","851","0","1","0","5e8dcc81e6686e035680594e","","null","","","learningBlock1","","","","This is a wug:","null","","","","","",""
"image-keyboard-response","139","270923","0.0-5.0-1.44","LF","yj9gmh2tyv","393","851","0","1","0","5e8dcc81e6686e035680594e","","null","","","","","","","learning/Slide45.JPG","null","","","","","",""
"html-keyboard-response","140","271937","0.0-5.0-2.44","LF","yj9gmh2tyv","393","851","0","1","0","5e8dcc81e6686e035680594e","","null","","","learningBlock1","","","","<div style=""font-size:60px;""> </div>","null","LF","learning/Slide45.JPG","This is a wug:","","",""
"html-keyboard-response","141","272958","0.0-5.0-0.45","LF","yj9gmh2tyv","393","851","0","1","0","5e8dcc81e6686e035680594e","","null","","","learningBlock1","","","","This is a dep:","null","","","","","",""
"image-keyboard-response","142","273288","0.0-5.0-1.45","LF","yj9gmh2tyv","393","851","0","1","0","5e8dcc81e6686e035680594e","","null","","","","","","","learning/Slide46.JPG","null","","","","","",""
"html-keyboard-response","143","274298","0.0-5.0-2.45","LF","yj9gmh2tyv","393","851","0","1","0","5e8dcc81e6686e035680594e","","null","","","learningBlock1","","","","<div style=""font-size:60px;""> </div>","null","LF","learning/Slide46.JPG","This is a dep:","","",""
"html-keyboard-response","144","275308","0.0-5.0-0.46","LF","yj9gmh2tyv","393","851","0","1","0","5e8dcc81e6686e035680594e","","null","","","learningBlock1","","","","This is a tob:","null","","","","","",""
"image-keyboard-response","145","275643","0.0-5.0-1.46","LF","yj9gmh2tyv","393","851","0","1","0","5e8dcc81e6686e035680594e","","null","","","","","","","learning/Slide47.JPG","null","","","","","",""
"html-keyboard-response","146","276663","0.0-5.0-2.46","LF","yj9gmh2tyv","393","851","0","1","0","5e8dcc81e6686e035680594e","","null","","","learningBlock1","","","","<div style=""font-size:60px;""> </div>","null","LF","learning/Slide47.JPG","This is a tob:","","",""
"html-keyboard-response","147","277677","0.0-5.0-0.47","LF","yj9gmh2tyv","393","851","0","1","0","5e8dcc81e6686e035680594e","","null","","","learningBlock1","","","","This is a bim:","null","","","","","",""
"image-keyboard-response","148","278016","0.0-5.0-1.47","LF","yj9gmh2tyv","393","851","0","1","0","5e8dcc81e6686e035680594e","","null","","","","","","","learning/Slide48.JPG","null","","","","","",""
"html-keyboard-response","149","279030","0.0-5.0-2.47","LF","yj9gmh2tyv","393","851","0","1","0","5e8dcc81e6686e035680594e","","null","","","learningBlock1","","","","<div style=""font-size:60px;""> </div>","null","LF","learning/Slide48.JPG","This is a bim:","","",""
"html-keyboard-response","150","280044","0.0-5.0-0.48","LF","yj9gmh2tyv","393","851","0","1","0","5e8dcc81e6686e035680594e","","null","","","learningBlock1","","","","This is a dep:","null","","","","","",""
"image-keyboard-response","151","280378","0.0-5.0-1.48","LF","yj9gmh2tyv","393","851","0","1","0","5e8dcc81e6686e035680594e","","null","","","","","","","learning/Slide49.JPG","null","","","","","",""
"html-keyboard-response","152","281386","0.0-5.0-2.48","LF","yj9gmh2tyv","393","851","0","1","0","5e8dcc81e6686e035680594e","","null","","","learningBlock1","","","","<div style=""font-size:60px;""> </div>","null","LF","learning/Slide49.JPG","This is a dep:","","",""
"html-keyboard-response","153","282400","0.0-5.0-0.49","LF","yj9gmh2tyv","393","851","0","1","0","5e8dcc81e6686e035680594e","","null","","","learningBlock1","","","","This is a tob:","null","","","","","",""
"image-keyboard-response","154","282739","0.0-5.0-1.49","LF","yj9gmh2tyv","393","851","0","1","0","5e8dcc81e6686e035680594e","","null","","","","","","","learning/Slide50.JPG","null","","","","","",""
"html-keyboard-response","155","283753","0.0-5.0-2.49","LF","yj9gmh2tyv","393","851","0","1","0","5e8dcc81e6686e035680594e","","null","","","learningBlock1","","","","<div style=""font-size:60px;""> </div>","null","LF","learning/Slide50.JPG","This is a tob:","","",""
"html-keyboard-response","156","284769","0.0-5.0-0.50","LF","yj9gmh2tyv","393","851","0","1","0","5e8dcc81e6686e035680594e","","null","","","learningBlock1","","","","This is a bim:","null","","","","","",""
"image-keyboard-response","157","285110","0.0-5.0-1.50","LF","yj9gmh2tyv","393","851","0","1","0","5e8dcc81e6686e035680594e","","null","","","","","","","learning/Slide51.JPG","null","","","","","",""
"html-keyboard-response","158","286124","0.0-5.0-2.50","LF","yj9gmh2tyv","393","851","0","1","0","5e8dcc81e6686e035680594e","","null","","","learningBlock1","","","","<div style=""font-size:60px;""> </div>","null","LF","learning/Slide51.JPG","This is a bim:","","",""
"html-keyboard-response","159","287137","0.0-5.0-0.51","LF","yj9gmh2tyv","393","851","0","1","0","5e8dcc81e6686e035680594e","","null","","","learningBlock1","","","","This is a wug:","null","","","","","",""
"image-keyboard-response","160","287477","0.0-5.0-1.51","LF","yj9gmh2tyv","393","851","0","1","0","5e8dcc81e6686e035680594e","","null","","","","","","","learning/Slide52.JPG","null","","","","","",""
"html-keyboard-response","161","288487","0.0-5.0-2.51","LF","yj9gmh2tyv","393","851","0","1","0","5e8dcc81e6686e035680594e","","null","","","learningBlock1","","","","<div style=""font-size:60px;""> </div>","null","LF","learning/Slide52.JPG","This is a wug:","","",""
"html-keyboard-response","162","289501","0.0-5.0-0.52","LF","yj9gmh2tyv","393","851","0","1","0","5e8dcc81e6686e035680594e","","null","","","learningBlock1","","","","This is a tob:","null","","","","","",""
"image-keyboard-response","163","289848","0.0-5.0-1.52","LF","yj9gmh2tyv","393","851","0","1","0","5e8dcc81e6686e035680594e","","null","","","","","","","learning/Slide53.JPG","null","","","","","",""
"html-keyboard-response","164","290860","0.0-5.0-2.52","LF","yj9gmh2tyv","393","851","0","1","0","5e8dcc81e6686e035680594e","","null","","","learningBlock1","","","","<div style=""font-size:60px;""> </div>","null","LF","learning/Slide53.JPG","This is a tob:","","",""
"html-keyboard-response","165","291897","0.0-5.0-0.53","LF","yj9gmh2tyv","393","851","0","1","0","5e8dcc81e6686e035680594e","","null","","","learningBlock1","","","","This is a dep:","null","","","","","",""
"image-keyboard-response","166","292234","0.0-5.0-1.53","LF","yj9gmh2tyv","393","851","0","1","0","5e8dcc81e6686e035680594e","","null","","","","","","","learning/Slide54.JPG","null","","","","","",""
"html-keyboard-response","167","293243","0.0-5.0-2.53","LF","yj9gmh2tyv","393","851","0","1","0","5e8dcc81e6686e035680594e","","null","","","learningBlock1","","","","<div style=""font-size:60px;""> </div>","null","LF","learning/Slide54.JPG","This is a dep:","","",""
"html-keyboard-response","168","294256","0.0-5.0-0.54","LF","yj9gmh2tyv","393","851","0","1","0","5e8dcc81e6686e035680594e","","null","","","learningBlock1","","","","This is a bim:","null","","","","","",""
"image-keyboard-response","169","294596","0.0-5.0-1.54","LF","yj9gmh2tyv","393","851","0","1","0","5e8dcc81e6686e035680594e","","null","","","","","","","learning/Slide55.JPG","null","","","","","",""
"html-keyboard-response","170","295603","0.0-5.0-2.54","LF","yj9gmh2tyv","393","851","0","1","0","5e8dcc81e6686e035680594e","","null","","","learningBlock1","","","","<div style=""font-size:60px;""> </div>","null","LF","learning/Slide55.JPG","This is a bim:","","",""
"html-keyboard-response","171","296620","0.0-5.0-0.55","LF","yj9gmh2tyv","393","851","0","1","0","5e8dcc81e6686e035680594e","","null","","","learningBlock1","","","","This is a tob:","null","","","","","",""
"image-keyboard-response","172","296954","0.0-5.0-1.55","LF","yj9gmh2tyv","393","851","0","1","0","5e8dcc81e6686e035680594e","","null","","","","","","","learning/Slide56.JPG","null","","","","","",""
"html-keyboard-response","173","297967","0.0-5.0-2.55","LF","yj9gmh2tyv","393","851","0","1","0","5e8dcc81e6686e035680594e","","null","","","learningBlock1","","","","<div style=""font-size:60px;""> </div>","null","LF","learning/Slide56.JPG","This is a tob:","","",""
"html-keyboard-response","174","298983","0.0-5.0-0.56","LF","yj9gmh2tyv","393","851","0","1","0","5e8dcc81e6686e035680594e","","null","","","learningBlock1","","","","This is a dep:","null","","","","","",""
"image-keyboard-response","175","299322","0.0-5.0-1.56","LF","yj9gmh2tyv","393","851","0","1","0","5e8dcc81e6686e035680594e","","null","","","","","","","learning/Slide57.JPG","null","","","","","",""
"html-keyboard-response","176","300333","0.0-5.0-2.56","LF","yj9gmh2tyv","393","851","0","1","0","5e8dcc81e6686e035680594e","","null","","","learningBlock1","","","","<div style=""font-size:60px;""> </div>","null","LF","learning/Slide57.JPG","This is a dep:","","",""
"html-keyboard-response","177","301342","0.0-5.0-0.57","LF","yj9gmh2tyv","393","851","0","1","0","5e8dcc81e6686e035680594e","","null","","","learningBlock1","","","","This is a wug:","null","","","","","",""
"image-keyboard-response","178","301678","0.0-5.0-1.57","LF","yj9gmh2tyv","393","851","0","1","0","5e8dcc81e6686e035680594e","","null","","","","","","","learning/Slide58.JPG","null","","","","","",""
"html-keyboard-response","179","302692","0.0-5.0-2.57","LF","yj9gmh2tyv","393","851","0","1","0","5e8dcc81e6686e035680594e","","null","","","learningBlock1","","","","<div style=""font-size:60px;""> </div>","null","LF","learning/Slide58.JPG","This is a wug:","","",""
"html-keyboard-response","180","303707","0.0-5.0-0.58","LF","yj9gmh2tyv","393","851","0","1","0","5e8dcc81e6686e035680594e","","null","","","learningBlock1","","","","This is a dep:","null","","","","","",""
"image-keyboard-response","181","304040","0.0-5.0-1.58","LF","yj9gmh2tyv","393","851","0","1","0","5e8dcc81e6686e035680594e","","null","","","","","","","learning/Slide59.JPG","null","","","","","",""
"html-keyboard-response","182","305060","0.0-5.0-2.58","LF","yj9gmh2tyv","393","851","0","1","0","5e8dcc81e6686e035680594e","","null","","","learningBlock1","","","","<div style=""font-size:60px;""> </div>","null","LF","learning/Slide59.JPG","This is a dep:","","",""
"html-keyboard-response","183","306079","0.0-5.0-0.59","LF","yj9gmh2tyv","393","851","0","1","0","5e8dcc81e6686e035680594e","","null","","","learningBlock1","","","","This is a wug:","null","","","","","",""
"image-keyboard-response","184","306421","0.0-5.0-1.59","LF","yj9gmh2tyv","393","851","0","1","0","5e8dcc81e6686e035680594e","","null","","","","","","","learning/Slide60.JPG","null","","","","","",""
"html-keyboard-response","185","307434","0.0-5.0-2.59","LF","yj9gmh2tyv","393","851","0","1","0","5e8dcc81e6686e035680594e","","null","","","learningBlock1","","","","<div style=""font-size:60px;""> </div>","null","LF","learning/Slide60.JPG","This is a wug:","","",""
"html-keyboard-response","186","308447","0.0-5.0-0.60","LF","yj9gmh2tyv","393","851","0","1","0","5e8dcc81e6686e035680594e","","null","","","learningBlock1","","","","This is a bim:","null","","","","","",""
"image-keyboard-response","187","308786","0.0-5.0-1.60","LF","yj9gmh2tyv","393","851","0","1","0","5e8dcc81e6686e035680594e","","null","","","","","","","learning/Slide61.JPG","null","","","","","",""
"html-keyboard-response","188","309800","0.0-5.0-2.60","LF","yj9gmh2tyv","393","851","0","1","0","5e8dcc81e6686e035680594e","","null","","","learningBlock1","","","","<div style=""font-size:60px;""> </div>","null","LF","learning/Slide61.JPG","This is a bim:","","",""
"html-keyboard-response","189","310812","0.0-5.0-0.61","LF","yj9gmh2tyv","393","851","0","1","0","5e8dcc81e6686e035680594e","","null","","","learningBlock1","","","","This is a dep:","null","","","","","",""
"image-keyboard-response","190","311147","0.0-5.0-1.61","LF","yj9gmh2tyv","393","851","0","1","0","5e8dcc81e6686e035680594e","","null","","","","","","","learning/Slide62.JPG","null","","","","","",""
"html-keyboard-response","191","312162","0.0-5.0-2.61","LF","yj9gmh2tyv","393","851","0","1","0","5e8dcc81e6686e035680594e","","null","","","learningBlock1","","","","<div style=""font-size:60px;""> </div>","null","LF","learning/Slide62.JPG","This is a dep:","","",""
"html-keyboard-response","192","313177","0.0-5.0-0.62","LF","yj9gmh2tyv","393","851","0","1","0","5e8dcc81e6686e035680594e","","null","","","learningBlock1","","","","This is a bim:","null","","","","","",""
"image-keyboard-response","193","313509","0.0-5.0-1.62","LF","yj9gmh2tyv","393","851","0","1","0","5e8dcc81e6686e035680594e","","null","","","","","","","learning/Slide63.JPG","null","","","","","",""
"html-keyboard-response","194","314512","0.0-5.0-2.62","LF","yj9gmh2tyv","393","851","0","1","0","5e8dcc81e6686e035680594e","","null","","","learningBlock1","","","","<div style=""font-size:60px;""> </div>","null","LF","learning/Slide63.JPG","This is a bim:","","",""
"html-keyboard-response","195","315525","0.0-5.0-0.63","LF","yj9gmh2tyv","393","851","0","1","0","5e8dcc81e6686e035680594e","","null","","","learningBlock1","","","","This is a tob:","null","","","","","",""
"image-keyboard-response","196","315858","0.0-5.0-1.63","LF","yj9gmh2tyv","393","851","0","1","0","5e8dcc81e6686e035680594e","","null","","","","","","","learning/Slide64.JPG","null","","","","","",""
"html-keyboard-response","197","316866","0.0-5.0-2.63","LF","yj9gmh2tyv","393","851","0","1","0","5e8dcc81e6686e035680594e","","null","","","learningBlock1","","","","<div style=""font-size:60px;""> </div>","null","LF","learning/Slide64.JPG","This is a tob:","","",""
"html-keyboard-response","198","317881","0.0-5.0-0.64","LF","yj9gmh2tyv","393","851","0","1","0","5e8dcc81e6686e035680594e","","null","","","learningBlock1","","","","This is a wug:","null","","","","","",""
"image-keyboard-response","199","318216","0.0-5.0-1.64","LF","yj9gmh2tyv","393","851","0","1","0","5e8dcc81e6686e035680594e","","null","","","","","","","learning/Slide65.JPG","null","","","","","",""
"html-keyboard-response","200","319225","0.0-5.0-2.64","LF","yj9gmh2tyv","393","851","0","1","0","5e8dcc81e6686e035680594e","","null","","","learningBlock1","","","","<div style=""font-size:60px;""> </div>","null","LF","learning/Slide65.JPG","This is a wug:","","",""
"html-keyboard-response","201","320237","0.0-5.0-0.65","LF","yj9gmh2tyv","393","851","0","1","0","5e8dcc81e6686e035680594e","","null","","","learningBlock1","","","","This is a dep:","null","","","","","",""
"image-keyboard-response","202","320572","0.0-5.0-1.65","LF","yj9gmh2tyv","393","851","0","1","0","5e8dcc81e6686e035680594e","","null","","","","","","","learning/Slide66.JPG","null","","","","","",""
"html-keyboard-response","203","321580","0.0-5.0-2.65","LF","yj9gmh2tyv","393","851","0","1","0","5e8dcc81e6686e035680594e","","null","","","learningBlock1","","","","<div style=""font-size:60px;""> </div>","null","LF","learning/Slide66.JPG","This is a dep:","","",""
"html-keyboard-response","204","322586","0.0-5.0-0.66","LF","yj9gmh2tyv","393","851","0","1","0","5e8dcc81e6686e035680594e","","null","","","learningBlock1","","","","This is a tob:","null","","","","","",""
"image-keyboard-response","205","322924","0.0-5.0-1.66","LF","yj9gmh2tyv","393","851","0","1","0","5e8dcc81e6686e035680594e","","null","","","","","","","learning/Slide67.JPG","null","","","","","",""
"html-keyboard-response","206","323934","0.0-5.0-2.66","LF","yj9gmh2tyv","393","851","0","1","0","5e8dcc81e6686e035680594e","","null","","","learningBlock1","","","","<div style=""font-size:60px;""> </div>","null","LF","learning/Slide67.JPG","This is a tob:","","",""
"html-keyboard-response","207","324945","0.0-5.0-0.67","LF","yj9gmh2tyv","393","851","0","1","0","5e8dcc81e6686e035680594e","","null","","","learningBlock1","","","","This is a wug:","null","","","","","",""
"image-keyboard-response","208","325282","0.0-5.0-1.67","LF","yj9gmh2tyv","393","851","0","1","0","5e8dcc81e6686e035680594e","","null","","","","","","","learning/Slide68.JPG","null","","","","","",""
"html-keyboard-response","209","326292","0.0-5.0-2.67","LF","yj9gmh2tyv","393","851","0","1","0","5e8dcc81e6686e035680594e","","null","","","learningBlock1","","","","<div style=""font-size:60px;""> </div>","null","LF","learning/Slide68.JPG","This is a wug:","","",""
"html-keyboard-response","210","327299","0.0-5.0-0.68","LF","yj9gmh2tyv","393","851","0","1","0","5e8dcc81e6686e035680594e","","null","","","learningBlock1","","","","This is a tob:","null","","","","","",""
"image-keyboard-response","211","327636","0.0-5.0-1.68","LF","yj9gmh2tyv","393","851","0","1","0","5e8dcc81e6686e035680594e","","null","","","","","","","learning/Slide69.JPG","null","","","","","",""
"html-keyboard-response","212","328642","0.0-5.0-2.68","LF","yj9gmh2tyv","393","851","0","1","0","5e8dcc81e6686e035680594e","","null","","","learningBlock1","","","","<div style=""font-size:60px;""> </div>","null","LF","learning/Slide69.JPG","This is a tob:","","",""
"html-keyboard-response","213","329657","0.0-5.0-0.69","LF","yj9gmh2tyv","393","851","0","1","0","5e8dcc81e6686e035680594e","","null","","","learningBlock1","","","","This is a dep:","null","","","","","",""
"image-keyboard-response","214","329994","0.0-5.0-1.69","LF","yj9gmh2tyv","393","851","0","1","0","5e8dcc81e6686e035680594e","","null","","","","","","","learning/Slide70.JPG","null","","","","","",""
"html-keyboard-response","215","331008","0.0-5.0-2.69","LF","yj9gmh2tyv","393","851","0","1","0","5e8dcc81e6686e035680594e","","null","","","learningBlock1","","","","<div style=""font-size:60px;""> </div>","null","LF","learning/Slide70.JPG","This is a dep:","","",""
"html-keyboard-response","216","332017","0.0-5.0-0.70","LF","yj9gmh2tyv","393","851","0","1","0","5e8dcc81e6686e035680594e","","null","","","learningBlock1","","","","This is a wug:","null","","","","","",""
"image-keyboard-response","217","332357","0.0-5.0-1.70","LF","yj9gmh2tyv","393","851","0","1","0","5e8dcc81e6686e035680594e","","null","","","","","","","learning/Slide71.JPG","null","","","","","",""
"html-keyboard-response","218","333368","0.0-5.0-2.70","LF","yj9gmh2tyv","393","851","0","1","0","5e8dcc81e6686e035680594e","","null","","","learningBlock1","","","","<div style=""font-size:60px;""> </div>","null","LF","learning/Slide71.JPG","This is a wug:","","",""
"html-keyboard-response","219","334382","0.0-5.0-0.71","LF","yj9gmh2tyv","393","851","0","1","0","5e8dcc81e6686e035680594e","","null","","","learningBlock1","","","","This is a bim:","null","","","","","",""
"image-keyboard-response","220","334720","0.0-5.0-1.71","LF","yj9gmh2tyv","393","851","0","1","0","5e8dcc81e6686e035680594e","","null","","","","","","","learning/Slide72.JPG","null","","","","","",""
"html-keyboard-response","221","335736","0.0-5.0-2.71","LF","yj9gmh2tyv","393","851","0","1","0","5e8dcc81e6686e035680594e","","null","","","learningBlock1","","","","<div style=""font-size:60px;""> </div>","null","LF","learning/Slide72.JPG","This is a bim:","","",""
"html-keyboard-response","222","336752","0.0-5.0-0.72","LF","yj9gmh2tyv","393","851","0","1","0","5e8dcc81e6686e035680594e","","null","","","learningBlock1","","","","This is a wug:","null","","","","","",""
"image-keyboard-response","223","337090","0.0-5.0-1.72","LF","yj9gmh2tyv","393","851","0","1","0","5e8dcc81e6686e035680594e","","null","","","","","","","learning/Slide73.JPG","null","","","","","",""
"html-keyboard-response","224","338095","0.0-5.0-2.72","LF","yj9gmh2tyv","393","851","0","1","0","5e8dcc81e6686e035680594e","","null","","","learningBlock1","","","","<div style=""font-size:60px;""> </div>","null","LF","learning/Slide73.JPG","This is a wug:","","",""
"html-keyboard-response","225","339110","0.0-5.0-0.73","LF","yj9gmh2tyv","393","851","0","1","0","5e8dcc81e6686e035680594e","","null","","","learningBlock1","","","","This is a dep:","null","","","","","",""
"image-keyboard-response","226","339450","0.0-5.0-1.73","LF","yj9gmh2tyv","393","851","0","1","0","5e8dcc81e6686e035680594e","","null","","","","","","","learning/Slide74.JPG","null","","","","","",""
"html-keyboard-response","227","340468","0.0-5.0-2.73","LF","yj9gmh2tyv","393","851","0","1","0","5e8dcc81e6686e035680594e","","null","","","learningBlock1","","","","<div style=""font-size:60px;""> </div>","null","LF","learning/Slide74.JPG","This is a dep:","","",""
"html-keyboard-response","228","341479","0.0-5.0-0.74","LF","yj9gmh2tyv","393","851","0","1","0","5e8dcc81e6686e035680594e","","null","","","learningBlock1","","","","This is a tob:","null","","","","","",""
"image-keyboard-response","229","341816","0.0-5.0-1.74","LF","yj9gmh2tyv","393","851","0","1","0","5e8dcc81e6686e035680594e","","null","","","","","","","learning/Slide75.JPG","null","","","","","",""
"html-keyboard-response","230","342827","0.0-5.0-2.74","LF","yj9gmh2tyv","393","851","0","1","0","5e8dcc81e6686e035680594e","","null","","","learningBlock1","","","","<div style=""font-size:60px;""> </div>","null","LF","learning/Slide75.JPG","This is a tob:","","",""
"html-keyboard-response","231","343843","0.0-5.0-0.75","LF","yj9gmh2tyv","393","851","0","1","0","5e8dcc81e6686e035680594e","","null","","","learningBlock1","","","","This is a bim:","null","","","","","",""
"image-keyboard-response","232","344179","0.0-5.0-1.75","LF","yj9gmh2tyv","393","851","0","1","0","5e8dcc81e6686e035680594e","","null","","","","","","","learning/Slide76.JPG","null","","","","","",""
"html-keyboard-response","233","345187","0.0-5.0-2.75","LF","yj9gmh2tyv","393","851","0","1","0","5e8dcc81e6686e035680594e","","null","","","learningBlock1","","","","<div style=""font-size:60px;""> </div>","null","LF","learning/Slide76.JPG","This is a bim:","","",""
"html-keyboard-response","234","346200","0.0-5.0-0.76","LF","yj9gmh2tyv","393","851","0","1","0","5e8dcc81e6686e035680594e","","null","","","learningBlock1","","","","This is a tob:","null","","","","","",""
"image-keyboard-response","235","346540","0.0-5.0-1.76","LF","yj9gmh2tyv","393","851","0","1","0","5e8dcc81e6686e035680594e","","null","","","","","","","learning/Slide77.JPG","null","","","","","",""
"html-keyboard-response","236","347553","0.0-5.0-2.76","LF","yj9gmh2tyv","393","851","0","1","0","5e8dcc81e6686e035680594e","","null","","","learningBlock1","","","","<div style=""font-size:60px;""> </div>","null","LF","learning/Slide77.JPG","This is a tob:","","",""
"html-keyboard-response","237","348561","0.0-5.0-0.77","LF","yj9gmh2tyv","393","851","0","1","0","5e8dcc81e6686e035680594e","","null","","","learningBlock1","","","","This is a wug:","null","","","","","",""
"image-keyboard-response","238","348901","0.0-5.0-1.77","LF","yj9gmh2tyv","393","851","0","1","0","5e8dcc81e6686e035680594e","","null","","","","","","","learning/Slide78.JPG","null","","","","","",""
"html-keyboard-response","239","349911","0.0-5.0-2.77","LF","yj9gmh2tyv","393","851","0","1","0","5e8dcc81e6686e035680594e","","null","","","learningBlock1","","","","<div style=""font-size:60px;""> </div>","null","LF","learning/Slide78.JPG","This is a wug:","","",""
"html-keyboard-response","240","350919","0.0-5.0-0.78","LF","yj9gmh2tyv","393","851","0","1","0","5e8dcc81e6686e035680594e","","null","","","learningBlock1","","","","This is a bim:","null","","","","","",""
"image-keyboard-response","241","351252","0.0-5.0-1.78","LF","yj9gmh2tyv","393","851","0","1","0","5e8dcc81e6686e035680594e","","null","","","","","","","learning/Slide79.JPG","null","","","","","",""
"html-keyboard-response","242","352265","0.0-5.0-2.78","LF","yj9gmh2tyv","393","851","0","1","0","5e8dcc81e6686e035680594e","","null","","","learningBlock1","","","","<div style=""font-size:60px;""> </div>","null","LF","learning/Slide79.JPG","This is a bim:","","",""
"html-keyboard-response","243","353275","0.0-5.0-0.79","LF","yj9gmh2tyv","393","851","0","1","0","5e8dcc81e6686e035680594e","","null","","","learningBlock1","","","","This is a tob:","null","","","","","",""
"image-keyboard-response","244","353610","0.0-5.0-1.79","LF","yj9gmh2tyv","393","851","0","1","0","5e8dcc81e6686e035680594e","","null","","","","","","","learning/Slide80.JPG","null","","","","","",""
"html-keyboard-response","245","354625","0.0-5.0-2.79","LF","yj9gmh2tyv","393","851","0","1","0","5e8dcc81e6686e035680594e","","null","","","learningBlock1","","","","<div style=""font-size:60px;""> </div>","null","LF","learning/Slide80.JPG","This is a tob:","","",""
"instructions","246","356906","0.0-6.0","LF","yj9gmh2tyv","393","851","0","1","0","5e8dcc81e6686e035680594e","","NA","","[{""page_index"":0,""viewing_time"":2274.0999999950873}]","instructions","","","","","","","","","","",""
"html-keyboard-response","247","357916","0.0-7.0-0.0","LF","yj9gmh2tyv","393","851","0","1","0","5e8dcc81e6686e035680594e","","null","","","learningBlock2","","","","This is a wug:","null","","","","","",""
"image-keyboard-response","248","358249","0.0-7.0-1.0","LF","yj9gmh2tyv","393","851","0","1","0","5e8dcc81e6686e035680594e","","null","","","","","","","learning/Slide81.JPG","null","","","","","",""
"html-keyboard-response","249","359256","0.0-7.0-2.0","LF","yj9gmh2tyv","393","851","0","1","0","5e8dcc81e6686e035680594e","","null","","","learningBlock2","","","","<div style=""font-size:60px;""> </div>","null","LF","learning/Slide81.JPG","This is a wug:","","",""
"html-keyboard-response","250","360271","0.0-7.0-0.1","LF","yj9gmh2tyv","393","851","0","1","0","5e8dcc81e6686e035680594e","","null","","","learningBlock2","","","","This is a bim:","null","","","","","",""
"image-keyboard-response","251","360607","0.0-7.0-1.1","LF","yj9gmh2tyv","393","851","0","1","0","5e8dcc81e6686e035680594e","","null","","","","","","","learning/Slide82.JPG","null","","","","","",""
"html-keyboard-response","252","361618","0.0-7.0-2.1","LF","yj9gmh2tyv","393","851","0","1","0","5e8dcc81e6686e035680594e","","null","","","learningBlock2","","","","<div style=""font-size:60px;""> </div>","null","LF","learning/Slide82.JPG","This is a bim:","","",""
"html-keyboard-response","253","362629","0.0-7.0-0.2","LF","yj9gmh2tyv","393","851","0","1","0","5e8dcc81e6686e035680594e","","null","","","learningBlock2","","","","This is a wug:","null","","","","","",""
"image-keyboard-response","254","362969","0.0-7.0-1.2","LF","yj9gmh2tyv","393","851","0","1","0","5e8dcc81e6686e035680594e","","null","","","","","","","learning/Slide83.JPG","null","","","","","",""
"html-keyboard-response","255","363984","0.0-7.0-2.2","LF","yj9gmh2tyv","393","851","0","1","0","5e8dcc81e6686e035680594e","","null","","","learningBlock2","","","","<div style=""font-size:60px;""> </div>","null","LF","learning/Slide83.JPG","This is a wug:","","",""
"html-keyboard-response","256","364995","0.0-7.0-0.3","LF","yj9gmh2tyv","393","851","0","1","0","5e8dcc81e6686e035680594e","","null","","","learningBlock2","","","","This is a dep:","null","","","","","",""
"image-keyboard-response","257","365335","0.0-7.0-1.3","LF","yj9gmh2tyv","393","851","0","1","0","5e8dcc81e6686e035680594e","","null","","","","","","","learning/Slide84.JPG","null","","","","","",""
"html-keyboard-response","258","366350","0.0-7.0-2.3","LF","yj9gmh2tyv","393","851","0","1","0","5e8dcc81e6686e035680594e","","null","","","learningBlock2","","","","<div style=""font-size:60px;""> </div>","null","LF","learning/Slide84.JPG","This is a dep:","","",""
"html-keyboard-response","259","367362","0.0-7.0-0.4","LF","yj9gmh2tyv","393","851","0","1","0","5e8dcc81e6686e035680594e","","null","","","learningBlock2","","","","This is a bim:","null","","","","","",""
"image-keyboard-response","260","367703","0.0-7.0-1.4","LF","yj9gmh2tyv","393","851","0","1","0","5e8dcc81e6686e035680594e","","null","","","","","","","learning/Slide85.JPG","null","","","","","",""
"html-keyboard-response","261","368741","0.0-7.0-2.4","LF","yj9gmh2tyv","393","851","0","1","0","5e8dcc81e6686e035680594e","","null","","","learningBlock2","","","","<div style=""font-size:60px;""> </div>","null","LF","learning/Slide85.JPG","This is a bim:","","",""
"html-keyboard-response","262","369761","0.0-7.0-0.5","LF","yj9gmh2tyv","393","851","0","1","0","5e8dcc81e6686e035680594e","","null","","","learningBlock2","","","","This is a tob:","null","","","","","",""
"image-keyboard-response","263","370104","0.0-7.0-1.5","LF","yj9gmh2tyv","393","851","0","1","0","5e8dcc81e6686e035680594e","","null","","","","","","","learning/Slide86.JPG","null","","","","","",""
"html-keyboard-response","264","371112","0.0-7.0-2.5","LF","yj9gmh2tyv","393","851","0","1","0","5e8dcc81e6686e035680594e","","null","","","learningBlock2","","","","<div style=""font-size:60px;""> </div>","null","LF","learning/Slide86.JPG","This is a tob:","","",""
"html-keyboard-response","265","372127","0.0-7.0-0.6","LF","yj9gmh2tyv","393","851","0","1","0","5e8dcc81e6686e035680594e","","null","","","learningBlock2","","","","This is a wug:","null","","","","","",""
"image-keyboard-response","266","372463","0.0-7.0-1.6","LF","yj9gmh2tyv","393","851","0","1","0","5e8dcc81e6686e035680594e","","null","","","","","","","learning/Slide87.JPG","null","","","","","",""
"html-keyboard-response","267","373472","0.0-7.0-2.6","LF","yj9gmh2tyv","393","851","0","1","0","5e8dcc81e6686e035680594e","","null","","","learningBlock2","","","","<div style=""font-size:60px;""> </div>","null","LF","learning/Slide87.JPG","This is a wug:","","",""
"html-keyboard-response","268","374496","0.0-7.0-0.7","LF","yj9gmh2tyv","393","851","0","1","0","5e8dcc81e6686e035680594e","","null","","","learningBlock2","","","","This is a tob:","null","","","","","",""
"image-keyboard-response","269","374831","0.0-7.0-1.7","LF","yj9gmh2tyv","393","851","0","1","0","5e8dcc81e6686e035680594e","","null","","","","","","","learning/Slide88.JPG","null","","","","","",""
"html-keyboard-response","270","375836","0.0-7.0-2.7","LF","yj9gmh2tyv","393","851","0","1","0","5e8dcc81e6686e035680594e","","null","","","learningBlock2","","","","<div style=""font-size:60px;""> </div>","null","LF","learning/Slide88.JPG","This is a tob:","","",""
"html-keyboard-response","271","376847","0.0-7.0-0.8","LF","yj9gmh2tyv","393","851","0","1","0","5e8dcc81e6686e035680594e","","null","","","learningBlock2","","","","This is a bim:","null","","","","","",""
"image-keyboard-response","272","377183","0.0-7.0-1.8","LF","yj9gmh2tyv","393","851","0","1","0","5e8dcc81e6686e035680594e","","null","","","","","","","learning/Slide89.JPG","null","","","","","",""
"html-keyboard-response","273","378197","0.0-7.0-2.8","LF","yj9gmh2tyv","393","851","0","1","0","5e8dcc81e6686e035680594e","","null","","","learningBlock2","","","","<div style=""font-size:60px;""> </div>","null","LF","learning/Slide89.JPG","This is a bim:","","",""
"html-keyboard-response","274","379209","0.0-7.0-0.9","LF","yj9gmh2tyv","393","851","0","1","0","5e8dcc81e6686e035680594e","","null","","","learningBlock2","","","","This is a dep:","null","","","","","",""
"image-keyboard-response","275","379543","0.0-7.0-1.9","LF","yj9gmh2tyv","393","851","0","1","0","5e8dcc81e6686e035680594e","","null","","","","","","","learning/Slide90.JPG","null","","","","","",""
"html-keyboard-response","276","380555","0.0-7.0-2.9","LF","yj9gmh2tyv","393","851","0","1","0","5e8dcc81e6686e035680594e","","null","","","learningBlock2","","","","<div style=""font-size:60px;""> </div>","null","LF","learning/Slide90.JPG","This is a dep:","","",""
"html-keyboard-response","277","381567","0.0-7.0-0.10","LF","yj9gmh2tyv","393","851","0","1","0","5e8dcc81e6686e035680594e","","null","","","learningBlock2","","","","This is a wug:","null","","","","","",""
"image-keyboard-response","278","381906","0.0-7.0-1.10","LF","yj9gmh2tyv","393","851","0","1","0","5e8dcc81e6686e035680594e","","null","","","","","","","learning/Slide91.JPG","null","","","","","",""
"html-keyboard-response","279","382917","0.0-7.0-2.10","LF","yj9gmh2tyv","393","851","0","1","0","5e8dcc81e6686e035680594e","","null","","","learningBlock2","","","","<div style=""font-size:60px;""> </div>","null","LF","learning/Slide91.JPG","This is a wug:","","",""
"html-keyboard-response","280","383927","0.0-7.0-0.11","LF","yj9gmh2tyv","393","851","0","1","0","5e8dcc81e6686e035680594e","","null","","","learningBlock2","","","","This is a tob:","null","","","","","",""
"image-keyboard-response","281","384261","0.0-7.0-1.11","LF","yj9gmh2tyv","393","851","0","1","0","5e8dcc81e6686e035680594e","","null","","","","","","","learning/Slide92.JPG","null","","","","","",""
"html-keyboard-response","282","385274","0.0-7.0-2.11","LF","yj9gmh2tyv","393","851","0","1","0","5e8dcc81e6686e035680594e","","null","","","learningBlock2","","","","<div style=""font-size:60px;""> </div>","null","LF","learning/Slide92.JPG","This is a tob:","","",""
"html-keyboard-response","283","386285","0.0-7.0-0.12","LF","yj9gmh2tyv","393","851","0","1","0","5e8dcc81e6686e035680594e","","null","","","learningBlock2","","","","This is a bim:","null","","","","","",""
"image-keyboard-response","284","386626","0.0-7.0-1.12","LF","yj9gmh2tyv","393","851","0","1","0","5e8dcc81e6686e035680594e","","null","","","","","","","learning/Slide93.JPG","null","","","","","",""
"html-keyboard-response","285","387638","0.0-7.0-2.12","LF","yj9gmh2tyv","393","851","0","1","0","5e8dcc81e6686e035680594e","","null","","","learningBlock2","","","","<div style=""font-size:60px;""> </div>","null","LF","learning/Slide93.JPG","This is a bim:","","",""
"html-keyboard-response","286","388644","0.0-7.0-0.13","LF","yj9gmh2tyv","393","851","0","1","0","5e8dcc81e6686e035680594e","","null","","","learningBlock2","","","","This is a tob:","null","","","","","",""
"image-keyboard-response","287","388980","0.0-7.0-1.13","LF","yj9gmh2tyv","393","851","0","1","0","5e8dcc81e6686e035680594e","","null","","","","","","","learning/Slide94.JPG","null","","","","","",""
"html-keyboard-response","288","389991","0.0-7.0-2.13","LF","yj9gmh2tyv","393","851","0","1","0","5e8dcc81e6686e035680594e","","null","","","learningBlock2","","","","<div style=""font-size:60px;""> </div>","null","LF","learning/Slide94.JPG","This is a tob:","","",""
"html-keyboard-response","289","391009","0.0-7.0-0.14","LF","yj9gmh2tyv","393","851","0","1","0","5e8dcc81e6686e035680594e","","null","","","learningBlock2","","","","This is a wug:","null","","","","","",""
"image-keyboard-response","290","391351","0.0-7.0-1.14","LF","yj9gmh2tyv","393","851","0","1","0","5e8dcc81e6686e035680594e","","null","","","","","","","learning/Slide95.JPG","null","","","","","",""
"html-keyboard-response","291","392369","0.0-7.0-2.14","LF","yj9gmh2tyv","393","851","0","1","0","5e8dcc81e6686e035680594e","","null","","","learningBlock2","","","","<div style=""font-size:60px;""> </div>","null","LF","learning/Slide95.JPG","This is a wug:","","",""
"html-keyboard-response","292","393378","0.0-7.0-0.15","LF","yj9gmh2tyv","393","851","0","1","0","5e8dcc81e6686e035680594e","","null","","","learningBlock2","","","","This is a tob:","null","","","","","",""
"image-keyboard-response","293","393715","0.0-7.0-1.15","LF","yj9gmh2tyv","393","851","0","1","0","5e8dcc81e6686e035680594e","","null","","","","","","","learning/Slide96.JPG","null","","","","","",""
"html-keyboard-response","294","394727","0.0-7.0-2.15","LF","yj9gmh2tyv","393","851","0","1","0","5e8dcc81e6686e035680594e","","null","","","learningBlock2","","","","<div style=""font-size:60px;""> </div>","null","LF","learning/Slide96.JPG","This is a tob:","","",""
"html-keyboard-response","295","395743","0.0-7.0-0.16","LF","yj9gmh2tyv","393","851","0","1","0","5e8dcc81e6686e035680594e","","null","","","learningBlock2","","","","This is a dep:","null","","","","","",""
"image-keyboard-response","296","396080","0.0-7.0-1.16","LF","yj9gmh2tyv","393","851","0","1","0","5e8dcc81e6686e035680594e","","null","","","","","","","learning/Slide97.JPG","null","","","","","",""
"html-keyboard-response","297","397090","0.0-7.0-2.16","LF","yj9gmh2tyv","393","851","0","1","0","5e8dcc81e6686e035680594e","","null","","","learningBlock2","","","","<div style=""font-size:60px;""> </div>","null","LF","learning/Slide97.JPG","This is a dep:","","",""
"html-keyboard-response","298","398109","0.0-7.0-0.17","LF","yj9gmh2tyv","393","851","0","1","0","5e8dcc81e6686e035680594e","","null","","","learningBlock2","","","","This is a bim:","null","","","","","",""
"image-keyboard-response","299","398443","0.0-7.0-1.17","LF","yj9gmh2tyv","393","851","0","1","0","5e8dcc81e6686e035680594e","","null","","","","","","","learning/Slide98.JPG","null","","","","","",""
"html-keyboard-response","300","399458","0.0-7.0-2.17","LF","yj9gmh2tyv","393","851","0","1","0","5e8dcc81e6686e035680594e","","null","","","learningBlock2","","","","<div style=""font-size:60px;""> </div>","null","LF","learning/Slide98.JPG","This is a bim:","","",""
"html-keyboard-response","301","400473","0.0-7.0-0.18","LF","yj9gmh2tyv","393","851","0","1","0","5e8dcc81e6686e035680594e","","null","","","learningBlock2","","","","This is a dep:","null","","","","","",""
"image-keyboard-response","302","400811","0.0-7.0-1.18","LF","yj9gmh2tyv","393","851","0","1","0","5e8dcc81e6686e035680594e","","null","","","","","","","learning/Slide99.JPG","null","","","","","",""
"html-keyboard-response","303","401824","0.0-7.0-2.18","LF","yj9gmh2tyv","393","851","0","1","0","5e8dcc81e6686e035680594e","","null","","","learningBlock2","","","","<div style=""font-size:60px;""> </div>","null","LF","learning/Slide99.JPG","This is a dep:","","",""
"html-keyboard-response","304","402837","0.0-7.0-0.19","LF","yj9gmh2tyv","393","851","0","1","0","5e8dcc81e6686e035680594e","","null","","","learningBlock2","","","","This is a bim:","null","","","","","",""
"image-keyboard-response","305","403180","0.0-7.0-1.19","LF","yj9gmh2tyv","393","851","0","1","0","5e8dcc81e6686e035680594e","","null","","","","","","","learning/Slide100.JPG","null","","","","","",""
"html-keyboard-response","306","404191","0.0-7.0-2.19","LF","yj9gmh2tyv","393","851","0","1","0","5e8dcc81e6686e035680594e","","null","","","learningBlock2","","","","<div style=""font-size:60px;""> </div>","null","LF","learning/Slide100.JPG","This is a bim:","","",""
"html-keyboard-response","307","405201","0.0-7.0-0.20","LF","yj9gmh2tyv","393","851","0","1","0","5e8dcc81e6686e035680594e","","null","","","learningBlock2","","","","This is a tob:","null","","","","","",""
"image-keyboard-response","308","405539","0.0-7.0-1.20","LF","yj9gmh2tyv","393","851","0","1","0","5e8dcc81e6686e035680594e","","null","","","","","","","learning/Slide101.JPG","null","","","","","",""
"html-keyboard-response","309","406554","0.0-7.0-2.20","LF","yj9gmh2tyv","393","851","0","1","0","5e8dcc81e6686e035680594e","","null","","","learningBlock2","","","","<div style=""font-size:60px;""> </div>","null","LF","learning/Slide101.JPG","This is a tob:","","",""
"html-keyboard-response","310","407567","0.0-7.0-0.21","LF","yj9gmh2tyv","393","851","0","1","0","5e8dcc81e6686e035680594e","","null","","","learningBlock2","","","","This is a bim:","null","","","","","",""
"image-keyboard-response","311","407903","0.0-7.0-1.21","LF","yj9gmh2tyv","393","851","0","1","0","5e8dcc81e6686e035680594e","","null","","","","","","","learning/Slide102.JPG","null","","","","","",""
"html-keyboard-response","312","408921","0.0-7.0-2.21","LF","yj9gmh2tyv","393","851","0","1","0","5e8dcc81e6686e035680594e","","null","","","learningBlock2","","","","<div style=""font-size:60px;""> </div>","null","LF","learning/Slide102.JPG","This is a bim:","","",""
"html-keyboard-response","313","409943","0.0-7.0-0.22","LF","yj9gmh2tyv","393","851","0","1","0","5e8dcc81e6686e035680594e","","null","","","learningBlock2","","","","This is a dep:","null","","","","","",""
"image-keyboard-response","314","410281","0.0-7.0-1.22","LF","yj9gmh2tyv","393","851","0","1","0","5e8dcc81e6686e035680594e","","null","","","","","","","learning/Slide103.JPG","null","","","","","",""
"html-keyboard-response","315","411292","0.0-7.0-2.22","LF","yj9gmh2tyv","393","851","0","1","0","5e8dcc81e6686e035680594e","","null","","","learningBlock2","","","","<div style=""font-size:60px;""> </div>","null","LF","learning/Slide103.JPG","This is a dep:","","",""
"html-keyboard-response","316","412306","0.0-7.0-0.23","LF","yj9gmh2tyv","393","851","0","1","0","5e8dcc81e6686e035680594e","","null","","","learningBlock2","","","","This is a tob:","null","","","","","",""
"image-keyboard-response","317","412643","0.0-7.0-1.23","LF","yj9gmh2tyv","393","851","0","1","0","5e8dcc81e6686e035680594e","","null","","","","","","","learning/Slide104.JPG","null","","","","","",""
"html-keyboard-response","318","413660","0.0-7.0-2.23","LF","yj9gmh2tyv","393","851","0","1","0","5e8dcc81e6686e035680594e","","null","","","learningBlock2","","","","<div style=""font-size:60px;""> </div>","null","LF","learning/Slide104.JPG","This is a tob:","","",""
"html-keyboard-response","319","414681","0.0-7.0-0.24","LF","yj9gmh2tyv","393","851","0","1","0","5e8dcc81e6686e035680594e","","null","","","learningBlock2","","","","This is a dep:","null","","","","","",""
"image-keyboard-response","320","415018","0.0-7.0-1.24","LF","yj9gmh2tyv","393","851","0","1","0","5e8dcc81e6686e035680594e","","null","","","","","","","learning/Slide105.JPG","null","","","","","",""
"html-keyboard-response","321","416030","0.0-7.0-2.24","LF","yj9gmh2tyv","393","851","0","1","0","5e8dcc81e6686e035680594e","","null","","","learningBlock2","","","","<div style=""font-size:60px;""> </div>","null","LF","learning/Slide105.JPG","This is a dep:","","",""
"html-keyboard-response","322","417046","0.0-7.0-0.25","LF","yj9gmh2tyv","393","851","0","1","0","5e8dcc81e6686e035680594e","","null","","","learningBlock2","","","","This is a wug:","null","","","","","",""
"image-keyboard-response","323","417384","0.0-7.0-1.25","LF","yj9gmh2tyv","393","851","0","1","0","5e8dcc81e6686e035680594e","","null","","","","","","","learning/Slide106.JPG","null","","","","","",""
"html-keyboard-response","324","418394","0.0-7.0-2.25","LF","yj9gmh2tyv","393","851","0","1","0","5e8dcc81e6686e035680594e","","null","","","learningBlock2","","","","<div style=""font-size:60px;""> </div>","null","LF","learning/Slide106.JPG","This is a wug:","","",""
"html-keyboard-response","325","419407","0.0-7.0-0.26","LF","yj9gmh2tyv","393","851","0","1","0","5e8dcc81e6686e035680594e","","null","","","learningBlock2","","","","This is a bim:","null","","","","","",""
"image-keyboard-response","326","419749","0.0-7.0-1.26","LF","yj9gmh2tyv","393","851","0","1","0","5e8dcc81e6686e035680594e","","null","","","","","","","learning/Slide107.JPG","null","","","","","",""
"html-keyboard-response","327","420766","0.0-7.0-2.26","LF","yj9gmh2tyv","393","851","0","1","0","5e8dcc81e6686e035680594e","","null","","","learningBlock2","","","","<div style=""font-size:60px;""> </div>","null","LF","learning/Slide107.JPG","This is a bim:","","",""
"html-keyboard-response","328","421780","0.0-7.0-0.27","LF","yj9gmh2tyv","393","851","0","1","0","5e8dcc81e6686e035680594e","","null","","","learningBlock2","","","","This is a dep:","null","","","","","",""
"image-keyboard-response","329","422123","0.0-7.0-1.27","LF","yj9gmh2tyv","393","851","0","1","0","5e8dcc81e6686e035680594e","","null","","","","","","","learning/Slide108.JPG","null","","","","","",""
"html-keyboard-response","330","423137","0.0-7.0-2.27","LF","yj9gmh2tyv","393","851","0","1","0","5e8dcc81e6686e035680594e","","null","","","learningBlock2","","","","<div style=""font-size:60px;""> </div>","null","LF","learning/Slide108.JPG","This is a dep:","","",""
"html-keyboard-response","331","424153","0.0-7.0-0.28","LF","yj9gmh2tyv","393","851","0","1","0","5e8dcc81e6686e035680594e","","null","","","learningBlock2","","","","This is a wug:","null","","","","","",""
"image-keyboard-response","332","424493","0.0-7.0-1.28","LF","yj9gmh2tyv","393","851","0","1","0","5e8dcc81e6686e035680594e","","null","","","","","","","learning/Slide109.JPG","null","","","","","",""
"html-keyboard-response","333","425505","0.0-7.0-2.28","LF","yj9gmh2tyv","393","851","0","1","0","5e8dcc81e6686e035680594e","","null","","","learningBlock2","","","","<div style=""font-size:60px;""> </div>","null","LF","learning/Slide109.JPG","This is a wug:","","",""
"html-keyboard-response","334","426518","0.0-7.0-0.29","LF","yj9gmh2tyv","393","851","0","1","0","5e8dcc81e6686e035680594e","","null","","","learningBlock2","","","","This is a bim:","null","","","","","",""
"image-keyboard-response","335","426856","0.0-7.0-1.29","LF","yj9gmh2tyv","393","851","0","1","0","5e8dcc81e6686e035680594e","","null","","","","","","","learning/Slide110.JPG","null","","","","","",""
"html-keyboard-response","336","427868","0.0-7.0-2.29","LF","yj9gmh2tyv","393","851","0","1","0","5e8dcc81e6686e035680594e","","null","","","learningBlock2","","","","<div style=""font-size:60px;""> </div>","null","LF","learning/Slide110.JPG","This is a bim:","","",""
"html-keyboard-response","337","428882","0.0-7.0-0.30","LF","yj9gmh2tyv","393","851","0","1","0","5e8dcc81e6686e035680594e","","null","","","learningBlock2","","","","This is a tob:","null","","","","","",""
"image-keyboard-response","338","429239","0.0-7.0-1.30","LF","yj9gmh2tyv","393","851","0","1","0","5e8dcc81e6686e035680594e","","null","","","","","","","learning/Slide111.JPG","null","","","","","",""
"html-keyboard-response","339","430250","0.0-7.0-2.30","LF","yj9gmh2tyv","393","851","0","1","0","5e8dcc81e6686e035680594e","","null","","","learningBlock2","","","","<div style=""font-size:60px;""> </div>","null","LF","learning/Slide111.JPG","This is a tob:","","",""
"html-keyboard-response","340","431261","0.0-7.0-0.31","LF","yj9gmh2tyv","393","851","0","1","0","5e8dcc81e6686e035680594e","","null","","","learningBlock2","","","","This is a wug:","null","","","","","",""
"image-keyboard-response","341","431596","0.0-7.0-1.31","LF","yj9gmh2tyv","393","851","0","1","0","5e8dcc81e6686e035680594e","","null","","","","","","","learning/Slide112.JPG","null","","","","","",""
"html-keyboard-response","342","432604","0.0-7.0-2.31","LF","yj9gmh2tyv","393","851","0","1","0","5e8dcc81e6686e035680594e","","null","","","learningBlock2","","","","<div style=""font-size:60px;""> </div>","null","LF","learning/Slide112.JPG","This is a wug:","","",""
"html-keyboard-response","343","433613","0.0-7.0-0.32","LF","yj9gmh2tyv","393","851","0","1","0","5e8dcc81e6686e035680594e","","null","","","learningBlock2","","","","This is a tob:","null","","","","","",""
"image-keyboard-response","344","433950","0.0-7.0-1.32","LF","yj9gmh2tyv","393","851","0","1","0","5e8dcc81e6686e035680594e","","null","","","","","","","learning/Slide113.JPG","null","","","","","",""
"html-keyboard-response","345","434970","0.0-7.0-2.32","LF","yj9gmh2tyv","393","851","0","1","0","5e8dcc81e6686e035680594e","","null","","","learningBlock2","","","","<div style=""font-size:60px;""> </div>","null","LF","learning/Slide113.JPG","This is a tob:","","",""
"html-keyboard-response","346","435984","0.0-7.0-0.33","LF","yj9gmh2tyv","393","851","0","1","0","5e8dcc81e6686e035680594e","","null","","","learningBlock2","","","","This is a wug:","null","","","","","",""
"image-keyboard-response","347","436319","0.0-7.0-1.33","LF","yj9gmh2tyv","393","851","0","1","0","5e8dcc81e6686e035680594e","","null","","","","","","","learning/Slide114.JPG","null","","","","","",""
"html-keyboard-response","348","437329","0.0-7.0-2.33","LF","yj9gmh2tyv","393","851","0","1","0","5e8dcc81e6686e035680594e","","null","","","learningBlock2","","","","<div style=""font-size:60px;""> </div>","null","LF","learning/Slide114.JPG","This is a wug:","","",""
"html-keyboard-response","349","438341","0.0-7.0-0.34","LF","yj9gmh2tyv","393","851","0","1","0","5e8dcc81e6686e035680594e","","null","","","learningBlock2","","","","This is a bim:","null","","","","","",""
"image-keyboard-response","350","438678","0.0-7.0-1.34","LF","yj9gmh2tyv","393","851","0","1","0","5e8dcc81e6686e035680594e","","null","","","","","","","learning/Slide115.JPG","null","","","","","",""
"html-keyboard-response","351","439687","0.0-7.0-2.34","LF","yj9gmh2tyv","393","851","0","1","0","5e8dcc81e6686e035680594e","","null","","","learningBlock2","","","","<div style=""font-size:60px;""> </div>","null","LF","learning/Slide115.JPG","This is a bim:","","",""
"html-keyboard-response","352","440700","0.0-7.0-0.35","LF","yj9gmh2tyv","393","851","0","1","0","5e8dcc81e6686e035680594e","","null","","","learningBlock2","","","","This is a dep:","null","","","","","",""
"image-keyboard-response","353","441037","0.0-7.0-1.35","LF","yj9gmh2tyv","393","851","0","1","0","5e8dcc81e6686e035680594e","","null","","","","","","","learning/Slide116.JPG","null","","","","","",""
"html-keyboard-response","354","442048","0.0-7.0-2.35","LF","yj9gmh2tyv","393","851","0","1","0","5e8dcc81e6686e035680594e","","null","","","learningBlock2","","","","<div style=""font-size:60px;""> </div>","null","LF","learning/Slide116.JPG","This is a dep:","","",""
"html-keyboard-response","355","443057","0.0-7.0-0.36","LF","yj9gmh2tyv","393","851","0","1","0","5e8dcc81e6686e035680594e","","null","","","learningBlock2","","","","This is a tob:","null","","","","","",""
"image-keyboard-response","356","443394","0.0-7.0-1.36","LF","yj9gmh2tyv","393","851","0","1","0","5e8dcc81e6686e035680594e","","null","","","","","","","learning/Slide117.JPG","null","","","","","",""
"html-keyboard-response","357","444405","0.0-7.0-2.36","LF","yj9gmh2tyv","393","851","0","1","0","5e8dcc81e6686e035680594e","","null","","","learningBlock2","","","","<div style=""font-size:60px;""> </div>","null","LF","learning/Slide117.JPG","This is a tob:","","",""
"html-keyboard-response","358","445420","0.0-7.0-0.37","LF","yj9gmh2tyv","393","851","0","1","0","5e8dcc81e6686e035680594e","","null","","","learningBlock2","","","","This is a dep:","null","","","","","",""
"image-keyboard-response","359","445760","0.0-7.0-1.37","LF","yj9gmh2tyv","393","851","0","1","0","5e8dcc81e6686e035680594e","","null","","","","","","","learning/Slide118.JPG","null","","","","","",""
"html-keyboard-response","360","446774","0.0-7.0-2.37","LF","yj9gmh2tyv","393","851","0","1","0","5e8dcc81e6686e035680594e","","null","","","learningBlock2","","","","<div style=""font-size:60px;""> </div>","null","LF","learning/Slide118.JPG","This is a dep:","","",""
"html-keyboard-response","361","447791","0.0-7.0-0.38","LF","yj9gmh2tyv","393","851","0","1","0","5e8dcc81e6686e035680594e","","null","","","learningBlock2","","","","This is a wug:","null","","","","","",""
"image-keyboard-response","362","448128","0.0-7.0-1.38","LF","yj9gmh2tyv","393","851","0","1","0","5e8dcc81e6686e035680594e","","null","","","","","","","learning/Slide119.JPG","null","","","","","",""
"html-keyboard-response","363","449142","0.0-7.0-2.38","LF","yj9gmh2tyv","393","851","0","1","0","5e8dcc81e6686e035680594e","","null","","","learningBlock2","","","","<div style=""font-size:60px;""> </div>","null","LF","learning/Slide119.JPG","This is a wug:","","",""
"html-keyboard-response","364","450155","0.0-7.0-0.39","LF","yj9gmh2tyv","393","851","0","1","0","5e8dcc81e6686e035680594e","","null","","","learningBlock2","","","","This is a dep:","null","","","","","",""
"image-keyboard-response","365","450490","0.0-7.0-1.39","LF","yj9gmh2tyv","393","851","0","1","0","5e8dcc81e6686e035680594e","","null","","","","","","","learning/Slide120.JPG","null","","","","","",""
"html-keyboard-response","366","451500","0.0-7.0-2.39","LF","yj9gmh2tyv","393","851","0","1","0","5e8dcc81e6686e035680594e","","null","","","learningBlock2","","","","<div style=""font-size:60px;""> </div>","null","LF","learning/Slide120.JPG","This is a dep:","","",""
"html-keyboard-response","367","452514","0.0-7.0-0.40","LF","yj9gmh2tyv","393","851","0","1","0","5e8dcc81e6686e035680594e","","null","","","learningBlock2","","","","This is a bim:","null","","","","","",""
"image-keyboard-response","368","452855","0.0-7.0-1.40","LF","yj9gmh2tyv","393","851","0","1","0","5e8dcc81e6686e035680594e","","null","","","","","","","learning/Slide121.JPG","null","","","","","",""
"html-keyboard-response","369","453873","0.0-7.0-2.40","LF","yj9gmh2tyv","393","851","0","1","0","5e8dcc81e6686e035680594e","","null","","","learningBlock2","","","","<div style=""font-size:60px;""> </div>","null","LF","learning/Slide121.JPG","This is a bim:","","",""
"html-keyboard-response","370","454891","0.0-7.0-0.41","LF","yj9gmh2tyv","393","851","0","1","0","5e8dcc81e6686e035680594e","","null","","","learningBlock2","","","","This is a wug:","null","","","","","",""
"image-keyboard-response","371","455228","0.0-7.0-1.41","LF","yj9gmh2tyv","393","851","0","1","0","5e8dcc81e6686e035680594e","","null","","","","","","","learning/Slide122.JPG","null","","","","","",""
"html-keyboard-response","372","456236","0.0-7.0-2.41","LF","yj9gmh2tyv","393","851","0","1","0","5e8dcc81e6686e035680594e","","null","","","learningBlock2","","","","<div style=""font-size:60px;""> </div>","null","LF","learning/Slide122.JPG","This is a wug:","","",""
"html-keyboard-response","373","457261","0.0-7.0-0.42","LF","yj9gmh2tyv","393","851","0","1","0","5e8dcc81e6686e035680594e","","null","","","learningBlock2","","","","This is a bim:","null","","","","","",""
"image-keyboard-response","374","457598","0.0-7.0-1.42","LF","yj9gmh2tyv","393","851","0","1","0","5e8dcc81e6686e035680594e","","null","","","","","","","learning/Slide123.JPG","null","","","","","",""
"html-keyboard-response","375","458610","0.0-7.0-2.42","LF","yj9gmh2tyv","393","851","0","1","0","5e8dcc81e6686e035680594e","","null","","","learningBlock2","","","","<div style=""font-size:60px;""> </div>","null","LF","learning/Slide123.JPG","This is a bim:","","",""
"html-keyboard-response","376","459625","0.0-7.0-0.43","LF","yj9gmh2tyv","393","851","0","1","0","5e8dcc81e6686e035680594e","","null","","","learningBlock2","","","","This is a tob:","null","","","","","",""
"image-keyboard-response","377","459966","0.0-7.0-1.43","LF","yj9gmh2tyv","393","851","0","1","0","5e8dcc81e6686e035680594e","","null","","","","","","","learning/Slide124.JPG","null","","","","","",""
"html-keyboard-response","378","460978","0.0-7.0-2.43","LF","yj9gmh2tyv","393","851","0","1","0","5e8dcc81e6686e035680594e","","null","","","learningBlock2","","","","<div style=""font-size:60px;""> </div>","null","LF","learning/Slide124.JPG","This is a tob:","","",""
"html-keyboard-response","379","461989","0.0-7.0-0.44","LF","yj9gmh2tyv","393","851","0","1","0","5e8dcc81e6686e035680594e","","null","","","learningBlock2","","","","This is a bim:","null","","","","","",""
"image-keyboard-response","380","462327","0.0-7.0-1.44","LF","yj9gmh2tyv","393","851","0","1","0","5e8dcc81e6686e035680594e","","null","","","","","","","learning/Slide125.JPG","null","","","","","",""
"html-keyboard-response","381","463345","0.0-7.0-2.44","LF","yj9gmh2tyv","393","851","0","1","0","5e8dcc81e6686e035680594e","","null","","","learningBlock2","","","","<div style=""font-size:60px;""> </div>","null","LF","learning/Slide125.JPG","This is a bim:","","",""
"html-keyboard-response","382","464362","0.0-7.0-0.45","LF","yj9gmh2tyv","393","851","0","1","0","5e8dcc81e6686e035680594e","","null","","","learningBlock2","","","","This is a tob:","null","","","","","",""
"image-keyboard-response","383","464698","0.0-7.0-1.45","LF","yj9gmh2tyv","393","851","0","1","0","5e8dcc81e6686e035680594e","","null","","","","","","","learning/Slide126.JPG","null","","","","","",""
"html-keyboard-response","384","465711","0.0-7.0-2.45","LF","yj9gmh2tyv","393","851","0","1","0","5e8dcc81e6686e035680594e","","null","","","learningBlock2","","","","<div style=""font-size:60px;""> </div>","null","LF","learning/Slide126.JPG","This is a tob:","","",""
"html-keyboard-response","385","466727","0.0-7.0-0.46","LF","yj9gmh2tyv","393","851","0","1","0","5e8dcc81e6686e035680594e","","null","","","learningBlock2","","","","This is a dep:","null","","","","","",""
"image-keyboard-response","386","467067","0.0-7.0-1.46","LF","yj9gmh2tyv","393","851","0","1","0","5e8dcc81e6686e035680594e","","null","","","","","","","learning/Slide127.JPG","null","","","","","",""
"html-keyboard-response","387","468076","0.0-7.0-2.46","LF","yj9gmh2tyv","393","851","0","1","0","5e8dcc81e6686e035680594e","","null","","","learningBlock2","","","","<div style=""font-size:60px;""> </div>","null","LF","learning/Slide127.JPG","This is a dep:","","",""
"html-keyboard-response","388","469096","0.0-7.0-0.47","LF","yj9gmh2tyv","393","851","0","1","0","5e8dcc81e6686e035680594e","","null","","","learningBlock2","","","","This is a wug:","null","","","","","",""
"image-keyboard-response","389","469438","0.0-7.0-1.47","LF","yj9gmh2tyv","393","851","0","1","0","5e8dcc81e6686e035680594e","","null","","","","","","","learning/Slide128.JPG","null","","","","","",""
"html-keyboard-response","390","470449","0.0-7.0-2.47","LF","yj9gmh2tyv","393","851","0","1","0","5e8dcc81e6686e035680594e","","null","","","learningBlock2","","","","<div style=""font-size:60px;""> </div>","null","LF","learning/Slide128.JPG","This is a wug:","","",""
"html-keyboard-response","391","471464","0.0-7.0-0.48","LF","yj9gmh2tyv","393","851","0","1","0","5e8dcc81e6686e035680594e","","null","","","learningBlock2","","","","This is a tob:","null","","","","","",""
"image-keyboard-response","392","471805","0.0-7.0-1.48","LF","yj9gmh2tyv","393","851","0","1","0","5e8dcc81e6686e035680594e","","null","","","","","","","learning/Slide129.JPG","null","","","","","",""
"html-keyboard-response","393","472819","0.0-7.0-2.48","LF","yj9gmh2tyv","393","851","0","1","0","5e8dcc81e6686e035680594e","","null","","","learningBlock2","","","","<div style=""font-size:60px;""> </div>","null","LF","learning/Slide129.JPG","This is a tob:","","",""
"html-keyboard-response","394","473836","0.0-7.0-0.49","LF","yj9gmh2tyv","393","851","0","1","0","5e8dcc81e6686e035680594e","","null","","","learningBlock2","","","","This is a wug:","null","","","","","",""
"image-keyboard-response","395","474171","0.0-7.0-1.49","LF","yj9gmh2tyv","393","851","0","1","0","5e8dcc81e6686e035680594e","","null","","","","","","","learning/Slide130.JPG","null","","","","","",""
"html-keyboard-response","396","475185","0.0-7.0-2.49","LF","yj9gmh2tyv","393","851","0","1","0","5e8dcc81e6686e035680594e","","null","","","learningBlock2","","","","<div style=""font-size:60px;""> </div>","null","LF","learning/Slide130.JPG","This is a wug:","","",""
"html-keyboard-response","397","476198","0.0-7.0-0.50","LF","yj9gmh2tyv","393","851","0","1","0","5e8dcc81e6686e035680594e","","null","","","learningBlock2","","","","This is a bim:","null","","","","","",""
"image-keyboard-response","398","476534","0.0-7.0-1.50","LF","yj9gmh2tyv","393","851","0","1","0","5e8dcc81e6686e035680594e","","null","","","","","","","learning/Slide131.JPG","null","","","","","",""
"html-keyboard-response","399","477547","0.0-7.0-2.50","LF","yj9gmh2tyv","393","851","0","1","0","5e8dcc81e6686e035680594e","","null","","","learningBlock2","","","","<div style=""font-size:60px;""> </div>","null","LF","learning/Slide131.JPG","This is a bim:","","",""
"html-keyboard-response","400","478560","0.0-7.0-0.51","LF","yj9gmh2tyv","393","851","0","1","0","5e8dcc81e6686e035680594e","","null","","","learningBlock2","","","","This is a dep:","null","","","","","",""
"image-keyboard-response","401","478901","0.0-7.0-1.51","LF","yj9gmh2tyv","393","851","0","1","0","5e8dcc81e6686e035680594e","","null","","","","","","","learning/Slide132.JPG","null","","","","","",""
"html-keyboard-response","402","479913","0.0-7.0-2.51","LF","yj9gmh2tyv","393","851","0","1","0","5e8dcc81e6686e035680594e","","null","","","learningBlock2","","","","<div style=""font-size:60px;""> </div>","null","LF","learning/Slide132.JPG","This is a dep:","","",""
"html-keyboard-response","403","480929","0.0-7.0-0.52","LF","yj9gmh2tyv","393","851","0","1","0","5e8dcc81e6686e035680594e","","null","","","learningBlock2","","","","This is a tob:","null","","","","","",""
"image-keyboard-response","404","481280","0.0-7.0-1.52","LF","yj9gmh2tyv","393","851","0","1","0","5e8dcc81e6686e035680594e","","null","","","","","","","learning/Slide133.JPG","null","","","","","",""
"html-keyboard-response","405","482350","0.0-7.0-2.52","LF","yj9gmh2tyv","393","851","0","1","0","5e8dcc81e6686e035680594e","","null","","","learningBlock2","","","","<div style=""font-size:60px;""> </div>","null","LF","learning/Slide133.JPG","This is a tob:","","",""
"html-keyboard-response","406","483368","0.0-7.0-0.53","LF","yj9gmh2tyv","393","851","0","1","0","5e8dcc81e6686e035680594e","","null","","","learningBlock2","","","","This is a dep:","null","","","","","",""
"image-keyboard-response","407","483703","0.0-7.0-1.53","LF","yj9gmh2tyv","393","851","0","1","0","5e8dcc81e6686e035680594e","","null","","","","","","","learning/Slide134.JPG","null","","","","","",""
"html-keyboard-response","408","484722","0.0-7.0-2.53","LF","yj9gmh2tyv","393","851","0","1","0","5e8dcc81e6686e035680594e","","null","","","learningBlock2","","","","<div style=""font-size:60px;""> </div>","null","LF","learning/Slide134.JPG","This is a dep:","","",""
"html-keyboard-response","409","485739","0.0-7.0-0.54","LF","yj9gmh2tyv","393","851","0","1","0","5e8dcc81e6686e035680594e","","null","","","learningBlock2","","","","This is a tob:","null","","","","","",""
"image-keyboard-response","410","486081","0.0-7.0-1.54","LF","yj9gmh2tyv","393","851","0","1","0","5e8dcc81e6686e035680594e","","null","","","","","","","learning/Slide135.JPG","null","","","","","",""
"html-keyboard-response","411","487092","0.0-7.0-2.54","LF","yj9gmh2tyv","393","851","0","1","0","5e8dcc81e6686e035680594e","","null","","","learningBlock2","","","","<div style=""font-size:60px;""> </div>","null","LF","learning/Slide135.JPG","This is a tob:","","",""
"html-keyboard-response","412","488118","0.0-7.0-0.55","LF","yj9gmh2tyv","393","851","0","1","0","5e8dcc81e6686e035680594e","","null","","","learningBlock2","","","","This is a wug:","null","","","","","",""
"image-keyboard-response","413","488455","0.0-7.0-1.55","LF","yj9gmh2tyv","393","851","0","1","0","5e8dcc81e6686e035680594e","","null","","","","","","","learning/Slide136.JPG","null","","","","","",""
"html-keyboard-response","414","489476","0.0-7.0-2.55","LF","yj9gmh2tyv","393","851","0","1","0","5e8dcc81e6686e035680594e","","null","","","learningBlock2","","","","<div style=""font-size:60px;""> </div>","null","LF","learning/Slide136.JPG","This is a wug:","","",""
"html-keyboard-response","415","490492","0.0-7.0-0.56","LF","yj9gmh2tyv","393","851","0","1","0","5e8dcc81e6686e035680594e","","null","","","learningBlock2","","","","This is a tob:","null","","","","","",""
"image-keyboard-response","416","490829","0.0-7.0-1.56","LF","yj9gmh2tyv","393","851","0","1","0","5e8dcc81e6686e035680594e","","null","","","","","","","learning/Slide137.JPG","null","","","","","",""
"html-keyboard-response","417","491844","0.0-7.0-2.56","LF","yj9gmh2tyv","393","851","0","1","0","5e8dcc81e6686e035680594e","","null","","","learningBlock2","","","","<div style=""font-size:60px;""> </div>","null","LF","learning/Slide137.JPG","This is a tob:","","",""
"html-keyboard-response","418","492859","0.0-7.0-0.57","LF","yj9gmh2tyv","393","851","0","1","0","5e8dcc81e6686e035680594e","","null","","","learningBlock2","","","","This is a bim:","null","","","","","",""
"image-keyboard-response","419","493198","0.0-7.0-1.57","LF","yj9gmh2tyv","393","851","0","1","0","5e8dcc81e6686e035680594e","","null","","","","","","","learning/Slide138.JPG","null","","","","","",""
"html-keyboard-response","420","494205","0.0-7.0-2.57","LF","yj9gmh2tyv","393","851","0","1","0","5e8dcc81e6686e035680594e","","null","","","learningBlock2","","","","<div style=""font-size:60px;""> </div>","null","LF","learning/Slide138.JPG","This is a bim:","","",""
"html-keyboard-response","421","495217","0.0-7.0-0.58","LF","yj9gmh2tyv","393","851","0","1","0","5e8dcc81e6686e035680594e","","null","","","learningBlock2","","","","This is a wug:","null","","","","","",""
"image-keyboard-response","422","495552","0.0-7.0-1.58","LF","yj9gmh2tyv","393","851","0","1","0","5e8dcc81e6686e035680594e","","null","","","","","","","learning/Slide139.JPG","null","","","","","",""
"html-keyboard-response","423","496561","0.0-7.0-2.58","LF","yj9gmh2tyv","393","851","0","1","0","5e8dcc81e6686e035680594e","","null","","","learningBlock2","","","","<div style=""font-size:60px;""> </div>","null","LF","learning/Slide139.JPG","This is a wug:","","",""
"html-keyboard-response","424","497576","0.0-7.0-0.59","LF","yj9gmh2tyv","393","851","0","1","0","5e8dcc81e6686e035680594e","","null","","","learningBlock2","","","","This is a dep:","null","","","","","",""
"image-keyboard-response","425","497911","0.0-7.0-1.59","LF","yj9gmh2tyv","393","851","0","1","0","5e8dcc81e6686e035680594e","","null","","","","","","","learning/Slide140.JPG","null","","","","","",""
"html-keyboard-response","426","498924","0.0-7.0-2.59","LF","yj9gmh2tyv","393","851","0","1","0","5e8dcc81e6686e035680594e","","null","","","learningBlock2","","","","<div style=""font-size:60px;""> </div>","null","LF","learning/Slide140.JPG","This is a dep:","","",""
"html-keyboard-response","427","499936","0.0-7.0-0.60","LF","yj9gmh2tyv","393","851","0","1","0","5e8dcc81e6686e035680594e","","null","","","learningBlock2","","","","This is a tob:","null","","","","","",""
"image-keyboard-response","428","500270","0.0-7.0-1.60","LF","yj9gmh2tyv","393","851","0","1","0","5e8dcc81e6686e035680594e","","null","","","","","","","learning/Slide141.JPG","null","","","","","",""
"html-keyboard-response","429","501284","0.0-7.0-2.60","LF","yj9gmh2tyv","393","851","0","1","0","5e8dcc81e6686e035680594e","","null","","","learningBlock2","","","","<div style=""font-size:60px;""> </div>","null","LF","learning/Slide141.JPG","This is a tob:","","",""
"html-keyboard-response","430","502296","0.0-7.0-0.61","LF","yj9gmh2tyv","393","851","0","1","0","5e8dcc81e6686e035680594e","","null","","","learningBlock2","","","","This is a wug:","null","","","","","",""
"image-keyboard-response","431","502631","0.0-7.0-1.61","LF","yj9gmh2tyv","393","851","0","1","0","5e8dcc81e6686e035680594e","","null","","","","","","","learning/Slide142.JPG","null","","","","","",""
"html-keyboard-response","432","503639","0.0-7.0-2.61","LF","yj9gmh2tyv","393","851","0","1","0","5e8dcc81e6686e035680594e","","null","","","learningBlock2","","","","<div style=""font-size:60px;""> </div>","null","LF","learning/Slide142.JPG","This is a wug:","","",""
"html-keyboard-response","433","504647","0.0-7.0-0.62","LF","yj9gmh2tyv","393","851","0","1","0","5e8dcc81e6686e035680594e","","null","","","learningBlock2","","","","This is a bim:","null","","","","","",""
"image-keyboard-response","434","504985","0.0-7.0-1.62","LF","yj9gmh2tyv","393","851","0","1","0","5e8dcc81e6686e035680594e","","null","","","","","","","learning/Slide143.JPG","null","","","","","",""
"html-keyboard-response","435","506000","0.0-7.0-2.62","LF","yj9gmh2tyv","393","851","0","1","0","5e8dcc81e6686e035680594e","","null","","","learningBlock2","","","","<div style=""font-size:60px;""> </div>","null","LF","learning/Slide143.JPG","This is a bim:","","",""
"html-keyboard-response","436","507012","0.0-7.0-0.63","LF","yj9gmh2tyv","393","851","0","1","0","5e8dcc81e6686e035680594e","","null","","","learningBlock2","","","","This is a dep:","null","","","","","",""
"image-keyboard-response","437","507347","0.0-7.0-1.63","LF","yj9gmh2tyv","393","851","0","1","0","5e8dcc81e6686e035680594e","","null","","","","","","","learning/Slide144.JPG","null","","","","","",""
"html-keyboard-response","438","508356","0.0-7.0-2.63","LF","yj9gmh2tyv","393","851","0","1","0","5e8dcc81e6686e035680594e","","null","","","learningBlock2","","","","<div style=""font-size:60px;""> </div>","null","LF","learning/Slide144.JPG","This is a dep:","","",""
"html-keyboard-response","439","509362","0.0-7.0-0.64","LF","yj9gmh2tyv","393","851","0","1","0","5e8dcc81e6686e035680594e","","null","","","learningBlock2","","","","This is a bim:","null","","","","","",""
