"trial_type","trial_index","time_elapsed","internal_node_id","condition","subject","screen_width","screen_height","attention","distraction","conscientious","prolificID","success","rt","url","view_history","test_part","final_height_px","final_width_px","scale_factor","stimulus","key_press","learningType","presentedImage","presentedLabel","button_pressed","response","responses"
"pavlovia","0","8","0.0-0.0","LF","4euvjgbfcc","1680","1050","0","1","0","600355394a113e408f54cce5","","","","","","","","","","","","","","","",""
"fullscreen","1","4995","0.0-1.0","LF","4euvjgbfcc","1680","1050","0","1","0","600355394a113e408f54cce5","true","","","","","","","","","","","","","","",""
"external-html","2","26331","0.0-2.0-0.0","LF","4euvjgbfcc","1680","1050","0","1","0","600355394a113e408f54cce5","","21300","text/information_english.html","","","","","","","","","","","","",""
"external-html","3","35095","0.0-2.0-1.0","LF","4euvjgbfcc","1680","1050","0","1","0","600355394a113e408f54cce5","","8728","text/consent_english.html","","","","","","","","","","","","",""
"instructions","4","50744","0.0-3.0","LF","4euvjgbfcc","1680","1050","0","1","0","600355394a113e408f54cce5","","NA","","[{""page_index"":0,""viewing_time"":1227},{""page_index"":1,""viewing_time"":14420}]","instructions","","","","","","","","","","",""
"resize","5","66654","0.0-4.0","LF","4euvjgbfcc","1680","1050","0","1","0","600355394a113e408f54cce5","","","","","","","354","2.2476190476190476","","","","","","","",""
"html-keyboard-response","6","67657","0.0-5.0-0.0","LF","4euvjgbfcc","1680","1050","0","1","0","600355394a113e408f54cce5","","null","","","learningBlock1","","","","This is a tob:","null","","","","","",""
"image-keyboard-response","7","67985","0.0-5.0-1.0","LF","4euvjgbfcc","1680","1050","0","1","0","600355394a113e408f54cce5","","null","","","","","","","learning/Slide1.JPG","null","","","","","",""
"html-keyboard-response","8","68987","0.0-5.0-2.0","LF","4euvjgbfcc","1680","1050","0","1","0","600355394a113e408f54cce5","","null","","","learningBlock1","","","","<div style=""font-size:60px;""> </div>","null","LF","learning/Slide1.JPG","This is a tob:","","",""
"html-keyboard-response","9","69987","0.0-5.0-0.1","LF","4euvjgbfcc","1680","1050","0","1","0","600355394a113e408f54cce5","","null","","","learningBlock1","","","","This is a wug:","null","","","","","",""
"image-keyboard-response","10","70314","0.0-5.0-1.1","LF","4euvjgbfcc","1680","1050","0","1","0","600355394a113e408f54cce5","","null","","","","","","","learning/Slide2.JPG","null","","","","","",""
"html-keyboard-response","11","71315","0.0-5.0-2.1","LF","4euvjgbfcc","1680","1050","0","1","0","600355394a113e408f54cce5","","null","","","learningBlock1","","","","<div style=""font-size:60px;""> </div>","null","LF","learning/Slide2.JPG","This is a wug:","","",""
"html-keyboard-response","12","72317","0.0-5.0-0.2","LF","4euvjgbfcc","1680","1050","0","1","0","600355394a113e408f54cce5","","null","","","learningBlock1","","","","This is a bim:","null","","","","","",""
"image-keyboard-response","13","72646","0.0-5.0-1.2","LF","4euvjgbfcc","1680","1050","0","1","0","600355394a113e408f54cce5","","null","","","","","","","learning/Slide3.JPG","null","","","","","",""
"html-keyboard-response","14","73646","0.0-5.0-2.2","LF","4euvjgbfcc","1680","1050","0","1","0","600355394a113e408f54cce5","","null","","","learningBlock1","","","","<div style=""font-size:60px;""> </div>","null","LF","learning/Slide3.JPG","This is a bim:","","",""
"html-keyboard-response","15","74648","0.0-5.0-0.3","LF","4euvjgbfcc","1680","1050","0","1","0","600355394a113e408f54cce5","","null","","","learningBlock1","","","","This is a dep:","null","","","","","",""
"image-keyboard-response","16","74975","0.0-5.0-1.3","LF","4euvjgbfcc","1680","1050","0","1","0","600355394a113e408f54cce5","","null","","","","","","","learning/Slide4.JPG","null","","","","","",""
"html-keyboard-response","17","75976","0.0-5.0-2.3","LF","4euvjgbfcc","1680","1050","0","1","0","600355394a113e408f54cce5","","null","","","learningBlock1","","","","<div style=""font-size:60px;""> </div>","null","LF","learning/Slide4.JPG","This is a dep:","","",""
"html-keyboard-response","18","76977","0.0-5.0-0.4","LF","4euvjgbfcc","1680","1050","0","1","0","600355394a113e408f54cce5","","null","","","learningBlock1","","","","This is a wug:","null","","","","","",""
"image-keyboard-response","19","77304","0.0-5.0-1.4","LF","4euvjgbfcc","1680","1050","0","1","0","600355394a113e408f54cce5","","null","","","","","","","learning/Slide5.JPG","null","","","","","",""
"html-keyboard-response","20","78307","0.0-5.0-2.4","LF","4euvjgbfcc","1680","1050","0","1","0","600355394a113e408f54cce5","","null","","","learningBlock1","","","","<div style=""font-size:60px;""> </div>","null","LF","learning/Slide5.JPG","This is a wug:","","",""
"html-keyboard-response","21","79307","0.0-5.0-0.5","LF","4euvjgbfcc","1680","1050","0","1","0","600355394a113e408f54cce5","","null","","","learningBlock1","","","","This is a dep:","null","","","","","",""
"image-keyboard-response","22","79635","0.0-5.0-1.5","LF","4euvjgbfcc","1680","1050","0","1","0","600355394a113e408f54cce5","","null","","","","","","","learning/Slide6.JPG","null","","","","","",""
"html-keyboard-response","23","80634","0.0-5.0-2.5","LF","4euvjgbfcc","1680","1050","0","1","0","600355394a113e408f54cce5","","null","","","learningBlock1","","","","<div style=""font-size:60px;""> </div>","null","LF","learning/Slide6.JPG","This is a dep:","","",""
"html-keyboard-response","24","81636","0.0-5.0-0.6","LF","4euvjgbfcc","1680","1050","0","1","0","600355394a113e408f54cce5","","null","","","learningBlock1","","","","This is a wug:","null","","","","","",""
"image-keyboard-response","25","81963","0.0-5.0-1.6","LF","4euvjgbfcc","1680","1050","0","1","0","600355394a113e408f54cce5","","null","","","","","","","learning/Slide7.JPG","null","","","","","",""
"html-keyboard-response","26","82964","0.0-5.0-2.6","LF","4euvjgbfcc","1680","1050","0","1","0","600355394a113e408f54cce5","","null","","","learningBlock1","","","","<div style=""font-size:60px;""> </div>","null","LF","learning/Slide7.JPG","This is a wug:","","",""
"html-keyboard-response","27","83965","0.0-5.0-0.7","LF","4euvjgbfcc","1680","1050","0","1","0","600355394a113e408f54cce5","","null","","","learningBlock1","","","","This is a bim:","null","","","","","",""
"image-keyboard-response","28","84291","0.0-5.0-1.7","LF","4euvjgbfcc","1680","1050","0","1","0","600355394a113e408f54cce5","","null","","","","","","","learning/Slide8.JPG","null","","","","","",""
"html-keyboard-response","29","85295","0.0-5.0-2.7","LF","4euvjgbfcc","1680","1050","0","1","0","600355394a113e408f54cce5","","null","","","learningBlock1","","","","<div style=""font-size:60px;""> </div>","null","LF","learning/Slide8.JPG","This is a bim:","","",""
"html-keyboard-response","30","86295","0.0-5.0-0.8","LF","4euvjgbfcc","1680","1050","0","1","0","600355394a113e408f54cce5","","null","","","learningBlock1","","","","This is a wug:","null","","","","","",""
"image-keyboard-response","31","86621","0.0-5.0-1.8","LF","4euvjgbfcc","1680","1050","0","1","0","600355394a113e408f54cce5","","null","","","","","","","learning/Slide9.JPG","null","","","","","",""
"html-keyboard-response","32","87623","0.0-5.0-2.8","LF","4euvjgbfcc","1680","1050","0","1","0","600355394a113e408f54cce5","","null","","","learningBlock1","","","","<div style=""font-size:60px;""> </div>","null","LF","learning/Slide9.JPG","This is a wug:","","",""
"html-keyboard-response","33","88623","0.0-5.0-0.9","LF","4euvjgbfcc","1680","1050","0","1","0","600355394a113e408f54cce5","","null","","","learningBlock1","","","","This is a dep:","null","","","","","",""
"image-keyboard-response","34","88949","0.0-5.0-1.9","LF","4euvjgbfcc","1680","1050","0","1","0","600355394a113e408f54cce5","","null","","","","","","","learning/Slide10.JPG","null","","","","","",""
"html-keyboard-response","35","89951","0.0-5.0-2.9","LF","4euvjgbfcc","1680","1050","0","1","0","600355394a113e408f54cce5","","null","","","learningBlock1","","","","<div style=""font-size:60px;""> </div>","null","LF","learning/Slide10.JPG","This is a dep:","","",""
"html-keyboard-response","36","90952","0.0-5.0-0.10","LF","4euvjgbfcc","1680","1050","0","1","0","600355394a113e408f54cce5","","null","","","learningBlock1","","","","This is a tob:","null","","","","","",""
"image-keyboard-response","37","91279","0.0-5.0-1.10","LF","4euvjgbfcc","1680","1050","0","1","0","600355394a113e408f54cce5","","null","","","","","","","learning/Slide11.JPG","null","","","","","",""
"html-keyboard-response","38","92280","0.0-5.0-2.10","LF","4euvjgbfcc","1680","1050","0","1","0","600355394a113e408f54cce5","","null","","","learningBlock1","","","","<div style=""font-size:60px;""> </div>","null","LF","learning/Slide11.JPG","This is a tob:","","",""
"html-keyboard-response","39","93281","0.0-5.0-0.11","LF","4euvjgbfcc","1680","1050","0","1","0","600355394a113e408f54cce5","","null","","","learningBlock1","","","","This is a dep:","null","","","","","",""
"image-keyboard-response","40","93607","0.0-5.0-1.11","LF","4euvjgbfcc","1680","1050","0","1","0","600355394a113e408f54cce5","","null","","","","","","","learning/Slide12.JPG","null","","","","","",""
"html-keyboard-response","41","94607","0.0-5.0-2.11","LF","4euvjgbfcc","1680","1050","0","1","0","600355394a113e408f54cce5","","null","","","learningBlock1","","","","<div style=""font-size:60px;""> </div>","null","LF","learning/Slide12.JPG","This is a dep:","","",""
"html-keyboard-response","42","95607","0.0-5.0-0.12","LF","4euvjgbfcc","1680","1050","0","1","0","600355394a113e408f54cce5","","null","","","learningBlock1","","","","This is a bim:","null","","","","","",""
"image-keyboard-response","43","95935","0.0-5.0-1.12","LF","4euvjgbfcc","1680","1050","0","1","0","600355394a113e408f54cce5","","null","","","","","","","learning/Slide13.JPG","null","","","","","",""
"html-keyboard-response","44","96935","0.0-5.0-2.12","LF","4euvjgbfcc","1680","1050","0","1","0","600355394a113e408f54cce5","","null","","","learningBlock1","","","","<div style=""font-size:60px;""> </div>","null","LF","learning/Slide13.JPG","This is a bim:","","",""
"html-keyboard-response","45","97935","0.0-5.0-0.13","LF","4euvjgbfcc","1680","1050","0","1","0","600355394a113e408f54cce5","","null","","","learningBlock1","","","","This is a wug:","null","","","","","",""
"image-keyboard-response","46","98261","0.0-5.0-1.13","LF","4euvjgbfcc","1680","1050","0","1","0","600355394a113e408f54cce5","","null","","","","","","","learning/Slide14.JPG","null","","","","","",""
"html-keyboard-response","47","99263","0.0-5.0-2.13","LF","4euvjgbfcc","1680","1050","0","1","0","600355394a113e408f54cce5","","null","","","learningBlock1","","","","<div style=""font-size:60px;""> </div>","null","LF","learning/Slide14.JPG","This is a wug:","","",""
"html-keyboard-response","48","100264","0.0-5.0-0.14","LF","4euvjgbfcc","1680","1050","0","1","0","600355394a113e408f54cce5","","null","","","learningBlock1","","","","This is a tob:","null","","","","","",""
"image-keyboard-response","49","100591","0.0-5.0-1.14","LF","4euvjgbfcc","1680","1050","0","1","0","600355394a113e408f54cce5","","null","","","","","","","learning/Slide15.JPG","null","","","","","",""
"html-keyboard-response","50","101593","0.0-5.0-2.14","LF","4euvjgbfcc","1680","1050","0","1","0","600355394a113e408f54cce5","","null","","","learningBlock1","","","","<div style=""font-size:60px;""> </div>","null","LF","learning/Slide15.JPG","This is a tob:","","",""
"html-keyboard-response","51","102594","0.0-5.0-0.15","LF","4euvjgbfcc","1680","1050","0","1","0","600355394a113e408f54cce5","","null","","","learningBlock1","","","","This is a dep:","null","","","","","",""
"image-keyboard-response","52","102921","0.0-5.0-1.15","LF","4euvjgbfcc","1680","1050","0","1","0","600355394a113e408f54cce5","","null","","","","","","","learning/Slide16.JPG","null","","","","","",""
"html-keyboard-response","53","103922","0.0-5.0-2.15","LF","4euvjgbfcc","1680","1050","0","1","0","600355394a113e408f54cce5","","null","","","learningBlock1","","","","<div style=""font-size:60px;""> </div>","null","LF","learning/Slide16.JPG","This is a dep:","","",""
"html-keyboard-response","54","104922","0.0-5.0-0.16","LF","4euvjgbfcc","1680","1050","0","1","0","600355394a113e408f54cce5","","null","","","learningBlock1","","","","This is a bim:","null","","","","","",""
"image-keyboard-response","55","105249","0.0-5.0-1.16","LF","4euvjgbfcc","1680","1050","0","1","0","600355394a113e408f54cce5","","null","","","","","","","learning/Slide17.JPG","null","","","","","",""
"html-keyboard-response","56","106249","0.0-5.0-2.16","LF","4euvjgbfcc","1680","1050","0","1","0","600355394a113e408f54cce5","","null","","","learningBlock1","","","","<div style=""font-size:60px;""> </div>","null","LF","learning/Slide17.JPG","This is a bim:","","",""
"html-keyboard-response","57","107250","0.0-5.0-0.17","LF","4euvjgbfcc","1680","1050","0","1","0","600355394a113e408f54cce5","","null","","","learningBlock1","","","","This is a tob:","null","","","","","",""
"image-keyboard-response","58","107577","0.0-5.0-1.17","LF","4euvjgbfcc","1680","1050","0","1","0","600355394a113e408f54cce5","","null","","","","","","","learning/Slide18.JPG","null","","","","","",""
"html-keyboard-response","59","108578","0.0-5.0-2.17","LF","4euvjgbfcc","1680","1050","0","1","0","600355394a113e408f54cce5","","null","","","learningBlock1","","","","<div style=""font-size:60px;""> </div>","null","LF","learning/Slide18.JPG","This is a tob:","","",""
"html-keyboard-response","60","109580","0.0-5.0-0.18","LF","4euvjgbfcc","1680","1050","0","1","0","600355394a113e408f54cce5","","null","","","learningBlock1","","","","This is a wug:","null","","","","","",""
"image-keyboard-response","61","109907","0.0-5.0-1.18","LF","4euvjgbfcc","1680","1050","0","1","0","600355394a113e408f54cce5","","null","","","","","","","learning/Slide19.JPG","null","","","","","",""
"html-keyboard-response","62","110909","0.0-5.0-2.18","LF","4euvjgbfcc","1680","1050","0","1","0","600355394a113e408f54cce5","","null","","","learningBlock1","","","","<div style=""font-size:60px;""> </div>","null","LF","learning/Slide19.JPG","This is a wug:","","",""
"html-keyboard-response","63","111910","0.0-5.0-0.19","LF","4euvjgbfcc","1680","1050","0","1","0","600355394a113e408f54cce5","","null","","","learningBlock1","","","","This is a bim:","null","","","","","",""
"image-keyboard-response","64","112236","0.0-5.0-1.19","LF","4euvjgbfcc","1680","1050","0","1","0","600355394a113e408f54cce5","","null","","","","","","","learning/Slide20.JPG","null","","","","","",""
"html-keyboard-response","65","113237","0.0-5.0-2.19","LF","4euvjgbfcc","1680","1050","0","1","0","600355394a113e408f54cce5","","null","","","learningBlock1","","","","<div style=""font-size:60px;""> </div>","null","LF","learning/Slide20.JPG","This is a bim:","","",""
"html-keyboard-response","66","114237","0.0-5.0-0.20","LF","4euvjgbfcc","1680","1050","0","1","0","600355394a113e408f54cce5","","null","","","learningBlock1","","","","This is a dep:","null","","","","","",""
"image-keyboard-response","67","114564","0.0-5.0-1.20","LF","4euvjgbfcc","1680","1050","0","1","0","600355394a113e408f54cce5","","null","","","","","","","learning/Slide21.JPG","null","","","","","",""
"html-keyboard-response","68","115566","0.0-5.0-2.20","LF","4euvjgbfcc","1680","1050","0","1","0","600355394a113e408f54cce5","","null","","","learningBlock1","","","","<div style=""font-size:60px;""> </div>","null","LF","learning/Slide21.JPG","This is a dep:","","",""
"html-keyboard-response","69","116567","0.0-5.0-0.21","LF","4euvjgbfcc","1680","1050","0","1","0","600355394a113e408f54cce5","","null","","","learningBlock1","","","","This is a bim:","null","","","","","",""
"image-keyboard-response","70","116894","0.0-5.0-1.21","LF","4euvjgbfcc","1680","1050","0","1","0","600355394a113e408f54cce5","","null","","","","","","","learning/Slide22.JPG","null","","","","","",""
"html-keyboard-response","71","117894","0.0-5.0-2.21","LF","4euvjgbfcc","1680","1050","0","1","0","600355394a113e408f54cce5","","null","","","learningBlock1","","","","<div style=""font-size:60px;""> </div>","null","LF","learning/Slide22.JPG","This is a bim:","","",""
"html-keyboard-response","72","118895","0.0-5.0-0.22","LF","4euvjgbfcc","1680","1050","0","1","0","600355394a113e408f54cce5","","null","","","learningBlock1","","","","This is a tob:","null","","","","","",""
"image-keyboard-response","73","119220","0.0-5.0-1.22","LF","4euvjgbfcc","1680","1050","0","1","0","600355394a113e408f54cce5","","null","","","","","","","learning/Slide23.JPG","null","","","","","",""
"html-keyboard-response","74","120221","0.0-5.0-2.22","LF","4euvjgbfcc","1680","1050","0","1","0","600355394a113e408f54cce5","","null","","","learningBlock1","","","","<div style=""font-size:60px;""> </div>","null","LF","learning/Slide23.JPG","This is a tob:","","",""
"html-keyboard-response","75","121222","0.0-5.0-0.23","LF","4euvjgbfcc","1680","1050","0","1","0","600355394a113e408f54cce5","","null","","","learningBlock1","","","","This is a wug:","null","","","","","",""
"image-keyboard-response","76","121548","0.0-5.0-1.23","LF","4euvjgbfcc","1680","1050","0","1","0","600355394a113e408f54cce5","","null","","","","","","","learning/Slide24.JPG","null","","","","","",""
"html-keyboard-response","77","122548","0.0-5.0-2.23","LF","4euvjgbfcc","1680","1050","0","1","0","600355394a113e408f54cce5","","null","","","learningBlock1","","","","<div style=""font-size:60px;""> </div>","null","LF","learning/Slide24.JPG","This is a wug:","","",""
"html-keyboard-response","78","123550","0.0-5.0-0.24","LF","4euvjgbfcc","1680","1050","0","1","0","600355394a113e408f54cce5","","null","","","learningBlock1","","","","This is a dep:","null","","","","","",""
"image-keyboard-response","79","123877","0.0-5.0-1.24","LF","4euvjgbfcc","1680","1050","0","1","0","600355394a113e408f54cce5","","null","","","","","","","learning/Slide25.JPG","null","","","","","",""
"html-keyboard-response","80","124878","0.0-5.0-2.24","LF","4euvjgbfcc","1680","1050","0","1","0","600355394a113e408f54cce5","","null","","","learningBlock1","","","","<div style=""font-size:60px;""> </div>","null","LF","learning/Slide25.JPG","This is a dep:","","",""
"html-keyboard-response","81","125880","0.0-5.0-0.25","LF","4euvjgbfcc","1680","1050","0","1","0","600355394a113e408f54cce5","","null","","","learningBlock1","","","","This is a wug:","null","","","","","",""
"image-keyboard-response","82","126206","0.0-5.0-1.25","LF","4euvjgbfcc","1680","1050","0","1","0","600355394a113e408f54cce5","","null","","","","","","","learning/Slide26.JPG","null","","","","","",""
"html-keyboard-response","83","127206","0.0-5.0-2.25","LF","4euvjgbfcc","1680","1050","0","1","0","600355394a113e408f54cce5","","null","","","learningBlock1","","","","<div style=""font-size:60px;""> </div>","null","LF","learning/Slide26.JPG","This is a wug:","","",""
"html-keyboard-response","84","128209","0.0-5.0-0.26","LF","4euvjgbfcc","1680","1050","0","1","0","600355394a113e408f54cce5","","null","","","learningBlock1","","","","This is a bim:","null","","","","","",""
"image-keyboard-response","85","128536","0.0-5.0-1.26","LF","4euvjgbfcc","1680","1050","0","1","0","600355394a113e408f54cce5","","null","","","","","","","learning/Slide27.JPG","null","","","","","",""
"html-keyboard-response","86","129537","0.0-5.0-2.26","LF","4euvjgbfcc","1680","1050","0","1","0","600355394a113e408f54cce5","","null","","","learningBlock1","","","","<div style=""font-size:60px;""> </div>","null","LF","learning/Slide27.JPG","This is a bim:","","",""
"html-keyboard-response","87","130538","0.0-5.0-0.27","LF","4euvjgbfcc","1680","1050","0","1","0","600355394a113e408f54cce5","","null","","","learningBlock1","","","","This is a dep:","null","","","","","",""
"image-keyboard-response","88","130865","0.0-5.0-1.27","LF","4euvjgbfcc","1680","1050","0","1","0","600355394a113e408f54cce5","","null","","","","","","","learning/Slide28.JPG","null","","","","","",""
"html-keyboard-response","89","131866","0.0-5.0-2.27","LF","4euvjgbfcc","1680","1050","0","1","0","600355394a113e408f54cce5","","null","","","learningBlock1","","","","<div style=""font-size:60px;""> </div>","null","LF","learning/Slide28.JPG","This is a dep:","","",""
"html-keyboard-response","90","132867","0.0-5.0-0.28","LF","4euvjgbfcc","1680","1050","0","1","0","600355394a113e408f54cce5","","null","","","learningBlock1","","","","This is a tob:","null","","","","","",""
"image-keyboard-response","91","133193","0.0-5.0-1.28","LF","4euvjgbfcc","1680","1050","0","1","0","600355394a113e408f54cce5","","null","","","","","","","learning/Slide29.JPG","null","","","","","",""
"html-keyboard-response","92","134195","0.0-5.0-2.28","LF","4euvjgbfcc","1680","1050","0","1","0","600355394a113e408f54cce5","","null","","","learningBlock1","","","","<div style=""font-size:60px;""> </div>","null","LF","learning/Slide29.JPG","This is a tob:","","",""
"html-keyboard-response","93","135195","0.0-5.0-0.29","LF","4euvjgbfcc","1680","1050","0","1","0","600355394a113e408f54cce5","","null","","","learningBlock1","","","","This is a dep:","null","","","","","",""
"image-keyboard-response","94","135521","0.0-5.0-1.29","LF","4euvjgbfcc","1680","1050","0","1","0","600355394a113e408f54cce5","","null","","","","","","","learning/Slide30.JPG","null","","","","","",""
"html-keyboard-response","95","136521","0.0-5.0-2.29","LF","4euvjgbfcc","1680","1050","0","1","0","600355394a113e408f54cce5","","null","","","learningBlock1","","","","<div style=""font-size:60px;""> </div>","null","LF","learning/Slide30.JPG","This is a dep:","","",""
"html-keyboard-response","96","137521","0.0-5.0-0.30","LF","4euvjgbfcc","1680","1050","0","1","0","600355394a113e408f54cce5","","null","","","learningBlock1","","","","This is a wug:","null","","","","","",""
"image-keyboard-response","97","137850","0.0-5.0-1.30","LF","4euvjgbfcc","1680","1050","0","1","0","600355394a113e408f54cce5","","null","","","","","","","learning/Slide31.JPG","null","","","","","",""
"html-keyboard-response","98","138852","0.0-5.0-2.30","LF","4euvjgbfcc","1680","1050","0","1","0","600355394a113e408f54cce5","","null","","","learningBlock1","","","","<div style=""font-size:60px;""> </div>","null","LF","learning/Slide31.JPG","This is a wug:","","",""
"html-keyboard-response","99","139852","0.0-5.0-0.31","LF","4euvjgbfcc","1680","1050","0","1","0","600355394a113e408f54cce5","","null","","","learningBlock1","","","","This is a tob:","null","","","","","",""
"image-keyboard-response","100","140179","0.0-5.0-1.31","LF","4euvjgbfcc","1680","1050","0","1","0","600355394a113e408f54cce5","","null","","","","","","","learning/Slide32.JPG","null","","","","","",""
"html-keyboard-response","101","141181","0.0-5.0-2.31","LF","4euvjgbfcc","1680","1050","0","1","0","600355394a113e408f54cce5","","null","","","learningBlock1","","","","<div style=""font-size:60px;""> </div>","null","LF","learning/Slide32.JPG","This is a tob:","","",""
"html-keyboard-response","102","142181","0.0-5.0-0.32","LF","4euvjgbfcc","1680","1050","0","1","0","600355394a113e408f54cce5","","null","","","learningBlock1","","","","This is a bim:","null","","","","","",""
"image-keyboard-response","103","142511","0.0-5.0-1.32","LF","4euvjgbfcc","1680","1050","0","1","0","600355394a113e408f54cce5","","null","","","","","","","learning/Slide33.JPG","null","","","","","",""
"html-keyboard-response","104","143511","0.0-5.0-2.32","LF","4euvjgbfcc","1680","1050","0","1","0","600355394a113e408f54cce5","","null","","","learningBlock1","","","","<div style=""font-size:60px;""> </div>","null","LF","learning/Slide33.JPG","This is a bim:","","",""
"html-keyboard-response","105","144513","0.0-5.0-0.33","LF","4euvjgbfcc","1680","1050","0","1","0","600355394a113e408f54cce5","","null","","","learningBlock1","","","","This is a tob:","null","","","","","",""
"image-keyboard-response","106","144839","0.0-5.0-1.33","LF","4euvjgbfcc","1680","1050","0","1","0","600355394a113e408f54cce5","","null","","","","","","","learning/Slide34.JPG","null","","","","","",""
"html-keyboard-response","107","145841","0.0-5.0-2.33","LF","4euvjgbfcc","1680","1050","0","1","0","600355394a113e408f54cce5","","null","","","learningBlock1","","","","<div style=""font-size:60px;""> </div>","null","LF","learning/Slide34.JPG","This is a tob:","","",""
"html-keyboard-response","108","146842","0.0-5.0-0.34","LF","4euvjgbfcc","1680","1050","0","1","0","600355394a113e408f54cce5","","null","","","learningBlock1","","","","This is a bim:","null","","","","","",""
"image-keyboard-response","109","147169","0.0-5.0-1.34","LF","4euvjgbfcc","1680","1050","0","1","0","600355394a113e408f54cce5","","null","","","","","","","learning/Slide35.JPG","null","","","","","",""
"html-keyboard-response","110","148170","0.0-5.0-2.34","LF","4euvjgbfcc","1680","1050","0","1","0","600355394a113e408f54cce5","","null","","","learningBlock1","","","","<div style=""font-size:60px;""> </div>","null","LF","learning/Slide35.JPG","This is a bim:","","",""
"html-keyboard-response","111","149170","0.0-5.0-0.35","LF","4euvjgbfcc","1680","1050","0","1","0","600355394a113e408f54cce5","","null","","","learningBlock1","","","","This is a dep:","null","","","","","",""
"image-keyboard-response","112","149497","0.0-5.0-1.35","LF","4euvjgbfcc","1680","1050","0","1","0","600355394a113e408f54cce5","","null","","","","","","","learning/Slide36.JPG","null","","","","","",""
"html-keyboard-response","113","150497","0.0-5.0-2.35","LF","4euvjgbfcc","1680","1050","0","1","0","600355394a113e408f54cce5","","null","","","learningBlock1","","","","<div style=""font-size:60px;""> </div>","null","LF","learning/Slide36.JPG","This is a dep:","","",""
"html-keyboard-response","114","151498","0.0-5.0-0.36","LF","4euvjgbfcc","1680","1050","0","1","0","600355394a113e408f54cce5","","null","","","learningBlock1","","","","This is a tob:","null","","","","","",""
"image-keyboard-response","115","151824","0.0-5.0-1.36","LF","4euvjgbfcc","1680","1050","0","1","0","600355394a113e408f54cce5","","null","","","","","","","learning/Slide37.JPG","null","","","","","",""
"html-keyboard-response","116","152825","0.0-5.0-2.36","LF","4euvjgbfcc","1680","1050","0","1","0","600355394a113e408f54cce5","","null","","","learningBlock1","","","","<div style=""font-size:60px;""> </div>","null","LF","learning/Slide37.JPG","This is a tob:","","",""
"html-keyboard-response","117","153827","0.0-5.0-0.37","LF","4euvjgbfcc","1680","1050","0","1","0","600355394a113e408f54cce5","","null","","","learningBlock1","","","","This is a wug:","null","","","","","",""
"image-keyboard-response","118","154154","0.0-5.0-1.37","LF","4euvjgbfcc","1680","1050","0","1","0","600355394a113e408f54cce5","","null","","","","","","","learning/Slide38.JPG","null","","","","","",""
"html-keyboard-response","119","155155","0.0-5.0-2.37","LF","4euvjgbfcc","1680","1050","0","1","0","600355394a113e408f54cce5","","null","","","learningBlock1","","","","<div style=""font-size:60px;""> </div>","null","LF","learning/Slide38.JPG","This is a wug:","","",""
"html-keyboard-response","120","156156","0.0-5.0-0.38","LF","4euvjgbfcc","1680","1050","0","1","0","600355394a113e408f54cce5","","null","","","learningBlock1","","","","This is a bim:","null","","","","","",""
"image-keyboard-response","121","156481","0.0-5.0-1.38","LF","4euvjgbfcc","1680","1050","0","1","0","600355394a113e408f54cce5","","null","","","","","","","learning/Slide39.JPG","null","","","","","",""
"html-keyboard-response","122","157483","0.0-5.0-2.38","LF","4euvjgbfcc","1680","1050","0","1","0","600355394a113e408f54cce5","","null","","","learningBlock1","","","","<div style=""font-size:60px;""> </div>","null","LF","learning/Slide39.JPG","This is a bim:","","",""
"html-keyboard-response","123","158483","0.0-5.0-0.39","LF","4euvjgbfcc","1680","1050","0","1","0","600355394a113e408f54cce5","","null","","","learningBlock1","","","","This is a tob:","null","","","","","",""
"image-keyboard-response","124","158809","0.0-5.0-1.39","LF","4euvjgbfcc","1680","1050","0","1","0","600355394a113e408f54cce5","","null","","","","","","","learning/Slide40.JPG","null","","","","","",""
"html-keyboard-response","125","159809","0.0-5.0-2.39","LF","4euvjgbfcc","1680","1050","0","1","0","600355394a113e408f54cce5","","null","","","learningBlock1","","","","<div style=""font-size:60px;""> </div>","null","LF","learning/Slide40.JPG","This is a tob:","","",""
"html-keyboard-response","126","160811","0.0-5.0-0.40","LF","4euvjgbfcc","1680","1050","0","1","0","600355394a113e408f54cce5","","null","","","learningBlock1","","","","This is a bim:","null","","","","","",""
"image-keyboard-response","127","161138","0.0-5.0-1.40","LF","4euvjgbfcc","1680","1050","0","1","0","600355394a113e408f54cce5","","null","","","","","","","learning/Slide41.JPG","null","","","","","",""
"html-keyboard-response","128","162139","0.0-5.0-2.40","LF","4euvjgbfcc","1680","1050","0","1","0","600355394a113e408f54cce5","","null","","","learningBlock1","","","","<div style=""font-size:60px;""> </div>","null","LF","learning/Slide41.JPG","This is a bim:","","",""
"html-keyboard-response","129","163141","0.0-5.0-0.41","LF","4euvjgbfcc","1680","1050","0","1","0","600355394a113e408f54cce5","","null","","","learningBlock1","","","","This is a dep:","null","","","","","",""
"image-keyboard-response","130","163468","0.0-5.0-1.41","LF","4euvjgbfcc","1680","1050","0","1","0","600355394a113e408f54cce5","","null","","","","","","","learning/Slide42.JPG","null","","","","","",""
"html-keyboard-response","131","164468","0.0-5.0-2.41","LF","4euvjgbfcc","1680","1050","0","1","0","600355394a113e408f54cce5","","null","","","learningBlock1","","","","<div style=""font-size:60px;""> </div>","null","LF","learning/Slide42.JPG","This is a dep:","","",""
"html-keyboard-response","132","165470","0.0-5.0-0.42","LF","4euvjgbfcc","1680","1050","0","1","0","600355394a113e408f54cce5","","null","","","learningBlock1","","","","This is a wug:","null","","","","","",""
"image-keyboard-response","133","165796","0.0-5.0-1.42","LF","4euvjgbfcc","1680","1050","0","1","0","600355394a113e408f54cce5","","null","","","","","","","learning/Slide43.JPG","null","","","","","",""
"html-keyboard-response","134","166797","0.0-5.0-2.42","LF","4euvjgbfcc","1680","1050","0","1","0","600355394a113e408f54cce5","","null","","","learningBlock1","","","","<div style=""font-size:60px;""> </div>","null","LF","learning/Slide43.JPG","This is a wug:","","",""
"html-keyboard-response","135","167798","0.0-5.0-0.43","LF","4euvjgbfcc","1680","1050","0","1","0","600355394a113e408f54cce5","","null","","","learningBlock1","","","","This is a bim:","null","","","","","",""
"image-keyboard-response","136","168126","0.0-5.0-1.43","LF","4euvjgbfcc","1680","1050","0","1","0","600355394a113e408f54cce5","","null","","","","","","","learning/Slide44.JPG","null","","","","","",""
"html-keyboard-response","137","169126","0.0-5.0-2.43","LF","4euvjgbfcc","1680","1050","0","1","0","600355394a113e408f54cce5","","null","","","learningBlock1","","","","<div style=""font-size:60px;""> </div>","null","LF","learning/Slide44.JPG","This is a bim:","","",""
"html-keyboard-response","138","170126","0.0-5.0-0.44","LF","4euvjgbfcc","1680","1050","0","1","0","600355394a113e408f54cce5","","null","","","learningBlock1","","","","This is a wug:","null","","","","","",""
"image-keyboard-response","139","170453","0.0-5.0-1.44","LF","4euvjgbfcc","1680","1050","0","1","0","600355394a113e408f54cce5","","null","","","","","","","learning/Slide45.JPG","null","","","","","",""
"html-keyboard-response","140","171453","0.0-5.0-2.44","LF","4euvjgbfcc","1680","1050","0","1","0","600355394a113e408f54cce5","","null","","","learningBlock1","","","","<div style=""font-size:60px;""> </div>","null","LF","learning/Slide45.JPG","This is a wug:","","",""
"html-keyboard-response","141","172454","0.0-5.0-0.45","LF","4euvjgbfcc","1680","1050","0","1","0","600355394a113e408f54cce5","","null","","","learningBlock1","","","","This is a dep:","null","","","","","",""
"image-keyboard-response","142","172782","0.0-5.0-1.45","LF","4euvjgbfcc","1680","1050","0","1","0","600355394a113e408f54cce5","","null","","","","","","","learning/Slide46.JPG","null","","","","","",""
"html-keyboard-response","143","173783","0.0-5.0-2.45","LF","4euvjgbfcc","1680","1050","0","1","0","600355394a113e408f54cce5","","null","","","learningBlock1","","","","<div style=""font-size:60px;""> </div>","null","LF","learning/Slide46.JPG","This is a dep:","","",""
"html-keyboard-response","144","174784","0.0-5.0-0.46","LF","4euvjgbfcc","1680","1050","0","1","0","600355394a113e408f54cce5","","null","","","learningBlock1","","","","This is a tob:","null","","","","","",""
"image-keyboard-response","145","175111","0.0-5.0-1.46","LF","4euvjgbfcc","1680","1050","0","1","0","600355394a113e408f54cce5","","null","","","","","","","learning/Slide47.JPG","null","","","","","",""
"html-keyboard-response","146","176112","0.0-5.0-2.46","LF","4euvjgbfcc","1680","1050","0","1","0","600355394a113e408f54cce5","","null","","","learningBlock1","","","","<div style=""font-size:60px;""> </div>","null","LF","learning/Slide47.JPG","This is a tob:","","",""
"html-keyboard-response","147","177112","0.0-5.0-0.47","LF","4euvjgbfcc","1680","1050","0","1","0","600355394a113e408f54cce5","","null","","","learningBlock1","","","","This is a bim:","null","","","","","",""
"image-keyboard-response","148","177439","0.0-5.0-1.47","LF","4euvjgbfcc","1680","1050","0","1","0","600355394a113e408f54cce5","","null","","","","","","","learning/Slide48.JPG","null","","","","","",""
"html-keyboard-response","149","178440","0.0-5.0-2.47","LF","4euvjgbfcc","1680","1050","0","1","0","600355394a113e408f54cce5","","null","","","learningBlock1","","","","<div style=""font-size:60px;""> </div>","null","LF","learning/Slide48.JPG","This is a bim:","","",""
"html-keyboard-response","150","179441","0.0-5.0-0.48","LF","4euvjgbfcc","1680","1050","0","1","0","600355394a113e408f54cce5","","null","","","learningBlock1","","","","This is a dep:","null","","","","","",""
"image-keyboard-response","151","179768","0.0-5.0-1.48","LF","4euvjgbfcc","1680","1050","0","1","0","600355394a113e408f54cce5","","null","","","","","","","learning/Slide49.JPG","null","","","","","",""
"html-keyboard-response","152","180769","0.0-5.0-2.48","LF","4euvjgbfcc","1680","1050","0","1","0","600355394a113e408f54cce5","","null","","","learningBlock1","","","","<div style=""font-size:60px;""> </div>","null","LF","learning/Slide49.JPG","This is a dep:","","",""
"html-keyboard-response","153","181770","0.0-5.0-0.49","LF","4euvjgbfcc","1680","1050","0","1","0","600355394a113e408f54cce5","","null","","","learningBlock1","","","","This is a tob:","null","","","","","",""
"image-keyboard-response","154","182098","0.0-5.0-1.49","LF","4euvjgbfcc","1680","1050","0","1","0","600355394a113e408f54cce5","","null","","","","","","","learning/Slide50.JPG","null","","","","","",""
"html-keyboard-response","155","183099","0.0-5.0-2.49","LF","4euvjgbfcc","1680","1050","0","1","0","600355394a113e408f54cce5","","null","","","learningBlock1","","","","<div style=""font-size:60px;""> </div>","null","LF","learning/Slide50.JPG","This is a tob:","","",""
"html-keyboard-response","156","184100","0.0-5.0-0.50","LF","4euvjgbfcc","1680","1050","0","1","0","600355394a113e408f54cce5","","null","","","learningBlock1","","","","This is a bim:","null","","","","","",""
"image-keyboard-response","157","184427","0.0-5.0-1.50","LF","4euvjgbfcc","1680","1050","0","1","0","600355394a113e408f54cce5","","null","","","","","","","learning/Slide51.JPG","null","","","","","",""
"html-keyboard-response","158","185427","0.0-5.0-2.50","LF","4euvjgbfcc","1680","1050","0","1","0","600355394a113e408f54cce5","","null","","","learningBlock1","","","","<div style=""font-size:60px;""> </div>","null","LF","learning/Slide51.JPG","This is a bim:","","",""
"html-keyboard-response","159","186428","0.0-5.0-0.51","LF","4euvjgbfcc","1680","1050","0","1","0","600355394a113e408f54cce5","","null","","","learningBlock1","","","","This is a wug:","null","","","","","",""
"image-keyboard-response","160","186756","0.0-5.0-1.51","LF","4euvjgbfcc","1680","1050","0","1","0","600355394a113e408f54cce5","","null","","","","","","","learning/Slide52.JPG","null","","","","","",""
"html-keyboard-response","161","187757","0.0-5.0-2.51","LF","4euvjgbfcc","1680","1050","0","1","0","600355394a113e408f54cce5","","null","","","learningBlock1","","","","<div style=""font-size:60px;""> </div>","null","LF","learning/Slide52.JPG","This is a wug:","","",""
"html-keyboard-response","162","188757","0.0-5.0-0.52","LF","4euvjgbfcc","1680","1050","0","1","0","600355394a113e408f54cce5","","null","","","learningBlock1","","","","This is a tob:","null","","","","","",""
"image-keyboard-response","163","189083","0.0-5.0-1.52","LF","4euvjgbfcc","1680","1050","0","1","0","600355394a113e408f54cce5","","null","","","","","","","learning/Slide53.JPG","null","","","","","",""
"html-keyboard-response","164","190084","0.0-5.0-2.52","LF","4euvjgbfcc","1680","1050","0","1","0","600355394a113e408f54cce5","","null","","","learningBlock1","","","","<div style=""font-size:60px;""> </div>","null","LF","learning/Slide53.JPG","This is a tob:","","",""
"html-keyboard-response","165","191085","0.0-5.0-0.53","LF","4euvjgbfcc","1680","1050","0","1","0","600355394a113e408f54cce5","","null","","","learningBlock1","","","","This is a dep:","null","","","","","",""
"image-keyboard-response","166","191412","0.0-5.0-1.53","LF","4euvjgbfcc","1680","1050","0","1","0","600355394a113e408f54cce5","","null","","","","","","","learning/Slide54.JPG","null","","","","","",""
"html-keyboard-response","167","192413","0.0-5.0-2.53","LF","4euvjgbfcc","1680","1050","0","1","0","600355394a113e408f54cce5","","null","","","learningBlock1","","","","<div style=""font-size:60px;""> </div>","null","LF","learning/Slide54.JPG","This is a dep:","","",""
"html-keyboard-response","168","193414","0.0-5.0-0.54","LF","4euvjgbfcc","1680","1050","0","1","0","600355394a113e408f54cce5","","null","","","learningBlock1","","","","This is a bim:","null","","","","","",""
"image-keyboard-response","169","193739","0.0-5.0-1.54","LF","4euvjgbfcc","1680","1050","0","1","0","600355394a113e408f54cce5","","null","","","","","","","learning/Slide55.JPG","null","","","","","",""
"html-keyboard-response","170","194740","0.0-5.0-2.54","LF","4euvjgbfcc","1680","1050","0","1","0","600355394a113e408f54cce5","","null","","","learningBlock1","","","","<div style=""font-size:60px;""> </div>","null","LF","learning/Slide55.JPG","This is a bim:","","",""
"html-keyboard-response","171","195742","0.0-5.0-0.55","LF","4euvjgbfcc","1680","1050","0","1","0","600355394a113e408f54cce5","","null","","","learningBlock1","","","","This is a tob:","null","","","","","",""
"image-keyboard-response","172","196068","0.0-5.0-1.55","LF","4euvjgbfcc","1680","1050","0","1","0","600355394a113e408f54cce5","","null","","","","","","","learning/Slide56.JPG","null","","","","","",""
"html-keyboard-response","173","197068","0.0-5.0-2.55","LF","4euvjgbfcc","1680","1050","0","1","0","600355394a113e408f54cce5","","null","","","learningBlock1","","","","<div style=""font-size:60px;""> </div>","null","LF","learning/Slide56.JPG","This is a tob:","","",""
"html-keyboard-response","174","198070","0.0-5.0-0.56","LF","4euvjgbfcc","1680","1050","0","1","0","600355394a113e408f54cce5","","null","","","learningBlock1","","","","This is a dep:","null","","","","","",""
"image-keyboard-response","175","198397","0.0-5.0-1.56","LF","4euvjgbfcc","1680","1050","0","1","0","600355394a113e408f54cce5","","null","","","","","","","learning/Slide57.JPG","null","","","","","",""
"html-keyboard-response","176","199400","0.0-5.0-2.56","LF","4euvjgbfcc","1680","1050","0","1","0","600355394a113e408f54cce5","","null","","","learningBlock1","","","","<div style=""font-size:60px;""> </div>","null","LF","learning/Slide57.JPG","This is a dep:","","",""
"html-keyboard-response","177","200401","0.0-5.0-0.57","LF","4euvjgbfcc","1680","1050","0","1","0","600355394a113e408f54cce5","","null","","","learningBlock1","","","","This is a wug:","null","","","","","",""
"image-keyboard-response","178","200727","0.0-5.0-1.57","LF","4euvjgbfcc","1680","1050","0","1","0","600355394a113e408f54cce5","","null","","","","","","","learning/Slide58.JPG","null","","","","","",""
"html-keyboard-response","179","201728","0.0-5.0-2.57","LF","4euvjgbfcc","1680","1050","0","1","0","600355394a113e408f54cce5","","null","","","learningBlock1","","","","<div style=""font-size:60px;""> </div>","null","LF","learning/Slide58.JPG","This is a wug:","","",""
"html-keyboard-response","180","202729","0.0-5.0-0.58","LF","4euvjgbfcc","1680","1050","0","1","0","600355394a113e408f54cce5","","null","","","learningBlock1","","","","This is a dep:","null","","","","","",""
"image-keyboard-response","181","203057","0.0-5.0-1.58","LF","4euvjgbfcc","1680","1050","0","1","0","600355394a113e408f54cce5","","null","","","","","","","learning/Slide59.JPG","null","","","","","",""
"html-keyboard-response","182","204059","0.0-5.0-2.58","LF","4euvjgbfcc","1680","1050","0","1","0","600355394a113e408f54cce5","","null","","","learningBlock1","","","","<div style=""font-size:60px;""> </div>","null","LF","learning/Slide59.JPG","This is a dep:","","",""
"html-keyboard-response","183","205062","0.0-5.0-0.59","LF","4euvjgbfcc","1680","1050","0","1","0","600355394a113e408f54cce5","","null","","","learningBlock1","","","","This is a wug:","null","","","","","",""
"image-keyboard-response","184","205388","0.0-5.0-1.59","LF","4euvjgbfcc","1680","1050","0","1","0","600355394a113e408f54cce5","","null","","","","","","","learning/Slide60.JPG","null","","","","","",""
"html-keyboard-response","185","206390","0.0-5.0-2.59","LF","4euvjgbfcc","1680","1050","0","1","0","600355394a113e408f54cce5","","null","","","learningBlock1","","","","<div style=""font-size:60px;""> </div>","null","LF","learning/Slide60.JPG","This is a wug:","","",""
"html-keyboard-response","186","207390","0.0-5.0-0.60","LF","4euvjgbfcc","1680","1050","0","1","0","600355394a113e408f54cce5","","null","","","learningBlock1","","","","This is a bim:","null","","","","","",""
"image-keyboard-response","187","207718","0.0-5.0-1.60","LF","4euvjgbfcc","1680","1050","0","1","0","600355394a113e408f54cce5","","null","","","","","","","learning/Slide61.JPG","null","","","","","",""
"html-keyboard-response","188","208718","0.0-5.0-2.60","LF","4euvjgbfcc","1680","1050","0","1","0","600355394a113e408f54cce5","","null","","","learningBlock1","","","","<div style=""font-size:60px;""> </div>","null","LF","learning/Slide61.JPG","This is a bim:","","",""
"html-keyboard-response","189","209720","0.0-5.0-0.61","LF","4euvjgbfcc","1680","1050","0","1","0","600355394a113e408f54cce5","","null","","","learningBlock1","","","","This is a dep:","null","","","","","",""
"image-keyboard-response","190","210047","0.0-5.0-1.61","LF","4euvjgbfcc","1680","1050","0","1","0","600355394a113e408f54cce5","","null","","","","","","","learning/Slide62.JPG","null","","","","","",""
"html-keyboard-response","191","211048","0.0-5.0-2.61","LF","4euvjgbfcc","1680","1050","0","1","0","600355394a113e408f54cce5","","null","","","learningBlock1","","","","<div style=""font-size:60px;""> </div>","null","LF","learning/Slide62.JPG","This is a dep:","","",""
"html-keyboard-response","192","212048","0.0-5.0-0.62","LF","4euvjgbfcc","1680","1050","0","1","0","600355394a113e408f54cce5","","null","","","learningBlock1","","","","This is a bim:","null","","","","","",""
"image-keyboard-response","193","212375","0.0-5.0-1.62","LF","4euvjgbfcc","1680","1050","0","1","0","600355394a113e408f54cce5","","null","","","","","","","learning/Slide63.JPG","null","","","","","",""
"html-keyboard-response","194","213376","0.0-5.0-2.62","LF","4euvjgbfcc","1680","1050","0","1","0","600355394a113e408f54cce5","","null","","","learningBlock1","","","","<div style=""font-size:60px;""> </div>","null","LF","learning/Slide63.JPG","This is a bim:","","",""
"html-keyboard-response","195","214377","0.0-5.0-0.63","LF","4euvjgbfcc","1680","1050","0","1","0","600355394a113e408f54cce5","","null","","","learningBlock1","","","","This is a tob:","null","","","","","",""
"image-keyboard-response","196","214704","0.0-5.0-1.63","LF","4euvjgbfcc","1680","1050","0","1","0","600355394a113e408f54cce5","","null","","","","","","","learning/Slide64.JPG","null","","","","","",""
"html-keyboard-response","197","215705","0.0-5.0-2.63","LF","4euvjgbfcc","1680","1050","0","1","0","600355394a113e408f54cce5","","null","","","learningBlock1","","","","<div style=""font-size:60px;""> </div>","null","LF","learning/Slide64.JPG","This is a tob:","","",""
"html-keyboard-response","198","216706","0.0-5.0-0.64","LF","4euvjgbfcc","1680","1050","0","1","0","600355394a113e408f54cce5","","null","","","learningBlock1","","","","This is a wug:","null","","","","","",""
"image-keyboard-response","199","217032","0.0-5.0-1.64","LF","4euvjgbfcc","1680","1050","0","1","0","600355394a113e408f54cce5","","null","","","","","","","learning/Slide65.JPG","null","","","","","",""
"html-keyboard-response","200","218033","0.0-5.0-2.64","LF","4euvjgbfcc","1680","1050","0","1","0","600355394a113e408f54cce5","","null","","","learningBlock1","","","","<div style=""font-size:60px;""> </div>","null","LF","learning/Slide65.JPG","This is a wug:","","",""
"html-keyboard-response","201","219034","0.0-5.0-0.65","LF","4euvjgbfcc","1680","1050","0","1","0","600355394a113e408f54cce5","","null","","","learningBlock1","","","","This is a dep:","null","","","","","",""
"image-keyboard-response","202","219362","0.0-5.0-1.65","LF","4euvjgbfcc","1680","1050","0","1","0","600355394a113e408f54cce5","","null","","","","","","","learning/Slide66.JPG","null","","","","","",""
"html-keyboard-response","203","220363","0.0-5.0-2.65","LF","4euvjgbfcc","1680","1050","0","1","0","600355394a113e408f54cce5","","null","","","learningBlock1","","","","<div style=""font-size:60px;""> </div>","null","LF","learning/Slide66.JPG","This is a dep:","","",""
"html-keyboard-response","204","221364","0.0-5.0-0.66","LF","4euvjgbfcc","1680","1050","0","1","0","600355394a113e408f54cce5","","null","","","learningBlock1","","","","This is a tob:","null","","","","","",""
"image-keyboard-response","205","221690","0.0-5.0-1.66","LF","4euvjgbfcc","1680","1050","0","1","0","600355394a113e408f54cce5","","null","","","","","","","learning/Slide67.JPG","null","","","","","",""
"html-keyboard-response","206","222692","0.0-5.0-2.66","LF","4euvjgbfcc","1680","1050","0","1","0","600355394a113e408f54cce5","","null","","","learningBlock1","","","","<div style=""font-size:60px;""> </div>","null","LF","learning/Slide67.JPG","This is a tob:","","",""
"html-keyboard-response","207","223692","0.0-5.0-0.67","LF","4euvjgbfcc","1680","1050","0","1","0","600355394a113e408f54cce5","","null","","","learningBlock1","","","","This is a wug:","null","","","","","",""
"image-keyboard-response","208","224020","0.0-5.0-1.67","LF","4euvjgbfcc","1680","1050","0","1","0","600355394a113e408f54cce5","","null","","","","","","","learning/Slide68.JPG","null","","","","","",""
"html-keyboard-response","209","225021","0.0-5.0-2.67","LF","4euvjgbfcc","1680","1050","0","1","0","600355394a113e408f54cce5","","null","","","learningBlock1","","","","<div style=""font-size:60px;""> </div>","null","LF","learning/Slide68.JPG","This is a wug:","","",""
"html-keyboard-response","210","226023","0.0-5.0-0.68","LF","4euvjgbfcc","1680","1050","0","1","0","600355394a113e408f54cce5","","null","","","learningBlock1","","","","This is a tob:","null","","","","","",""
"image-keyboard-response","211","226349","0.0-5.0-1.68","LF","4euvjgbfcc","1680","1050","0","1","0","600355394a113e408f54cce5","","null","","","","","","","learning/Slide69.JPG","null","","","","","",""
"html-keyboard-response","212","227349","0.0-5.0-2.68","LF","4euvjgbfcc","1680","1050","0","1","0","600355394a113e408f54cce5","","null","","","learningBlock1","","","","<div style=""font-size:60px;""> </div>","null","LF","learning/Slide69.JPG","This is a tob:","","",""
"html-keyboard-response","213","228350","0.0-5.0-0.69","LF","4euvjgbfcc","1680","1050","0","1","0","600355394a113e408f54cce5","","null","","","learningBlock1","","","","This is a dep:","null","","","","","",""
"image-keyboard-response","214","228676","0.0-5.0-1.69","LF","4euvjgbfcc","1680","1050","0","1","0","600355394a113e408f54cce5","","null","","","","","","","learning/Slide70.JPG","null","","","","","",""
"html-keyboard-response","215","229677","0.0-5.0-2.69","LF","4euvjgbfcc","1680","1050","0","1","0","600355394a113e408f54cce5","","null","","","learningBlock1","","","","<div style=""font-size:60px;""> </div>","null","LF","learning/Slide70.JPG","This is a dep:","","",""
"html-keyboard-response","216","230677","0.0-5.0-0.70","LF","4euvjgbfcc","1680","1050","0","1","0","600355394a113e408f54cce5","","null","","","learningBlock1","","","","This is a wug:","null","","","","","",""
"image-keyboard-response","217","231003","0.0-5.0-1.70","LF","4euvjgbfcc","1680","1050","0","1","0","600355394a113e408f54cce5","","null","","","","","","","learning/Slide71.JPG","null","","","","","",""
"html-keyboard-response","218","232004","0.0-5.0-2.70","LF","4euvjgbfcc","1680","1050","0","1","0","600355394a113e408f54cce5","","null","","","learningBlock1","","","","<div style=""font-size:60px;""> </div>","null","LF","learning/Slide71.JPG","This is a wug:","","",""
"html-keyboard-response","219","233004","0.0-5.0-0.71","LF","4euvjgbfcc","1680","1050","0","1","0","600355394a113e408f54cce5","","null","","","learningBlock1","","","","This is a bim:","null","","","","","",""
"image-keyboard-response","220","233331","0.0-5.0-1.71","LF","4euvjgbfcc","1680","1050","0","1","0","600355394a113e408f54cce5","","null","","","","","","","learning/Slide72.JPG","null","","","","","",""
"html-keyboard-response","221","234332","0.0-5.0-2.71","LF","4euvjgbfcc","1680","1050","0","1","0","600355394a113e408f54cce5","","null","","","learningBlock1","","","","<div style=""font-size:60px;""> </div>","null","LF","learning/Slide72.JPG","This is a bim:","","",""
"html-keyboard-response","222","235334","0.0-5.0-0.72","LF","4euvjgbfcc","1680","1050","0","1","0","600355394a113e408f54cce5","","null","","","learningBlock1","","","","This is a wug:","null","","","","","",""
"image-keyboard-response","223","235663","0.0-5.0-1.72","LF","4euvjgbfcc","1680","1050","0","1","0","600355394a113e408f54cce5","","null","","","","","","","learning/Slide73.JPG","null","","","","","",""
"html-keyboard-response","224","236664","0.0-5.0-2.72","LF","4euvjgbfcc","1680","1050","0","1","0","600355394a113e408f54cce5","","null","","","learningBlock1","","","","<div style=""font-size:60px;""> </div>","null","LF","learning/Slide73.JPG","This is a wug:","","",""
"html-keyboard-response","225","237664","0.0-5.0-0.73","LF","4euvjgbfcc","1680","1050","0","1","0","600355394a113e408f54cce5","","null","","","learningBlock1","","","","This is a dep:","null","","","","","",""
"image-keyboard-response","226","237992","0.0-5.0-1.73","LF","4euvjgbfcc","1680","1050","0","1","0","600355394a113e408f54cce5","","null","","","","","","","learning/Slide74.JPG","null","","","","","",""
"html-keyboard-response","227","238992","0.0-5.0-2.73","LF","4euvjgbfcc","1680","1050","0","1","0","600355394a113e408f54cce5","","null","","","learningBlock1","","","","<div style=""font-size:60px;""> </div>","null","LF","learning/Slide74.JPG","This is a dep:","","",""
"html-keyboard-response","228","239994","0.0-5.0-0.74","LF","4euvjgbfcc","1680","1050","0","1","0","600355394a113e408f54cce5","","null","","","learningBlock1","","","","This is a tob:","null","","","","","",""
"image-keyboard-response","229","240320","0.0-5.0-1.74","LF","4euvjgbfcc","1680","1050","0","1","0","600355394a113e408f54cce5","","null","","","","","","","learning/Slide75.JPG","null","","","","","",""
"html-keyboard-response","230","241320","0.0-5.0-2.74","LF","4euvjgbfcc","1680","1050","0","1","0","600355394a113e408f54cce5","","null","","","learningBlock1","","","","<div style=""font-size:60px;""> </div>","null","LF","learning/Slide75.JPG","This is a tob:","","",""
"html-keyboard-response","231","242320","0.0-5.0-0.75","LF","4euvjgbfcc","1680","1050","0","1","0","600355394a113e408f54cce5","","null","","","learningBlock1","","","","This is a bim:","null","","","","","",""
"image-keyboard-response","232","242646","0.0-5.0-1.75","LF","4euvjgbfcc","1680","1050","0","1","0","600355394a113e408f54cce5","","null","","","","","","","learning/Slide76.JPG","null","","","","","",""
"html-keyboard-response","233","243648","0.0-5.0-2.75","LF","4euvjgbfcc","1680","1050","0","1","0","600355394a113e408f54cce5","","null","","","learningBlock1","","","","<div style=""font-size:60px;""> </div>","null","LF","learning/Slide76.JPG","This is a bim:","","",""
"html-keyboard-response","234","244649","0.0-5.0-0.76","LF","4euvjgbfcc","1680","1050","0","1","0","600355394a113e408f54cce5","","null","","","learningBlock1","","","","This is a tob:","null","","","","","",""
"image-keyboard-response","235","244974","0.0-5.0-1.76","LF","4euvjgbfcc","1680","1050","0","1","0","600355394a113e408f54cce5","","null","","","","","","","learning/Slide77.JPG","null","","","","","",""
"html-keyboard-response","236","245975","0.0-5.0-2.76","LF","4euvjgbfcc","1680","1050","0","1","0","600355394a113e408f54cce5","","null","","","learningBlock1","","","","<div style=""font-size:60px;""> </div>","null","LF","learning/Slide77.JPG","This is a tob:","","",""
"html-keyboard-response","237","246975","0.0-5.0-0.77","LF","4euvjgbfcc","1680","1050","0","1","0","600355394a113e408f54cce5","","null","","","learningBlock1","","","","This is a wug:","null","","","","","",""
"image-keyboard-response","238","247302","0.0-5.0-1.77","LF","4euvjgbfcc","1680","1050","0","1","0","600355394a113e408f54cce5","","null","","","","","","","learning/Slide78.JPG","null","","","","","",""
"html-keyboard-response","239","248304","0.0-5.0-2.77","LF","4euvjgbfcc","1680","1050","0","1","0","600355394a113e408f54cce5","","null","","","learningBlock1","","","","<div style=""font-size:60px;""> </div>","null","LF","learning/Slide78.JPG","This is a wug:","","",""
"html-keyboard-response","240","249305","0.0-5.0-0.78","LF","4euvjgbfcc","1680","1050","0","1","0","600355394a113e408f54cce5","","null","","","learningBlock1","","","","This is a bim:","null","","","","","",""
"image-keyboard-response","241","249633","0.0-5.0-1.78","LF","4euvjgbfcc","1680","1050","0","1","0","600355394a113e408f54cce5","","null","","","","","","","learning/Slide79.JPG","null","","","","","",""
"html-keyboard-response","242","250634","0.0-5.0-2.78","LF","4euvjgbfcc","1680","1050","0","1","0","600355394a113e408f54cce5","","null","","","learningBlock1","","","","<div style=""font-size:60px;""> </div>","null","LF","learning/Slide79.JPG","This is a bim:","","",""
"html-keyboard-response","243","251634","0.0-5.0-0.79","LF","4euvjgbfcc","1680","1050","0","1","0","600355394a113e408f54cce5","","null","","","learningBlock1","","","","This is a tob:","null","","","","","",""
"image-keyboard-response","244","251962","0.0-5.0-1.79","LF","4euvjgbfcc","1680","1050","0","1","0","600355394a113e408f54cce5","","null","","","","","","","learning/Slide80.JPG","null","","","","","",""
"html-keyboard-response","245","252962","0.0-5.0-2.79","LF","4euvjgbfcc","1680","1050","0","1","0","600355394a113e408f54cce5","","null","","","learningBlock1","","","","<div style=""font-size:60px;""> </div>","null","LF","learning/Slide80.JPG","This is a tob:","","",""
"instructions","246","254712","0.0-6.0","LF","4euvjgbfcc","1680","1050","0","1","0","600355394a113e408f54cce5","","NA","","[{""page_index"":0,""viewing_time"":1749}]","instructions","","","","","","","","","","",""
"html-keyboard-response","247","255712","0.0-7.0-0.0","LF","4euvjgbfcc","1680","1050","0","1","0","600355394a113e408f54cce5","","null","","","learningBlock2","","","","This is a wug:","null","","","","","",""
"image-keyboard-response","248","256037","0.0-7.0-1.0","LF","4euvjgbfcc","1680","1050","0","1","0","600355394a113e408f54cce5","","null","","","","","","","learning/Slide81.JPG","null","","","","","",""
"html-keyboard-response","249","257038","0.0-7.0-2.0","LF","4euvjgbfcc","1680","1050","0","1","0","600355394a113e408f54cce5","","null","","","learningBlock2","","","","<div style=""font-size:60px;""> </div>","null","LF","learning/Slide81.JPG","This is a wug:","","",""
"html-keyboard-response","250","258039","0.0-7.0-0.1","LF","4euvjgbfcc","1680","1050","0","1","0","600355394a113e408f54cce5","","null","","","learningBlock2","","","","This is a bim:","null","","","","","",""
"image-keyboard-response","251","258366","0.0-7.0-1.1","LF","4euvjgbfcc","1680","1050","0","1","0","600355394a113e408f54cce5","","null","","","","","","","learning/Slide82.JPG","null","","","","","",""
"html-keyboard-response","252","259366","0.0-7.0-2.1","LF","4euvjgbfcc","1680","1050","0","1","0","600355394a113e408f54cce5","","null","","","learningBlock2","","","","<div style=""font-size:60px;""> </div>","null","LF","learning/Slide82.JPG","This is a bim:","","",""
"html-keyboard-response","253","260367","0.0-7.0-0.2","LF","4euvjgbfcc","1680","1050","0","1","0","600355394a113e408f54cce5","","null","","","learningBlock2","","","","This is a wug:","null","","","","","",""
"image-keyboard-response","254","260694","0.0-7.0-1.2","LF","4euvjgbfcc","1680","1050","0","1","0","600355394a113e408f54cce5","","null","","","","","","","learning/Slide83.JPG","null","","","","","",""
"html-keyboard-response","255","261697","0.0-7.0-2.2","LF","4euvjgbfcc","1680","1050","0","1","0","600355394a113e408f54cce5","","null","","","learningBlock2","","","","<div style=""font-size:60px;""> </div>","null","LF","learning/Slide83.JPG","This is a wug:","","",""
"html-keyboard-response","256","262697","0.0-7.0-0.3","LF","4euvjgbfcc","1680","1050","0","1","0","600355394a113e408f54cce5","","null","","","learningBlock2","","","","This is a dep:","null","","","","","",""
"image-keyboard-response","257","263025","0.0-7.0-1.3","LF","4euvjgbfcc","1680","1050","0","1","0","600355394a113e408f54cce5","","null","","","","","","","learning/Slide84.JPG","null","","","","","",""
"html-keyboard-response","258","264026","0.0-7.0-2.3","LF","4euvjgbfcc","1680","1050","0","1","0","600355394a113e408f54cce5","","null","","","learningBlock2","","","","<div style=""font-size:60px;""> </div>","null","LF","learning/Slide84.JPG","This is a dep:","","",""
"html-keyboard-response","259","265027","0.0-7.0-0.4","LF","4euvjgbfcc","1680","1050","0","1","0","600355394a113e408f54cce5","","null","","","learningBlock2","","","","This is a bim:","null","","","","","",""
"image-keyboard-response","260","265355","0.0-7.0-1.4","LF","4euvjgbfcc","1680","1050","0","1","0","600355394a113e408f54cce5","","null","","","","","","","learning/Slide85.JPG","null","","","","","",""
"html-keyboard-response","261","266355","0.0-7.0-2.4","LF","4euvjgbfcc","1680","1050","0","1","0","600355394a113e408f54cce5","","null","","","learningBlock2","","","","<div style=""font-size:60px;""> </div>","null","LF","learning/Slide85.JPG","This is a bim:","","",""
"html-keyboard-response","262","267357","0.0-7.0-0.5","LF","4euvjgbfcc","1680","1050","0","1","0","600355394a113e408f54cce5","","null","","","learningBlock2","","","","This is a tob:","null","","","","","",""
"image-keyboard-response","263","267683","0.0-7.0-1.5","LF","4euvjgbfcc","1680","1050","0","1","0","600355394a113e408f54cce5","","null","","","","","","","learning/Slide86.JPG","null","","","","","",""
"html-keyboard-response","264","268684","0.0-7.0-2.5","LF","4euvjgbfcc","1680","1050","0","1","0","600355394a113e408f54cce5","","null","","","learningBlock2","","","","<div style=""font-size:60px;""> </div>","null","LF","learning/Slide86.JPG","This is a tob:","","",""
"html-keyboard-response","265","269684","0.0-7.0-0.6","LF","4euvjgbfcc","1680","1050","0","1","0","600355394a113e408f54cce5","","null","","","learningBlock2","","","","This is a wug:","null","","","","","",""
"image-keyboard-response","266","270011","0.0-7.0-1.6","LF","4euvjgbfcc","1680","1050","0","1","0","600355394a113e408f54cce5","","null","","","","","","","learning/Slide87.JPG","null","","","","","",""
"html-keyboard-response","267","271012","0.0-7.0-2.6","LF","4euvjgbfcc","1680","1050","0","1","0","600355394a113e408f54cce5","","null","","","learningBlock2","","","","<div style=""font-size:60px;""> </div>","null","LF","learning/Slide87.JPG","This is a wug:","","",""
"html-keyboard-response","268","272012","0.0-7.0-0.7","LF","4euvjgbfcc","1680","1050","0","1","0","600355394a113e408f54cce5","","null","","","learningBlock2","","","","This is a tob:","null","","","","","",""
"image-keyboard-response","269","272341","0.0-7.0-1.7","LF","4euvjgbfcc","1680","1050","0","1","0","600355394a113e408f54cce5","","null","","","","","","","learning/Slide88.JPG","null","","","","","",""
"html-keyboard-response","270","273342","0.0-7.0-2.7","LF","4euvjgbfcc","1680","1050","0","1","0","600355394a113e408f54cce5","","null","","","learningBlock2","","","","<div style=""font-size:60px;""> </div>","null","LF","learning/Slide88.JPG","This is a tob:","","",""
"html-keyboard-response","271","274345","0.0-7.0-0.8","LF","4euvjgbfcc","1680","1050","0","1","0","600355394a113e408f54cce5","","null","","","learningBlock2","","","","This is a bim:","null","","","","","",""
"image-keyboard-response","272","274670","0.0-7.0-1.8","LF","4euvjgbfcc","1680","1050","0","1","0","600355394a113e408f54cce5","","null","","","","","","","learning/Slide89.JPG","null","","","","","",""
"html-keyboard-response","273","275671","0.0-7.0-2.8","LF","4euvjgbfcc","1680","1050","0","1","0","600355394a113e408f54cce5","","null","","","learningBlock2","","","","<div style=""font-size:60px;""> </div>","null","LF","learning/Slide89.JPG","This is a bim:","","",""
"html-keyboard-response","274","276671","0.0-7.0-0.9","LF","4euvjgbfcc","1680","1050","0","1","0","600355394a113e408f54cce5","","null","","","learningBlock2","","","","This is a dep:","null","","","","","",""
"image-keyboard-response","275","276999","0.0-7.0-1.9","LF","4euvjgbfcc","1680","1050","0","1","0","600355394a113e408f54cce5","","null","","","","","","","learning/Slide90.JPG","null","","","","","",""
"html-keyboard-response","276","278001","0.0-7.0-2.9","LF","4euvjgbfcc","1680","1050","0","1","0","600355394a113e408f54cce5","","null","","","learningBlock2","","","","<div style=""font-size:60px;""> </div>","null","LF","learning/Slide90.JPG","This is a dep:","","",""
"html-keyboard-response","277","279002","0.0-7.0-0.10","LF","4euvjgbfcc","1680","1050","0","1","0","600355394a113e408f54cce5","","null","","","learningBlock2","","","","This is a wug:","null","","","","","",""
"image-keyboard-response","278","279326","0.0-7.0-1.10","LF","4euvjgbfcc","1680","1050","0","1","0","600355394a113e408f54cce5","","null","","","","","","","learning/Slide91.JPG","null","","","","","",""
"html-keyboard-response","279","280327","0.0-7.0-2.10","LF","4euvjgbfcc","1680","1050","0","1","0","600355394a113e408f54cce5","","null","","","learningBlock2","","","","<div style=""font-size:60px;""> </div>","null","LF","learning/Slide91.JPG","This is a wug:","","",""
"html-keyboard-response","280","281328","0.0-7.0-0.11","LF","4euvjgbfcc","1680","1050","0","1","0","600355394a113e408f54cce5","","null","","","learningBlock2","","","","This is a tob:","null","","","","","",""
"image-keyboard-response","281","281656","0.0-7.0-1.11","LF","4euvjgbfcc","1680","1050","0","1","0","600355394a113e408f54cce5","","null","","","","","","","learning/Slide92.JPG","null","","","","","",""
"html-keyboard-response","282","282656","0.0-7.0-2.11","LF","4euvjgbfcc","1680","1050","0","1","0","600355394a113e408f54cce5","","null","","","learningBlock2","","","","<div style=""font-size:60px;""> </div>","null","LF","learning/Slide92.JPG","This is a tob:","","",""
"html-keyboard-response","283","283657","0.0-7.0-0.12","LF","4euvjgbfcc","1680","1050","0","1","0","600355394a113e408f54cce5","","null","","","learningBlock2","","","","This is a bim:","null","","","","","",""
"image-keyboard-response","284","283984","0.0-7.0-1.12","LF","4euvjgbfcc","1680","1050","0","1","0","600355394a113e408f54cce5","","null","","","","","","","learning/Slide93.JPG","null","","","","","",""
"html-keyboard-response","285","284984","0.0-7.0-2.12","LF","4euvjgbfcc","1680","1050","0","1","0","600355394a113e408f54cce5","","null","","","learningBlock2","","","","<div style=""font-size:60px;""> </div>","null","LF","learning/Slide93.JPG","This is a bim:","","",""
"html-keyboard-response","286","285985","0.0-7.0-0.13","LF","4euvjgbfcc","1680","1050","0","1","0","600355394a113e408f54cce5","","null","","","learningBlock2","","","","This is a tob:","null","","","","","",""
"image-keyboard-response","287","286312","0.0-7.0-1.13","LF","4euvjgbfcc","1680","1050","0","1","0","600355394a113e408f54cce5","","null","","","","","","","learning/Slide94.JPG","null","","","","","",""
"html-keyboard-response","288","287313","0.0-7.0-2.13","LF","4euvjgbfcc","1680","1050","0","1","0","600355394a113e408f54cce5","","null","","","learningBlock2","","","","<div style=""font-size:60px;""> </div>","null","LF","learning/Slide94.JPG","This is a tob:","","",""
"html-keyboard-response","289","288314","0.0-7.0-0.14","LF","4euvjgbfcc","1680","1050","0","1","0","600355394a113e408f54cce5","","null","","","learningBlock2","","","","This is a wug:","null","","","","","",""
"image-keyboard-response","290","288639","0.0-7.0-1.14","LF","4euvjgbfcc","1680","1050","0","1","0","600355394a113e408f54cce5","","null","","","","","","","learning/Slide95.JPG","null","","","","","",""
"html-keyboard-response","291","289640","0.0-7.0-2.14","LF","4euvjgbfcc","1680","1050","0","1","0","600355394a113e408f54cce5","","null","","","learningBlock2","","","","<div style=""font-size:60px;""> </div>","null","LF","learning/Slide95.JPG","This is a wug:","","",""
"html-keyboard-response","292","290642","0.0-7.0-0.15","LF","4euvjgbfcc","1680","1050","0","1","0","600355394a113e408f54cce5","","null","","","learningBlock2","","","","This is a tob:","null","","","","","",""
"image-keyboard-response","293","290969","0.0-7.0-1.15","LF","4euvjgbfcc","1680","1050","0","1","0","600355394a113e408f54cce5","","null","","","","","","","learning/Slide96.JPG","null","","","","","",""
"html-keyboard-response","294","291969","0.0-7.0-2.15","LF","4euvjgbfcc","1680","1050","0","1","0","600355394a113e408f54cce5","","null","","","learningBlock2","","","","<div style=""font-size:60px;""> </div>","null","LF","learning/Slide96.JPG","This is a tob:","","",""
"html-keyboard-response","295","292970","0.0-7.0-0.16","LF","4euvjgbfcc","1680","1050","0","1","0","600355394a113e408f54cce5","","null","","","learningBlock2","","","","This is a dep:","null","","","","","",""
"image-keyboard-response","296","293296","0.0-7.0-1.16","LF","4euvjgbfcc","1680","1050","0","1","0","600355394a113e408f54cce5","","null","","","","","","","learning/Slide97.JPG","null","","","","","",""
"html-keyboard-response","297","294296","0.0-7.0-2.16","LF","4euvjgbfcc","1680","1050","0","1","0","600355394a113e408f54cce5","","null","","","learningBlock2","","","","<div style=""font-size:60px;""> </div>","null","LF","learning/Slide97.JPG","This is a dep:","","",""
"html-keyboard-response","298","295297","0.0-7.0-0.17","LF","4euvjgbfcc","1680","1050","0","1","0","600355394a113e408f54cce5","","null","","","learningBlock2","","","","This is a bim:","null","","","","","",""
"image-keyboard-response","299","295625","0.0-7.0-1.17","LF","4euvjgbfcc","1680","1050","0","1","0","600355394a113e408f54cce5","","null","","","","","","","learning/Slide98.JPG","null","","","","","",""
"html-keyboard-response","300","296627","0.0-7.0-2.17","LF","4euvjgbfcc","1680","1050","0","1","0","600355394a113e408f54cce5","","null","","","learningBlock2","","","","<div style=""font-size:60px;""> </div>","null","LF","learning/Slide98.JPG","This is a bim:","","",""
"html-keyboard-response","301","297628","0.0-7.0-0.18","LF","4euvjgbfcc","1680","1050","0","1","0","600355394a113e408f54cce5","","null","","","learningBlock2","","","","This is a dep:","null","","","","","",""
"image-keyboard-response","302","297954","0.0-7.0-1.18","LF","4euvjgbfcc","1680","1050","0","1","0","600355394a113e408f54cce5","","null","","","","","","","learning/Slide99.JPG","null","","","","","",""
"html-keyboard-response","303","298956","0.0-7.0-2.18","LF","4euvjgbfcc","1680","1050","0","1","0","600355394a113e408f54cce5","","null","","","learningBlock2","","","","<div style=""font-size:60px;""> </div>","null","LF","learning/Slide99.JPG","This is a dep:","","",""
"html-keyboard-response","304","299956","0.0-7.0-0.19","LF","4euvjgbfcc","1680","1050","0","1","0","600355394a113e408f54cce5","","null","","","learningBlock2","","","","This is a bim:","null","","","","","",""
"image-keyboard-response","305","300284","0.0-7.0-1.19","LF","4euvjgbfcc","1680","1050","0","1","0","600355394a113e408f54cce5","","null","","","","","","","learning/Slide100.JPG","null","","","","","",""
"html-keyboard-response","306","301284","0.0-7.0-2.19","LF","4euvjgbfcc","1680","1050","0","1","0","600355394a113e408f54cce5","","null","","","learningBlock2","","","","<div style=""font-size:60px;""> </div>","null","LF","learning/Slide100.JPG","This is a bim:","","",""
"html-keyboard-response","307","302284","0.0-7.0-0.20","LF","4euvjgbfcc","1680","1050","0","1","0","600355394a113e408f54cce5","","null","","","learningBlock2","","","","This is a tob:","null","","","","","",""
"image-keyboard-response","308","302610","0.0-7.0-1.20","LF","4euvjgbfcc","1680","1050","0","1","0","600355394a113e408f54cce5","","null","","","","","","","learning/Slide101.JPG","null","","","","","",""
"html-keyboard-response","309","303611","0.0-7.0-2.20","LF","4euvjgbfcc","1680","1050","0","1","0","600355394a113e408f54cce5","","null","","","learningBlock2","","","","<div style=""font-size:60px;""> </div>","null","LF","learning/Slide101.JPG","This is a tob:","","",""
"html-keyboard-response","310","304611","0.0-7.0-0.21","LF","4euvjgbfcc","1680","1050","0","1","0","600355394a113e408f54cce5","","null","","","learningBlock2","","","","This is a bim:","null","","","","","",""
"image-keyboard-response","311","304938","0.0-7.0-1.21","LF","4euvjgbfcc","1680","1050","0","1","0","600355394a113e408f54cce5","","null","","","","","","","learning/Slide102.JPG","null","","","","","",""
"html-keyboard-response","312","305938","0.0-7.0-2.21","LF","4euvjgbfcc","1680","1050","0","1","0","600355394a113e408f54cce5","","null","","","learningBlock2","","","","<div style=""font-size:60px;""> </div>","null","LF","learning/Slide102.JPG","This is a bim:","","",""
"html-keyboard-response","313","306939","0.0-7.0-0.22","LF","4euvjgbfcc","1680","1050","0","1","0","600355394a113e408f54cce5","","null","","","learningBlock2","","","","This is a dep:","null","","","","","",""
"image-keyboard-response","314","307267","0.0-7.0-1.22","LF","4euvjgbfcc","1680","1050","0","1","0","600355394a113e408f54cce5","","null","","","","","","","learning/Slide103.JPG","null","","","","","",""
"html-keyboard-response","315","308268","0.0-7.0-2.22","LF","4euvjgbfcc","1680","1050","0","1","0","600355394a113e408f54cce5","","null","","","learningBlock2","","","","<div style=""font-size:60px;""> </div>","null","LF","learning/Slide103.JPG","This is a dep:","","",""
"html-keyboard-response","316","309269","0.0-7.0-0.23","LF","4euvjgbfcc","1680","1050","0","1","0","600355394a113e408f54cce5","","null","","","learningBlock2","","","","This is a tob:","null","","","","","",""
"image-keyboard-response","317","309595","0.0-7.0-1.23","LF","4euvjgbfcc","1680","1050","0","1","0","600355394a113e408f54cce5","","null","","","","","","","learning/Slide104.JPG","null","","","","","",""
"html-keyboard-response","318","310597","0.0-7.0-2.23","LF","4euvjgbfcc","1680","1050","0","1","0","600355394a113e408f54cce5","","null","","","learningBlock2","","","","<div style=""font-size:60px;""> </div>","null","LF","learning/Slide104.JPG","This is a tob:","","",""
"html-keyboard-response","319","311598","0.0-7.0-0.24","LF","4euvjgbfcc","1680","1050","0","1","0","600355394a113e408f54cce5","","null","","","learningBlock2","","","","This is a dep:","null","","","","","",""
"image-keyboard-response","320","311925","0.0-7.0-1.24","LF","4euvjgbfcc","1680","1050","0","1","0","600355394a113e408f54cce5","","null","","","","","","","learning/Slide105.JPG","null","","","","","",""
"html-keyboard-response","321","312925","0.0-7.0-2.24","LF","4euvjgbfcc","1680","1050","0","1","0","600355394a113e408f54cce5","","null","","","learningBlock2","","","","<div style=""font-size:60px;""> </div>","null","LF","learning/Slide105.JPG","This is a dep:","","",""
"html-keyboard-response","322","313927","0.0-7.0-0.25","LF","4euvjgbfcc","1680","1050","0","1","0","600355394a113e408f54cce5","","null","","","learningBlock2","","","","This is a wug:","null","","","","","",""
"image-keyboard-response","323","314253","0.0-7.0-1.25","LF","4euvjgbfcc","1680","1050","0","1","0","600355394a113e408f54cce5","","null","","","","","","","learning/Slide106.JPG","null","","","","","",""
"html-keyboard-response","324","315253","0.0-7.0-2.25","LF","4euvjgbfcc","1680","1050","0","1","0","600355394a113e408f54cce5","","null","","","learningBlock2","","","","<div style=""font-size:60px;""> </div>","null","LF","learning/Slide106.JPG","This is a wug:","","",""
"html-keyboard-response","325","316255","0.0-7.0-0.26","LF","4euvjgbfcc","1680","1050","0","1","0","600355394a113e408f54cce5","","null","","","learningBlock2","","","","This is a bim:","null","","","","","",""
"image-keyboard-response","326","316583","0.0-7.0-1.26","LF","4euvjgbfcc","1680","1050","0","1","0","600355394a113e408f54cce5","","null","","","","","","","learning/Slide107.JPG","null","","","","","",""
"html-keyboard-response","327","317584","0.0-7.0-2.26","LF","4euvjgbfcc","1680","1050","0","1","0","600355394a113e408f54cce5","","null","","","learningBlock2","","","","<div style=""font-size:60px;""> </div>","null","LF","learning/Slide107.JPG","This is a bim:","","",""
"html-keyboard-response","328","318585","0.0-7.0-0.27","LF","4euvjgbfcc","1680","1050","0","1","0","600355394a113e408f54cce5","","null","","","learningBlock2","","","","This is a dep:","null","","","","","",""
"image-keyboard-response","329","318913","0.0-7.0-1.27","LF","4euvjgbfcc","1680","1050","0","1","0","600355394a113e408f54cce5","","null","","","","","","","learning/Slide108.JPG","null","","","","","",""
"html-keyboard-response","330","319913","0.0-7.0-2.27","LF","4euvjgbfcc","1680","1050","0","1","0","600355394a113e408f54cce5","","null","","","learningBlock2","","","","<div style=""font-size:60px;""> </div>","null","LF","learning/Slide108.JPG","This is a dep:","","",""
"html-keyboard-response","331","320914","0.0-7.0-0.28","LF","4euvjgbfcc","1680","1050","0","1","0","600355394a113e408f54cce5","","null","","","learningBlock2","","","","This is a wug:","null","","","","","",""
"image-keyboard-response","332","321240","0.0-7.0-1.28","LF","4euvjgbfcc","1680","1050","0","1","0","600355394a113e408f54cce5","","null","","","","","","","learning/Slide109.JPG","null","","","","","",""
"html-keyboard-response","333","322240","0.0-7.0-2.28","LF","4euvjgbfcc","1680","1050","0","1","0","600355394a113e408f54cce5","","null","","","learningBlock2","","","","<div style=""font-size:60px;""> </div>","null","LF","learning/Slide109.JPG","This is a wug:","","",""
"html-keyboard-response","334","323242","0.0-7.0-0.29","LF","4euvjgbfcc","1680","1050","0","1","0","600355394a113e408f54cce5","","null","","","learningBlock2","","","","This is a bim:","null","","","","","",""
"image-keyboard-response","335","323568","0.0-7.0-1.29","LF","4euvjgbfcc","1680","1050","0","1","0","600355394a113e408f54cce5","","null","","","","","","","learning/Slide110.JPG","null","","","","","",""
"html-keyboard-response","336","324568","0.0-7.0-2.29","LF","4euvjgbfcc","1680","1050","0","1","0","600355394a113e408f54cce5","","null","","","learningBlock2","","","","<div style=""font-size:60px;""> </div>","null","LF","learning/Slide110.JPG","This is a bim:","","",""
"html-keyboard-response","337","325568","0.0-7.0-0.30","LF","4euvjgbfcc","1680","1050","0","1","0","600355394a113e408f54cce5","","null","","","learningBlock2","","","","This is a tob:","null","","","","","",""
"image-keyboard-response","338","325896","0.0-7.0-1.30","LF","4euvjgbfcc","1680","1050","0","1","0","600355394a113e408f54cce5","","null","","","","","","","learning/Slide111.JPG","null","","","","","",""
"html-keyboard-response","339","326897","0.0-7.0-2.30","LF","4euvjgbfcc","1680","1050","0","1","0","600355394a113e408f54cce5","","null","","","learningBlock2","","","","<div style=""font-size:60px;""> </div>","null","LF","learning/Slide111.JPG","This is a tob:","","",""
"html-keyboard-response","340","327897","0.0-7.0-0.31","LF","4euvjgbfcc","1680","1050","0","1","0","600355394a113e408f54cce5","","null","","","learningBlock2","","","","This is a wug:","null","","","","","",""
"image-keyboard-response","341","328225","0.0-7.0-1.31","LF","4euvjgbfcc","1680","1050","0","1","0","600355394a113e408f54cce5","","null","","","","","","","learning/Slide112.JPG","null","","","","","",""
"html-keyboard-response","342","329226","0.0-7.0-2.31","LF","4euvjgbfcc","1680","1050","0","1","0","600355394a113e408f54cce5","","null","","","learningBlock2","","","","<div style=""font-size:60px;""> </div>","null","LF","learning/Slide112.JPG","This is a wug:","","",""
"html-keyboard-response","343","330228","0.0-7.0-0.32","LF","4euvjgbfcc","1680","1050","0","1","0","600355394a113e408f54cce5","","null","","","learningBlock2","","","","This is a tob:","null","","","","","",""
"image-keyboard-response","344","330555","0.0-7.0-1.32","LF","4euvjgbfcc","1680","1050","0","1","0","600355394a113e408f54cce5","","null","","","","","","","learning/Slide113.JPG","null","","","","","",""
"html-keyboard-response","345","331555","0.0-7.0-2.32","LF","4euvjgbfcc","1680","1050","0","1","0","600355394a113e408f54cce5","","null","","","learningBlock2","","","","<div style=""font-size:60px;""> </div>","null","LF","learning/Slide113.JPG","This is a tob:","","",""
"html-keyboard-response","346","332557","0.0-7.0-0.33","LF","4euvjgbfcc","1680","1050","0","1","0","600355394a113e408f54cce5","","null","","","learningBlock2","","","","This is a wug:","null","","","","","",""
"image-keyboard-response","347","332884","0.0-7.0-1.33","LF","4euvjgbfcc","1680","1050","0","1","0","600355394a113e408f54cce5","","null","","","","","","","learning/Slide114.JPG","null","","","","","",""
"html-keyboard-response","348","333885","0.0-7.0-2.33","LF","4euvjgbfcc","1680","1050","0","1","0","600355394a113e408f54cce5","","null","","","learningBlock2","","","","<div style=""font-size:60px;""> </div>","null","LF","learning/Slide114.JPG","This is a wug:","","",""
"html-keyboard-response","349","334885","0.0-7.0-0.34","LF","4euvjgbfcc","1680","1050","0","1","0","600355394a113e408f54cce5","","null","","","learningBlock2","","","","This is a bim:","null","","","","","",""
"image-keyboard-response","350","335211","0.0-7.0-1.34","LF","4euvjgbfcc","1680","1050","0","1","0","600355394a113e408f54cce5","","null","","","","","","","learning/Slide115.JPG","null","","","","","",""
"html-keyboard-response","351","336212","0.0-7.0-2.34","LF","4euvjgbfcc","1680","1050","0","1","0","600355394a113e408f54cce5","","null","","","learningBlock2","","","","<div style=""font-size:60px;""> </div>","null","LF","learning/Slide115.JPG","This is a bim:","","",""
"html-keyboard-response","352","337214","0.0-7.0-0.35","LF","4euvjgbfcc","1680","1050","0","1","0","600355394a113e408f54cce5","","null","","","learningBlock2","","","","This is a dep:","null","","","","","",""
"image-keyboard-response","353","337541","0.0-7.0-1.35","LF","4euvjgbfcc","1680","1050","0","1","0","600355394a113e408f54cce5","","null","","","","","","","learning/Slide116.JPG","null","","","","","",""
"html-keyboard-response","354","338542","0.0-7.0-2.35","LF","4euvjgbfcc","1680","1050","0","1","0","600355394a113e408f54cce5","","null","","","learningBlock2","","","","<div style=""font-size:60px;""> </div>","null","LF","learning/Slide116.JPG","This is a dep:","","",""
"html-keyboard-response","355","339543","0.0-7.0-0.36","LF","4euvjgbfcc","1680","1050","0","1","0","600355394a113e408f54cce5","","null","","","learningBlock2","","","","This is a tob:","null","","","","","",""
"image-keyboard-response","356","339869","0.0-7.0-1.36","LF","4euvjgbfcc","1680","1050","0","1","0","600355394a113e408f54cce5","","null","","","","","","","learning/Slide117.JPG","null","","","","","",""
"html-keyboard-response","357","340870","0.0-7.0-2.36","LF","4euvjgbfcc","1680","1050","0","1","0","600355394a113e408f54cce5","","null","","","learningBlock2","","","","<div style=""font-size:60px;""> </div>","null","LF","learning/Slide117.JPG","This is a tob:","","",""
"html-keyboard-response","358","341872","0.0-7.0-0.37","LF","4euvjgbfcc","1680","1050","0","1","0","600355394a113e408f54cce5","","null","","","learningBlock2","","","","This is a dep:","null","","","","","",""
"image-keyboard-response","359","342198","0.0-7.0-1.37","LF","4euvjgbfcc","1680","1050","0","1","0","600355394a113e408f54cce5","","null","","","","","","","learning/Slide118.JPG","null","","","","","",""
"html-keyboard-response","360","343199","0.0-7.0-2.37","LF","4euvjgbfcc","1680","1050","0","1","0","600355394a113e408f54cce5","","null","","","learningBlock2","","","","<div style=""font-size:60px;""> </div>","null","LF","learning/Slide118.JPG","This is a dep:","","",""
"html-keyboard-response","361","344201","0.0-7.0-0.38","LF","4euvjgbfcc","1680","1050","0","1","0","600355394a113e408f54cce5","","null","","","learningBlock2","","","","This is a wug:","null","","","","","",""
"image-keyboard-response","362","344528","0.0-7.0-1.38","LF","4euvjgbfcc","1680","1050","0","1","0","600355394a113e408f54cce5","","null","","","","","","","learning/Slide119.JPG","null","","","","","",""
"html-keyboard-response","363","345529","0.0-7.0-2.38","LF","4euvjgbfcc","1680","1050","0","1","0","600355394a113e408f54cce5","","null","","","learningBlock2","","","","<div style=""font-size:60px;""> </div>","null","LF","learning/Slide119.JPG","This is a wug:","","",""
"html-keyboard-response","364","346530","0.0-7.0-0.39","LF","4euvjgbfcc","1680","1050","0","1","0","600355394a113e408f54cce5","","null","","","learningBlock2","","","","This is a dep:","null","","","","","",""
"image-keyboard-response","365","346857","0.0-7.0-1.39","LF","4euvjgbfcc","1680","1050","0","1","0","600355394a113e408f54cce5","","null","","","","","","","learning/Slide120.JPG","null","","","","","",""
"html-keyboard-response","366","347858","0.0-7.0-2.39","LF","4euvjgbfcc","1680","1050","0","1","0","600355394a113e408f54cce5","","null","","","learningBlock2","","","","<div style=""font-size:60px;""> </div>","null","LF","learning/Slide120.JPG","This is a dep:","","",""
"html-keyboard-response","367","348859","0.0-7.0-0.40","LF","4euvjgbfcc","1680","1050","0","1","0","600355394a113e408f54cce5","","null","","","learningBlock2","","","","This is a bim:","null","","","","","",""
"image-keyboard-response","368","349188","0.0-7.0-1.40","LF","4euvjgbfcc","1680","1050","0","1","0","600355394a113e408f54cce5","","null","","","","","","","learning/Slide121.JPG","null","","","","","",""
"html-keyboard-response","369","350188","0.0-7.0-2.40","LF","4euvjgbfcc","1680","1050","0","1","0","600355394a113e408f54cce5","","null","","","learningBlock2","","","","<div style=""font-size:60px;""> </div>","null","LF","learning/Slide121.JPG","This is a bim:","","",""
"html-keyboard-response","370","351188","0.0-7.0-0.41","LF","4euvjgbfcc","1680","1050","0","1","0","600355394a113e408f54cce5","","null","","","learningBlock2","","","","This is a wug:","null","","","","","",""
"image-keyboard-response","371","351515","0.0-7.0-1.41","LF","4euvjgbfcc","1680","1050","0","1","0","600355394a113e408f54cce5","","null","","","","","","","learning/Slide122.JPG","null","","","","","",""
"html-keyboard-response","372","352516","0.0-7.0-2.41","LF","4euvjgbfcc","1680","1050","0","1","0","600355394a113e408f54cce5","","null","","","learningBlock2","","","","<div style=""font-size:60px;""> </div>","null","LF","learning/Slide122.JPG","This is a wug:","","",""
"html-keyboard-response","373","353517","0.0-7.0-0.42","LF","4euvjgbfcc","1680","1050","0","1","0","600355394a113e408f54cce5","","null","","","learningBlock2","","","","This is a bim:","null","","","","","",""
"image-keyboard-response","374","353844","0.0-7.0-1.42","LF","4euvjgbfcc","1680","1050","0","1","0","600355394a113e408f54cce5","","null","","","","","","","learning/Slide123.JPG","null","","","","","",""
"html-keyboard-response","375","354845","0.0-7.0-2.42","LF","4euvjgbfcc","1680","1050","0","1","0","600355394a113e408f54cce5","","null","","","learningBlock2","","","","<div style=""font-size:60px;""> </div>","null","LF","learning/Slide123.JPG","This is a bim:","","",""
"html-keyboard-response","376","355846","0.0-7.0-0.43","LF","4euvjgbfcc","1680","1050","0","1","0","600355394a113e408f54cce5","","null","","","learningBlock2","","","","This is a tob:","null","","","","","",""
"image-keyboard-response","377","356174","0.0-7.0-1.43","LF","4euvjgbfcc","1680","1050","0","1","0","600355394a113e408f54cce5","","null","","","","","","","learning/Slide124.JPG","null","","","","","",""
"html-keyboard-response","378","357175","0.0-7.0-2.43","LF","4euvjgbfcc","1680","1050","0","1","0","600355394a113e408f54cce5","","null","","","learningBlock2","","","","<div style=""font-size:60px;""> </div>","null","LF","learning/Slide124.JPG","This is a tob:","","",""
"html-keyboard-response","379","358176","0.0-7.0-0.44","LF","4euvjgbfcc","1680","1050","0","1","0","600355394a113e408f54cce5","","null","","","learningBlock2","","","","This is a bim:","null","","","","","",""
"image-keyboard-response","380","358502","0.0-7.0-1.44","LF","4euvjgbfcc","1680","1050","0","1","0","600355394a113e408f54cce5","","null","","","","","","","learning/Slide125.JPG","null","","","","","",""
"html-keyboard-response","381","359502","0.0-7.0-2.44","LF","4euvjgbfcc","1680","1050","0","1","0","600355394a113e408f54cce5","","null","","","learningBlock2","","","","<div style=""font-size:60px;""> </div>","null","LF","learning/Slide125.JPG","This is a bim:","","",""
"html-keyboard-response","382","360502","0.0-7.0-0.45","LF","4euvjgbfcc","1680","1050","0","1","0","600355394a113e408f54cce5","","null","","","learningBlock2","","","","This is a tob:","null","","","","","",""
"image-keyboard-response","383","360830","0.0-7.0-1.45","LF","4euvjgbfcc","1680","1050","0","1","0","600355394a113e408f54cce5","","null","","","","","","","learning/Slide126.JPG","null","","","","","",""
"html-keyboard-response","384","361830","0.0-7.0-2.45","LF","4euvjgbfcc","1680","1050","0","1","0","600355394a113e408f54cce5","","null","","","learningBlock2","","","","<div style=""font-size:60px;""> </div>","null","LF","learning/Slide126.JPG","This is a tob:","","",""
"html-keyboard-response","385","362831","0.0-7.0-0.46","LF","4euvjgbfcc","1680","1050","0","1","0","600355394a113e408f54cce5","","null","","","learningBlock2","","","","This is a dep:","null","","","","","",""
"image-keyboard-response","386","363157","0.0-7.0-1.46","LF","4euvjgbfcc","1680","1050","0","1","0","600355394a113e408f54cce5","","null","","","","","","","learning/Slide127.JPG","null","","","","","",""
"html-keyboard-response","387","364157","0.0-7.0-2.46","LF","4euvjgbfcc","1680","1050","0","1","0","600355394a113e408f54cce5","","null","","","learningBlock2","","","","<div style=""font-size:60px;""> </div>","null","LF","learning/Slide127.JPG","This is a dep:","","",""
"html-keyboard-response","388","365158","0.0-7.0-0.47","LF","4euvjgbfcc","1680","1050","0","1","0","600355394a113e408f54cce5","","null","","","learningBlock2","","","","This is a wug:","null","","","","","",""
"image-keyboard-response","389","365485","0.0-7.0-1.47","LF","4euvjgbfcc","1680","1050","0","1","0","600355394a113e408f54cce5","","null","","","","","","","learning/Slide128.JPG","null","","","","","",""
"html-keyboard-response","390","366487","0.0-7.0-2.47","LF","4euvjgbfcc","1680","1050","0","1","0","600355394a113e408f54cce5","","null","","","learningBlock2","","","","<div style=""font-size:60px;""> </div>","null","LF","learning/Slide128.JPG","This is a wug:","","",""
"html-keyboard-response","391","367488","0.0-7.0-0.48","LF","4euvjgbfcc","1680","1050","0","1","0","600355394a113e408f54cce5","","null","","","learningBlock2","","","","This is a tob:","null","","","","","",""
"image-keyboard-response","392","367814","0.0-7.0-1.48","LF","4euvjgbfcc","1680","1050","0","1","0","600355394a113e408f54cce5","","null","","","","","","","learning/Slide129.JPG","null","","","","","",""
"html-keyboard-response","393","368815","0.0-7.0-2.48","LF","4euvjgbfcc","1680","1050","0","1","0","600355394a113e408f54cce5","","null","","","learningBlock2","","","","<div style=""font-size:60px;""> </div>","null","LF","learning/Slide129.JPG","This is a tob:","","",""
"html-keyboard-response","394","369816","0.0-7.0-0.49","LF","4euvjgbfcc","1680","1050","0","1","0","600355394a113e408f54cce5","","null","","","learningBlock2","","","","This is a wug:","null","","","","","",""
"image-keyboard-response","395","370143","0.0-7.0-1.49","LF","4euvjgbfcc","1680","1050","0","1","0","600355394a113e408f54cce5","","null","","","","","","","learning/Slide130.JPG","null","","","","","",""
"html-keyboard-response","396","371143","0.0-7.0-2.49","LF","4euvjgbfcc","1680","1050","0","1","0","600355394a113e408f54cce5","","null","","","learningBlock2","","","","<div style=""font-size:60px;""> </div>","null","LF","learning/Slide130.JPG","This is a wug:","","",""
"html-keyboard-response","397","372144","0.0-7.0-0.50","LF","4euvjgbfcc","1680","1050","0","1","0","600355394a113e408f54cce5","","null","","","learningBlock2","","","","This is a bim:","null","","","","","",""
"image-keyboard-response","398","372470","0.0-7.0-1.50","LF","4euvjgbfcc","1680","1050","0","1","0","600355394a113e408f54cce5","","null","","","","","","","learning/Slide131.JPG","null","","","","","",""
"html-keyboard-response","399","373471","0.0-7.0-2.50","LF","4euvjgbfcc","1680","1050","0","1","0","600355394a113e408f54cce5","","null","","","learningBlock2","","","","<div style=""font-size:60px;""> </div>","null","LF","learning/Slide131.JPG","This is a bim:","","",""
"html-keyboard-response","400","374472","0.0-7.0-0.51","LF","4euvjgbfcc","1680","1050","0","1","0","600355394a113e408f54cce5","","null","","","learningBlock2","","","","This is a dep:","null","","","","","",""
"image-keyboard-response","401","374797","0.0-7.0-1.51","LF","4euvjgbfcc","1680","1050","0","1","0","600355394a113e408f54cce5","","null","","","","","","","learning/Slide132.JPG","null","","","","","",""
"html-keyboard-response","402","375799","0.0-7.0-2.51","LF","4euvjgbfcc","1680","1050","0","1","0","600355394a113e408f54cce5","","null","","","learningBlock2","","","","<div style=""font-size:60px;""> </div>","null","LF","learning/Slide132.JPG","This is a dep:","","",""
"html-keyboard-response","403","376800","0.0-7.0-0.52","LF","4euvjgbfcc","1680","1050","0","1","0","600355394a113e408f54cce5","","null","","","learningBlock2","","","","This is a tob:","null","","","","","",""
"image-keyboard-response","404","377126","0.0-7.0-1.52","LF","4euvjgbfcc","1680","1050","0","1","0","600355394a113e408f54cce5","","null","","","","","","","learning/Slide133.JPG","null","","","","","",""
"html-keyboard-response","405","378126","0.0-7.0-2.52","LF","4euvjgbfcc","1680","1050","0","1","0","600355394a113e408f54cce5","","null","","","learningBlock2","","","","<div style=""font-size:60px;""> </div>","null","LF","learning/Slide133.JPG","This is a tob:","","",""
"html-keyboard-response","406","379127","0.0-7.0-0.53","LF","4euvjgbfcc","1680","1050","0","1","0","600355394a113e408f54cce5","","null","","","learningBlock2","","","","This is a dep:","null","","","","","",""
"image-keyboard-response","407","379456","0.0-7.0-1.53","LF","4euvjgbfcc","1680","1050","0","1","0","600355394a113e408f54cce5","","null","","","","","","","learning/Slide134.JPG","null","","","","","",""
"html-keyboard-response","408","380457","0.0-7.0-2.53","LF","4euvjgbfcc","1680","1050","0","1","0","600355394a113e408f54cce5","","null","","","learningBlock2","","","","<div style=""font-size:60px;""> </div>","null","LF","learning/Slide134.JPG","This is a dep:","","",""
"html-keyboard-response","409","381458","0.0-7.0-0.54","LF","4euvjgbfcc","1680","1050","0","1","0","600355394a113e408f54cce5","","null","","","learningBlock2","","","","This is a tob:","null","","","","","",""
"image-keyboard-response","410","381786","0.0-7.0-1.54","LF","4euvjgbfcc","1680","1050","0","1","0","600355394a113e408f54cce5","","null","","","","","","","learning/Slide135.JPG","null","","","","","",""
"html-keyboard-response","411","382788","0.0-7.0-2.54","LF","4euvjgbfcc","1680","1050","0","1","0","600355394a113e408f54cce5","","null","","","learningBlock2","","","","<div style=""font-size:60px;""> </div>","null","LF","learning/Slide135.JPG","This is a tob:","","",""
"html-keyboard-response","412","383789","0.0-7.0-0.55","LF","4euvjgbfcc","1680","1050","0","1","0","600355394a113e408f54cce5","","null","","","learningBlock2","","","","This is a wug:","null","","","","","",""
"image-keyboard-response","413","384114","0.0-7.0-1.55","LF","4euvjgbfcc","1680","1050","0","1","0","600355394a113e408f54cce5","","null","","","","","","","learning/Slide136.JPG","null","","","","","",""
"html-keyboard-response","414","385116","0.0-7.0-2.55","LF","4euvjgbfcc","1680","1050","0","1","0","600355394a113e408f54cce5","","null","","","learningBlock2","","","","<div style=""font-size:60px;""> </div>","null","LF","learning/Slide136.JPG","This is a wug:","","",""
"html-keyboard-response","415","386116","0.0-7.0-0.56","LF","4euvjgbfcc","1680","1050","0","1","0","600355394a113e408f54cce5","","null","","","learningBlock2","","","","This is a tob:","null","","","","","",""
"image-keyboard-response","416","386441","0.0-7.0-1.56","LF","4euvjgbfcc","1680","1050","0","1","0","600355394a113e408f54cce5","","null","","","","","","","learning/Slide137.JPG","null","","","","","",""
"html-keyboard-response","417","387442","0.0-7.0-2.56","LF","4euvjgbfcc","1680","1050","0","1","0","600355394a113e408f54cce5","","null","","","learningBlock2","","","","<div style=""font-size:60px;""> </div>","null","LF","learning/Slide137.JPG","This is a tob:","","",""
"html-keyboard-response","418","388442","0.0-7.0-0.57","LF","4euvjgbfcc","1680","1050","0","1","0","600355394a113e408f54cce5","","null","","","learningBlock2","","","","This is a bim:","null","","","","","",""
"image-keyboard-response","419","388768","0.0-7.0-1.57","LF","4euvjgbfcc","1680","1050","0","1","0","600355394a113e408f54cce5","","null","","","","","","","learning/Slide138.JPG","null","","","","","",""
"html-keyboard-response","420","389768","0.0-7.0-2.57","LF","4euvjgbfcc","1680","1050","0","1","0","600355394a113e408f54cce5","","null","","","learningBlock2","","","","<div style=""font-size:60px;""> </div>","null","LF","learning/Slide138.JPG","This is a bim:","","",""
"html-keyboard-response","421","390769","0.0-7.0-0.58","LF","4euvjgbfcc","1680","1050","0","1","0","600355394a113e408f54cce5","","null","","","learningBlock2","","","","This is a wug:","null","","","","","",""
"image-keyboard-response","422","391096","0.0-7.0-1.58","LF","4euvjgbfcc","1680","1050","0","1","0","600355394a113e408f54cce5","","null","","","","","","","learning/Slide139.JPG","null","","","","","",""
"html-keyboard-response","423","392097","0.0-7.0-2.58","LF","4euvjgbfcc","1680","1050","0","1","0","600355394a113e408f54cce5","","null","","","learningBlock2","","","","<div style=""font-size:60px;""> </div>","null","LF","learning/Slide139.JPG","This is a wug:","","",""
"html-keyboard-response","424","393097","0.0-7.0-0.59","LF","4euvjgbfcc","1680","1050","0","1","0","600355394a113e408f54cce5","","null","","","learningBlock2","","","","This is a dep:","null","","","","","",""
"image-keyboard-response","425","393425","0.0-7.0-1.59","LF","4euvjgbfcc","1680","1050","0","1","0","600355394a113e408f54cce5","","null","","","","","","","learning/Slide140.JPG","null","","","","","",""
"html-keyboard-response","426","394425","0.0-7.0-2.59","LF","4euvjgbfcc","1680","1050","0","1","0","600355394a113e408f54cce5","","null","","","learningBlock2","","","","<div style=""font-size:60px;""> </div>","null","LF","learning/Slide140.JPG","This is a dep:","","",""
"html-keyboard-response","427","395426","0.0-7.0-0.60","LF","4euvjgbfcc","1680","1050","0","1","0","600355394a113e408f54cce5","","null","","","learningBlock2","","","","This is a tob:","null","","","","","",""
"image-keyboard-response","428","395754","0.0-7.0-1.60","LF","4euvjgbfcc","1680","1050","0","1","0","600355394a113e408f54cce5","","null","","","","","","","learning/Slide141.JPG","null","","","","","",""
"html-keyboard-response","429","396755","0.0-7.0-2.60","LF","4euvjgbfcc","1680","1050","0","1","0","600355394a113e408f54cce5","","null","","","learningBlock2","","","","<div style=""font-size:60px;""> </div>","null","LF","learning/Slide141.JPG","This is a tob:","","",""
"html-keyboard-response","430","397757","0.0-7.0-0.61","LF","4euvjgbfcc","1680","1050","0","1","0","600355394a113e408f54cce5","","null","","","learningBlock2","","","","This is a wug:","null","","","","","",""
"image-keyboard-response","431","398085","0.0-7.0-1.61","LF","4euvjgbfcc","1680","1050","0","1","0","600355394a113e408f54cce5","","null","","","","","","","learning/Slide142.JPG","null","","","","","",""
"html-keyboard-response","432","399087","0.0-7.0-2.61","LF","4euvjgbfcc","1680","1050","0","1","0","600355394a113e408f54cce5","","null","","","learningBlock2","","","","<div style=""font-size:60px;""> </div>","null","LF","learning/Slide142.JPG","This is a wug:","","",""
"html-keyboard-response","433","400087","0.0-7.0-0.62","LF","4euvjgbfcc","1680","1050","0","1","0","600355394a113e408f54cce5","","null","","","learningBlock2","","","","This is a bim:","null","","","","","",""
"image-keyboard-response","434","400414","0.0-7.0-1.62","LF","4euvjgbfcc","1680","1050","0","1","0","600355394a113e408f54cce5","","null","","","","","","","learning/Slide143.JPG","null","","","","","",""
"html-keyboard-response","435","401414","0.0-7.0-2.62","LF","4euvjgbfcc","1680","1050","0","1","0","600355394a113e408f54cce5","","null","","","learningBlock2","","","","<div style=""font-size:60px;""> </div>","null","LF","learning/Slide143.JPG","This is a bim:","","",""
"html-keyboard-response","436","402415","0.0-7.0-0.63","LF","4euvjgbfcc","1680","1050","0","1","0","600355394a113e408f54cce5","","null","","","learningBlock2","","","","This is a dep:","null","","","","","",""
