"trial_type","trial_index","time_elapsed","internal_node_id","condition","subject","screen_width","screen_height","attention","distraction","conscientious","prolificID","success","rt","url","view_history","test_part","final_height_px","final_width_px","scale_factor","stimulus","key_press","learningType","presentedImage","presentedLabel","button_pressed","response","responses"
"pavlovia","0","25","0.0-0.0","FL","t8qovvqyjq","1536","864","0","1","0","5f89cbc45b38f5016101011c","","","","","","","","","","","","","","","",""
"fullscreen","1","73043","0.0-1.0","FL","t8qovvqyjq","1536","864","0","1","0","5f89cbc45b38f5016101011c","true","","","","","","","","","","","","","","",""
"external-html","2","83728","0.0-2.0-0.0","FL","t8qovvqyjq","1536","864","0","1","0","5f89cbc45b38f5016101011c","","10594.344999999972","text/information_english.html","","","","","","","","","","","","",""
"external-html","3","92604","0.0-2.0-1.0","FL","t8qovvqyjq","1536","864","0","1","0","5f89cbc45b38f5016101011c","","8766.479999999763","text/consent_english.html","","","","","","","","","","","","",""
"instructions","4","101047","0.0-3.0","FL","t8qovvqyjq","1536","864","0","1","0","5f89cbc45b38f5016101011c","","NA","","[{""page_index"":0,""viewing_time"":2200.175000000396},{""page_index"":1,""viewing_time"":6228.129999999976}]","instructions","","","","","","","","","","",""
"resize","5","123752","0.0-4.0","FL","t8qovvqyjq","1536","864","0","1","0","5f89cbc45b38f5016101011c","","","","","","","344","2.1841269841269844","","","","","","","",""
"image-keyboard-response","6","123932","0.0-5.0-0.0","FL","t8qovvqyjq","1536","864","0","1","0","5f89cbc45b38f5016101011c","","null","","","","","","","learning/Slide1.JPG","null","","","","","",""
"html-keyboard-response","7","125086","0.0-5.0-1.0","FL","t8qovvqyjq","1536","864","0","1","0","5f89cbc45b38f5016101011c","","null","","","learningBlock1","","","","That was a tob.","null","","","","","",""
"html-keyboard-response","8","126087","0.0-5.0-2.0","FL","t8qovvqyjq","1536","864","0","1","0","5f89cbc45b38f5016101011c","","null","","","learningBlock1","","","","<div style=""font-size:60px;""> </div>","null","FL","learning/Slide1.JPG","That was a tob.","","",""
"image-keyboard-response","9","126265","0.0-5.0-0.1","FL","t8qovvqyjq","1536","864","0","1","0","5f89cbc45b38f5016101011c","","null","","","","","","","learning/Slide2.JPG","null","","","","","",""
"html-keyboard-response","10","127419","0.0-5.0-1.1","FL","t8qovvqyjq","1536","864","0","1","0","5f89cbc45b38f5016101011c","","null","","","learningBlock1","","","","That was a wug.","null","","","","","",""
"html-keyboard-response","11","128421","0.0-5.0-2.1","FL","t8qovvqyjq","1536","864","0","1","0","5f89cbc45b38f5016101011c","","null","","","learningBlock1","","","","<div style=""font-size:60px;""> </div>","null","FL","learning/Slide2.JPG","That was a wug.","","",""
"image-keyboard-response","12","128599","0.0-5.0-0.2","FL","t8qovvqyjq","1536","864","0","1","0","5f89cbc45b38f5016101011c","","null","","","","","","","learning/Slide3.JPG","null","","","","","",""
"html-keyboard-response","13","129751","0.0-5.0-1.2","FL","t8qovvqyjq","1536","864","0","1","0","5f89cbc45b38f5016101011c","","null","","","learningBlock1","","","","That was a bim.","null","","","","","",""
"html-keyboard-response","14","130754","0.0-5.0-2.2","FL","t8qovvqyjq","1536","864","0","1","0","5f89cbc45b38f5016101011c","","null","","","learningBlock1","","","","<div style=""font-size:60px;""> </div>","null","FL","learning/Slide3.JPG","That was a bim.","","",""
"image-keyboard-response","15","130933","0.0-5.0-0.3","FL","t8qovvqyjq","1536","864","0","1","0","5f89cbc45b38f5016101011c","","null","","","","","","","learning/Slide4.JPG","null","","","","","",""
"html-keyboard-response","16","132087","0.0-5.0-1.3","FL","t8qovvqyjq","1536","864","0","1","0","5f89cbc45b38f5016101011c","","null","","","learningBlock1","","","","That was a dep.","null","","","","","",""
"html-keyboard-response","17","133088","0.0-5.0-2.3","FL","t8qovvqyjq","1536","864","0","1","0","5f89cbc45b38f5016101011c","","null","","","learningBlock1","","","","<div style=""font-size:60px;""> </div>","null","FL","learning/Slide4.JPG","That was a dep.","","",""
"image-keyboard-response","18","133266","0.0-5.0-0.4","FL","t8qovvqyjq","1536","864","0","1","0","5f89cbc45b38f5016101011c","","null","","","","","","","learning/Slide5.JPG","null","","","","","",""
"html-keyboard-response","19","134420","0.0-5.0-1.4","FL","t8qovvqyjq","1536","864","0","1","0","5f89cbc45b38f5016101011c","","null","","","learningBlock1","","","","That was a wug.","null","","","","","",""
"html-keyboard-response","20","135423","0.0-5.0-2.4","FL","t8qovvqyjq","1536","864","0","1","0","5f89cbc45b38f5016101011c","","null","","","learningBlock1","","","","<div style=""font-size:60px;""> </div>","null","FL","learning/Slide5.JPG","That was a wug.","","",""
"image-keyboard-response","21","135600","0.0-5.0-0.5","FL","t8qovvqyjq","1536","864","0","1","0","5f89cbc45b38f5016101011c","","null","","","","","","","learning/Slide6.JPG","null","","","","","",""
"html-keyboard-response","22","136752","0.0-5.0-1.5","FL","t8qovvqyjq","1536","864","0","1","0","5f89cbc45b38f5016101011c","","null","","","learningBlock1","","","","That was a dep.","null","","","","","",""
"html-keyboard-response","23","137754","0.0-5.0-2.5","FL","t8qovvqyjq","1536","864","0","1","0","5f89cbc45b38f5016101011c","","null","","","learningBlock1","","","","<div style=""font-size:60px;""> </div>","null","FL","learning/Slide6.JPG","That was a dep.","","",""
"image-keyboard-response","24","137931","0.0-5.0-0.6","FL","t8qovvqyjq","1536","864","0","1","0","5f89cbc45b38f5016101011c","","null","","","","","","","learning/Slide7.JPG","null","","","","","",""
"html-keyboard-response","25","139082","0.0-5.0-1.6","FL","t8qovvqyjq","1536","864","0","1","0","5f89cbc45b38f5016101011c","","null","","","learningBlock1","","","","That was a wug.","null","","","","","",""
"html-keyboard-response","26","140083","0.0-5.0-2.6","FL","t8qovvqyjq","1536","864","0","1","0","5f89cbc45b38f5016101011c","","null","","","learningBlock1","","","","<div style=""font-size:60px;""> </div>","null","FL","learning/Slide7.JPG","That was a wug.","","",""
"image-keyboard-response","27","140260","0.0-5.0-0.7","FL","t8qovvqyjq","1536","864","0","1","0","5f89cbc45b38f5016101011c","","null","","","","","","","learning/Slide8.JPG","null","","","","","",""
"html-keyboard-response","28","141411","0.0-5.0-1.7","FL","t8qovvqyjq","1536","864","0","1","0","5f89cbc45b38f5016101011c","","null","","","learningBlock1","","","","That was a bim.","null","","","","","",""
"html-keyboard-response","29","142412","0.0-5.0-2.7","FL","t8qovvqyjq","1536","864","0","1","0","5f89cbc45b38f5016101011c","","null","","","learningBlock1","","","","<div style=""font-size:60px;""> </div>","null","FL","learning/Slide8.JPG","That was a bim.","","",""
"image-keyboard-response","30","142588","0.0-5.0-0.8","FL","t8qovvqyjq","1536","864","0","1","0","5f89cbc45b38f5016101011c","","null","","","","","","","learning/Slide9.JPG","null","","","","","",""
"html-keyboard-response","31","143739","0.0-5.0-1.8","FL","t8qovvqyjq","1536","864","0","1","0","5f89cbc45b38f5016101011c","","null","","","learningBlock1","","","","That was a wug.","null","","","","","",""
"html-keyboard-response","32","144741","0.0-5.0-2.8","FL","t8qovvqyjq","1536","864","0","1","0","5f89cbc45b38f5016101011c","","null","","","learningBlock1","","","","<div style=""font-size:60px;""> </div>","null","FL","learning/Slide9.JPG","That was a wug.","","",""
"image-keyboard-response","33","144918","0.0-5.0-0.9","FL","t8qovvqyjq","1536","864","0","1","0","5f89cbc45b38f5016101011c","","null","","","","","","","learning/Slide10.JPG","null","","","","","",""
"html-keyboard-response","34","146070","0.0-5.0-1.9","FL","t8qovvqyjq","1536","864","0","1","0","5f89cbc45b38f5016101011c","","null","","","learningBlock1","","","","That was a dep.","null","","","","","",""
"html-keyboard-response","35","147071","0.0-5.0-2.9","FL","t8qovvqyjq","1536","864","0","1","0","5f89cbc45b38f5016101011c","","null","","","learningBlock1","","","","<div style=""font-size:60px;""> </div>","null","FL","learning/Slide10.JPG","That was a dep.","","",""
"image-keyboard-response","36","147247","0.0-5.0-0.10","FL","t8qovvqyjq","1536","864","0","1","0","5f89cbc45b38f5016101011c","","null","","","","","","","learning/Slide11.JPG","null","","","","","",""
"html-keyboard-response","37","148398","0.0-5.0-1.10","FL","t8qovvqyjq","1536","864","0","1","0","5f89cbc45b38f5016101011c","","null","","","learningBlock1","","","","That was a tob.","null","","","","","",""
"html-keyboard-response","38","149399","0.0-5.0-2.10","FL","t8qovvqyjq","1536","864","0","1","0","5f89cbc45b38f5016101011c","","null","","","learningBlock1","","","","<div style=""font-size:60px;""> </div>","null","FL","learning/Slide11.JPG","That was a tob.","","",""
"image-keyboard-response","39","149575","0.0-5.0-0.11","FL","t8qovvqyjq","1536","864","0","1","0","5f89cbc45b38f5016101011c","","null","","","","","","","learning/Slide12.JPG","null","","","","","",""
"html-keyboard-response","40","150728","0.0-5.0-1.11","FL","t8qovvqyjq","1536","864","0","1","0","5f89cbc45b38f5016101011c","","null","","","learningBlock1","","","","That was a dep.","null","","","","","",""
"html-keyboard-response","41","151728","0.0-5.0-2.11","FL","t8qovvqyjq","1536","864","0","1","0","5f89cbc45b38f5016101011c","","null","","","learningBlock1","","","","<div style=""font-size:60px;""> </div>","null","FL","learning/Slide12.JPG","That was a dep.","","",""
"image-keyboard-response","42","151905","0.0-5.0-0.12","FL","t8qovvqyjq","1536","864","0","1","0","5f89cbc45b38f5016101011c","","null","","","","","","","learning/Slide13.JPG","null","","","","","",""
"html-keyboard-response","43","153056","0.0-5.0-1.12","FL","t8qovvqyjq","1536","864","0","1","0","5f89cbc45b38f5016101011c","","null","","","learningBlock1","","","","That was a bim.","null","","","","","",""
"html-keyboard-response","44","154058","0.0-5.0-2.12","FL","t8qovvqyjq","1536","864","0","1","0","5f89cbc45b38f5016101011c","","null","","","learningBlock1","","","","<div style=""font-size:60px;""> </div>","null","FL","learning/Slide13.JPG","That was a bim.","","",""
"image-keyboard-response","45","154233","0.0-5.0-0.13","FL","t8qovvqyjq","1536","864","0","1","0","5f89cbc45b38f5016101011c","","null","","","","","","","learning/Slide14.JPG","null","","","","","",""
"html-keyboard-response","46","155385","0.0-5.0-1.13","FL","t8qovvqyjq","1536","864","0","1","0","5f89cbc45b38f5016101011c","","null","","","learningBlock1","","","","That was a wug.","null","","","","","",""
"html-keyboard-response","47","156385","0.0-5.0-2.13","FL","t8qovvqyjq","1536","864","0","1","0","5f89cbc45b38f5016101011c","","null","","","learningBlock1","","","","<div style=""font-size:60px;""> </div>","null","FL","learning/Slide14.JPG","That was a wug.","","",""
"image-keyboard-response","48","156561","0.0-5.0-0.14","FL","t8qovvqyjq","1536","864","0","1","0","5f89cbc45b38f5016101011c","","null","","","","","","","learning/Slide15.JPG","null","","","","","",""
"html-keyboard-response","49","157714","0.0-5.0-1.14","FL","t8qovvqyjq","1536","864","0","1","0","5f89cbc45b38f5016101011c","","null","","","learningBlock1","","","","That was a tob.","null","","","","","",""
"html-keyboard-response","50","158715","0.0-5.0-2.14","FL","t8qovvqyjq","1536","864","0","1","0","5f89cbc45b38f5016101011c","","null","","","learningBlock1","","","","<div style=""font-size:60px;""> </div>","null","FL","learning/Slide15.JPG","That was a tob.","","",""
"image-keyboard-response","51","158892","0.0-5.0-0.15","FL","t8qovvqyjq","1536","864","0","1","0","5f89cbc45b38f5016101011c","","null","","","","","","","learning/Slide16.JPG","null","","","","","",""
"html-keyboard-response","52","160044","0.0-5.0-1.15","FL","t8qovvqyjq","1536","864","0","1","0","5f89cbc45b38f5016101011c","","null","","","learningBlock1","","","","That was a dep.","null","","","","","",""
"html-keyboard-response","53","161047","0.0-5.0-2.15","FL","t8qovvqyjq","1536","864","0","1","0","5f89cbc45b38f5016101011c","","null","","","learningBlock1","","","","<div style=""font-size:60px;""> </div>","null","FL","learning/Slide16.JPG","That was a dep.","","",""
"image-keyboard-response","54","161223","0.0-5.0-0.16","FL","t8qovvqyjq","1536","864","0","1","0","5f89cbc45b38f5016101011c","","null","","","","","","","learning/Slide17.JPG","null","","","","","",""
"html-keyboard-response","55","162373","0.0-5.0-1.16","FL","t8qovvqyjq","1536","864","0","1","0","5f89cbc45b38f5016101011c","","null","","","learningBlock1","","","","That was a bim.","null","","","","","",""
"html-keyboard-response","56","163374","0.0-5.0-2.16","FL","t8qovvqyjq","1536","864","0","1","0","5f89cbc45b38f5016101011c","","null","","","learningBlock1","","","","<div style=""font-size:60px;""> </div>","null","FL","learning/Slide17.JPG","That was a bim.","","",""
"image-keyboard-response","57","163550","0.0-5.0-0.17","FL","t8qovvqyjq","1536","864","0","1","0","5f89cbc45b38f5016101011c","","null","","","","","","","learning/Slide18.JPG","null","","","","","",""
"html-keyboard-response","58","164702","0.0-5.0-1.17","FL","t8qovvqyjq","1536","864","0","1","0","5f89cbc45b38f5016101011c","","null","","","learningBlock1","","","","That was a tob.","null","","","","","",""
"html-keyboard-response","59","165702","0.0-5.0-2.17","FL","t8qovvqyjq","1536","864","0","1","0","5f89cbc45b38f5016101011c","","null","","","learningBlock1","","","","<div style=""font-size:60px;""> </div>","null","FL","learning/Slide18.JPG","That was a tob.","","",""
"image-keyboard-response","60","165879","0.0-5.0-0.18","FL","t8qovvqyjq","1536","864","0","1","0","5f89cbc45b38f5016101011c","","null","","","","","","","learning/Slide19.JPG","null","","","","","",""
"html-keyboard-response","61","167030","0.0-5.0-1.18","FL","t8qovvqyjq","1536","864","0","1","0","5f89cbc45b38f5016101011c","","null","","","learningBlock1","","","","That was a wug.","null","","","","","",""
"html-keyboard-response","62","168031","0.0-5.0-2.18","FL","t8qovvqyjq","1536","864","0","1","0","5f89cbc45b38f5016101011c","","null","","","learningBlock1","","","","<div style=""font-size:60px;""> </div>","null","FL","learning/Slide19.JPG","That was a wug.","","",""
"image-keyboard-response","63","168209","0.0-5.0-0.19","FL","t8qovvqyjq","1536","864","0","1","0","5f89cbc45b38f5016101011c","","null","","","","","","","learning/Slide20.JPG","null","","","","","",""
"html-keyboard-response","64","169362","0.0-5.0-1.19","FL","t8qovvqyjq","1536","864","0","1","0","5f89cbc45b38f5016101011c","","null","","","learningBlock1","","","","That was a bim.","null","","","","","",""
"html-keyboard-response","65","170364","0.0-5.0-2.19","FL","t8qovvqyjq","1536","864","0","1","0","5f89cbc45b38f5016101011c","","null","","","learningBlock1","","","","<div style=""font-size:60px;""> </div>","null","FL","learning/Slide20.JPG","That was a bim.","","",""
"image-keyboard-response","66","170540","0.0-5.0-0.20","FL","t8qovvqyjq","1536","864","0","1","0","5f89cbc45b38f5016101011c","","null","","","","","","","learning/Slide21.JPG","null","","","","","",""
"html-keyboard-response","67","171691","0.0-5.0-1.20","FL","t8qovvqyjq","1536","864","0","1","0","5f89cbc45b38f5016101011c","","null","","","learningBlock1","","","","That was a dep.","null","","","","","",""
"html-keyboard-response","68","172691","0.0-5.0-2.20","FL","t8qovvqyjq","1536","864","0","1","0","5f89cbc45b38f5016101011c","","null","","","learningBlock1","","","","<div style=""font-size:60px;""> </div>","null","FL","learning/Slide21.JPG","That was a dep.","","",""
"image-keyboard-response","69","172868","0.0-5.0-0.21","FL","t8qovvqyjq","1536","864","0","1","0","5f89cbc45b38f5016101011c","","null","","","","","","","learning/Slide22.JPG","null","","","","","",""
"html-keyboard-response","70","174020","0.0-5.0-1.21","FL","t8qovvqyjq","1536","864","0","1","0","5f89cbc45b38f5016101011c","","null","","","learningBlock1","","","","That was a bim.","null","","","","","",""
"html-keyboard-response","71","175020","0.0-5.0-2.21","FL","t8qovvqyjq","1536","864","0","1","0","5f89cbc45b38f5016101011c","","null","","","learningBlock1","","","","<div style=""font-size:60px;""> </div>","null","FL","learning/Slide22.JPG","That was a bim.","","",""
"image-keyboard-response","72","175196","0.0-5.0-0.22","FL","t8qovvqyjq","1536","864","0","1","0","5f89cbc45b38f5016101011c","","null","","","","","","","learning/Slide23.JPG","null","","","","","",""
"html-keyboard-response","73","176348","0.0-5.0-1.22","FL","t8qovvqyjq","1536","864","0","1","0","5f89cbc45b38f5016101011c","","null","","","learningBlock1","","","","That was a tob.","null","","","","","",""
"html-keyboard-response","74","177350","0.0-5.0-2.22","FL","t8qovvqyjq","1536","864","0","1","0","5f89cbc45b38f5016101011c","","null","","","learningBlock1","","","","<div style=""font-size:60px;""> </div>","null","FL","learning/Slide23.JPG","That was a tob.","","",""
"image-keyboard-response","75","177527","0.0-5.0-0.23","FL","t8qovvqyjq","1536","864","0","1","0","5f89cbc45b38f5016101011c","","null","","","","","","","learning/Slide24.JPG","null","","","","","",""
"html-keyboard-response","76","178678","0.0-5.0-1.23","FL","t8qovvqyjq","1536","864","0","1","0","5f89cbc45b38f5016101011c","","null","","","learningBlock1","","","","That was a wug.","null","","","","","",""
"html-keyboard-response","77","179681","0.0-5.0-2.23","FL","t8qovvqyjq","1536","864","0","1","0","5f89cbc45b38f5016101011c","","null","","","learningBlock1","","","","<div style=""font-size:60px;""> </div>","null","FL","learning/Slide24.JPG","That was a wug.","","",""
"image-keyboard-response","78","179857","0.0-5.0-0.24","FL","t8qovvqyjq","1536","864","0","1","0","5f89cbc45b38f5016101011c","","null","","","","","","","learning/Slide25.JPG","null","","","","","",""
"html-keyboard-response","79","181008","0.0-5.0-1.24","FL","t8qovvqyjq","1536","864","0","1","0","5f89cbc45b38f5016101011c","","null","","","learningBlock1","","","","That was a dep.","null","","","","","",""
"html-keyboard-response","80","182009","0.0-5.0-2.24","FL","t8qovvqyjq","1536","864","0","1","0","5f89cbc45b38f5016101011c","","null","","","learningBlock1","","","","<div style=""font-size:60px;""> </div>","null","FL","learning/Slide25.JPG","That was a dep.","","",""
"image-keyboard-response","81","182186","0.0-5.0-0.25","FL","t8qovvqyjq","1536","864","0","1","0","5f89cbc45b38f5016101011c","","null","","","","","","","learning/Slide26.JPG","null","","","","","",""
"html-keyboard-response","82","183338","0.0-5.0-1.25","FL","t8qovvqyjq","1536","864","0","1","0","5f89cbc45b38f5016101011c","","null","","","learningBlock1","","","","That was a wug.","null","","","","","",""
"html-keyboard-response","83","184340","0.0-5.0-2.25","FL","t8qovvqyjq","1536","864","0","1","0","5f89cbc45b38f5016101011c","","null","","","learningBlock1","","","","<div style=""font-size:60px;""> </div>","null","FL","learning/Slide26.JPG","That was a wug.","","",""
"image-keyboard-response","84","184517","0.0-5.0-0.26","FL","t8qovvqyjq","1536","864","0","1","0","5f89cbc45b38f5016101011c","","null","","","","","","","learning/Slide27.JPG","null","","","","","",""
"html-keyboard-response","85","185670","0.0-5.0-1.26","FL","t8qovvqyjq","1536","864","0","1","0","5f89cbc45b38f5016101011c","","null","","","learningBlock1","","","","That was a bim.","null","","","","","",""
"html-keyboard-response","86","186672","0.0-5.0-2.26","FL","t8qovvqyjq","1536","864","0","1","0","5f89cbc45b38f5016101011c","","null","","","learningBlock1","","","","<div style=""font-size:60px;""> </div>","null","FL","learning/Slide27.JPG","That was a bim.","","",""
"image-keyboard-response","87","186848","0.0-5.0-0.27","FL","t8qovvqyjq","1536","864","0","1","0","5f89cbc45b38f5016101011c","","null","","","","","","","learning/Slide28.JPG","null","","","","","",""
"html-keyboard-response","88","188002","0.0-5.0-1.27","FL","t8qovvqyjq","1536","864","0","1","0","5f89cbc45b38f5016101011c","","null","","","learningBlock1","","","","That was a dep.","null","","","","","",""
"html-keyboard-response","89","189003","0.0-5.0-2.27","FL","t8qovvqyjq","1536","864","0","1","0","5f89cbc45b38f5016101011c","","null","","","learningBlock1","","","","<div style=""font-size:60px;""> </div>","null","FL","learning/Slide28.JPG","That was a dep.","","",""
"image-keyboard-response","90","189180","0.0-5.0-0.28","FL","t8qovvqyjq","1536","864","0","1","0","5f89cbc45b38f5016101011c","","null","","","","","","","learning/Slide29.JPG","null","","","","","",""
"html-keyboard-response","91","190331","0.0-5.0-1.28","FL","t8qovvqyjq","1536","864","0","1","0","5f89cbc45b38f5016101011c","","null","","","learningBlock1","","","","That was a tob.","null","","","","","",""
"html-keyboard-response","92","191334","0.0-5.0-2.28","FL","t8qovvqyjq","1536","864","0","1","0","5f89cbc45b38f5016101011c","","null","","","learningBlock1","","","","<div style=""font-size:60px;""> </div>","null","FL","learning/Slide29.JPG","That was a tob.","","",""
"image-keyboard-response","93","191511","0.0-5.0-0.29","FL","t8qovvqyjq","1536","864","0","1","0","5f89cbc45b38f5016101011c","","null","","","","","","","learning/Slide30.JPG","null","","","","","",""
"html-keyboard-response","94","192664","0.0-5.0-1.29","FL","t8qovvqyjq","1536","864","0","1","0","5f89cbc45b38f5016101011c","","null","","","learningBlock1","","","","That was a dep.","null","","","","","",""
"html-keyboard-response","95","193665","0.0-5.0-2.29","FL","t8qovvqyjq","1536","864","0","1","0","5f89cbc45b38f5016101011c","","null","","","learningBlock1","","","","<div style=""font-size:60px;""> </div>","null","FL","learning/Slide30.JPG","That was a dep.","","",""
"image-keyboard-response","96","193842","0.0-5.0-0.30","FL","t8qovvqyjq","1536","864","0","1","0","5f89cbc45b38f5016101011c","","null","","","","","","","learning/Slide31.JPG","null","","","","","",""
"html-keyboard-response","97","194993","0.0-5.0-1.30","FL","t8qovvqyjq","1536","864","0","1","0","5f89cbc45b38f5016101011c","","null","","","learningBlock1","","","","That was a wug.","null","","","","","",""
"html-keyboard-response","98","195995","0.0-5.0-2.30","FL","t8qovvqyjq","1536","864","0","1","0","5f89cbc45b38f5016101011c","","null","","","learningBlock1","","","","<div style=""font-size:60px;""> </div>","null","FL","learning/Slide31.JPG","That was a wug.","","",""
"image-keyboard-response","99","196173","0.0-5.0-0.31","FL","t8qovvqyjq","1536","864","0","1","0","5f89cbc45b38f5016101011c","","null","","","","","","","learning/Slide32.JPG","null","","","","","",""
"html-keyboard-response","100","197325","0.0-5.0-1.31","FL","t8qovvqyjq","1536","864","0","1","0","5f89cbc45b38f5016101011c","","null","","","learningBlock1","","","","That was a tob.","null","","","","","",""
"html-keyboard-response","101","198327","0.0-5.0-2.31","FL","t8qovvqyjq","1536","864","0","1","0","5f89cbc45b38f5016101011c","","null","","","learningBlock1","","","","<div style=""font-size:60px;""> </div>","null","FL","learning/Slide32.JPG","That was a tob.","","",""
"image-keyboard-response","102","198503","0.0-5.0-0.32","FL","t8qovvqyjq","1536","864","0","1","0","5f89cbc45b38f5016101011c","","null","","","","","","","learning/Slide33.JPG","null","","","","","",""
"html-keyboard-response","103","199656","0.0-5.0-1.32","FL","t8qovvqyjq","1536","864","0","1","0","5f89cbc45b38f5016101011c","","null","","","learningBlock1","","","","That was a bim.","null","","","","","",""
"html-keyboard-response","104","200658","0.0-5.0-2.32","FL","t8qovvqyjq","1536","864","0","1","0","5f89cbc45b38f5016101011c","","null","","","learningBlock1","","","","<div style=""font-size:60px;""> </div>","null","FL","learning/Slide33.JPG","That was a bim.","","",""
"image-keyboard-response","105","200836","0.0-5.0-0.33","FL","t8qovvqyjq","1536","864","0","1","0","5f89cbc45b38f5016101011c","","null","","","","","","","learning/Slide34.JPG","null","","","","","",""
"html-keyboard-response","106","201989","0.0-5.0-1.33","FL","t8qovvqyjq","1536","864","0","1","0","5f89cbc45b38f5016101011c","","null","","","learningBlock1","","","","That was a tob.","null","","","","","",""
"html-keyboard-response","107","202991","0.0-5.0-2.33","FL","t8qovvqyjq","1536","864","0","1","0","5f89cbc45b38f5016101011c","","null","","","learningBlock1","","","","<div style=""font-size:60px;""> </div>","null","FL","learning/Slide34.JPG","That was a tob.","","",""
"image-keyboard-response","108","203168","0.0-5.0-0.34","FL","t8qovvqyjq","1536","864","0","1","0","5f89cbc45b38f5016101011c","","null","","","","","","","learning/Slide35.JPG","null","","","","","",""
"html-keyboard-response","109","204320","0.0-5.0-1.34","FL","t8qovvqyjq","1536","864","0","1","0","5f89cbc45b38f5016101011c","","null","","","learningBlock1","","","","That was a bim.","null","","","","","",""
"html-keyboard-response","110","205322","0.0-5.0-2.34","FL","t8qovvqyjq","1536","864","0","1","0","5f89cbc45b38f5016101011c","","null","","","learningBlock1","","","","<div style=""font-size:60px;""> </div>","null","FL","learning/Slide35.JPG","That was a bim.","","",""
"image-keyboard-response","111","205500","0.0-5.0-0.35","FL","t8qovvqyjq","1536","864","0","1","0","5f89cbc45b38f5016101011c","","null","","","","","","","learning/Slide36.JPG","null","","","","","",""
"html-keyboard-response","112","206653","0.0-5.0-1.35","FL","t8qovvqyjq","1536","864","0","1","0","5f89cbc45b38f5016101011c","","null","","","learningBlock1","","","","That was a dep.","null","","","","","",""
"html-keyboard-response","113","207656","0.0-5.0-2.35","FL","t8qovvqyjq","1536","864","0","1","0","5f89cbc45b38f5016101011c","","null","","","learningBlock1","","","","<div style=""font-size:60px;""> </div>","null","FL","learning/Slide36.JPG","That was a dep.","","",""
"image-keyboard-response","114","207835","0.0-5.0-0.36","FL","t8qovvqyjq","1536","864","0","1","0","5f89cbc45b38f5016101011c","","null","","","","","","","learning/Slide37.JPG","null","","","","","",""
"html-keyboard-response","115","208989","0.0-5.0-1.36","FL","t8qovvqyjq","1536","864","0","1","0","5f89cbc45b38f5016101011c","","null","","","learningBlock1","","","","That was a tob.","null","","","","","",""
"html-keyboard-response","116","209991","0.0-5.0-2.36","FL","t8qovvqyjq","1536","864","0","1","0","5f89cbc45b38f5016101011c","","null","","","learningBlock1","","","","<div style=""font-size:60px;""> </div>","null","FL","learning/Slide37.JPG","That was a tob.","","",""
"image-keyboard-response","117","210168","0.0-5.0-0.37","FL","t8qovvqyjq","1536","864","0","1","0","5f89cbc45b38f5016101011c","","null","","","","","","","learning/Slide38.JPG","null","","","","","",""
"html-keyboard-response","118","211322","0.0-5.0-1.37","FL","t8qovvqyjq","1536","864","0","1","0","5f89cbc45b38f5016101011c","","null","","","learningBlock1","","","","That was a wug.","null","","","","","",""
"html-keyboard-response","119","212324","0.0-5.0-2.37","FL","t8qovvqyjq","1536","864","0","1","0","5f89cbc45b38f5016101011c","","null","","","learningBlock1","","","","<div style=""font-size:60px;""> </div>","null","FL","learning/Slide38.JPG","That was a wug.","","",""
"image-keyboard-response","120","212503","0.0-5.0-0.38","FL","t8qovvqyjq","1536","864","0","1","0","5f89cbc45b38f5016101011c","","null","","","","","","","learning/Slide39.JPG","null","","","","","",""
"html-keyboard-response","121","213655","0.0-5.0-1.38","FL","t8qovvqyjq","1536","864","0","1","0","5f89cbc45b38f5016101011c","","null","","","learningBlock1","","","","That was a bim.","null","","","","","",""
"html-keyboard-response","122","214658","0.0-5.0-2.38","FL","t8qovvqyjq","1536","864","0","1","0","5f89cbc45b38f5016101011c","","null","","","learningBlock1","","","","<div style=""font-size:60px;""> </div>","null","FL","learning/Slide39.JPG","That was a bim.","","",""
"image-keyboard-response","123","214837","0.0-5.0-0.39","FL","t8qovvqyjq","1536","864","0","1","0","5f89cbc45b38f5016101011c","","null","","","","","","","learning/Slide40.JPG","null","","","","","",""
"html-keyboard-response","124","215990","0.0-5.0-1.39","FL","t8qovvqyjq","1536","864","0","1","0","5f89cbc45b38f5016101011c","","null","","","learningBlock1","","","","That was a tob.","null","","","","","",""
"html-keyboard-response","125","216992","0.0-5.0-2.39","FL","t8qovvqyjq","1536","864","0","1","0","5f89cbc45b38f5016101011c","","null","","","learningBlock1","","","","<div style=""font-size:60px;""> </div>","null","FL","learning/Slide40.JPG","That was a tob.","","",""
"image-keyboard-response","126","217170","0.0-5.0-0.40","FL","t8qovvqyjq","1536","864","0","1","0","5f89cbc45b38f5016101011c","","null","","","","","","","learning/Slide41.JPG","null","","","","","",""
"html-keyboard-response","127","218323","0.0-5.0-1.40","FL","t8qovvqyjq","1536","864","0","1","0","5f89cbc45b38f5016101011c","","null","","","learningBlock1","","","","That was a bim.","null","","","","","",""
"html-keyboard-response","128","219325","0.0-5.0-2.40","FL","t8qovvqyjq","1536","864","0","1","0","5f89cbc45b38f5016101011c","","null","","","learningBlock1","","","","<div style=""font-size:60px;""> </div>","null","FL","learning/Slide41.JPG","That was a bim.","","",""
"image-keyboard-response","129","219503","0.0-5.0-0.41","FL","t8qovvqyjq","1536","864","0","1","0","5f89cbc45b38f5016101011c","","null","","","","","","","learning/Slide42.JPG","null","","","","","",""
"html-keyboard-response","130","220657","0.0-5.0-1.41","FL","t8qovvqyjq","1536","864","0","1","0","5f89cbc45b38f5016101011c","","null","","","learningBlock1","","","","That was a dep.","null","","","","","",""
"html-keyboard-response","131","221658","0.0-5.0-2.41","FL","t8qovvqyjq","1536","864","0","1","0","5f89cbc45b38f5016101011c","","null","","","learningBlock1","","","","<div style=""font-size:60px;""> </div>","null","FL","learning/Slide42.JPG","That was a dep.","","",""
"image-keyboard-response","132","221835","0.0-5.0-0.42","FL","t8qovvqyjq","1536","864","0","1","0","5f89cbc45b38f5016101011c","","null","","","","","","","learning/Slide43.JPG","null","","","","","",""
"html-keyboard-response","133","222987","0.0-5.0-1.42","FL","t8qovvqyjq","1536","864","0","1","0","5f89cbc45b38f5016101011c","","null","","","learningBlock1","","","","That was a wug.","null","","","","","",""
"html-keyboard-response","134","223988","0.0-5.0-2.42","FL","t8qovvqyjq","1536","864","0","1","0","5f89cbc45b38f5016101011c","","null","","","learningBlock1","","","","<div style=""font-size:60px;""> </div>","null","FL","learning/Slide43.JPG","That was a wug.","","",""
"image-keyboard-response","135","224165","0.0-5.0-0.43","FL","t8qovvqyjq","1536","864","0","1","0","5f89cbc45b38f5016101011c","","null","","","","","","","learning/Slide44.JPG","null","","","","","",""
"html-keyboard-response","136","225317","0.0-5.0-1.43","FL","t8qovvqyjq","1536","864","0","1","0","5f89cbc45b38f5016101011c","","null","","","learningBlock1","","","","That was a bim.","null","","","","","",""
"html-keyboard-response","137","226318","0.0-5.0-2.43","FL","t8qovvqyjq","1536","864","0","1","0","5f89cbc45b38f5016101011c","","null","","","learningBlock1","","","","<div style=""font-size:60px;""> </div>","null","FL","learning/Slide44.JPG","That was a bim.","","",""
"image-keyboard-response","138","226496","0.0-5.0-0.44","FL","t8qovvqyjq","1536","864","0","1","0","5f89cbc45b38f5016101011c","","null","","","","","","","learning/Slide45.JPG","null","","","","","",""
"html-keyboard-response","139","227649","0.0-5.0-1.44","FL","t8qovvqyjq","1536","864","0","1","0","5f89cbc45b38f5016101011c","","null","","","learningBlock1","","","","That was a wug.","null","","","","","",""
"html-keyboard-response","140","228651","0.0-5.0-2.44","FL","t8qovvqyjq","1536","864","0","1","0","5f89cbc45b38f5016101011c","","null","","","learningBlock1","","","","<div style=""font-size:60px;""> </div>","null","FL","learning/Slide45.JPG","That was a wug.","","",""
"image-keyboard-response","141","228828","0.0-5.0-0.45","FL","t8qovvqyjq","1536","864","0","1","0","5f89cbc45b38f5016101011c","","null","","","","","","","learning/Slide46.JPG","null","","","","","",""
"html-keyboard-response","142","229981","0.0-5.0-1.45","FL","t8qovvqyjq","1536","864","0","1","0","5f89cbc45b38f5016101011c","","null","","","learningBlock1","","","","That was a dep.","null","","","","","",""
"html-keyboard-response","143","230983","0.0-5.0-2.45","FL","t8qovvqyjq","1536","864","0","1","0","5f89cbc45b38f5016101011c","","null","","","learningBlock1","","","","<div style=""font-size:60px;""> </div>","null","FL","learning/Slide46.JPG","That was a dep.","","",""
"image-keyboard-response","144","231159","0.0-5.0-0.46","FL","t8qovvqyjq","1536","864","0","1","0","5f89cbc45b38f5016101011c","","null","","","","","","","learning/Slide47.JPG","null","","","","","",""
"html-keyboard-response","145","232313","0.0-5.0-1.46","FL","t8qovvqyjq","1536","864","0","1","0","5f89cbc45b38f5016101011c","","null","","","learningBlock1","","","","That was a tob.","null","","","","","",""
"html-keyboard-response","146","233315","0.0-5.0-2.46","FL","t8qovvqyjq","1536","864","0","1","0","5f89cbc45b38f5016101011c","","null","","","learningBlock1","","","","<div style=""font-size:60px;""> </div>","null","FL","learning/Slide47.JPG","That was a tob.","","",""
"image-keyboard-response","147","233492","0.0-5.0-0.47","FL","t8qovvqyjq","1536","864","0","1","0","5f89cbc45b38f5016101011c","","null","","","","","","","learning/Slide48.JPG","null","","","","","",""
"html-keyboard-response","148","234645","0.0-5.0-1.47","FL","t8qovvqyjq","1536","864","0","1","0","5f89cbc45b38f5016101011c","","null","","","learningBlock1","","","","That was a bim.","null","","","","","",""
"html-keyboard-response","149","235649","0.0-5.0-2.47","FL","t8qovvqyjq","1536","864","0","1","0","5f89cbc45b38f5016101011c","","null","","","learningBlock1","","","","<div style=""font-size:60px;""> </div>","null","FL","learning/Slide48.JPG","That was a bim.","","",""
"image-keyboard-response","150","235826","0.0-5.0-0.48","FL","t8qovvqyjq","1536","864","0","1","0","5f89cbc45b38f5016101011c","","null","","","","","","","learning/Slide49.JPG","null","","","","","",""
"html-keyboard-response","151","236978","0.0-5.0-1.48","FL","t8qovvqyjq","1536","864","0","1","0","5f89cbc45b38f5016101011c","","null","","","learningBlock1","","","","That was a dep.","null","","","","","",""
"html-keyboard-response","152","237979","0.0-5.0-2.48","FL","t8qovvqyjq","1536","864","0","1","0","5f89cbc45b38f5016101011c","","null","","","learningBlock1","","","","<div style=""font-size:60px;""> </div>","null","FL","learning/Slide49.JPG","That was a dep.","","",""
"image-keyboard-response","153","238156","0.0-5.0-0.49","FL","t8qovvqyjq","1536","864","0","1","0","5f89cbc45b38f5016101011c","","null","","","","","","","learning/Slide50.JPG","null","","","","","",""
"html-keyboard-response","154","239308","0.0-5.0-1.49","FL","t8qovvqyjq","1536","864","0","1","0","5f89cbc45b38f5016101011c","","null","","","learningBlock1","","","","That was a tob.","null","","","","","",""
"html-keyboard-response","155","240309","0.0-5.0-2.49","FL","t8qovvqyjq","1536","864","0","1","0","5f89cbc45b38f5016101011c","","null","","","learningBlock1","","","","<div style=""font-size:60px;""> </div>","null","FL","learning/Slide50.JPG","That was a tob.","","",""
"image-keyboard-response","156","240485","0.0-5.0-0.50","FL","t8qovvqyjq","1536","864","0","1","0","5f89cbc45b38f5016101011c","","null","","","","","","","learning/Slide51.JPG","null","","","","","",""
"html-keyboard-response","157","241639","0.0-5.0-1.50","FL","t8qovvqyjq","1536","864","0","1","0","5f89cbc45b38f5016101011c","","null","","","learningBlock1","","","","That was a bim.","null","","","","","",""
"html-keyboard-response","158","242640","0.0-5.0-2.50","FL","t8qovvqyjq","1536","864","0","1","0","5f89cbc45b38f5016101011c","","null","","","learningBlock1","","","","<div style=""font-size:60px;""> </div>","null","FL","learning/Slide51.JPG","That was a bim.","","",""
"image-keyboard-response","159","242818","0.0-5.0-0.51","FL","t8qovvqyjq","1536","864","0","1","0","5f89cbc45b38f5016101011c","","null","","","","","","","learning/Slide52.JPG","null","","","","","",""
"html-keyboard-response","160","243971","0.0-5.0-1.51","FL","t8qovvqyjq","1536","864","0","1","0","5f89cbc45b38f5016101011c","","null","","","learningBlock1","","","","That was a wug.","null","","","","","",""
"html-keyboard-response","161","244975","0.0-5.0-2.51","FL","t8qovvqyjq","1536","864","0","1","0","5f89cbc45b38f5016101011c","","null","","","learningBlock1","","","","<div style=""font-size:60px;""> </div>","null","FL","learning/Slide52.JPG","That was a wug.","","",""
"image-keyboard-response","162","245153","0.0-5.0-0.52","FL","t8qovvqyjq","1536","864","0","1","0","5f89cbc45b38f5016101011c","","null","","","","","","","learning/Slide53.JPG","null","","","","","",""
"html-keyboard-response","163","246305","0.0-5.0-1.52","FL","t8qovvqyjq","1536","864","0","1","0","5f89cbc45b38f5016101011c","","null","","","learningBlock1","","","","That was a tob.","null","","","","","",""
"html-keyboard-response","164","247308","0.0-5.0-2.52","FL","t8qovvqyjq","1536","864","0","1","0","5f89cbc45b38f5016101011c","","null","","","learningBlock1","","","","<div style=""font-size:60px;""> </div>","null","FL","learning/Slide53.JPG","That was a tob.","","",""
"image-keyboard-response","165","247486","0.0-5.0-0.53","FL","t8qovvqyjq","1536","864","0","1","0","5f89cbc45b38f5016101011c","","null","","","","","","","learning/Slide54.JPG","null","","","","","",""
"html-keyboard-response","166","248637","0.0-5.0-1.53","FL","t8qovvqyjq","1536","864","0","1","0","5f89cbc45b38f5016101011c","","null","","","learningBlock1","","","","That was a dep.","null","","","","","",""
"html-keyboard-response","167","249640","0.0-5.0-2.53","FL","t8qovvqyjq","1536","864","0","1","0","5f89cbc45b38f5016101011c","","null","","","learningBlock1","","","","<div style=""font-size:60px;""> </div>","null","FL","learning/Slide54.JPG","That was a dep.","","",""
"image-keyboard-response","168","249818","0.0-5.0-0.54","FL","t8qovvqyjq","1536","864","0","1","0","5f89cbc45b38f5016101011c","","null","","","","","","","learning/Slide55.JPG","null","","","","","",""
"html-keyboard-response","169","250971","0.0-5.0-1.54","FL","t8qovvqyjq","1536","864","0","1","0","5f89cbc45b38f5016101011c","","null","","","learningBlock1","","","","That was a bim.","null","","","","","",""
"html-keyboard-response","170","251974","0.0-5.0-2.54","FL","t8qovvqyjq","1536","864","0","1","0","5f89cbc45b38f5016101011c","","null","","","learningBlock1","","","","<div style=""font-size:60px;""> </div>","null","FL","learning/Slide55.JPG","That was a bim.","","",""
"image-keyboard-response","171","252151","0.0-5.0-0.55","FL","t8qovvqyjq","1536","864","0","1","0","5f89cbc45b38f5016101011c","","null","","","","","","","learning/Slide56.JPG","null","","","","","",""
"html-keyboard-response","172","253304","0.0-5.0-1.55","FL","t8qovvqyjq","1536","864","0","1","0","5f89cbc45b38f5016101011c","","null","","","learningBlock1","","","","That was a tob.","null","","","","","",""
"html-keyboard-response","173","254306","0.0-5.0-2.55","FL","t8qovvqyjq","1536","864","0","1","0","5f89cbc45b38f5016101011c","","null","","","learningBlock1","","","","<div style=""font-size:60px;""> </div>","null","FL","learning/Slide56.JPG","That was a tob.","","",""
"image-keyboard-response","174","254483","0.0-5.0-0.56","FL","t8qovvqyjq","1536","864","0","1","0","5f89cbc45b38f5016101011c","","null","","","","","","","learning/Slide57.JPG","null","","","","","",""
"html-keyboard-response","175","255636","0.0-5.0-1.56","FL","t8qovvqyjq","1536","864","0","1","0","5f89cbc45b38f5016101011c","","null","","","learningBlock1","","","","That was a dep.","null","","","","","",""
"html-keyboard-response","176","256638","0.0-5.0-2.56","FL","t8qovvqyjq","1536","864","0","1","0","5f89cbc45b38f5016101011c","","null","","","learningBlock1","","","","<div style=""font-size:60px;""> </div>","null","FL","learning/Slide57.JPG","That was a dep.","","",""
"image-keyboard-response","177","256815","0.0-5.0-0.57","FL","t8qovvqyjq","1536","864","0","1","0","5f89cbc45b38f5016101011c","","null","","","","","","","learning/Slide58.JPG","null","","","","","",""
"html-keyboard-response","178","257968","0.0-5.0-1.57","FL","t8qovvqyjq","1536","864","0","1","0","5f89cbc45b38f5016101011c","","null","","","learningBlock1","","","","That was a wug.","null","","","","","",""
"html-keyboard-response","179","258969","0.0-5.0-2.57","FL","t8qovvqyjq","1536","864","0","1","0","5f89cbc45b38f5016101011c","","null","","","learningBlock1","","","","<div style=""font-size:60px;""> </div>","null","FL","learning/Slide58.JPG","That was a wug.","","",""
"image-keyboard-response","180","259146","0.0-5.0-0.58","FL","t8qovvqyjq","1536","864","0","1","0","5f89cbc45b38f5016101011c","","null","","","","","","","learning/Slide59.JPG","null","","","","","",""
"html-keyboard-response","181","260299","0.0-5.0-1.58","FL","t8qovvqyjq","1536","864","0","1","0","5f89cbc45b38f5016101011c","","null","","","learningBlock1","","","","That was a dep.","null","","","","","",""
"html-keyboard-response","182","261301","0.0-5.0-2.58","FL","t8qovvqyjq","1536","864","0","1","0","5f89cbc45b38f5016101011c","","null","","","learningBlock1","","","","<div style=""font-size:60px;""> </div>","null","FL","learning/Slide59.JPG","That was a dep.","","",""
"image-keyboard-response","183","261479","0.0-5.0-0.59","FL","t8qovvqyjq","1536","864","0","1","0","5f89cbc45b38f5016101011c","","null","","","","","","","learning/Slide60.JPG","null","","","","","",""
"html-keyboard-response","184","262630","0.0-5.0-1.59","FL","t8qovvqyjq","1536","864","0","1","0","5f89cbc45b38f5016101011c","","null","","","learningBlock1","","","","That was a wug.","null","","","","","",""
"html-keyboard-response","185","263631","0.0-5.0-2.59","FL","t8qovvqyjq","1536","864","0","1","0","5f89cbc45b38f5016101011c","","null","","","learningBlock1","","","","<div style=""font-size:60px;""> </div>","null","FL","learning/Slide60.JPG","That was a wug.","","",""
"image-keyboard-response","186","263807","0.0-5.0-0.60","FL","t8qovvqyjq","1536","864","0","1","0","5f89cbc45b38f5016101011c","","null","","","","","","","learning/Slide61.JPG","null","","","","","",""
"html-keyboard-response","187","264958","0.0-5.0-1.60","FL","t8qovvqyjq","1536","864","0","1","0","5f89cbc45b38f5016101011c","","null","","","learningBlock1","","","","That was a bim.","null","","","","","",""
"html-keyboard-response","188","265959","0.0-5.0-2.60","FL","t8qovvqyjq","1536","864","0","1","0","5f89cbc45b38f5016101011c","","null","","","learningBlock1","","","","<div style=""font-size:60px;""> </div>","null","FL","learning/Slide61.JPG","That was a bim.","","",""
"image-keyboard-response","189","266136","0.0-5.0-0.61","FL","t8qovvqyjq","1536","864","0","1","0","5f89cbc45b38f5016101011c","","null","","","","","","","learning/Slide62.JPG","null","","","","","",""
"html-keyboard-response","190","267287","0.0-5.0-1.61","FL","t8qovvqyjq","1536","864","0","1","0","5f89cbc45b38f5016101011c","","null","","","learningBlock1","","","","That was a dep.","null","","","","","",""
"html-keyboard-response","191","268290","0.0-5.0-2.61","FL","t8qovvqyjq","1536","864","0","1","0","5f89cbc45b38f5016101011c","","null","","","learningBlock1","","","","<div style=""font-size:60px;""> </div>","null","FL","learning/Slide62.JPG","That was a dep.","","",""
"image-keyboard-response","192","268466","0.0-5.0-0.62","FL","t8qovvqyjq","1536","864","0","1","0","5f89cbc45b38f5016101011c","","null","","","","","","","learning/Slide63.JPG","null","","","","","",""
"html-keyboard-response","193","269617","0.0-5.0-1.62","FL","t8qovvqyjq","1536","864","0","1","0","5f89cbc45b38f5016101011c","","null","","","learningBlock1","","","","That was a bim.","null","","","","","",""
"html-keyboard-response","194","270619","0.0-5.0-2.62","FL","t8qovvqyjq","1536","864","0","1","0","5f89cbc45b38f5016101011c","","null","","","learningBlock1","","","","<div style=""font-size:60px;""> </div>","null","FL","learning/Slide63.JPG","That was a bim.","","",""
"image-keyboard-response","195","270794","0.0-5.0-0.63","FL","t8qovvqyjq","1536","864","0","1","0","5f89cbc45b38f5016101011c","","null","","","","","","","learning/Slide64.JPG","null","","","","","",""
"html-keyboard-response","196","271948","0.0-5.0-1.63","FL","t8qovvqyjq","1536","864","0","1","0","5f89cbc45b38f5016101011c","","null","","","learningBlock1","","","","That was a tob.","null","","","","","",""
"html-keyboard-response","197","272948","0.0-5.0-2.63","FL","t8qovvqyjq","1536","864","0","1","0","5f89cbc45b38f5016101011c","","null","","","learningBlock1","","","","<div style=""font-size:60px;""> </div>","null","FL","learning/Slide64.JPG","That was a tob.","","",""
"image-keyboard-response","198","273125","0.0-5.0-0.64","FL","t8qovvqyjq","1536","864","0","1","0","5f89cbc45b38f5016101011c","","null","","","","","","","learning/Slide65.JPG","null","","","","","",""
"html-keyboard-response","199","274277","0.0-5.0-1.64","FL","t8qovvqyjq","1536","864","0","1","0","5f89cbc45b38f5016101011c","","null","","","learningBlock1","","","","That was a wug.","null","","","","","",""
"html-keyboard-response","200","275277","0.0-5.0-2.64","FL","t8qovvqyjq","1536","864","0","1","0","5f89cbc45b38f5016101011c","","null","","","learningBlock1","","","","<div style=""font-size:60px;""> </div>","null","FL","learning/Slide65.JPG","That was a wug.","","",""
"image-keyboard-response","201","275454","0.0-5.0-0.65","FL","t8qovvqyjq","1536","864","0","1","0","5f89cbc45b38f5016101011c","","null","","","","","","","learning/Slide66.JPG","null","","","","","",""
"html-keyboard-response","202","276605","0.0-5.0-1.65","FL","t8qovvqyjq","1536","864","0","1","0","5f89cbc45b38f5016101011c","","null","","","learningBlock1","","","","That was a dep.","null","","","","","",""
"html-keyboard-response","203","277606","0.0-5.0-2.65","FL","t8qovvqyjq","1536","864","0","1","0","5f89cbc45b38f5016101011c","","null","","","learningBlock1","","","","<div style=""font-size:60px;""> </div>","null","FL","learning/Slide66.JPG","That was a dep.","","",""
"image-keyboard-response","204","277782","0.0-5.0-0.66","FL","t8qovvqyjq","1536","864","0","1","0","5f89cbc45b38f5016101011c","","null","","","","","","","learning/Slide67.JPG","null","","","","","",""
"html-keyboard-response","205","278934","0.0-5.0-1.66","FL","t8qovvqyjq","1536","864","0","1","0","5f89cbc45b38f5016101011c","","null","","","learningBlock1","","","","That was a tob.","null","","","","","",""
"html-keyboard-response","206","279935","0.0-5.0-2.66","FL","t8qovvqyjq","1536","864","0","1","0","5f89cbc45b38f5016101011c","","null","","","learningBlock1","","","","<div style=""font-size:60px;""> </div>","null","FL","learning/Slide67.JPG","That was a tob.","","",""
"image-keyboard-response","207","280112","0.0-5.0-0.67","FL","t8qovvqyjq","1536","864","0","1","0","5f89cbc45b38f5016101011c","","null","","","","","","","learning/Slide68.JPG","null","","","","","",""
"html-keyboard-response","208","281263","0.0-5.0-1.67","FL","t8qovvqyjq","1536","864","0","1","0","5f89cbc45b38f5016101011c","","null","","","learningBlock1","","","","That was a wug.","null","","","","","",""
"html-keyboard-response","209","282264","0.0-5.0-2.67","FL","t8qovvqyjq","1536","864","0","1","0","5f89cbc45b38f5016101011c","","null","","","learningBlock1","","","","<div style=""font-size:60px;""> </div>","null","FL","learning/Slide68.JPG","That was a wug.","","",""
"image-keyboard-response","210","282440","0.0-5.0-0.68","FL","t8qovvqyjq","1536","864","0","1","0","5f89cbc45b38f5016101011c","","null","","","","","","","learning/Slide69.JPG","null","","","","","",""
"html-keyboard-response","211","283592","0.0-5.0-1.68","FL","t8qovvqyjq","1536","864","0","1","0","5f89cbc45b38f5016101011c","","null","","","learningBlock1","","","","That was a tob.","null","","","","","",""
"html-keyboard-response","212","284595","0.0-5.0-2.68","FL","t8qovvqyjq","1536","864","0","1","0","5f89cbc45b38f5016101011c","","null","","","learningBlock1","","","","<div style=""font-size:60px;""> </div>","null","FL","learning/Slide69.JPG","That was a tob.","","",""
"image-keyboard-response","213","284772","0.0-5.0-0.69","FL","t8qovvqyjq","1536","864","0","1","0","5f89cbc45b38f5016101011c","","null","","","","","","","learning/Slide70.JPG","null","","","","","",""
"html-keyboard-response","214","285924","0.0-5.0-1.69","FL","t8qovvqyjq","1536","864","0","1","0","5f89cbc45b38f5016101011c","","null","","","learningBlock1","","","","That was a dep.","null","","","","","",""
"html-keyboard-response","215","286925","0.0-5.0-2.69","FL","t8qovvqyjq","1536","864","0","1","0","5f89cbc45b38f5016101011c","","null","","","learningBlock1","","","","<div style=""font-size:60px;""> </div>","null","FL","learning/Slide70.JPG","That was a dep.","","",""
"image-keyboard-response","216","287100","0.0-5.0-0.70","FL","t8qovvqyjq","1536","864","0","1","0","5f89cbc45b38f5016101011c","","null","","","","","","","learning/Slide71.JPG","null","","","","","",""
"html-keyboard-response","217","288252","0.0-5.0-1.70","FL","t8qovvqyjq","1536","864","0","1","0","5f89cbc45b38f5016101011c","","null","","","learningBlock1","","","","That was a wug.","null","","","","","",""
"html-keyboard-response","218","289252","0.0-5.0-2.70","FL","t8qovvqyjq","1536","864","0","1","0","5f89cbc45b38f5016101011c","","null","","","learningBlock1","","","","<div style=""font-size:60px;""> </div>","null","FL","learning/Slide71.JPG","That was a wug.","","",""
"image-keyboard-response","219","289430","0.0-5.0-0.71","FL","t8qovvqyjq","1536","864","0","1","0","5f89cbc45b38f5016101011c","","null","","","","","","","learning/Slide72.JPG","null","","","","","",""
"html-keyboard-response","220","290581","0.0-5.0-1.71","FL","t8qovvqyjq","1536","864","0","1","0","5f89cbc45b38f5016101011c","","null","","","learningBlock1","","","","That was a bim.","null","","","","","",""
"html-keyboard-response","221","291583","0.0-5.0-2.71","FL","t8qovvqyjq","1536","864","0","1","0","5f89cbc45b38f5016101011c","","null","","","learningBlock1","","","","<div style=""font-size:60px;""> </div>","null","FL","learning/Slide72.JPG","That was a bim.","","",""
"image-keyboard-response","222","291760","0.0-5.0-0.72","FL","t8qovvqyjq","1536","864","0","1","0","5f89cbc45b38f5016101011c","","null","","","","","","","learning/Slide73.JPG","null","","","","","",""
"html-keyboard-response","223","292911","0.0-5.0-1.72","FL","t8qovvqyjq","1536","864","0","1","0","5f89cbc45b38f5016101011c","","null","","","learningBlock1","","","","That was a wug.","null","","","","","",""
"html-keyboard-response","224","293913","0.0-5.0-2.72","FL","t8qovvqyjq","1536","864","0","1","0","5f89cbc45b38f5016101011c","","null","","","learningBlock1","","","","<div style=""font-size:60px;""> </div>","null","FL","learning/Slide73.JPG","That was a wug.","","",""
"image-keyboard-response","225","294088","0.0-5.0-0.73","FL","t8qovvqyjq","1536","864","0","1","0","5f89cbc45b38f5016101011c","","null","","","","","","","learning/Slide74.JPG","null","","","","","",""
"html-keyboard-response","226","295239","0.0-5.0-1.73","FL","t8qovvqyjq","1536","864","0","1","0","5f89cbc45b38f5016101011c","","null","","","learningBlock1","","","","That was a dep.","null","","","","","",""
"html-keyboard-response","227","296239","0.0-5.0-2.73","FL","t8qovvqyjq","1536","864","0","1","0","5f89cbc45b38f5016101011c","","null","","","learningBlock1","","","","<div style=""font-size:60px;""> </div>","null","FL","learning/Slide74.JPG","That was a dep.","","",""
"image-keyboard-response","228","296416","0.0-5.0-0.74","FL","t8qovvqyjq","1536","864","0","1","0","5f89cbc45b38f5016101011c","","null","","","","","","","learning/Slide75.JPG","null","","","","","",""
"html-keyboard-response","229","297569","0.0-5.0-1.74","FL","t8qovvqyjq","1536","864","0","1","0","5f89cbc45b38f5016101011c","","null","","","learningBlock1","","","","That was a tob.","null","","","","","",""
"html-keyboard-response","230","298569","0.0-5.0-2.74","FL","t8qovvqyjq","1536","864","0","1","0","5f89cbc45b38f5016101011c","","null","","","learningBlock1","","","","<div style=""font-size:60px;""> </div>","null","FL","learning/Slide75.JPG","That was a tob.","","",""
"image-keyboard-response","231","298746","0.0-5.0-0.75","FL","t8qovvqyjq","1536","864","0","1","0","5f89cbc45b38f5016101011c","","null","","","","","","","learning/Slide76.JPG","null","","","","","",""
"html-keyboard-response","232","299900","0.0-5.0-1.75","FL","t8qovvqyjq","1536","864","0","1","0","5f89cbc45b38f5016101011c","","null","","","learningBlock1","","","","That was a bim.","null","","","","","",""
"html-keyboard-response","233","300901","0.0-5.0-2.75","FL","t8qovvqyjq","1536","864","0","1","0","5f89cbc45b38f5016101011c","","null","","","learningBlock1","","","","<div style=""font-size:60px;""> </div>","null","FL","learning/Slide76.JPG","That was a bim.","","",""
"image-keyboard-response","234","301078","0.0-5.0-0.76","FL","t8qovvqyjq","1536","864","0","1","0","5f89cbc45b38f5016101011c","","null","","","","","","","learning/Slide77.JPG","null","","","","","",""
"html-keyboard-response","235","302229","0.0-5.0-1.76","FL","t8qovvqyjq","1536","864","0","1","0","5f89cbc45b38f5016101011c","","null","","","learningBlock1","","","","That was a tob.","null","","","","","",""
"html-keyboard-response","236","303231","0.0-5.0-2.76","FL","t8qovvqyjq","1536","864","0","1","0","5f89cbc45b38f5016101011c","","null","","","learningBlock1","","","","<div style=""font-size:60px;""> </div>","null","FL","learning/Slide77.JPG","That was a tob.","","",""
"image-keyboard-response","237","303409","0.0-5.0-0.77","FL","t8qovvqyjq","1536","864","0","1","0","5f89cbc45b38f5016101011c","","null","","","","","","","learning/Slide78.JPG","null","","","","","",""
"html-keyboard-response","238","304562","0.0-5.0-1.77","FL","t8qovvqyjq","1536","864","0","1","0","5f89cbc45b38f5016101011c","","null","","","learningBlock1","","","","That was a wug.","null","","","","","",""
"html-keyboard-response","239","305564","0.0-5.0-2.77","FL","t8qovvqyjq","1536","864","0","1","0","5f89cbc45b38f5016101011c","","null","","","learningBlock1","","","","<div style=""font-size:60px;""> </div>","null","FL","learning/Slide78.JPG","That was a wug.","","",""
"image-keyboard-response","240","305743","0.0-5.0-0.78","FL","t8qovvqyjq","1536","864","0","1","0","5f89cbc45b38f5016101011c","","null","","","","","","","learning/Slide79.JPG","null","","","","","",""
"html-keyboard-response","241","306895","0.0-5.0-1.78","FL","t8qovvqyjq","1536","864","0","1","0","5f89cbc45b38f5016101011c","","null","","","learningBlock1","","","","That was a bim.","null","","","","","",""
"html-keyboard-response","242","307897","0.0-5.0-2.78","FL","t8qovvqyjq","1536","864","0","1","0","5f89cbc45b38f5016101011c","","null","","","learningBlock1","","","","<div style=""font-size:60px;""> </div>","null","FL","learning/Slide79.JPG","That was a bim.","","",""
"image-keyboard-response","243","308072","0.0-5.0-0.79","FL","t8qovvqyjq","1536","864","0","1","0","5f89cbc45b38f5016101011c","","null","","","","","","","learning/Slide80.JPG","null","","","","","",""
"html-keyboard-response","244","309223","0.0-5.0-1.79","FL","t8qovvqyjq","1536","864","0","1","0","5f89cbc45b38f5016101011c","","null","","","learningBlock1","","","","That was a tob.","null","","","","","",""
"html-keyboard-response","245","310225","0.0-5.0-2.79","FL","t8qovvqyjq","1536","864","0","1","0","5f89cbc45b38f5016101011c","","null","","","learningBlock1","","","","<div style=""font-size:60px;""> </div>","null","FL","learning/Slide80.JPG","That was a tob.","","",""
"instructions","246","314859","0.0-6.0","FL","t8qovvqyjq","1536","864","0","1","0","5f89cbc45b38f5016101011c","","NA","","[{""page_index"":0,""viewing_time"":4632.909999999858}]","instructions","","","","","","","","","","",""
"image-keyboard-response","247","315038","0.0-7.0-0.0","FL","t8qovvqyjq","1536","864","0","1","0","5f89cbc45b38f5016101011c","","null","","","","","","","learning/Slide81.JPG","null","","","","","",""
"html-keyboard-response","248","316190","0.0-7.0-1.0","FL","t8qovvqyjq","1536","864","0","1","0","5f89cbc45b38f5016101011c","","null","","","learningBlock2","","","","That was a wug.","null","","","","","",""
"html-keyboard-response","249","317192","0.0-7.0-2.0","FL","t8qovvqyjq","1536","864","0","1","0","5f89cbc45b38f5016101011c","","null","","","learningBlock2","","","","<div style=""font-size:60px;""> </div>","null","FL","learning/Slide81.JPG","That was a wug.","","",""
"image-keyboard-response","250","317369","0.0-7.0-0.1","FL","t8qovvqyjq","1536","864","0","1","0","5f89cbc45b38f5016101011c","","null","","","","","","","learning/Slide82.JPG","null","","","","","",""
"html-keyboard-response","251","318522","0.0-7.0-1.1","FL","t8qovvqyjq","1536","864","0","1","0","5f89cbc45b38f5016101011c","","null","","","learningBlock2","","","","That was a bim.","null","","","","","",""
"html-keyboard-response","252","319524","0.0-7.0-2.1","FL","t8qovvqyjq","1536","864","0","1","0","5f89cbc45b38f5016101011c","","null","","","learningBlock2","","","","<div style=""font-size:60px;""> </div>","null","FL","learning/Slide82.JPG","That was a bim.","","",""
"image-keyboard-response","253","319702","0.0-7.0-0.2","FL","t8qovvqyjq","1536","864","0","1","0","5f89cbc45b38f5016101011c","","null","","","","","","","learning/Slide83.JPG","null","","","","","",""
"html-keyboard-response","254","320854","0.0-7.0-1.2","FL","t8qovvqyjq","1536","864","0","1","0","5f89cbc45b38f5016101011c","","null","","","learningBlock2","","","","That was a wug.","null","","","","","",""
"html-keyboard-response","255","321857","0.0-7.0-2.2","FL","t8qovvqyjq","1536","864","0","1","0","5f89cbc45b38f5016101011c","","null","","","learningBlock2","","","","<div style=""font-size:60px;""> </div>","null","FL","learning/Slide83.JPG","That was a wug.","","",""
"image-keyboard-response","256","322033","0.0-7.0-0.3","FL","t8qovvqyjq","1536","864","0","1","0","5f89cbc45b38f5016101011c","","null","","","","","","","learning/Slide84.JPG","null","","","","","",""
"html-keyboard-response","257","323186","0.0-7.0-1.3","FL","t8qovvqyjq","1536","864","0","1","0","5f89cbc45b38f5016101011c","","null","","","learningBlock2","","","","That was a dep.","null","","","","","",""
"html-keyboard-response","258","324188","0.0-7.0-2.3","FL","t8qovvqyjq","1536","864","0","1","0","5f89cbc45b38f5016101011c","","null","","","learningBlock2","","","","<div style=""font-size:60px;""> </div>","null","FL","learning/Slide84.JPG","That was a dep.","","",""
"image-keyboard-response","259","324366","0.0-7.0-0.4","FL","t8qovvqyjq","1536","864","0","1","0","5f89cbc45b38f5016101011c","","null","","","","","","","learning/Slide85.JPG","null","","","","","",""
"html-keyboard-response","260","325517","0.0-7.0-1.4","FL","t8qovvqyjq","1536","864","0","1","0","5f89cbc45b38f5016101011c","","null","","","learningBlock2","","","","That was a bim.","null","","","","","",""
"html-keyboard-response","261","326519","0.0-7.0-2.4","FL","t8qovvqyjq","1536","864","0","1","0","5f89cbc45b38f5016101011c","","null","","","learningBlock2","","","","<div style=""font-size:60px;""> </div>","null","FL","learning/Slide85.JPG","That was a bim.","","",""
"image-keyboard-response","262","326697","0.0-7.0-0.5","FL","t8qovvqyjq","1536","864","0","1","0","5f89cbc45b38f5016101011c","","null","","","","","","","learning/Slide86.JPG","null","","","","","",""
"html-keyboard-response","263","327850","0.0-7.0-1.5","FL","t8qovvqyjq","1536","864","0","1","0","5f89cbc45b38f5016101011c","","null","","","learningBlock2","","","","That was a tob.","null","","","","","",""
"html-keyboard-response","264","328852","0.0-7.0-2.5","FL","t8qovvqyjq","1536","864","0","1","0","5f89cbc45b38f5016101011c","","null","","","learningBlock2","","","","<div style=""font-size:60px;""> </div>","null","FL","learning/Slide86.JPG","That was a tob.","","",""
"image-keyboard-response","265","329034","0.0-7.0-0.6","FL","t8qovvqyjq","1536","864","0","1","0","5f89cbc45b38f5016101011c","","null","","","","","","","learning/Slide87.JPG","null","","","","","",""
"html-keyboard-response","266","330188","0.0-7.0-1.6","FL","t8qovvqyjq","1536","864","0","1","0","5f89cbc45b38f5016101011c","","null","","","learningBlock2","","","","That was a wug.","null","","","","","",""
"html-keyboard-response","267","331190","0.0-7.0-2.6","FL","t8qovvqyjq","1536","864","0","1","0","5f89cbc45b38f5016101011c","","null","","","learningBlock2","","","","<div style=""font-size:60px;""> </div>","null","FL","learning/Slide87.JPG","That was a wug.","","",""
"image-keyboard-response","268","331368","0.0-7.0-0.7","FL","t8qovvqyjq","1536","864","0","1","0","5f89cbc45b38f5016101011c","","null","","","","","","","learning/Slide88.JPG","null","","","","","",""
"html-keyboard-response","269","332521","0.0-7.0-1.7","FL","t8qovvqyjq","1536","864","0","1","0","5f89cbc45b38f5016101011c","","null","","","learningBlock2","","","","That was a tob.","null","","","","","",""
"html-keyboard-response","270","333522","0.0-7.0-2.7","FL","t8qovvqyjq","1536","864","0","1","0","5f89cbc45b38f5016101011c","","null","","","learningBlock2","","","","<div style=""font-size:60px;""> </div>","null","FL","learning/Slide88.JPG","That was a tob.","","",""
"image-keyboard-response","271","333699","0.0-7.0-0.8","FL","t8qovvqyjq","1536","864","0","1","0","5f89cbc45b38f5016101011c","","null","","","","","","","learning/Slide89.JPG","null","","","","","",""
"html-keyboard-response","272","334852","0.0-7.0-1.8","FL","t8qovvqyjq","1536","864","0","1","0","5f89cbc45b38f5016101011c","","null","","","learningBlock2","","","","That was a bim.","null","","","","","",""
"html-keyboard-response","273","335854","0.0-7.0-2.8","FL","t8qovvqyjq","1536","864","0","1","0","5f89cbc45b38f5016101011c","","null","","","learningBlock2","","","","<div style=""font-size:60px;""> </div>","null","FL","learning/Slide89.JPG","That was a bim.","","",""
"image-keyboard-response","274","336032","0.0-7.0-0.9","FL","t8qovvqyjq","1536","864","0","1","0","5f89cbc45b38f5016101011c","","null","","","","","","","learning/Slide90.JPG","null","","","","","",""
"html-keyboard-response","275","337184","0.0-7.0-1.9","FL","t8qovvqyjq","1536","864","0","1","0","5f89cbc45b38f5016101011c","","null","","","learningBlock2","","","","That was a dep.","null","","","","","",""
"html-keyboard-response","276","338186","0.0-7.0-2.9","FL","t8qovvqyjq","1536","864","0","1","0","5f89cbc45b38f5016101011c","","null","","","learningBlock2","","","","<div style=""font-size:60px;""> </div>","null","FL","learning/Slide90.JPG","That was a dep.","","",""
"image-keyboard-response","277","338364","0.0-7.0-0.10","FL","t8qovvqyjq","1536","864","0","1","0","5f89cbc45b38f5016101011c","","null","","","","","","","learning/Slide91.JPG","null","","","","","",""
"html-keyboard-response","278","339517","0.0-7.0-1.10","FL","t8qovvqyjq","1536","864","0","1","0","5f89cbc45b38f5016101011c","","null","","","learningBlock2","","","","That was a wug.","null","","","","","",""
"html-keyboard-response","279","340519","0.0-7.0-2.10","FL","t8qovvqyjq","1536","864","0","1","0","5f89cbc45b38f5016101011c","","null","","","learningBlock2","","","","<div style=""font-size:60px;""> </div>","null","FL","learning/Slide91.JPG","That was a wug.","","",""
"image-keyboard-response","280","340696","0.0-7.0-0.11","FL","t8qovvqyjq","1536","864","0","1","0","5f89cbc45b38f5016101011c","","null","","","","","","","learning/Slide92.JPG","null","","","","","",""
"html-keyboard-response","281","341849","0.0-7.0-1.11","FL","t8qovvqyjq","1536","864","0","1","0","5f89cbc45b38f5016101011c","","null","","","learningBlock2","","","","That was a tob.","null","","","","","",""
"html-keyboard-response","282","342851","0.0-7.0-2.11","FL","t8qovvqyjq","1536","864","0","1","0","5f89cbc45b38f5016101011c","","null","","","learningBlock2","","","","<div style=""font-size:60px;""> </div>","null","FL","learning/Slide92.JPG","That was a tob.","","",""
"image-keyboard-response","283","343027","0.0-7.0-0.12","FL","t8qovvqyjq","1536","864","0","1","0","5f89cbc45b38f5016101011c","","null","","","","","","","learning/Slide93.JPG","null","","","","","",""
"html-keyboard-response","284","344181","0.0-7.0-1.12","FL","t8qovvqyjq","1536","864","0","1","0","5f89cbc45b38f5016101011c","","null","","","learningBlock2","","","","That was a bim.","null","","","","","",""
"html-keyboard-response","285","345183","0.0-7.0-2.12","FL","t8qovvqyjq","1536","864","0","1","0","5f89cbc45b38f5016101011c","","null","","","learningBlock2","","","","<div style=""font-size:60px;""> </div>","null","FL","learning/Slide93.JPG","That was a bim.","","",""
"image-keyboard-response","286","345361","0.0-7.0-0.13","FL","t8qovvqyjq","1536","864","0","1","0","5f89cbc45b38f5016101011c","","null","","","","","","","learning/Slide94.JPG","null","","","","","",""
"html-keyboard-response","287","346514","0.0-7.0-1.13","FL","t8qovvqyjq","1536","864","0","1","0","5f89cbc45b38f5016101011c","","null","","","learningBlock2","","","","That was a tob.","null","","","","","",""
"html-keyboard-response","288","347515","0.0-7.0-2.13","FL","t8qovvqyjq","1536","864","0","1","0","5f89cbc45b38f5016101011c","","null","","","learningBlock2","","","","<div style=""font-size:60px;""> </div>","null","FL","learning/Slide94.JPG","That was a tob.","","",""
"image-keyboard-response","289","347692","0.0-7.0-0.14","FL","t8qovvqyjq","1536","864","0","1","0","5f89cbc45b38f5016101011c","","null","","","","","","","learning/Slide95.JPG","null","","","","","",""
"html-keyboard-response","290","348846","0.0-7.0-1.14","FL","t8qovvqyjq","1536","864","0","1","0","5f89cbc45b38f5016101011c","","null","","","learningBlock2","","","","That was a wug.","null","","","","","",""
"html-keyboard-response","291","349847","0.0-7.0-2.14","FL","t8qovvqyjq","1536","864","0","1","0","5f89cbc45b38f5016101011c","","null","","","learningBlock2","","","","<div style=""font-size:60px;""> </div>","null","FL","learning/Slide95.JPG","That was a wug.","","",""
"image-keyboard-response","292","350024","0.0-7.0-0.15","FL","t8qovvqyjq","1536","864","0","1","0","5f89cbc45b38f5016101011c","","null","","","","","","","learning/Slide96.JPG","null","","","","","",""
"html-keyboard-response","293","351177","0.0-7.0-1.15","FL","t8qovvqyjq","1536","864","0","1","0","5f89cbc45b38f5016101011c","","null","","","learningBlock2","","","","That was a tob.","null","","","","","",""
"html-keyboard-response","294","352179","0.0-7.0-2.15","FL","t8qovvqyjq","1536","864","0","1","0","5f89cbc45b38f5016101011c","","null","","","learningBlock2","","","","<div style=""font-size:60px;""> </div>","null","FL","learning/Slide96.JPG","That was a tob.","","",""
"image-keyboard-response","295","352357","0.0-7.0-0.16","FL","t8qovvqyjq","1536","864","0","1","0","5f89cbc45b38f5016101011c","","null","","","","","","","learning/Slide97.JPG","null","","","","","",""
"html-keyboard-response","296","353510","0.0-7.0-1.16","FL","t8qovvqyjq","1536","864","0","1","0","5f89cbc45b38f5016101011c","","null","","","learningBlock2","","","","That was a dep.","null","","","","","",""
"html-keyboard-response","297","354513","0.0-7.0-2.16","FL","t8qovvqyjq","1536","864","0","1","0","5f89cbc45b38f5016101011c","","null","","","learningBlock2","","","","<div style=""font-size:60px;""> </div>","null","FL","learning/Slide97.JPG","That was a dep.","","",""
"image-keyboard-response","298","354691","0.0-7.0-0.17","FL","t8qovvqyjq","1536","864","0","1","0","5f89cbc45b38f5016101011c","","null","","","","","","","learning/Slide98.JPG","null","","","","","",""
"html-keyboard-response","299","355845","0.0-7.0-1.17","FL","t8qovvqyjq","1536","864","0","1","0","5f89cbc45b38f5016101011c","","null","","","learningBlock2","","","","That was a bim.","null","","","","","",""
"html-keyboard-response","300","356848","0.0-7.0-2.17","FL","t8qovvqyjq","1536","864","0","1","0","5f89cbc45b38f5016101011c","","null","","","learningBlock2","","","","<div style=""font-size:60px;""> </div>","null","FL","learning/Slide98.JPG","That was a bim.","","",""
"image-keyboard-response","301","357025","0.0-7.0-0.18","FL","t8qovvqyjq","1536","864","0","1","0","5f89cbc45b38f5016101011c","","null","","","","","","","learning/Slide99.JPG","null","","","","","",""
"html-keyboard-response","302","358177","0.0-7.0-1.18","FL","t8qovvqyjq","1536","864","0","1","0","5f89cbc45b38f5016101011c","","null","","","learningBlock2","","","","That was a dep.","null","","","","","",""
"html-keyboard-response","303","359179","0.0-7.0-2.18","FL","t8qovvqyjq","1536","864","0","1","0","5f89cbc45b38f5016101011c","","null","","","learningBlock2","","","","<div style=""font-size:60px;""> </div>","null","FL","learning/Slide99.JPG","That was a dep.","","",""
"image-keyboard-response","304","359357","0.0-7.0-0.19","FL","t8qovvqyjq","1536","864","0","1","0","5f89cbc45b38f5016101011c","","null","","","","","","","learning/Slide100.JPG","null","","","","","",""
"html-keyboard-response","305","360509","0.0-7.0-1.19","FL","t8qovvqyjq","1536","864","0","1","0","5f89cbc45b38f5016101011c","","null","","","learningBlock2","","","","That was a bim.","null","","","","","",""
"html-keyboard-response","306","361511","0.0-7.0-2.19","FL","t8qovvqyjq","1536","864","0","1","0","5f89cbc45b38f5016101011c","","null","","","learningBlock2","","","","<div style=""font-size:60px;""> </div>","null","FL","learning/Slide100.JPG","That was a bim.","","",""
"image-keyboard-response","307","361688","0.0-7.0-0.20","FL","t8qovvqyjq","1536","864","0","1","0","5f89cbc45b38f5016101011c","","null","","","","","","","learning/Slide101.JPG","null","","","","","",""
"html-keyboard-response","308","362841","0.0-7.0-1.20","FL","t8qovvqyjq","1536","864","0","1","0","5f89cbc45b38f5016101011c","","null","","","learningBlock2","","","","That was a tob.","null","","","","","",""
"html-keyboard-response","309","363844","0.0-7.0-2.20","FL","t8qovvqyjq","1536","864","0","1","0","5f89cbc45b38f5016101011c","","null","","","learningBlock2","","","","<div style=""font-size:60px;""> </div>","null","FL","learning/Slide101.JPG","That was a tob.","","",""
"image-keyboard-response","310","364022","0.0-7.0-0.21","FL","t8qovvqyjq","1536","864","0","1","0","5f89cbc45b38f5016101011c","","null","","","","","","","learning/Slide102.JPG","null","","","","","",""
"html-keyboard-response","311","365174","0.0-7.0-1.21","FL","t8qovvqyjq","1536","864","0","1","0","5f89cbc45b38f5016101011c","","null","","","learningBlock2","","","","That was a bim.","null","","","","","",""
"html-keyboard-response","312","366177","0.0-7.0-2.21","FL","t8qovvqyjq","1536","864","0","1","0","5f89cbc45b38f5016101011c","","null","","","learningBlock2","","","","<div style=""font-size:60px;""> </div>","null","FL","learning/Slide102.JPG","That was a bim.","","",""
"image-keyboard-response","313","366354","0.0-7.0-0.22","FL","t8qovvqyjq","1536","864","0","1","0","5f89cbc45b38f5016101011c","","null","","","","","","","learning/Slide103.JPG","null","","","","","",""
"html-keyboard-response","314","367507","0.0-7.0-1.22","FL","t8qovvqyjq","1536","864","0","1","0","5f89cbc45b38f5016101011c","","null","","","learningBlock2","","","","That was a dep.","null","","","","","",""
"html-keyboard-response","315","368509","0.0-7.0-2.22","FL","t8qovvqyjq","1536","864","0","1","0","5f89cbc45b38f5016101011c","","null","","","learningBlock2","","","","<div style=""font-size:60px;""> </div>","null","FL","learning/Slide103.JPG","That was a dep.","","",""
"image-keyboard-response","316","368686","0.0-7.0-0.23","FL","t8qovvqyjq","1536","864","0","1","0","5f89cbc45b38f5016101011c","","null","","","","","","","learning/Slide104.JPG","null","","","","","",""
"html-keyboard-response","317","369839","0.0-7.0-1.23","FL","t8qovvqyjq","1536","864","0","1","0","5f89cbc45b38f5016101011c","","null","","","learningBlock2","","","","That was a tob.","null","","","","","",""
"html-keyboard-response","318","370841","0.0-7.0-2.23","FL","t8qovvqyjq","1536","864","0","1","0","5f89cbc45b38f5016101011c","","null","","","learningBlock2","","","","<div style=""font-size:60px;""> </div>","null","FL","learning/Slide104.JPG","That was a tob.","","",""
"image-keyboard-response","319","371018","0.0-7.0-0.24","FL","t8qovvqyjq","1536","864","0","1","0","5f89cbc45b38f5016101011c","","null","","","","","","","learning/Slide105.JPG","null","","","","","",""
"html-keyboard-response","320","372171","0.0-7.0-1.24","FL","t8qovvqyjq","1536","864","0","1","0","5f89cbc45b38f5016101011c","","null","","","learningBlock2","","","","That was a dep.","null","","","","","",""
"html-keyboard-response","321","373172","0.0-7.0-2.24","FL","t8qovvqyjq","1536","864","0","1","0","5f89cbc45b38f5016101011c","","null","","","learningBlock2","","","","<div style=""font-size:60px;""> </div>","null","FL","learning/Slide105.JPG","That was a dep.","","",""
"image-keyboard-response","322","373350","0.0-7.0-0.25","FL","t8qovvqyjq","1536","864","0","1","0","5f89cbc45b38f5016101011c","","null","","","","","","","learning/Slide106.JPG","null","","","","","",""
"html-keyboard-response","323","374504","0.0-7.0-1.25","FL","t8qovvqyjq","1536","864","0","1","0","5f89cbc45b38f5016101011c","","null","","","learningBlock2","","","","That was a wug.","null","","","","","",""
"html-keyboard-response","324","375506","0.0-7.0-2.25","FL","t8qovvqyjq","1536","864","0","1","0","5f89cbc45b38f5016101011c","","null","","","learningBlock2","","","","<div style=""font-size:60px;""> </div>","null","FL","learning/Slide106.JPG","That was a wug.","","",""
"image-keyboard-response","325","375684","0.0-7.0-0.26","FL","t8qovvqyjq","1536","864","0","1","0","5f89cbc45b38f5016101011c","","null","","","","","","","learning/Slide107.JPG","null","","","","","",""
"html-keyboard-response","326","376837","0.0-7.0-1.26","FL","t8qovvqyjq","1536","864","0","1","0","5f89cbc45b38f5016101011c","","null","","","learningBlock2","","","","That was a bim.","null","","","","","",""
"html-keyboard-response","327","377839","0.0-7.0-2.26","FL","t8qovvqyjq","1536","864","0","1","0","5f89cbc45b38f5016101011c","","null","","","learningBlock2","","","","<div style=""font-size:60px;""> </div>","null","FL","learning/Slide107.JPG","That was a bim.","","",""
"image-keyboard-response","328","378017","0.0-7.0-0.27","FL","t8qovvqyjq","1536","864","0","1","0","5f89cbc45b38f5016101011c","","null","","","","","","","learning/Slide108.JPG","null","","","","","",""
"html-keyboard-response","329","379171","0.0-7.0-1.27","FL","t8qovvqyjq","1536","864","0","1","0","5f89cbc45b38f5016101011c","","null","","","learningBlock2","","","","That was a dep.","null","","","","","",""
"html-keyboard-response","330","380172","0.0-7.0-2.27","FL","t8qovvqyjq","1536","864","0","1","0","5f89cbc45b38f5016101011c","","null","","","learningBlock2","","","","<div style=""font-size:60px;""> </div>","null","FL","learning/Slide108.JPG","That was a dep.","","",""
"image-keyboard-response","331","380350","0.0-7.0-0.28","FL","t8qovvqyjq","1536","864","0","1","0","5f89cbc45b38f5016101011c","","null","","","","","","","learning/Slide109.JPG","null","","","","","",""
"html-keyboard-response","332","381503","0.0-7.0-1.28","FL","t8qovvqyjq","1536","864","0","1","0","5f89cbc45b38f5016101011c","","null","","","learningBlock2","","","","That was a wug.","null","","","","","",""
"html-keyboard-response","333","382503","0.0-7.0-2.28","FL","t8qovvqyjq","1536","864","0","1","0","5f89cbc45b38f5016101011c","","null","","","learningBlock2","","","","<div style=""font-size:60px;""> </div>","null","FL","learning/Slide109.JPG","That was a wug.","","",""
"image-keyboard-response","334","382680","0.0-7.0-0.29","FL","t8qovvqyjq","1536","864","0","1","0","5f89cbc45b38f5016101011c","","null","","","","","","","learning/Slide110.JPG","null","","","","","",""
"html-keyboard-response","335","383831","0.0-7.0-1.29","FL","t8qovvqyjq","1536","864","0","1","0","5f89cbc45b38f5016101011c","","null","","","learningBlock2","","","","That was a bim.","null","","","","","",""
"html-keyboard-response","336","384831","0.0-7.0-2.29","FL","t8qovvqyjq","1536","864","0","1","0","5f89cbc45b38f5016101011c","","null","","","learningBlock2","","","","<div style=""font-size:60px;""> </div>","null","FL","learning/Slide110.JPG","That was a bim.","","",""
"image-keyboard-response","337","385008","0.0-7.0-0.30","FL","t8qovvqyjq","1536","864","0","1","0","5f89cbc45b38f5016101011c","","null","","","","","","","learning/Slide111.JPG","null","","","","","",""
"html-keyboard-response","338","386159","0.0-7.0-1.30","FL","t8qovvqyjq","1536","864","0","1","0","5f89cbc45b38f5016101011c","","null","","","learningBlock2","","","","That was a tob.","null","","","","","",""
"html-keyboard-response","339","387161","0.0-7.0-2.30","FL","t8qovvqyjq","1536","864","0","1","0","5f89cbc45b38f5016101011c","","null","","","learningBlock2","","","","<div style=""font-size:60px;""> </div>","null","FL","learning/Slide111.JPG","That was a tob.","","",""
"image-keyboard-response","340","387337","0.0-7.0-0.31","FL","t8qovvqyjq","1536","864","0","1","0","5f89cbc45b38f5016101011c","","null","","","","","","","learning/Slide112.JPG","null","","","","","",""
"html-keyboard-response","341","388489","0.0-7.0-1.31","FL","t8qovvqyjq","1536","864","0","1","0","5f89cbc45b38f5016101011c","","null","","","learningBlock2","","","","That was a wug.","null","","","","","",""
"html-keyboard-response","342","389491","0.0-7.0-2.31","FL","t8qovvqyjq","1536","864","0","1","0","5f89cbc45b38f5016101011c","","null","","","learningBlock2","","","","<div style=""font-size:60px;""> </div>","null","FL","learning/Slide112.JPG","That was a wug.","","",""
"image-keyboard-response","343","389668","0.0-7.0-0.32","FL","t8qovvqyjq","1536","864","0","1","0","5f89cbc45b38f5016101011c","","null","","","","","","","learning/Slide113.JPG","null","","","","","",""
"html-keyboard-response","344","390820","0.0-7.0-1.32","FL","t8qovvqyjq","1536","864","0","1","0","5f89cbc45b38f5016101011c","","null","","","learningBlock2","","","","That was a tob.","null","","","","","",""
"html-keyboard-response","345","391822","0.0-7.0-2.32","FL","t8qovvqyjq","1536","864","0","1","0","5f89cbc45b38f5016101011c","","null","","","learningBlock2","","","","<div style=""font-size:60px;""> </div>","null","FL","learning/Slide113.JPG","That was a tob.","","",""
"image-keyboard-response","346","391999","0.0-7.0-0.33","FL","t8qovvqyjq","1536","864","0","1","0","5f89cbc45b38f5016101011c","","null","","","","","","","learning/Slide114.JPG","null","","","","","",""
"html-keyboard-response","347","393153","0.0-7.0-1.33","FL","t8qovvqyjq","1536","864","0","1","0","5f89cbc45b38f5016101011c","","null","","","learningBlock2","","","","That was a wug.","null","","","","","",""
"html-keyboard-response","348","394155","0.0-7.0-2.33","FL","t8qovvqyjq","1536","864","0","1","0","5f89cbc45b38f5016101011c","","null","","","learningBlock2","","","","<div style=""font-size:60px;""> </div>","null","FL","learning/Slide114.JPG","That was a wug.","","",""
"image-keyboard-response","349","394333","0.0-7.0-0.34","FL","t8qovvqyjq","1536","864","0","1","0","5f89cbc45b38f5016101011c","","null","","","","","","","learning/Slide115.JPG","null","","","","","",""
"html-keyboard-response","350","395486","0.0-7.0-1.34","FL","t8qovvqyjq","1536","864","0","1","0","5f89cbc45b38f5016101011c","","null","","","learningBlock2","","","","That was a bim.","null","","","","","",""
"html-keyboard-response","351","396487","0.0-7.0-2.34","FL","t8qovvqyjq","1536","864","0","1","0","5f89cbc45b38f5016101011c","","null","","","learningBlock2","","","","<div style=""font-size:60px;""> </div>","null","FL","learning/Slide115.JPG","That was a bim.","","",""
"image-keyboard-response","352","396664","0.0-7.0-0.35","FL","t8qovvqyjq","1536","864","0","1","0","5f89cbc45b38f5016101011c","","null","","","","","","","learning/Slide116.JPG","null","","","","","",""
"html-keyboard-response","353","397815","0.0-7.0-1.35","FL","t8qovvqyjq","1536","864","0","1","0","5f89cbc45b38f5016101011c","","null","","","learningBlock2","","","","That was a dep.","null","","","","","",""
"html-keyboard-response","354","398817","0.0-7.0-2.35","FL","t8qovvqyjq","1536","864","0","1","0","5f89cbc45b38f5016101011c","","null","","","learningBlock2","","","","<div style=""font-size:60px;""> </div>","null","FL","learning/Slide116.JPG","That was a dep.","","",""
"image-keyboard-response","355","398993","0.0-7.0-0.36","FL","t8qovvqyjq","1536","864","0","1","0","5f89cbc45b38f5016101011c","","null","","","","","","","learning/Slide117.JPG","null","","","","","",""
"html-keyboard-response","356","400144","0.0-7.0-1.36","FL","t8qovvqyjq","1536","864","0","1","0","5f89cbc45b38f5016101011c","","null","","","learningBlock2","","","","That was a tob.","null","","","","","",""
"html-keyboard-response","357","401145","0.0-7.0-2.36","FL","t8qovvqyjq","1536","864","0","1","0","5f89cbc45b38f5016101011c","","null","","","learningBlock2","","","","<div style=""font-size:60px;""> </div>","null","FL","learning/Slide117.JPG","That was a tob.","","",""
"image-keyboard-response","358","401322","0.0-7.0-0.37","FL","t8qovvqyjq","1536","864","0","1","0","5f89cbc45b38f5016101011c","","null","","","","","","","learning/Slide118.JPG","null","","","","","",""
"html-keyboard-response","359","402473","0.0-7.0-1.37","FL","t8qovvqyjq","1536","864","0","1","0","5f89cbc45b38f5016101011c","","null","","","learningBlock2","","","","That was a dep.","null","","","","","",""
"html-keyboard-response","360","403474","0.0-7.0-2.37","FL","t8qovvqyjq","1536","864","0","1","0","5f89cbc45b38f5016101011c","","null","","","learningBlock2","","","","<div style=""font-size:60px;""> </div>","null","FL","learning/Slide118.JPG","That was a dep.","","",""
"image-keyboard-response","361","403650","0.0-7.0-0.38","FL","t8qovvqyjq","1536","864","0","1","0","5f89cbc45b38f5016101011c","","null","","","","","","","learning/Slide119.JPG","null","","","","","",""
"html-keyboard-response","362","404802","0.0-7.0-1.38","FL","t8qovvqyjq","1536","864","0","1","0","5f89cbc45b38f5016101011c","","null","","","learningBlock2","","","","That was a wug.","null","","","","","",""
"html-keyboard-response","363","405804","0.0-7.0-2.38","FL","t8qovvqyjq","1536","864","0","1","0","5f89cbc45b38f5016101011c","","null","","","learningBlock2","","","","<div style=""font-size:60px;""> </div>","null","FL","learning/Slide119.JPG","That was a wug.","","",""
"image-keyboard-response","364","405981","0.0-7.0-0.39","FL","t8qovvqyjq","1536","864","0","1","0","5f89cbc45b38f5016101011c","","null","","","","","","","learning/Slide120.JPG","null","","","","","",""
"html-keyboard-response","365","407132","0.0-7.0-1.39","FL","t8qovvqyjq","1536","864","0","1","0","5f89cbc45b38f5016101011c","","null","","","learningBlock2","","","","That was a dep.","null","","","","","",""
"html-keyboard-response","366","408133","0.0-7.0-2.39","FL","t8qovvqyjq","1536","864","0","1","0","5f89cbc45b38f5016101011c","","null","","","learningBlock2","","","","<div style=""font-size:60px;""> </div>","null","FL","learning/Slide120.JPG","That was a dep.","","",""
"image-keyboard-response","367","408310","0.0-7.0-0.40","FL","t8qovvqyjq","1536","864","0","1","0","5f89cbc45b38f5016101011c","","null","","","","","","","learning/Slide121.JPG","null","","","","","",""
"html-keyboard-response","368","409461","0.0-7.0-1.40","FL","t8qovvqyjq","1536","864","0","1","0","5f89cbc45b38f5016101011c","","null","","","learningBlock2","","","","That was a bim.","null","","","","","",""
"html-keyboard-response","369","410462","0.0-7.0-2.40","FL","t8qovvqyjq","1536","864","0","1","0","5f89cbc45b38f5016101011c","","null","","","learningBlock2","","","","<div style=""font-size:60px;""> </div>","null","FL","learning/Slide121.JPG","That was a bim.","","",""
"image-keyboard-response","370","410638","0.0-7.0-0.41","FL","t8qovvqyjq","1536","864","0","1","0","5f89cbc45b38f5016101011c","","null","","","","","","","learning/Slide122.JPG","null","","","","","",""
"html-keyboard-response","371","411790","0.0-7.0-1.41","FL","t8qovvqyjq","1536","864","0","1","0","5f89cbc45b38f5016101011c","","null","","","learningBlock2","","","","That was a wug.","null","","","","","",""
"html-keyboard-response","372","412792","0.0-7.0-2.41","FL","t8qovvqyjq","1536","864","0","1","0","5f89cbc45b38f5016101011c","","null","","","learningBlock2","","","","<div style=""font-size:60px;""> </div>","null","FL","learning/Slide122.JPG","That was a wug.","","",""
"image-keyboard-response","373","412969","0.0-7.0-0.42","FL","t8qovvqyjq","1536","864","0","1","0","5f89cbc45b38f5016101011c","","null","","","","","","","learning/Slide123.JPG","null","","","","","",""
"html-keyboard-response","374","414122","0.0-7.0-1.42","FL","t8qovvqyjq","1536","864","0","1","0","5f89cbc45b38f5016101011c","","null","","","learningBlock2","","","","That was a bim.","null","","","","","",""
"html-keyboard-response","375","415123","0.0-7.0-2.42","FL","t8qovvqyjq","1536","864","0","1","0","5f89cbc45b38f5016101011c","","null","","","learningBlock2","","","","<div style=""font-size:60px;""> </div>","null","FL","learning/Slide123.JPG","That was a bim.","","",""
"image-keyboard-response","376","415300","0.0-7.0-0.43","FL","t8qovvqyjq","1536","864","0","1","0","5f89cbc45b38f5016101011c","","null","","","","","","","learning/Slide124.JPG","null","","","","","",""
"html-keyboard-response","377","416450","0.0-7.0-1.43","FL","t8qovvqyjq","1536","864","0","1","0","5f89cbc45b38f5016101011c","","null","","","learningBlock2","","","","That was a tob.","null","","","","","",""
"html-keyboard-response","378","417451","0.0-7.0-2.43","FL","t8qovvqyjq","1536","864","0","1","0","5f89cbc45b38f5016101011c","","null","","","learningBlock2","","","","<div style=""font-size:60px;""> </div>","null","FL","learning/Slide124.JPG","That was a tob.","","",""
"image-keyboard-response","379","417627","0.0-7.0-0.44","FL","t8qovvqyjq","1536","864","0","1","0","5f89cbc45b38f5016101011c","","null","","","","","","","learning/Slide125.JPG","null","","","","","",""
"html-keyboard-response","380","418777","0.0-7.0-1.44","FL","t8qovvqyjq","1536","864","0","1","0","5f89cbc45b38f5016101011c","","null","","","learningBlock2","","","","That was a bim.","null","","","","","",""
"html-keyboard-response","381","419780","0.0-7.0-2.44","FL","t8qovvqyjq","1536","864","0","1","0","5f89cbc45b38f5016101011c","","null","","","learningBlock2","","","","<div style=""font-size:60px;""> </div>","null","FL","learning/Slide125.JPG","That was a bim.","","",""
"image-keyboard-response","382","419956","0.0-7.0-0.45","FL","t8qovvqyjq","1536","864","0","1","0","5f89cbc45b38f5016101011c","","null","","","","","","","learning/Slide126.JPG","null","","","","","",""
"html-keyboard-response","383","421109","0.0-7.0-1.45","FL","t8qovvqyjq","1536","864","0","1","0","5f89cbc45b38f5016101011c","","null","","","learningBlock2","","","","That was a tob.","null","","","","","",""
"html-keyboard-response","384","422110","0.0-7.0-2.45","FL","t8qovvqyjq","1536","864","0","1","0","5f89cbc45b38f5016101011c","","null","","","learningBlock2","","","","<div style=""font-size:60px;""> </div>","null","FL","learning/Slide126.JPG","That was a tob.","","",""
"image-keyboard-response","385","422286","0.0-7.0-0.46","FL","t8qovvqyjq","1536","864","0","1","0","5f89cbc45b38f5016101011c","","null","","","","","","","learning/Slide127.JPG","null","","","","","",""
"html-keyboard-response","386","423438","0.0-7.0-1.46","FL","t8qovvqyjq","1536","864","0","1","0","5f89cbc45b38f5016101011c","","null","","","learningBlock2","","","","That was a dep.","null","","","","","",""
"html-keyboard-response","387","424441","0.0-7.0-2.46","FL","t8qovvqyjq","1536","864","0","1","0","5f89cbc45b38f5016101011c","","null","","","learningBlock2","","","","<div style=""font-size:60px;""> </div>","null","FL","learning/Slide127.JPG","That was a dep.","","",""
"image-keyboard-response","388","424620","0.0-7.0-0.47","FL","t8qovvqyjq","1536","864","0","1","0","5f89cbc45b38f5016101011c","","null","","","","","","","learning/Slide128.JPG","null","","","","","",""
"html-keyboard-response","389","425773","0.0-7.0-1.47","FL","t8qovvqyjq","1536","864","0","1","0","5f89cbc45b38f5016101011c","","null","","","learningBlock2","","","","That was a wug.","null","","","","","",""
"html-keyboard-response","390","426774","0.0-7.0-2.47","FL","t8qovvqyjq","1536","864","0","1","0","5f89cbc45b38f5016101011c","","null","","","learningBlock2","","","","<div style=""font-size:60px;""> </div>","null","FL","learning/Slide128.JPG","That was a wug.","","",""
"image-keyboard-response","391","426951","0.0-7.0-0.48","FL","t8qovvqyjq","1536","864","0","1","0","5f89cbc45b38f5016101011c","","null","","","","","","","learning/Slide129.JPG","null","","","","","",""
"html-keyboard-response","392","428103","0.0-7.0-1.48","FL","t8qovvqyjq","1536","864","0","1","0","5f89cbc45b38f5016101011c","","null","","","learningBlock2","","","","That was a tob.","null","","","","","",""
"html-keyboard-response","393","429104","0.0-7.0-2.48","FL","t8qovvqyjq","1536","864","0","1","0","5f89cbc45b38f5016101011c","","null","","","learningBlock2","","","","<div style=""font-size:60px;""> </div>","null","FL","learning/Slide129.JPG","That was a tob.","","",""
"image-keyboard-response","394","429281","0.0-7.0-0.49","FL","t8qovvqyjq","1536","864","0","1","0","5f89cbc45b38f5016101011c","","null","","","","","","","learning/Slide130.JPG","null","","","","","",""
"html-keyboard-response","395","430434","0.0-7.0-1.49","FL","t8qovvqyjq","1536","864","0","1","0","5f89cbc45b38f5016101011c","","null","","","learningBlock2","","","","That was a wug.","null","","","","","",""
"html-keyboard-response","396","431435","0.0-7.0-2.49","FL","t8qovvqyjq","1536","864","0","1","0","5f89cbc45b38f5016101011c","","null","","","learningBlock2","","","","<div style=""font-size:60px;""> </div>","null","FL","learning/Slide130.JPG","That was a wug.","","",""
"image-keyboard-response","397","431612","0.0-7.0-0.50","FL","t8qovvqyjq","1536","864","0","1","0","5f89cbc45b38f5016101011c","","null","","","","","","","learning/Slide131.JPG","null","","","","","",""
"html-keyboard-response","398","432766","0.0-7.0-1.50","FL","t8qovvqyjq","1536","864","0","1","0","5f89cbc45b38f5016101011c","","null","","","learningBlock2","","","","That was a bim.","null","","","","","",""
"html-keyboard-response","399","433767","0.0-7.0-2.50","FL","t8qovvqyjq","1536","864","0","1","0","5f89cbc45b38f5016101011c","","null","","","learningBlock2","","","","<div style=""font-size:60px;""> </div>","null","FL","learning/Slide131.JPG","That was a bim.","","",""
"image-keyboard-response","400","433945","0.0-7.0-0.51","FL","t8qovvqyjq","1536","864","0","1","0","5f89cbc45b38f5016101011c","","null","","","","","","","learning/Slide132.JPG","null","","","","","",""
"html-keyboard-response","401","435098","0.0-7.0-1.51","FL","t8qovvqyjq","1536","864","0","1","0","5f89cbc45b38f5016101011c","","null","","","learningBlock2","","","","That was a dep.","null","","","","","",""
"html-keyboard-response","402","436099","0.0-7.0-2.51","FL","t8qovvqyjq","1536","864","0","1","0","5f89cbc45b38f5016101011c","","null","","","learningBlock2","","","","<div style=""font-size:60px;""> </div>","null","FL","learning/Slide132.JPG","That was a dep.","","",""
"image-keyboard-response","403","436276","0.0-7.0-0.52","FL","t8qovvqyjq","1536","864","0","1","0","5f89cbc45b38f5016101011c","","null","","","","","","","learning/Slide133.JPG","null","","","","","",""
"html-keyboard-response","404","437434","0.0-7.0-1.52","FL","t8qovvqyjq","1536","864","0","1","0","5f89cbc45b38f5016101011c","","null","","","learningBlock2","","","","That was a tob.","null","","","","","",""
"html-keyboard-response","405","438436","0.0-7.0-2.52","FL","t8qovvqyjq","1536","864","0","1","0","5f89cbc45b38f5016101011c","","null","","","learningBlock2","","","","<div style=""font-size:60px;""> </div>","null","FL","learning/Slide133.JPG","That was a tob.","","",""
"image-keyboard-response","406","438614","0.0-7.0-0.53","FL","t8qovvqyjq","1536","864","0","1","0","5f89cbc45b38f5016101011c","","null","","","","","","","learning/Slide134.JPG","null","","","","","",""
"html-keyboard-response","407","439766","0.0-7.0-1.53","FL","t8qovvqyjq","1536","864","0","1","0","5f89cbc45b38f5016101011c","","null","","","learningBlock2","","","","That was a dep.","null","","","","","",""
"html-keyboard-response","408","440767","0.0-7.0-2.53","FL","t8qovvqyjq","1536","864","0","1","0","5f89cbc45b38f5016101011c","","null","","","learningBlock2","","","","<div style=""font-size:60px;""> </div>","null","FL","learning/Slide134.JPG","That was a dep.","","",""
"image-keyboard-response","409","440945","0.0-7.0-0.54","FL","t8qovvqyjq","1536","864","0","1","0","5f89cbc45b38f5016101011c","","null","","","","","","","learning/Slide135.JPG","null","","","","","",""
"html-keyboard-response","410","442098","0.0-7.0-1.54","FL","t8qovvqyjq","1536","864","0","1","0","5f89cbc45b38f5016101011c","","null","","","learningBlock2","","","","That was a tob.","null","","","","","",""
"html-keyboard-response","411","443100","0.0-7.0-2.54","FL","t8qovvqyjq","1536","864","0","1","0","5f89cbc45b38f5016101011c","","null","","","learningBlock2","","","","<div style=""font-size:60px;""> </div>","null","FL","learning/Slide135.JPG","That was a tob.","","",""
"image-keyboard-response","412","443276","0.0-7.0-0.55","FL","t8qovvqyjq","1536","864","0","1","0","5f89cbc45b38f5016101011c","","null","","","","","","","learning/Slide136.JPG","null","","","","","",""
"html-keyboard-response","413","444429","0.0-7.0-1.55","FL","t8qovvqyjq","1536","864","0","1","0","5f89cbc45b38f5016101011c","","null","","","learningBlock2","","","","That was a wug.","null","","","","","",""
"html-keyboard-response","414","445433","0.0-7.0-2.55","FL","t8qovvqyjq","1536","864","0","1","0","5f89cbc45b38f5016101011c","","null","","","learningBlock2","","","","<div style=""font-size:60px;""> </div>","null","FL","learning/Slide136.JPG","That was a wug.","","",""
"image-keyboard-response","415","445611","0.0-7.0-0.56","FL","t8qovvqyjq","1536","864","0","1","0","5f89cbc45b38f5016101011c","","null","","","","","","","learning/Slide137.JPG","null","","","","","",""
"html-keyboard-response","416","446764","0.0-7.0-1.56","FL","t8qovvqyjq","1536","864","0","1","0","5f89cbc45b38f5016101011c","","null","","","learningBlock2","","","","That was a tob.","null","","","","","",""
"html-keyboard-response","417","447765","0.0-7.0-2.56","FL","t8qovvqyjq","1536","864","0","1","0","5f89cbc45b38f5016101011c","","null","","","learningBlock2","","","","<div style=""font-size:60px;""> </div>","null","FL","learning/Slide137.JPG","That was a tob.","","",""
"image-keyboard-response","418","447942","0.0-7.0-0.57","FL","t8qovvqyjq","1536","864","0","1","0","5f89cbc45b38f5016101011c","","null","","","","","","","learning/Slide138.JPG","null","","","","","",""
"html-keyboard-response","419","449096","0.0-7.0-1.57","FL","t8qovvqyjq","1536","864","0","1","0","5f89cbc45b38f5016101011c","","null","","","learningBlock2","","","","That was a bim.","null","","","","","",""
"html-keyboard-response","420","450098","0.0-7.0-2.57","FL","t8qovvqyjq","1536","864","0","1","0","5f89cbc45b38f5016101011c","","null","","","learningBlock2","","","","<div style=""font-size:60px;""> </div>","null","FL","learning/Slide138.JPG","That was a bim.","","",""
"image-keyboard-response","421","450275","0.0-7.0-0.58","FL","t8qovvqyjq","1536","864","0","1","0","5f89cbc45b38f5016101011c","","null","","","","","","","learning/Slide139.JPG","null","","","","","",""
"html-keyboard-response","422","451428","0.0-7.0-1.58","FL","t8qovvqyjq","1536","864","0","1","0","5f89cbc45b38f5016101011c","","null","","","learningBlock2","","","","That was a wug.","null","","","","","",""
"html-keyboard-response","423","452430","0.0-7.0-2.58","FL","t8qovvqyjq","1536","864","0","1","0","5f89cbc45b38f5016101011c","","null","","","learningBlock2","","","","<div style=""font-size:60px;""> </div>","null","FL","learning/Slide139.JPG","That was a wug.","","",""
"image-keyboard-response","424","452608","0.0-7.0-0.59","FL","t8qovvqyjq","1536","864","0","1","0","5f89cbc45b38f5016101011c","","null","","","","","","","learning/Slide140.JPG","null","","","","","",""
"html-keyboard-response","425","453761","0.0-7.0-1.59","FL","t8qovvqyjq","1536","864","0","1","0","5f89cbc45b38f5016101011c","","null","","","learningBlock2","","","","That was a dep.","null","","","","","",""
"html-keyboard-response","426","454763","0.0-7.0-2.59","FL","t8qovvqyjq","1536","864","0","1","0","5f89cbc45b38f5016101011c","","null","","","learningBlock2","","","","<div style=""font-size:60px;""> </div>","null","FL","learning/Slide140.JPG","That was a dep.","","",""
"image-keyboard-response","427","454940","0.0-7.0-0.60","FL","t8qovvqyjq","1536","864","0","1","0","5f89cbc45b38f5016101011c","","null","","","","","","","learning/Slide141.JPG","null","","","","","",""
"html-keyboard-response","428","456094","0.0-7.0-1.60","FL","t8qovvqyjq","1536","864","0","1","0","5f89cbc45b38f5016101011c","","null","","","learningBlock2","","","","That was a tob.","null","","","","","",""
"html-keyboard-response","429","457095","0.0-7.0-2.60","FL","t8qovvqyjq","1536","864","0","1","0","5f89cbc45b38f5016101011c","","null","","","learningBlock2","","","","<div style=""font-size:60px;""> </div>","null","FL","learning/Slide141.JPG","That was a tob.","","",""
"image-keyboard-response","430","457273","0.0-7.0-0.61","FL","t8qovvqyjq","1536","864","0","1","0","5f89cbc45b38f5016101011c","","null","","","","","","","learning/Slide142.JPG","null","","","","","",""
"html-keyboard-response","431","458425","0.0-7.0-1.61","FL","t8qovvqyjq","1536","864","0","1","0","5f89cbc45b38f5016101011c","","null","","","learningBlock2","","","","That was a wug.","null","","","","","",""
"html-keyboard-response","432","459428","0.0-7.0-2.61","FL","t8qovvqyjq","1536","864","0","1","0","5f89cbc45b38f5016101011c","","null","","","learningBlock2","","","","<div style=""font-size:60px;""> </div>","null","FL","learning/Slide142.JPG","That was a wug.","","",""
"image-keyboard-response","433","459605","0.0-7.0-0.62","FL","t8qovvqyjq","1536","864","0","1","0","5f89cbc45b38f5016101011c","","null","","","","","","","learning/Slide143.JPG","null","","","","","",""
"html-keyboard-response","434","460758","0.0-7.0-1.62","FL","t8qovvqyjq","1536","864","0","1","0","5f89cbc45b38f5016101011c","","null","","","learningBlock2","","","","That was a bim.","null","","","","","",""
"html-keyboard-response","435","461760","0.0-7.0-2.62","FL","t8qovvqyjq","1536","864","0","1","0","5f89cbc45b38f5016101011c","","null","","","learningBlock2","","","","<div style=""font-size:60px;""> </div>","null","FL","learning/Slide143.JPG","That was a bim.","","",""
"image-keyboard-response","436","461937","0.0-7.0-0.63","FL","t8qovvqyjq","1536","864","0","1","0","5f89cbc45b38f5016101011c","","null","","","","","","","learning/Slide144.JPG","null","","","","","",""
