"trial_type","trial_index","time_elapsed","internal_node_id","condition","subject","screen_width","screen_height","attention","distraction","conscientious","prolificID","success","rt","url","view_history","test_part","final_height_px","final_width_px","scale_factor","stimulus","key_press","learningType","presentedImage","presentedLabel","button_pressed","response","responses"
"pavlovia","0","112","0.0-0.0","LF","r4145wj5y7","1600","900","0","1","1","5f78b0e3b43f410c88d3af45","","","","","","","","","","","","","","","",""
"fullscreen","1","4277","0.0-1.0","LF","r4145wj5y7","1600","900","0","1","1","5f78b0e3b43f410c88d3af45","true","","","","","","","","","","","","","","",""
"external-html","2","84946","0.0-2.0-0.0","LF","r4145wj5y7","1600","900","0","1","1","5f78b0e3b43f410c88d3af45","","80555.73999999979","text/information_english.html","","","","","","","","","","","","",""
"external-html","3","114797","0.0-2.0-1.0","LF","r4145wj5y7","1600","900","0","1","1","5f78b0e3b43f410c88d3af45","","29738.97500000021","text/consent_english.html","","","","","","","","","","","","",""
"instructions","4","131726","0.0-3.0","LF","r4145wj5y7","1600","900","0","1","1","5f78b0e3b43f410c88d3af45","","NA","","[{""page_index"":0,""viewing_time"":3602.245000000039},{""page_index"":1,""viewing_time"":13325.409999999465}]","instructions","","","","","","","","","","",""
"resize","5","176465","0.0-4.0","LF","r4145wj5y7","1600","900","0","1","1","5f78b0e3b43f410c88d3af45","","","","","","","1202","7.631746031746032","","","","","","","",""
"html-keyboard-response","6","177471","0.0-5.0-0.0","LF","r4145wj5y7","1600","900","0","1","1","5f78b0e3b43f410c88d3af45","","null","","","learningBlock1","","","","This is a tob:","null","","","","","",""
"image-keyboard-response","7","177811","0.0-5.0-1.0","LF","r4145wj5y7","1600","900","0","1","1","5f78b0e3b43f410c88d3af45","","null","","","","","","","learning/Slide1.JPG","null","","","","","",""
"html-keyboard-response","8","178826","0.0-5.0-2.0","LF","r4145wj5y7","1600","900","0","1","1","5f78b0e3b43f410c88d3af45","","null","","","learningBlock1","","","","<div style=""font-size:60px;""> </div>","null","LF","learning/Slide1.JPG","This is a tob:","","",""
"html-keyboard-response","9","179826","0.0-5.0-0.1","LF","r4145wj5y7","1600","900","0","1","1","5f78b0e3b43f410c88d3af45","","null","","","learningBlock1","","","","This is a wug:","null","","","","","",""
"image-keyboard-response","10","180167","0.0-5.0-1.1","LF","r4145wj5y7","1600","900","0","1","1","5f78b0e3b43f410c88d3af45","","null","","","","","","","learning/Slide2.JPG","null","","","","","",""
"html-keyboard-response","11","181174","0.0-5.0-2.1","LF","r4145wj5y7","1600","900","0","1","1","5f78b0e3b43f410c88d3af45","","null","","","learningBlock1","","","","<div style=""font-size:60px;""> </div>","null","LF","learning/Slide2.JPG","This is a wug:","","",""
"html-keyboard-response","12","182183","0.0-5.0-0.2","LF","r4145wj5y7","1600","900","0","1","1","5f78b0e3b43f410c88d3af45","","null","","","learningBlock1","","","","This is a bim:","null","","","","","",""
"image-keyboard-response","13","182527","0.0-5.0-1.2","LF","r4145wj5y7","1600","900","0","1","1","5f78b0e3b43f410c88d3af45","","null","","","","","","","learning/Slide3.JPG","null","","","","","",""
"html-keyboard-response","14","183529","0.0-5.0-2.2","LF","r4145wj5y7","1600","900","0","1","1","5f78b0e3b43f410c88d3af45","","null","","","learningBlock1","","","","<div style=""font-size:60px;""> </div>","null","LF","learning/Slide3.JPG","This is a bim:","","",""
"html-keyboard-response","15","184532","0.0-5.0-0.3","LF","r4145wj5y7","1600","900","0","1","1","5f78b0e3b43f410c88d3af45","","null","","","learningBlock1","","","","This is a dep:","null","","","","","",""
"image-keyboard-response","16","184878","0.0-5.0-1.3","LF","r4145wj5y7","1600","900","0","1","1","5f78b0e3b43f410c88d3af45","","null","","","","","","","learning/Slide4.JPG","null","","","","","",""
"html-keyboard-response","17","185889","0.0-5.0-2.3","LF","r4145wj5y7","1600","900","0","1","1","5f78b0e3b43f410c88d3af45","","null","","","learningBlock1","","","","<div style=""font-size:60px;""> </div>","null","LF","learning/Slide4.JPG","This is a dep:","","",""
"html-keyboard-response","18","186905","0.0-5.0-0.4","LF","r4145wj5y7","1600","900","0","1","1","5f78b0e3b43f410c88d3af45","","null","","","learningBlock1","","","","This is a wug:","null","","","","","",""
"image-keyboard-response","19","187244","0.0-5.0-1.4","LF","r4145wj5y7","1600","900","0","1","1","5f78b0e3b43f410c88d3af45","","null","","","","","","","learning/Slide5.JPG","null","","","","","",""
"html-keyboard-response","20","188255","0.0-5.0-2.4","LF","r4145wj5y7","1600","900","0","1","1","5f78b0e3b43f410c88d3af45","","null","","","learningBlock1","","","","<div style=""font-size:60px;""> </div>","null","LF","learning/Slide5.JPG","This is a wug:","","",""
"html-keyboard-response","21","189257","0.0-5.0-0.5","LF","r4145wj5y7","1600","900","0","1","1","5f78b0e3b43f410c88d3af45","","null","","","learningBlock1","","","","This is a dep:","null","","","","","",""
"image-keyboard-response","22","189594","0.0-5.0-1.5","LF","r4145wj5y7","1600","900","0","1","1","5f78b0e3b43f410c88d3af45","","null","","","","","","","learning/Slide6.JPG","null","","","","","",""
"html-keyboard-response","23","190595","0.0-5.0-2.5","LF","r4145wj5y7","1600","900","0","1","1","5f78b0e3b43f410c88d3af45","","null","","","learningBlock1","","","","<div style=""font-size:60px;""> </div>","null","LF","learning/Slide6.JPG","This is a dep:","","",""
"html-keyboard-response","24","191611","0.0-5.0-0.6","LF","r4145wj5y7","1600","900","0","1","1","5f78b0e3b43f410c88d3af45","","null","","","learningBlock1","","","","This is a wug:","null","","","","","",""
"image-keyboard-response","25","191945","0.0-5.0-1.6","LF","r4145wj5y7","1600","900","0","1","1","5f78b0e3b43f410c88d3af45","","null","","","","","","","learning/Slide7.JPG","null","","","","","",""
"html-keyboard-response","26","192960","0.0-5.0-2.6","LF","r4145wj5y7","1600","900","0","1","1","5f78b0e3b43f410c88d3af45","","null","","","learningBlock1","","","","<div style=""font-size:60px;""> </div>","null","LF","learning/Slide7.JPG","This is a wug:","","",""
"html-keyboard-response","27","193965","0.0-5.0-0.7","LF","r4145wj5y7","1600","900","0","1","1","5f78b0e3b43f410c88d3af45","","null","","","learningBlock1","","","","This is a bim:","null","","","","","",""
"image-keyboard-response","28","194312","0.0-5.0-1.7","LF","r4145wj5y7","1600","900","0","1","1","5f78b0e3b43f410c88d3af45","","null","","","","","","","learning/Slide8.JPG","null","","","","","",""
"html-keyboard-response","29","195323","0.0-5.0-2.7","LF","r4145wj5y7","1600","900","0","1","1","5f78b0e3b43f410c88d3af45","","null","","","learningBlock1","","","","<div style=""font-size:60px;""> </div>","null","LF","learning/Slide8.JPG","This is a bim:","","",""
"html-keyboard-response","30","196339","0.0-5.0-0.8","LF","r4145wj5y7","1600","900","0","1","1","5f78b0e3b43f410c88d3af45","","null","","","learningBlock1","","","","This is a wug:","null","","","","","",""
"image-keyboard-response","31","196678","0.0-5.0-1.8","LF","r4145wj5y7","1600","900","0","1","1","5f78b0e3b43f410c88d3af45","","null","","","","","","","learning/Slide9.JPG","null","","","","","",""
"html-keyboard-response","32","197693","0.0-5.0-2.8","LF","r4145wj5y7","1600","900","0","1","1","5f78b0e3b43f410c88d3af45","","null","","","learningBlock1","","","","<div style=""font-size:60px;""> </div>","null","LF","learning/Slide9.JPG","This is a wug:","","",""
"html-keyboard-response","33","198703","0.0-5.0-0.9","LF","r4145wj5y7","1600","900","0","1","1","5f78b0e3b43f410c88d3af45","","null","","","learningBlock1","","","","This is a dep:","null","","","","","",""
"image-keyboard-response","34","199051","0.0-5.0-1.9","LF","r4145wj5y7","1600","900","0","1","1","5f78b0e3b43f410c88d3af45","","null","","","","","","","learning/Slide10.JPG","null","","","","","",""
"html-keyboard-response","35","200059","0.0-5.0-2.9","LF","r4145wj5y7","1600","900","0","1","1","5f78b0e3b43f410c88d3af45","","null","","","learningBlock1","","","","<div style=""font-size:60px;""> </div>","null","LF","learning/Slide10.JPG","This is a dep:","","",""
"html-keyboard-response","36","201071","0.0-5.0-0.10","LF","r4145wj5y7","1600","900","0","1","1","5f78b0e3b43f410c88d3af45","","null","","","learningBlock1","","","","This is a tob:","null","","","","","",""
"image-keyboard-response","37","201412","0.0-5.0-1.10","LF","r4145wj5y7","1600","900","0","1","1","5f78b0e3b43f410c88d3af45","","null","","","","","","","learning/Slide11.JPG","null","","","","","",""
"html-keyboard-response","38","202427","0.0-5.0-2.10","LF","r4145wj5y7","1600","900","0","1","1","5f78b0e3b43f410c88d3af45","","null","","","learningBlock1","","","","<div style=""font-size:60px;""> </div>","null","LF","learning/Slide11.JPG","This is a tob:","","",""
"html-keyboard-response","39","203440","0.0-5.0-0.11","LF","r4145wj5y7","1600","900","0","1","1","5f78b0e3b43f410c88d3af45","","null","","","learningBlock1","","","","This is a dep:","null","","","","","",""
"image-keyboard-response","40","203779","0.0-5.0-1.11","LF","r4145wj5y7","1600","900","0","1","1","5f78b0e3b43f410c88d3af45","","null","","","","","","","learning/Slide12.JPG","null","","","","","",""
"html-keyboard-response","41","204789","0.0-5.0-2.11","LF","r4145wj5y7","1600","900","0","1","1","5f78b0e3b43f410c88d3af45","","null","","","learningBlock1","","","","<div style=""font-size:60px;""> </div>","null","LF","learning/Slide12.JPG","This is a dep:","","",""
"html-keyboard-response","42","205792","0.0-5.0-0.12","LF","r4145wj5y7","1600","900","0","1","1","5f78b0e3b43f410c88d3af45","","null","","","learningBlock1","","","","This is a bim:","null","","","","","",""
"image-keyboard-response","43","206126","0.0-5.0-1.12","LF","r4145wj5y7","1600","900","0","1","1","5f78b0e3b43f410c88d3af45","","null","","","","","","","learning/Slide13.JPG","null","","","","","",""
"html-keyboard-response","44","207132","0.0-5.0-2.12","LF","r4145wj5y7","1600","900","0","1","1","5f78b0e3b43f410c88d3af45","","null","","","learningBlock1","","","","<div style=""font-size:60px;""> </div>","null","LF","learning/Slide13.JPG","This is a bim:","","",""
"html-keyboard-response","45","208140","0.0-5.0-0.13","LF","r4145wj5y7","1600","900","0","1","1","5f78b0e3b43f410c88d3af45","","null","","","learningBlock1","","","","This is a wug:","null","","","","","",""
"image-keyboard-response","46","208479","0.0-5.0-1.13","LF","r4145wj5y7","1600","900","0","1","1","5f78b0e3b43f410c88d3af45","","null","","","","","","","learning/Slide14.JPG","null","","","","","",""
"html-keyboard-response","47","209490","0.0-5.0-2.13","LF","r4145wj5y7","1600","900","0","1","1","5f78b0e3b43f410c88d3af45","","null","","","learningBlock1","","","","<div style=""font-size:60px;""> </div>","null","LF","learning/Slide14.JPG","This is a wug:","","",""
"html-keyboard-response","48","210496","0.0-5.0-0.14","LF","r4145wj5y7","1600","900","0","1","1","5f78b0e3b43f410c88d3af45","","null","","","learningBlock1","","","","This is a tob:","null","","","","","",""
"image-keyboard-response","49","210830","0.0-5.0-1.14","LF","r4145wj5y7","1600","900","0","1","1","5f78b0e3b43f410c88d3af45","","null","","","","","","","learning/Slide15.JPG","null","","","","","",""
"html-keyboard-response","50","211846","0.0-5.0-2.14","LF","r4145wj5y7","1600","900","0","1","1","5f78b0e3b43f410c88d3af45","","null","","","learningBlock1","","","","<div style=""font-size:60px;""> </div>","null","LF","learning/Slide15.JPG","This is a tob:","","",""
"html-keyboard-response","51","212862","0.0-5.0-0.15","LF","r4145wj5y7","1600","900","0","1","1","5f78b0e3b43f410c88d3af45","","null","","","learningBlock1","","","","This is a dep:","null","","","","","",""
"image-keyboard-response","52","213196","0.0-5.0-1.15","LF","r4145wj5y7","1600","900","0","1","1","5f78b0e3b43f410c88d3af45","","null","","","","","","","learning/Slide16.JPG","null","","","","","",""
"html-keyboard-response","53","214207","0.0-5.0-2.15","LF","r4145wj5y7","1600","900","0","1","1","5f78b0e3b43f410c88d3af45","","null","","","learningBlock1","","","","<div style=""font-size:60px;""> </div>","null","LF","learning/Slide16.JPG","This is a dep:","","",""
"html-keyboard-response","54","215208","0.0-5.0-0.16","LF","r4145wj5y7","1600","900","0","1","1","5f78b0e3b43f410c88d3af45","","null","","","learningBlock1","","","","This is a bim:","null","","","","","",""
"image-keyboard-response","55","215546","0.0-5.0-1.16","LF","r4145wj5y7","1600","900","0","1","1","5f78b0e3b43f410c88d3af45","","null","","","","","","","learning/Slide17.JPG","null","","","","","",""
"html-keyboard-response","56","216558","0.0-5.0-2.16","LF","r4145wj5y7","1600","900","0","1","1","5f78b0e3b43f410c88d3af45","","null","","","learningBlock1","","","","<div style=""font-size:60px;""> </div>","null","LF","learning/Slide17.JPG","This is a bim:","","",""
"html-keyboard-response","57","217559","0.0-5.0-0.17","LF","r4145wj5y7","1600","900","0","1","1","5f78b0e3b43f410c88d3af45","","null","","","learningBlock1","","","","This is a tob:","null","","","","","",""
"image-keyboard-response","58","217897","0.0-5.0-1.17","LF","r4145wj5y7","1600","900","0","1","1","5f78b0e3b43f410c88d3af45","","null","","","","","","","learning/Slide18.JPG","null","","","","","",""
"html-keyboard-response","59","218913","0.0-5.0-2.17","LF","r4145wj5y7","1600","900","0","1","1","5f78b0e3b43f410c88d3af45","","null","","","learningBlock1","","","","<div style=""font-size:60px;""> </div>","null","LF","learning/Slide18.JPG","This is a tob:","","",""
"html-keyboard-response","60","219925","0.0-5.0-0.18","LF","r4145wj5y7","1600","900","0","1","1","5f78b0e3b43f410c88d3af45","","null","","","learningBlock1","","","","This is a wug:","null","","","","","",""
"image-keyboard-response","61","220264","0.0-5.0-1.18","LF","r4145wj5y7","1600","900","0","1","1","5f78b0e3b43f410c88d3af45","","null","","","","","","","learning/Slide19.JPG","null","","","","","",""
"html-keyboard-response","62","221274","0.0-5.0-2.18","LF","r4145wj5y7","1600","900","0","1","1","5f78b0e3b43f410c88d3af45","","null","","","learningBlock1","","","","<div style=""font-size:60px;""> </div>","null","LF","learning/Slide19.JPG","This is a wug:","","",""
"html-keyboard-response","63","222280","0.0-5.0-0.19","LF","r4145wj5y7","1600","900","0","1","1","5f78b0e3b43f410c88d3af45","","null","","","learningBlock1","","","","This is a bim:","null","","","","","",""
"image-keyboard-response","64","222614","0.0-5.0-1.19","LF","r4145wj5y7","1600","900","0","1","1","5f78b0e3b43f410c88d3af45","","null","","","","","","","learning/Slide20.JPG","null","","","","","",""
"html-keyboard-response","65","223625","0.0-5.0-2.19","LF","r4145wj5y7","1600","900","0","1","1","5f78b0e3b43f410c88d3af45","","null","","","learningBlock1","","","","<div style=""font-size:60px;""> </div>","null","LF","learning/Slide20.JPG","This is a bim:","","",""
"html-keyboard-response","66","224626","0.0-5.0-0.20","LF","r4145wj5y7","1600","900","0","1","1","5f78b0e3b43f410c88d3af45","","null","","","learningBlock1","","","","This is a dep:","null","","","","","",""
"image-keyboard-response","67","224964","0.0-5.0-1.20","LF","r4145wj5y7","1600","900","0","1","1","5f78b0e3b43f410c88d3af45","","null","","","","","","","learning/Slide21.JPG","null","","","","","",""
"html-keyboard-response","68","225974","0.0-5.0-2.20","LF","r4145wj5y7","1600","900","0","1","1","5f78b0e3b43f410c88d3af45","","null","","","learningBlock1","","","","<div style=""font-size:60px;""> </div>","null","LF","learning/Slide21.JPG","This is a dep:","","",""
"html-keyboard-response","69","226992","0.0-5.0-0.21","LF","r4145wj5y7","1600","900","0","1","1","5f78b0e3b43f410c88d3af45","","null","","","learningBlock1","","","","This is a bim:","null","","","","","",""
"image-keyboard-response","70","227331","0.0-5.0-1.21","LF","r4145wj5y7","1600","900","0","1","1","5f78b0e3b43f410c88d3af45","","null","","","","","","","learning/Slide22.JPG","null","","","","","",""
"html-keyboard-response","71","228342","0.0-5.0-2.21","LF","r4145wj5y7","1600","900","0","1","1","5f78b0e3b43f410c88d3af45","","null","","","learningBlock1","","","","<div style=""font-size:60px;""> </div>","null","LF","learning/Slide22.JPG","This is a bim:","","",""
"html-keyboard-response","72","229358","0.0-5.0-0.22","LF","r4145wj5y7","1600","900","0","1","1","5f78b0e3b43f410c88d3af45","","null","","","learningBlock1","","","","This is a tob:","null","","","","","",""
"image-keyboard-response","73","229698","0.0-5.0-1.22","LF","r4145wj5y7","1600","900","0","1","1","5f78b0e3b43f410c88d3af45","","null","","","","","","","learning/Slide23.JPG","null","","","","","",""
"html-keyboard-response","74","230714","0.0-5.0-2.22","LF","r4145wj5y7","1600","900","0","1","1","5f78b0e3b43f410c88d3af45","","null","","","learningBlock1","","","","<div style=""font-size:60px;""> </div>","null","LF","learning/Slide23.JPG","This is a tob:","","",""
"html-keyboard-response","75","231726","0.0-5.0-0.23","LF","r4145wj5y7","1600","900","0","1","1","5f78b0e3b43f410c88d3af45","","null","","","learningBlock1","","","","This is a wug:","null","","","","","",""
"image-keyboard-response","76","232064","0.0-5.0-1.23","LF","r4145wj5y7","1600","900","0","1","1","5f78b0e3b43f410c88d3af45","","null","","","","","","","learning/Slide24.JPG","null","","","","","",""
"html-keyboard-response","77","233079","0.0-5.0-2.23","LF","r4145wj5y7","1600","900","0","1","1","5f78b0e3b43f410c88d3af45","","null","","","learningBlock1","","","","<div style=""font-size:60px;""> </div>","null","LF","learning/Slide24.JPG","This is a wug:","","",""
"html-keyboard-response","78","234082","0.0-5.0-0.24","LF","r4145wj5y7","1600","900","0","1","1","5f78b0e3b43f410c88d3af45","","null","","","learningBlock1","","","","This is a dep:","null","","","","","",""
"image-keyboard-response","79","234415","0.0-5.0-1.24","LF","r4145wj5y7","1600","900","0","1","1","5f78b0e3b43f410c88d3af45","","null","","","","","","","learning/Slide25.JPG","null","","","","","",""
"html-keyboard-response","80","235429","0.0-5.0-2.24","LF","r4145wj5y7","1600","900","0","1","1","5f78b0e3b43f410c88d3af45","","null","","","learningBlock1","","","","<div style=""font-size:60px;""> </div>","null","LF","learning/Slide25.JPG","This is a dep:","","",""
"html-keyboard-response","81","236439","0.0-5.0-0.25","LF","r4145wj5y7","1600","900","0","1","1","5f78b0e3b43f410c88d3af45","","null","","","learningBlock1","","","","This is a wug:","null","","","","","",""
"image-keyboard-response","82","236781","0.0-5.0-1.25","LF","r4145wj5y7","1600","900","0","1","1","5f78b0e3b43f410c88d3af45","","null","","","","","","","learning/Slide26.JPG","null","","","","","",""
"html-keyboard-response","83","237792","0.0-5.0-2.25","LF","r4145wj5y7","1600","900","0","1","1","5f78b0e3b43f410c88d3af45","","null","","","learningBlock1","","","","<div style=""font-size:60px;""> </div>","null","LF","learning/Slide26.JPG","This is a wug:","","",""
"html-keyboard-response","84","238793","0.0-5.0-0.26","LF","r4145wj5y7","1600","900","0","1","1","5f78b0e3b43f410c88d3af45","","null","","","learningBlock1","","","","This is a bim:","null","","","","","",""
"image-keyboard-response","85","239131","0.0-5.0-1.26","LF","r4145wj5y7","1600","900","0","1","1","5f78b0e3b43f410c88d3af45","","null","","","","","","","learning/Slide27.JPG","null","","","","","",""
"html-keyboard-response","86","240143","0.0-5.0-2.26","LF","r4145wj5y7","1600","900","0","1","1","5f78b0e3b43f410c88d3af45","","null","","","learningBlock1","","","","<div style=""font-size:60px;""> </div>","null","LF","learning/Slide27.JPG","This is a bim:","","",""
"html-keyboard-response","87","241144","0.0-5.0-0.27","LF","r4145wj5y7","1600","900","0","1","1","5f78b0e3b43f410c88d3af45","","null","","","learningBlock1","","","","This is a dep:","null","","","","","",""
"image-keyboard-response","88","241481","0.0-5.0-1.27","LF","r4145wj5y7","1600","900","0","1","1","5f78b0e3b43f410c88d3af45","","null","","","","","","","learning/Slide28.JPG","null","","","","","",""
"html-keyboard-response","89","242492","0.0-5.0-2.27","LF","r4145wj5y7","1600","900","0","1","1","5f78b0e3b43f410c88d3af45","","null","","","learningBlock1","","","","<div style=""font-size:60px;""> </div>","null","LF","learning/Slide28.JPG","This is a dep:","","",""
"html-keyboard-response","90","243494","0.0-5.0-0.28","LF","r4145wj5y7","1600","900","0","1","1","5f78b0e3b43f410c88d3af45","","null","","","learningBlock1","","","","This is a tob:","null","","","","","",""
"image-keyboard-response","91","243832","0.0-5.0-1.28","LF","r4145wj5y7","1600","900","0","1","1","5f78b0e3b43f410c88d3af45","","null","","","","","","","learning/Slide29.JPG","null","","","","","",""
"html-keyboard-response","92","244836","0.0-5.0-2.28","LF","r4145wj5y7","1600","900","0","1","1","5f78b0e3b43f410c88d3af45","","null","","","learningBlock1","","","","<div style=""font-size:60px;""> </div>","null","LF","learning/Slide29.JPG","This is a tob:","","",""
"html-keyboard-response","93","245841","0.0-5.0-0.29","LF","r4145wj5y7","1600","900","0","1","1","5f78b0e3b43f410c88d3af45","","null","","","learningBlock1","","","","This is a dep:","null","","","","","",""
"image-keyboard-response","94","246182","0.0-5.0-1.29","LF","r4145wj5y7","1600","900","0","1","1","5f78b0e3b43f410c88d3af45","","null","","","","","","","learning/Slide30.JPG","null","","","","","",""
"html-keyboard-response","95","247187","0.0-5.0-2.29","LF","r4145wj5y7","1600","900","0","1","1","5f78b0e3b43f410c88d3af45","","null","","","learningBlock1","","","","<div style=""font-size:60px;""> </div>","null","LF","learning/Slide30.JPG","This is a dep:","","",""
"html-keyboard-response","96","248197","0.0-5.0-0.30","LF","r4145wj5y7","1600","900","0","1","1","5f78b0e3b43f410c88d3af45","","null","","","learningBlock1","","","","This is a wug:","null","","","","","",""
"image-keyboard-response","97","248532","0.0-5.0-1.30","LF","r4145wj5y7","1600","900","0","1","1","5f78b0e3b43f410c88d3af45","","null","","","","","","","learning/Slide31.JPG","null","","","","","",""
"html-keyboard-response","98","249543","0.0-5.0-2.30","LF","r4145wj5y7","1600","900","0","1","1","5f78b0e3b43f410c88d3af45","","null","","","learningBlock1","","","","<div style=""font-size:60px;""> </div>","null","LF","learning/Slide31.JPG","This is a wug:","","",""
"html-keyboard-response","99","250554","0.0-5.0-0.31","LF","r4145wj5y7","1600","900","0","1","1","5f78b0e3b43f410c88d3af45","","null","","","learningBlock1","","","","This is a tob:","null","","","","","",""
"image-keyboard-response","100","250892","0.0-5.0-1.31","LF","r4145wj5y7","1600","900","0","1","1","5f78b0e3b43f410c88d3af45","","null","","","","","","","learning/Slide32.JPG","null","","","","","",""
"html-keyboard-response","101","251893","0.0-5.0-2.31","LF","r4145wj5y7","1600","900","0","1","1","5f78b0e3b43f410c88d3af45","","null","","","learningBlock1","","","","<div style=""font-size:60px;""> </div>","null","LF","learning/Slide32.JPG","This is a tob:","","",""
"html-keyboard-response","102","252898","0.0-5.0-0.32","LF","r4145wj5y7","1600","900","0","1","1","5f78b0e3b43f410c88d3af45","","null","","","learningBlock1","","","","This is a bim:","null","","","","","",""
"image-keyboard-response","103","253232","0.0-5.0-1.32","LF","r4145wj5y7","1600","900","0","1","1","5f78b0e3b43f410c88d3af45","","null","","","","","","","learning/Slide33.JPG","null","","","","","",""
"html-keyboard-response","104","254244","0.0-5.0-2.32","LF","r4145wj5y7","1600","900","0","1","1","5f78b0e3b43f410c88d3af45","","null","","","learningBlock1","","","","<div style=""font-size:60px;""> </div>","null","LF","learning/Slide33.JPG","This is a bim:","","",""
"html-keyboard-response","105","255254","0.0-5.0-0.33","LF","r4145wj5y7","1600","900","0","1","1","5f78b0e3b43f410c88d3af45","","null","","","learningBlock1","","","","This is a tob:","null","","","","","",""
"image-keyboard-response","106","255599","0.0-5.0-1.33","LF","r4145wj5y7","1600","900","0","1","1","5f78b0e3b43f410c88d3af45","","null","","","","","","","learning/Slide34.JPG","null","","","","","",""
"html-keyboard-response","107","256610","0.0-5.0-2.33","LF","r4145wj5y7","1600","900","0","1","1","5f78b0e3b43f410c88d3af45","","null","","","learningBlock1","","","","<div style=""font-size:60px;""> </div>","null","LF","learning/Slide34.JPG","This is a tob:","","",""
"html-keyboard-response","108","257627","0.0-5.0-0.34","LF","r4145wj5y7","1600","900","0","1","1","5f78b0e3b43f410c88d3af45","","null","","","learningBlock1","","","","This is a bim:","null","","","","","",""
"image-keyboard-response","109","257966","0.0-5.0-1.34","LF","r4145wj5y7","1600","900","0","1","1","5f78b0e3b43f410c88d3af45","","null","","","","","","","learning/Slide35.JPG","null","","","","","",""
"html-keyboard-response","110","258983","0.0-5.0-2.34","LF","r4145wj5y7","1600","900","0","1","1","5f78b0e3b43f410c88d3af45","","null","","","learningBlock1","","","","<div style=""font-size:60px;""> </div>","null","LF","learning/Slide35.JPG","This is a bim:","","",""
"html-keyboard-response","111","259994","0.0-5.0-0.35","LF","r4145wj5y7","1600","900","0","1","1","5f78b0e3b43f410c88d3af45","","null","","","learningBlock1","","","","This is a dep:","null","","","","","",""
"image-keyboard-response","112","260333","0.0-5.0-1.35","LF","r4145wj5y7","1600","900","0","1","1","5f78b0e3b43f410c88d3af45","","null","","","","","","","learning/Slide36.JPG","null","","","","","",""
"html-keyboard-response","113","261344","0.0-5.0-2.35","LF","r4145wj5y7","1600","900","0","1","1","5f78b0e3b43f410c88d3af45","","null","","","learningBlock1","","","","<div style=""font-size:60px;""> </div>","null","LF","learning/Slide36.JPG","This is a dep:","","",""
"html-keyboard-response","114","262361","0.0-5.0-0.36","LF","r4145wj5y7","1600","900","0","1","1","5f78b0e3b43f410c88d3af45","","null","","","learningBlock1","","","","This is a tob:","null","","","","","",""
"image-keyboard-response","115","262700","0.0-5.0-1.36","LF","r4145wj5y7","1600","900","0","1","1","5f78b0e3b43f410c88d3af45","","null","","","","","","","learning/Slide37.JPG","null","","","","","",""
"html-keyboard-response","116","263710","0.0-5.0-2.36","LF","r4145wj5y7","1600","900","0","1","1","5f78b0e3b43f410c88d3af45","","null","","","learningBlock1","","","","<div style=""font-size:60px;""> </div>","null","LF","learning/Slide37.JPG","This is a tob:","","",""
"html-keyboard-response","117","264712","0.0-5.0-0.37","LF","r4145wj5y7","1600","900","0","1","1","5f78b0e3b43f410c88d3af45","","null","","","learningBlock1","","","","This is a wug:","null","","","","","",""
"image-keyboard-response","118","265050","0.0-5.0-1.37","LF","r4145wj5y7","1600","900","0","1","1","5f78b0e3b43f410c88d3af45","","null","","","","","","","learning/Slide38.JPG","null","","","","","",""
"html-keyboard-response","119","266061","0.0-5.0-2.37","LF","r4145wj5y7","1600","900","0","1","1","5f78b0e3b43f410c88d3af45","","null","","","learningBlock1","","","","<div style=""font-size:60px;""> </div>","null","LF","learning/Slide38.JPG","This is a wug:","","",""
"html-keyboard-response","120","267066","0.0-5.0-0.38","LF","r4145wj5y7","1600","900","0","1","1","5f78b0e3b43f410c88d3af45","","null","","","learningBlock1","","","","This is a bim:","null","","","","","",""
"image-keyboard-response","121","267400","0.0-5.0-1.38","LF","r4145wj5y7","1600","900","0","1","1","5f78b0e3b43f410c88d3af45","","null","","","","","","","learning/Slide39.JPG","null","","","","","",""
"html-keyboard-response","122","268406","0.0-5.0-2.38","LF","r4145wj5y7","1600","900","0","1","1","5f78b0e3b43f410c88d3af45","","null","","","learningBlock1","","","","<div style=""font-size:60px;""> </div>","null","LF","learning/Slide39.JPG","This is a bim:","","",""
"html-keyboard-response","123","269411","0.0-5.0-0.39","LF","r4145wj5y7","1600","900","0","1","1","5f78b0e3b43f410c88d3af45","","null","","","learningBlock1","","","","This is a tob:","null","","","","","",""
"image-keyboard-response","124","269750","0.0-5.0-1.39","LF","r4145wj5y7","1600","900","0","1","1","5f78b0e3b43f410c88d3af45","","null","","","","","","","learning/Slide40.JPG","null","","","","","",""
"html-keyboard-response","125","270753","0.0-5.0-2.39","LF","r4145wj5y7","1600","900","0","1","1","5f78b0e3b43f410c88d3af45","","null","","","learningBlock1","","","","<div style=""font-size:60px;""> </div>","null","LF","learning/Slide40.JPG","This is a tob:","","",""
"html-keyboard-response","126","271761","0.0-5.0-0.40","LF","r4145wj5y7","1600","900","0","1","1","5f78b0e3b43f410c88d3af45","","null","","","learningBlock1","","","","This is a bim:","null","","","","","",""
"image-keyboard-response","127","272101","0.0-5.0-1.40","LF","r4145wj5y7","1600","900","0","1","1","5f78b0e3b43f410c88d3af45","","null","","","","","","","learning/Slide41.JPG","null","","","","","",""
"html-keyboard-response","128","273108","0.0-5.0-2.40","LF","r4145wj5y7","1600","900","0","1","1","5f78b0e3b43f410c88d3af45","","null","","","learningBlock1","","","","<div style=""font-size:60px;""> </div>","null","LF","learning/Slide41.JPG","This is a bim:","","",""
"html-keyboard-response","129","274113","0.0-5.0-0.41","LF","r4145wj5y7","1600","900","0","1","1","5f78b0e3b43f410c88d3af45","","null","","","learningBlock1","","","","This is a dep:","null","","","","","",""
"image-keyboard-response","130","274451","0.0-5.0-1.41","LF","r4145wj5y7","1600","900","0","1","1","5f78b0e3b43f410c88d3af45","","null","","","","","","","learning/Slide42.JPG","null","","","","","",""
"html-keyboard-response","131","275461","0.0-5.0-2.41","LF","r4145wj5y7","1600","900","0","1","1","5f78b0e3b43f410c88d3af45","","null","","","learningBlock1","","","","<div style=""font-size:60px;""> </div>","null","LF","learning/Slide42.JPG","This is a dep:","","",""
"html-keyboard-response","132","276463","0.0-5.0-0.42","LF","r4145wj5y7","1600","900","0","1","1","5f78b0e3b43f410c88d3af45","","null","","","learningBlock1","","","","This is a wug:","null","","","","","",""
"image-keyboard-response","133","276801","0.0-5.0-1.42","LF","r4145wj5y7","1600","900","0","1","1","5f78b0e3b43f410c88d3af45","","null","","","","","","","learning/Slide43.JPG","null","","","","","",""
"html-keyboard-response","134","277812","0.0-5.0-2.42","LF","r4145wj5y7","1600","900","0","1","1","5f78b0e3b43f410c88d3af45","","null","","","learningBlock1","","","","<div style=""font-size:60px;""> </div>","null","LF","learning/Slide43.JPG","This is a wug:","","",""
"html-keyboard-response","135","278829","0.0-5.0-0.43","LF","r4145wj5y7","1600","900","0","1","1","5f78b0e3b43f410c88d3af45","","null","","","learningBlock1","","","","This is a bim:","null","","","","","",""
"image-keyboard-response","136","279168","0.0-5.0-1.43","LF","r4145wj5y7","1600","900","0","1","1","5f78b0e3b43f410c88d3af45","","null","","","","","","","learning/Slide44.JPG","null","","","","","",""
"html-keyboard-response","137","280177","0.0-5.0-2.43","LF","r4145wj5y7","1600","900","0","1","1","5f78b0e3b43f410c88d3af45","","null","","","learningBlock1","","","","<div style=""font-size:60px;""> </div>","null","LF","learning/Slide44.JPG","This is a bim:","","",""
"html-keyboard-response","138","281190","0.0-5.0-0.44","LF","r4145wj5y7","1600","900","0","1","1","5f78b0e3b43f410c88d3af45","","null","","","learningBlock1","","","","This is a wug:","null","","","","","",""
"image-keyboard-response","139","281535","0.0-5.0-1.44","LF","r4145wj5y7","1600","900","0","1","1","5f78b0e3b43f410c88d3af45","","null","","","","","","","learning/Slide45.JPG","null","","","","","",""
"html-keyboard-response","140","282548","0.0-5.0-2.44","LF","r4145wj5y7","1600","900","0","1","1","5f78b0e3b43f410c88d3af45","","null","","","learningBlock1","","","","<div style=""font-size:60px;""> </div>","null","LF","learning/Slide45.JPG","This is a wug:","","",""
"html-keyboard-response","141","283562","0.0-5.0-0.45","LF","r4145wj5y7","1600","900","0","1","1","5f78b0e3b43f410c88d3af45","","null","","","learningBlock1","","","","This is a dep:","null","","","","","",""
"image-keyboard-response","142","283901","0.0-5.0-1.45","LF","r4145wj5y7","1600","900","0","1","1","5f78b0e3b43f410c88d3af45","","null","","","","","","","learning/Slide46.JPG","null","","","","","",""
"html-keyboard-response","143","284916","0.0-5.0-2.45","LF","r4145wj5y7","1600","900","0","1","1","5f78b0e3b43f410c88d3af45","","null","","","learningBlock1","","","","<div style=""font-size:60px;""> </div>","null","LF","learning/Slide46.JPG","This is a dep:","","",""
"html-keyboard-response","144","285929","0.0-5.0-0.46","LF","r4145wj5y7","1600","900","0","1","1","5f78b0e3b43f410c88d3af45","","null","","","learningBlock1","","","","This is a tob:","null","","","","","",""
"image-keyboard-response","145","286268","0.0-5.0-1.46","LF","r4145wj5y7","1600","900","0","1","1","5f78b0e3b43f410c88d3af45","","null","","","","","","","learning/Slide47.JPG","null","","","","","",""
"html-keyboard-response","146","287280","0.0-5.0-2.46","LF","r4145wj5y7","1600","900","0","1","1","5f78b0e3b43f410c88d3af45","","null","","","learningBlock1","","","","<div style=""font-size:60px;""> </div>","null","LF","learning/Slide47.JPG","This is a tob:","","",""
"html-keyboard-response","147","288286","0.0-5.0-0.47","LF","r4145wj5y7","1600","900","0","1","1","5f78b0e3b43f410c88d3af45","","null","","","learningBlock1","","","","This is a bim:","null","","","","","",""
"image-keyboard-response","148","288619","0.0-5.0-1.47","LF","r4145wj5y7","1600","900","0","1","1","5f78b0e3b43f410c88d3af45","","null","","","","","","","learning/Slide48.JPG","null","","","","","",""
"html-keyboard-response","149","289629","0.0-5.0-2.47","LF","r4145wj5y7","1600","900","0","1","1","5f78b0e3b43f410c88d3af45","","null","","","learningBlock1","","","","<div style=""font-size:60px;""> </div>","null","LF","learning/Slide48.JPG","This is a bim:","","",""
"html-keyboard-response","150","290631","0.0-5.0-0.48","LF","r4145wj5y7","1600","900","0","1","1","5f78b0e3b43f410c88d3af45","","null","","","learningBlock1","","","","This is a dep:","null","","","","","",""
"image-keyboard-response","151","290969","0.0-5.0-1.48","LF","r4145wj5y7","1600","900","0","1","1","5f78b0e3b43f410c88d3af45","","null","","","","","","","learning/Slide49.JPG","null","","","","","",""
"html-keyboard-response","152","291974","0.0-5.0-2.48","LF","r4145wj5y7","1600","900","0","1","1","5f78b0e3b43f410c88d3af45","","null","","","learningBlock1","","","","<div style=""font-size:60px;""> </div>","null","LF","learning/Slide49.JPG","This is a dep:","","",""
"html-keyboard-response","153","292978","0.0-5.0-0.49","LF","r4145wj5y7","1600","900","0","1","1","5f78b0e3b43f410c88d3af45","","null","","","learningBlock1","","","","This is a tob:","null","","","","","",""
"image-keyboard-response","154","293319","0.0-5.0-1.49","LF","r4145wj5y7","1600","900","0","1","1","5f78b0e3b43f410c88d3af45","","null","","","","","","","learning/Slide50.JPG","null","","","","","",""
"html-keyboard-response","155","294331","0.0-5.0-2.49","LF","r4145wj5y7","1600","900","0","1","1","5f78b0e3b43f410c88d3af45","","null","","","learningBlock1","","","","<div style=""font-size:60px;""> </div>","null","LF","learning/Slide50.JPG","This is a tob:","","",""
"html-keyboard-response","156","295346","0.0-5.0-0.50","LF","r4145wj5y7","1600","900","0","1","1","5f78b0e3b43f410c88d3af45","","null","","","learningBlock1","","","","This is a bim:","null","","","","","",""
"image-keyboard-response","157","295686","0.0-5.0-1.50","LF","r4145wj5y7","1600","900","0","1","1","5f78b0e3b43f410c88d3af45","","null","","","","","","","learning/Slide51.JPG","null","","","","","",""
"html-keyboard-response","158","296698","0.0-5.0-2.50","LF","r4145wj5y7","1600","900","0","1","1","5f78b0e3b43f410c88d3af45","","null","","","learningBlock1","","","","<div style=""font-size:60px;""> </div>","null","LF","learning/Slide51.JPG","This is a bim:","","",""
"html-keyboard-response","159","297714","0.0-5.0-0.51","LF","r4145wj5y7","1600","900","0","1","1","5f78b0e3b43f410c88d3af45","","null","","","learningBlock1","","","","This is a wug:","null","","","","","",""
"image-keyboard-response","160","298053","0.0-5.0-1.51","LF","r4145wj5y7","1600","900","0","1","1","5f78b0e3b43f410c88d3af45","","null","","","","","","","learning/Slide52.JPG","null","","","","","",""
"html-keyboard-response","161","299063","0.0-5.0-2.51","LF","r4145wj5y7","1600","900","0","1","1","5f78b0e3b43f410c88d3af45","","null","","","learningBlock1","","","","<div style=""font-size:60px;""> </div>","null","LF","learning/Slide52.JPG","This is a wug:","","",""
"html-keyboard-response","162","300074","0.0-5.0-0.52","LF","r4145wj5y7","1600","900","0","1","1","5f78b0e3b43f410c88d3af45","","null","","","learningBlock1","","","","This is a tob:","null","","","","","",""
"image-keyboard-response","163","300419","0.0-5.0-1.52","LF","r4145wj5y7","1600","900","0","1","1","5f78b0e3b43f410c88d3af45","","null","","","","","","","learning/Slide53.JPG","null","","","","","",""
"html-keyboard-response","164","301430","0.0-5.0-2.52","LF","r4145wj5y7","1600","900","0","1","1","5f78b0e3b43f410c88d3af45","","null","","","learningBlock1","","","","<div style=""font-size:60px;""> </div>","null","LF","learning/Slide53.JPG","This is a tob:","","",""
"html-keyboard-response","165","302436","0.0-5.0-0.53","LF","r4145wj5y7","1600","900","0","1","1","5f78b0e3b43f410c88d3af45","","null","","","learningBlock1","","","","This is a dep:","null","","","","","",""
"image-keyboard-response","166","302770","0.0-5.0-1.53","LF","r4145wj5y7","1600","900","0","1","1","5f78b0e3b43f410c88d3af45","","null","","","","","","","learning/Slide54.JPG","null","","","","","",""
"html-keyboard-response","167","303779","0.0-5.0-2.53","LF","r4145wj5y7","1600","900","0","1","1","5f78b0e3b43f410c88d3af45","","null","","","learningBlock1","","","","<div style=""font-size:60px;""> </div>","null","LF","learning/Slide54.JPG","This is a dep:","","",""
"html-keyboard-response","168","304782","0.0-5.0-0.54","LF","r4145wj5y7","1600","900","0","1","1","5f78b0e3b43f410c88d3af45","","null","","","learningBlock1","","","","This is a bim:","null","","","","","",""
"image-keyboard-response","169","305120","0.0-5.0-1.54","LF","r4145wj5y7","1600","900","0","1","1","5f78b0e3b43f410c88d3af45","","null","","","","","","","learning/Slide55.JPG","null","","","","","",""
"html-keyboard-response","170","306132","0.0-5.0-2.54","LF","r4145wj5y7","1600","900","0","1","1","5f78b0e3b43f410c88d3af45","","null","","","learningBlock1","","","","<div style=""font-size:60px;""> </div>","null","LF","learning/Slide55.JPG","This is a bim:","","",""
"html-keyboard-response","171","307148","0.0-5.0-0.55","LF","r4145wj5y7","1600","900","0","1","1","5f78b0e3b43f410c88d3af45","","null","","","learningBlock1","","","","This is a tob:","null","","","","","",""
"image-keyboard-response","172","307486","0.0-5.0-1.55","LF","r4145wj5y7","1600","900","0","1","1","5f78b0e3b43f410c88d3af45","","null","","","","","","","learning/Slide56.JPG","null","","","","","",""
"html-keyboard-response","173","308498","0.0-5.0-2.55","LF","r4145wj5y7","1600","900","0","1","1","5f78b0e3b43f410c88d3af45","","null","","","learningBlock1","","","","<div style=""font-size:60px;""> </div>","null","LF","learning/Slide56.JPG","This is a tob:","","",""
"html-keyboard-response","174","309502","0.0-5.0-0.56","LF","r4145wj5y7","1600","900","0","1","1","5f78b0e3b43f410c88d3af45","","null","","","learningBlock1","","","","This is a dep:","null","","","","","",""
"image-keyboard-response","175","309837","0.0-5.0-1.56","LF","r4145wj5y7","1600","900","0","1","1","5f78b0e3b43f410c88d3af45","","null","","","","","","","learning/Slide57.JPG","null","","","","","",""
"html-keyboard-response","176","310851","0.0-5.0-2.56","LF","r4145wj5y7","1600","900","0","1","1","5f78b0e3b43f410c88d3af45","","null","","","learningBlock1","","","","<div style=""font-size:60px;""> </div>","null","LF","learning/Slide57.JPG","This is a dep:","","",""
"html-keyboard-response","177","311865","0.0-5.0-0.57","LF","r4145wj5y7","1600","900","0","1","1","5f78b0e3b43f410c88d3af45","","null","","","learningBlock1","","","","This is a wug:","null","","","","","",""
"image-keyboard-response","178","312203","0.0-5.0-1.57","LF","r4145wj5y7","1600","900","0","1","1","5f78b0e3b43f410c88d3af45","","null","","","","","","","learning/Slide58.JPG","null","","","","","",""
"html-keyboard-response","179","313210","0.0-5.0-2.57","LF","r4145wj5y7","1600","900","0","1","1","5f78b0e3b43f410c88d3af45","","null","","","learningBlock1","","","","<div style=""font-size:60px;""> </div>","null","LF","learning/Slide58.JPG","This is a wug:","","",""
"html-keyboard-response","180","314226","0.0-5.0-0.58","LF","r4145wj5y7","1600","900","0","1","1","5f78b0e3b43f410c88d3af45","","null","","","learningBlock1","","","","This is a dep:","null","","","","","",""
"image-keyboard-response","181","314570","0.0-5.0-1.58","LF","r4145wj5y7","1600","900","0","1","1","5f78b0e3b43f410c88d3af45","","null","","","","","","","learning/Slide59.JPG","null","","","","","",""
"html-keyboard-response","182","315581","0.0-5.0-2.58","LF","r4145wj5y7","1600","900","0","1","1","5f78b0e3b43f410c88d3af45","","null","","","learningBlock1","","","","<div style=""font-size:60px;""> </div>","null","LF","learning/Slide59.JPG","This is a dep:","","",""
"html-keyboard-response","183","316586","0.0-5.0-0.59","LF","r4145wj5y7","1600","900","0","1","1","5f78b0e3b43f410c88d3af45","","null","","","learningBlock1","","","","This is a wug:","null","","","","","",""
"image-keyboard-response","184","316921","0.0-5.0-1.59","LF","r4145wj5y7","1600","900","0","1","1","5f78b0e3b43f410c88d3af45","","null","","","","","","","learning/Slide60.JPG","null","","","","","",""
"html-keyboard-response","185","317930","0.0-5.0-2.59","LF","r4145wj5y7","1600","900","0","1","1","5f78b0e3b43f410c88d3af45","","null","","","learningBlock1","","","","<div style=""font-size:60px;""> </div>","null","LF","learning/Slide60.JPG","This is a wug:","","",""
"html-keyboard-response","186","318933","0.0-5.0-0.60","LF","r4145wj5y7","1600","900","0","1","1","5f78b0e3b43f410c88d3af45","","null","","","learningBlock1","","","","This is a bim:","null","","","","","",""
"image-keyboard-response","187","319271","0.0-5.0-1.60","LF","r4145wj5y7","1600","900","0","1","1","5f78b0e3b43f410c88d3af45","","null","","","","","","","learning/Slide61.JPG","null","","","","","",""
"html-keyboard-response","188","320282","0.0-5.0-2.60","LF","r4145wj5y7","1600","900","0","1","1","5f78b0e3b43f410c88d3af45","","null","","","learningBlock1","","","","<div style=""font-size:60px;""> </div>","null","LF","learning/Slide61.JPG","This is a bim:","","",""
"html-keyboard-response","189","321283","0.0-5.0-0.61","LF","r4145wj5y7","1600","900","0","1","1","5f78b0e3b43f410c88d3af45","","null","","","learningBlock1","","","","This is a dep:","null","","","","","",""
"image-keyboard-response","190","321621","0.0-5.0-1.61","LF","r4145wj5y7","1600","900","0","1","1","5f78b0e3b43f410c88d3af45","","null","","","","","","","learning/Slide62.JPG","null","","","","","",""
"html-keyboard-response","191","322630","0.0-5.0-2.61","LF","r4145wj5y7","1600","900","0","1","1","5f78b0e3b43f410c88d3af45","","null","","","learningBlock1","","","","<div style=""font-size:60px;""> </div>","null","LF","learning/Slide62.JPG","This is a dep:","","",""
"html-keyboard-response","192","323633","0.0-5.0-0.62","LF","r4145wj5y7","1600","900","0","1","1","5f78b0e3b43f410c88d3af45","","null","","","learningBlock1","","","","This is a bim:","null","","","","","",""
"image-keyboard-response","193","323966","0.0-5.0-1.62","LF","r4145wj5y7","1600","900","0","1","1","5f78b0e3b43f410c88d3af45","","null","","","","","","","learning/Slide63.JPG","null","","","","","",""
"html-keyboard-response","194","324982","0.0-5.0-2.62","LF","r4145wj5y7","1600","900","0","1","1","5f78b0e3b43f410c88d3af45","","null","","","learningBlock1","","","","<div style=""font-size:60px;""> </div>","null","LF","learning/Slide63.JPG","This is a bim:","","",""
"html-keyboard-response","195","325984","0.0-5.0-0.63","LF","r4145wj5y7","1600","900","0","1","1","5f78b0e3b43f410c88d3af45","","null","","","learningBlock1","","","","This is a tob:","null","","","","","",""
"image-keyboard-response","196","326321","0.0-5.0-1.63","LF","r4145wj5y7","1600","900","0","1","1","5f78b0e3b43f410c88d3af45","","null","","","","","","","learning/Slide64.JPG","null","","","","","",""
"html-keyboard-response","197","327333","0.0-5.0-2.63","LF","r4145wj5y7","1600","900","0","1","1","5f78b0e3b43f410c88d3af45","","null","","","learningBlock1","","","","<div style=""font-size:60px;""> </div>","null","LF","learning/Slide64.JPG","This is a tob:","","",""
"html-keyboard-response","198","328335","0.0-5.0-0.64","LF","r4145wj5y7","1600","900","0","1","1","5f78b0e3b43f410c88d3af45","","null","","","learningBlock1","","","","This is a wug:","null","","","","","",""
"image-keyboard-response","199","328672","0.0-5.0-1.64","LF","r4145wj5y7","1600","900","0","1","1","5f78b0e3b43f410c88d3af45","","null","","","","","","","learning/Slide65.JPG","null","","","","","",""
"html-keyboard-response","200","329688","0.0-5.0-2.64","LF","r4145wj5y7","1600","900","0","1","1","5f78b0e3b43f410c88d3af45","","null","","","learningBlock1","","","","<div style=""font-size:60px;""> </div>","null","LF","learning/Slide65.JPG","This is a wug:","","",""
"html-keyboard-response","201","330700","0.0-5.0-0.65","LF","r4145wj5y7","1600","900","0","1","1","5f78b0e3b43f410c88d3af45","","null","","","learningBlock1","","","","This is a dep:","null","","","","","",""
"image-keyboard-response","202","331038","0.0-5.0-1.65","LF","r4145wj5y7","1600","900","0","1","1","5f78b0e3b43f410c88d3af45","","null","","","","","","","learning/Slide66.JPG","null","","","","","",""
"html-keyboard-response","203","332040","0.0-5.0-2.65","LF","r4145wj5y7","1600","900","0","1","1","5f78b0e3b43f410c88d3af45","","null","","","learningBlock1","","","","<div style=""font-size:60px;""> </div>","null","LF","learning/Slide66.JPG","This is a dep:","","",""
"html-keyboard-response","204","333052","0.0-5.0-0.66","LF","r4145wj5y7","1600","900","0","1","1","5f78b0e3b43f410c88d3af45","","null","","","learningBlock1","","","","This is a tob:","null","","","","","",""
"image-keyboard-response","205","333389","0.0-5.0-1.66","LF","r4145wj5y7","1600","900","0","1","1","5f78b0e3b43f410c88d3af45","","null","","","","","","","learning/Slide67.JPG","null","","","","","",""
"html-keyboard-response","206","334402","0.0-5.0-2.66","LF","r4145wj5y7","1600","900","0","1","1","5f78b0e3b43f410c88d3af45","","null","","","learningBlock1","","","","<div style=""font-size:60px;""> </div>","null","LF","learning/Slide67.JPG","This is a tob:","","",""
"html-keyboard-response","207","335405","0.0-5.0-0.67","LF","r4145wj5y7","1600","900","0","1","1","5f78b0e3b43f410c88d3af45","","null","","","learningBlock1","","","","This is a wug:","null","","","","","",""
"image-keyboard-response","208","335742","0.0-5.0-1.67","LF","r4145wj5y7","1600","900","0","1","1","5f78b0e3b43f410c88d3af45","","null","","","","","","","learning/Slide68.JPG","null","","","","","",""
"html-keyboard-response","209","336744","0.0-5.0-2.67","LF","r4145wj5y7","1600","900","0","1","1","5f78b0e3b43f410c88d3af45","","null","","","learningBlock1","","","","<div style=""font-size:60px;""> </div>","null","LF","learning/Slide68.JPG","This is a wug:","","",""
"html-keyboard-response","210","337749","0.0-5.0-0.68","LF","r4145wj5y7","1600","900","0","1","1","5f78b0e3b43f410c88d3af45","","null","","","learningBlock1","","","","This is a tob:","null","","","","","",""
"image-keyboard-response","211","338089","0.0-5.0-1.68","LF","r4145wj5y7","1600","900","0","1","1","5f78b0e3b43f410c88d3af45","","null","","","","","","","learning/Slide69.JPG","null","","","","","",""
"html-keyboard-response","212","339100","0.0-5.0-2.68","LF","r4145wj5y7","1600","900","0","1","1","5f78b0e3b43f410c88d3af45","","null","","","learningBlock1","","","","<div style=""font-size:60px;""> </div>","null","LF","learning/Slide69.JPG","This is a tob:","","",""
"html-keyboard-response","213","340116","0.0-5.0-0.69","LF","r4145wj5y7","1600","900","0","1","1","5f78b0e3b43f410c88d3af45","","null","","","learningBlock1","","","","This is a dep:","null","","","","","",""
"image-keyboard-response","214","340456","0.0-5.0-1.69","LF","r4145wj5y7","1600","900","0","1","1","5f78b0e3b43f410c88d3af45","","null","","","","","","","learning/Slide70.JPG","null","","","","","",""
"html-keyboard-response","215","341462","0.0-5.0-2.69","LF","r4145wj5y7","1600","900","0","1","1","5f78b0e3b43f410c88d3af45","","null","","","learningBlock1","","","","<div style=""font-size:60px;""> </div>","null","LF","learning/Slide70.JPG","This is a dep:","","",""
"html-keyboard-response","216","342468","0.0-5.0-0.70","LF","r4145wj5y7","1600","900","0","1","1","5f78b0e3b43f410c88d3af45","","null","","","learningBlock1","","","","This is a wug:","null","","","","","",""
"image-keyboard-response","217","342806","0.0-5.0-1.70","LF","r4145wj5y7","1600","900","0","1","1","5f78b0e3b43f410c88d3af45","","null","","","","","","","learning/Slide71.JPG","null","","","","","",""
"html-keyboard-response","218","343816","0.0-5.0-2.70","LF","r4145wj5y7","1600","900","0","1","1","5f78b0e3b43f410c88d3af45","","null","","","learningBlock1","","","","<div style=""font-size:60px;""> </div>","null","LF","learning/Slide71.JPG","This is a wug:","","",""
"html-keyboard-response","219","344818","0.0-5.0-0.71","LF","r4145wj5y7","1600","900","0","1","1","5f78b0e3b43f410c88d3af45","","null","","","learningBlock1","","","","This is a bim:","null","","","","","",""
"image-keyboard-response","220","345156","0.0-5.0-1.71","LF","r4145wj5y7","1600","900","0","1","1","5f78b0e3b43f410c88d3af45","","null","","","","","","","learning/Slide72.JPG","null","","","","","",""
"html-keyboard-response","221","346167","0.0-5.0-2.71","LF","r4145wj5y7","1600","900","0","1","1","5f78b0e3b43f410c88d3af45","","null","","","learningBlock1","","","","<div style=""font-size:60px;""> </div>","null","LF","learning/Slide72.JPG","This is a bim:","","",""
"html-keyboard-response","222","347184","0.0-5.0-0.72","LF","r4145wj5y7","1600","900","0","1","1","5f78b0e3b43f410c88d3af45","","null","","","learningBlock1","","","","This is a wug:","null","","","","","",""
"image-keyboard-response","223","347523","0.0-5.0-1.72","LF","r4145wj5y7","1600","900","0","1","1","5f78b0e3b43f410c88d3af45","","null","","","","","","","learning/Slide73.JPG","null","","","","","",""
"html-keyboard-response","224","348538","0.0-5.0-2.72","LF","r4145wj5y7","1600","900","0","1","1","5f78b0e3b43f410c88d3af45","","null","","","learningBlock1","","","","<div style=""font-size:60px;""> </div>","null","LF","learning/Slide73.JPG","This is a wug:","","",""
"html-keyboard-response","225","349550","0.0-5.0-0.73","LF","r4145wj5y7","1600","900","0","1","1","5f78b0e3b43f410c88d3af45","","null","","","learningBlock1","","","","This is a dep:","null","","","","","",""
"image-keyboard-response","226","349891","0.0-5.0-1.73","LF","r4145wj5y7","1600","900","0","1","1","5f78b0e3b43f410c88d3af45","","null","","","","","","","learning/Slide74.JPG","null","","","","","",""
"html-keyboard-response","227","350900","0.0-5.0-2.73","LF","r4145wj5y7","1600","900","0","1","1","5f78b0e3b43f410c88d3af45","","null","","","learningBlock1","","","","<div style=""font-size:60px;""> </div>","null","LF","learning/Slide74.JPG","This is a dep:","","",""
"html-keyboard-response","228","351902","0.0-5.0-0.74","LF","r4145wj5y7","1600","900","0","1","1","5f78b0e3b43f410c88d3af45","","null","","","learningBlock1","","","","This is a tob:","null","","","","","",""
"image-keyboard-response","229","352240","0.0-5.0-1.74","LF","r4145wj5y7","1600","900","0","1","1","5f78b0e3b43f410c88d3af45","","null","","","","","","","learning/Slide75.JPG","null","","","","","",""
"html-keyboard-response","230","353244","0.0-5.0-2.74","LF","r4145wj5y7","1600","900","0","1","1","5f78b0e3b43f410c88d3af45","","null","","","learningBlock1","","","","<div style=""font-size:60px;""> </div>","null","LF","learning/Slide75.JPG","This is a tob:","","",""
"html-keyboard-response","231","354251","0.0-5.0-0.75","LF","r4145wj5y7","1600","900","0","1","1","5f78b0e3b43f410c88d3af45","","null","","","learningBlock1","","","","This is a bim:","null","","","","","",""
"image-keyboard-response","232","354590","0.0-5.0-1.75","LF","r4145wj5y7","1600","900","0","1","1","5f78b0e3b43f410c88d3af45","","null","","","","","","","learning/Slide76.JPG","null","","","","","",""
"html-keyboard-response","233","355601","0.0-5.0-2.75","LF","r4145wj5y7","1600","900","0","1","1","5f78b0e3b43f410c88d3af45","","null","","","learningBlock1","","","","<div style=""font-size:60px;""> </div>","null","LF","learning/Slide76.JPG","This is a bim:","","",""
"html-keyboard-response","234","356607","0.0-5.0-0.76","LF","r4145wj5y7","1600","900","0","1","1","5f78b0e3b43f410c88d3af45","","null","","","learningBlock1","","","","This is a tob:","null","","","","","",""
"image-keyboard-response","235","356940","0.0-5.0-1.76","LF","r4145wj5y7","1600","900","0","1","1","5f78b0e3b43f410c88d3af45","","null","","","","","","","learning/Slide77.JPG","null","","","","","",""
"html-keyboard-response","236","357949","0.0-5.0-2.76","LF","r4145wj5y7","1600","900","0","1","1","5f78b0e3b43f410c88d3af45","","null","","","learningBlock1","","","","<div style=""font-size:60px;""> </div>","null","LF","learning/Slide77.JPG","This is a tob:","","",""
"html-keyboard-response","237","358954","0.0-5.0-0.77","LF","r4145wj5y7","1600","900","0","1","1","5f78b0e3b43f410c88d3af45","","null","","","learningBlock1","","","","This is a wug:","null","","","","","",""
"image-keyboard-response","238","359290","0.0-5.0-1.77","LF","r4145wj5y7","1600","900","0","1","1","5f78b0e3b43f410c88d3af45","","null","","","","","","","learning/Slide78.JPG","null","","","","","",""
"html-keyboard-response","239","360303","0.0-5.0-2.77","LF","r4145wj5y7","1600","900","0","1","1","5f78b0e3b43f410c88d3af45","","null","","","learningBlock1","","","","<div style=""font-size:60px;""> </div>","null","LF","learning/Slide78.JPG","This is a wug:","","",""
"html-keyboard-response","240","361318","0.0-5.0-0.78","LF","r4145wj5y7","1600","900","0","1","1","5f78b0e3b43f410c88d3af45","","null","","","learningBlock1","","","","This is a bim:","null","","","","","",""
"image-keyboard-response","241","361657","0.0-5.0-1.78","LF","r4145wj5y7","1600","900","0","1","1","5f78b0e3b43f410c88d3af45","","null","","","","","","","learning/Slide79.JPG","null","","","","","",""
"html-keyboard-response","242","362670","0.0-5.0-2.78","LF","r4145wj5y7","1600","900","0","1","1","5f78b0e3b43f410c88d3af45","","null","","","learningBlock1","","","","<div style=""font-size:60px;""> </div>","null","LF","learning/Slide79.JPG","This is a bim:","","",""
"html-keyboard-response","243","363685","0.0-5.0-0.79","LF","r4145wj5y7","1600","900","0","1","1","5f78b0e3b43f410c88d3af45","","null","","","learningBlock1","","","","This is a tob:","null","","","","","",""
"image-keyboard-response","244","364024","0.0-5.0-1.79","LF","r4145wj5y7","1600","900","0","1","1","5f78b0e3b43f410c88d3af45","","null","","","","","","","learning/Slide80.JPG","null","","","","","",""
"html-keyboard-response","245","365039","0.0-5.0-2.79","LF","r4145wj5y7","1600","900","0","1","1","5f78b0e3b43f410c88d3af45","","null","","","learningBlock1","","","","<div style=""font-size:60px;""> </div>","null","LF","learning/Slide80.JPG","This is a tob:","","",""
"instructions","246","377248","0.0-6.0","LF","r4145wj5y7","1600","900","0","1","1","5f78b0e3b43f410c88d3af45","","NA","","[{""page_index"":0,""viewing_time"":12208.359999998764}]","instructions","","","","","","","","","","",""
"html-keyboard-response","247","378256","0.0-7.0-0.0","LF","r4145wj5y7","1600","900","0","1","1","5f78b0e3b43f410c88d3af45","","null","","","learningBlock2","","","","This is a wug:","null","","","","","",""
"image-keyboard-response","248","378594","0.0-7.0-1.0","LF","r4145wj5y7","1600","900","0","1","1","5f78b0e3b43f410c88d3af45","","null","","","","","","","learning/Slide81.JPG","null","","","","","",""
"html-keyboard-response","249","379602","0.0-7.0-2.0","LF","r4145wj5y7","1600","900","0","1","1","5f78b0e3b43f410c88d3af45","","null","","","learningBlock2","","","","<div style=""font-size:60px;""> </div>","null","LF","learning/Slide81.JPG","This is a wug:","","",""
"html-keyboard-response","250","380604","0.0-7.0-0.1","LF","r4145wj5y7","1600","900","0","1","1","5f78b0e3b43f410c88d3af45","","null","","","learningBlock2","","","","This is a bim:","null","","","","","",""
"image-keyboard-response","251","380942","0.0-7.0-1.1","LF","r4145wj5y7","1600","900","0","1","1","5f78b0e3b43f410c88d3af45","","null","","","","","","","learning/Slide82.JPG","null","","","","","",""
"html-keyboard-response","252","381952","0.0-7.0-2.1","LF","r4145wj5y7","1600","900","0","1","1","5f78b0e3b43f410c88d3af45","","null","","","learningBlock2","","","","<div style=""font-size:60px;""> </div>","null","LF","learning/Slide82.JPG","This is a bim:","","",""
"html-keyboard-response","253","382954","0.0-7.0-0.2","LF","r4145wj5y7","1600","900","0","1","1","5f78b0e3b43f410c88d3af45","","null","","","learningBlock2","","","","This is a wug:","null","","","","","",""
"image-keyboard-response","254","383292","0.0-7.0-1.2","LF","r4145wj5y7","1600","900","0","1","1","5f78b0e3b43f410c88d3af45","","null","","","","","","","learning/Slide83.JPG","null","","","","","",""
"html-keyboard-response","255","384309","0.0-7.0-2.2","LF","r4145wj5y7","1600","900","0","1","1","5f78b0e3b43f410c88d3af45","","null","","","learningBlock2","","","","<div style=""font-size:60px;""> </div>","null","LF","learning/Slide83.JPG","This is a wug:","","",""
"html-keyboard-response","256","385320","0.0-7.0-0.3","LF","r4145wj5y7","1600","900","0","1","1","5f78b0e3b43f410c88d3af45","","null","","","learningBlock2","","","","This is a dep:","null","","","","","",""
"image-keyboard-response","257","385659","0.0-7.0-1.3","LF","r4145wj5y7","1600","900","0","1","1","5f78b0e3b43f410c88d3af45","","null","","","","","","","learning/Slide84.JPG","null","","","","","",""
"html-keyboard-response","258","386672","0.0-7.0-2.3","LF","r4145wj5y7","1600","900","0","1","1","5f78b0e3b43f410c88d3af45","","null","","","learningBlock2","","","","<div style=""font-size:60px;""> </div>","null","LF","learning/Slide84.JPG","This is a dep:","","",""
"html-keyboard-response","259","387687","0.0-7.0-0.4","LF","r4145wj5y7","1600","900","0","1","1","5f78b0e3b43f410c88d3af45","","null","","","learningBlock2","","","","This is a bim:","null","","","","","",""
"image-keyboard-response","260","388026","0.0-7.0-1.4","LF","r4145wj5y7","1600","900","0","1","1","5f78b0e3b43f410c88d3af45","","null","","","","","","","learning/Slide85.JPG","null","","","","","",""
"html-keyboard-response","261","389037","0.0-7.0-2.4","LF","r4145wj5y7","1600","900","0","1","1","5f78b0e3b43f410c88d3af45","","null","","","learningBlock2","","","","<div style=""font-size:60px;""> </div>","null","LF","learning/Slide85.JPG","This is a bim:","","",""
"html-keyboard-response","262","390054","0.0-7.0-0.5","LF","r4145wj5y7","1600","900","0","1","1","5f78b0e3b43f410c88d3af45","","null","","","learningBlock2","","","","This is a tob:","null","","","","","",""
"image-keyboard-response","263","390393","0.0-7.0-1.5","LF","r4145wj5y7","1600","900","0","1","1","5f78b0e3b43f410c88d3af45","","null","","","","","","","learning/Slide86.JPG","null","","","","","",""
"html-keyboard-response","264","391404","0.0-7.0-2.5","LF","r4145wj5y7","1600","900","0","1","1","5f78b0e3b43f410c88d3af45","","null","","","learningBlock2","","","","<div style=""font-size:60px;""> </div>","null","LF","learning/Slide86.JPG","This is a tob:","","",""
"html-keyboard-response","265","392419","0.0-7.0-0.6","LF","r4145wj5y7","1600","900","0","1","1","5f78b0e3b43f410c88d3af45","","null","","","learningBlock2","","","","This is a wug:","null","","","","","",""
"image-keyboard-response","266","392760","0.0-7.0-1.6","LF","r4145wj5y7","1600","900","0","1","1","5f78b0e3b43f410c88d3af45","","null","","","","","","","learning/Slide87.JPG","null","","","","","",""
"html-keyboard-response","267","393771","0.0-7.0-2.6","LF","r4145wj5y7","1600","900","0","1","1","5f78b0e3b43f410c88d3af45","","null","","","learningBlock2","","","","<div style=""font-size:60px;""> </div>","null","LF","learning/Slide87.JPG","This is a wug:","","",""
"html-keyboard-response","268","394776","0.0-7.0-0.7","LF","r4145wj5y7","1600","900","0","1","1","5f78b0e3b43f410c88d3af45","","null","","","learningBlock2","","","","This is a tob:","null","","","","","",""
"image-keyboard-response","269","395110","0.0-7.0-1.7","LF","r4145wj5y7","1600","900","0","1","1","5f78b0e3b43f410c88d3af45","","null","","","","","","","learning/Slide88.JPG","null","","","","","",""
"html-keyboard-response","270","396121","0.0-7.0-2.7","LF","r4145wj5y7","1600","900","0","1","1","5f78b0e3b43f410c88d3af45","","null","","","learningBlock2","","","","<div style=""font-size:60px;""> </div>","null","LF","learning/Slide88.JPG","This is a tob:","","",""
"html-keyboard-response","271","397137","0.0-7.0-0.8","LF","r4145wj5y7","1600","900","0","1","1","5f78b0e3b43f410c88d3af45","","null","","","learningBlock2","","","","This is a bim:","null","","","","","",""
"image-keyboard-response","272","397477","0.0-7.0-1.8","LF","r4145wj5y7","1600","900","0","1","1","5f78b0e3b43f410c88d3af45","","null","","","","","","","learning/Slide89.JPG","null","","","","","",""
"html-keyboard-response","273","398487","0.0-7.0-2.8","LF","r4145wj5y7","1600","900","0","1","1","5f78b0e3b43f410c88d3af45","","null","","","learningBlock2","","","","<div style=""font-size:60px;""> </div>","null","LF","learning/Slide89.JPG","This is a bim:","","",""
"html-keyboard-response","274","399489","0.0-7.0-0.9","LF","r4145wj5y7","1600","900","0","1","1","5f78b0e3b43f410c88d3af45","","null","","","learningBlock2","","","","This is a dep:","null","","","","","",""
"image-keyboard-response","275","399827","0.0-7.0-1.9","LF","r4145wj5y7","1600","900","0","1","1","5f78b0e3b43f410c88d3af45","","null","","","","","","","learning/Slide90.JPG","null","","","","","",""
"html-keyboard-response","276","400838","0.0-7.0-2.9","LF","r4145wj5y7","1600","900","0","1","1","5f78b0e3b43f410c88d3af45","","null","","","learningBlock2","","","","<div style=""font-size:60px;""> </div>","null","LF","learning/Slide90.JPG","This is a dep:","","",""
"html-keyboard-response","277","401852","0.0-7.0-0.10","LF","r4145wj5y7","1600","900","0","1","1","5f78b0e3b43f410c88d3af45","","null","","","learningBlock2","","","","This is a wug:","null","","","","","",""
"image-keyboard-response","278","402194","0.0-7.0-1.10","LF","r4145wj5y7","1600","900","0","1","1","5f78b0e3b43f410c88d3af45","","null","","","","","","","learning/Slide91.JPG","null","","","","","",""
"html-keyboard-response","279","403204","0.0-7.0-2.10","LF","r4145wj5y7","1600","900","0","1","1","5f78b0e3b43f410c88d3af45","","null","","","learningBlock2","","","","<div style=""font-size:60px;""> </div>","null","LF","learning/Slide91.JPG","This is a wug:","","",""
"html-keyboard-response","280","404221","0.0-7.0-0.11","LF","r4145wj5y7","1600","900","0","1","1","5f78b0e3b43f410c88d3af45","","null","","","learningBlock2","","","","This is a tob:","null","","","","","",""
"image-keyboard-response","281","404560","0.0-7.0-1.11","LF","r4145wj5y7","1600","900","0","1","1","5f78b0e3b43f410c88d3af45","","null","","","","","","","learning/Slide92.JPG","null","","","","","",""
"html-keyboard-response","282","405571","0.0-7.0-2.11","LF","r4145wj5y7","1600","900","0","1","1","5f78b0e3b43f410c88d3af45","","null","","","learningBlock2","","","","<div style=""font-size:60px;""> </div>","null","LF","learning/Slide92.JPG","This is a tob:","","",""
"html-keyboard-response","283","406577","0.0-7.0-0.12","LF","r4145wj5y7","1600","900","0","1","1","5f78b0e3b43f410c88d3af45","","null","","","learningBlock2","","","","This is a bim:","null","","","","","",""
"image-keyboard-response","284","406911","0.0-7.0-1.12","LF","r4145wj5y7","1600","900","0","1","1","5f78b0e3b43f410c88d3af45","","null","","","","","","","learning/Slide93.JPG","null","","","","","",""
"html-keyboard-response","285","407921","0.0-7.0-2.12","LF","r4145wj5y7","1600","900","0","1","1","5f78b0e3b43f410c88d3af45","","null","","","learningBlock2","","","","<div style=""font-size:60px;""> </div>","null","LF","learning/Slide93.JPG","This is a bim:","","",""
"html-keyboard-response","286","408938","0.0-7.0-0.13","LF","r4145wj5y7","1600","900","0","1","1","5f78b0e3b43f410c88d3af45","","null","","","learningBlock2","","","","This is a tob:","null","","","","","",""
"image-keyboard-response","287","409278","0.0-7.0-1.13","LF","r4145wj5y7","1600","900","0","1","1","5f78b0e3b43f410c88d3af45","","null","","","","","","","learning/Slide94.JPG","null","","","","","",""
"html-keyboard-response","288","410289","0.0-7.0-2.13","LF","r4145wj5y7","1600","900","0","1","1","5f78b0e3b43f410c88d3af45","","null","","","learningBlock2","","","","<div style=""font-size:60px;""> </div>","null","LF","learning/Slide94.JPG","This is a tob:","","",""
"html-keyboard-response","289","411305","0.0-7.0-0.14","LF","r4145wj5y7","1600","900","0","1","1","5f78b0e3b43f410c88d3af45","","null","","","learningBlock2","","","","This is a wug:","null","","","","","",""
"image-keyboard-response","290","411644","0.0-7.0-1.14","LF","r4145wj5y7","1600","900","0","1","1","5f78b0e3b43f410c88d3af45","","null","","","","","","","learning/Slide95.JPG","null","","","","","",""
"html-keyboard-response","291","412646","0.0-7.0-2.14","LF","r4145wj5y7","1600","900","0","1","1","5f78b0e3b43f410c88d3af45","","null","","","learningBlock2","","","","<div style=""font-size:60px;""> </div>","null","LF","learning/Slide95.JPG","This is a wug:","","",""
"html-keyboard-response","292","413655","0.0-7.0-0.15","LF","r4145wj5y7","1600","900","0","1","1","5f78b0e3b43f410c88d3af45","","null","","","learningBlock2","","","","This is a tob:","null","","","","","",""
"image-keyboard-response","293","413996","0.0-7.0-1.15","LF","r4145wj5y7","1600","900","0","1","1","5f78b0e3b43f410c88d3af45","","null","","","","","","","learning/Slide96.JPG","null","","","","","",""
"html-keyboard-response","294","415006","0.0-7.0-2.15","LF","r4145wj5y7","1600","900","0","1","1","5f78b0e3b43f410c88d3af45","","null","","","learningBlock2","","","","<div style=""font-size:60px;""> </div>","null","LF","learning/Slide96.JPG","This is a tob:","","",""
"html-keyboard-response","295","416023","0.0-7.0-0.16","LF","r4145wj5y7","1600","900","0","1","1","5f78b0e3b43f410c88d3af45","","null","","","learningBlock2","","","","This is a dep:","null","","","","","",""
"image-keyboard-response","296","416361","0.0-7.0-1.16","LF","r4145wj5y7","1600","900","0","1","1","5f78b0e3b43f410c88d3af45","","null","","","","","","","learning/Slide97.JPG","null","","","","","",""
"html-keyboard-response","297","417375","0.0-7.0-2.16","LF","r4145wj5y7","1600","900","0","1","1","5f78b0e3b43f410c88d3af45","","null","","","learningBlock2","","","","<div style=""font-size:60px;""> </div>","null","LF","learning/Slide97.JPG","This is a dep:","","",""
"html-keyboard-response","298","418389","0.0-7.0-0.17","LF","r4145wj5y7","1600","900","0","1","1","5f78b0e3b43f410c88d3af45","","null","","","learningBlock2","","","","This is a bim:","null","","","","","",""
"image-keyboard-response","299","418729","0.0-7.0-1.17","LF","r4145wj5y7","1600","900","0","1","1","5f78b0e3b43f410c88d3af45","","null","","","","","","","learning/Slide98.JPG","null","","","","","",""
"html-keyboard-response","300","419743","0.0-7.0-2.17","LF","r4145wj5y7","1600","900","0","1","1","5f78b0e3b43f410c88d3af45","","null","","","learningBlock2","","","","<div style=""font-size:60px;""> </div>","null","LF","learning/Slide98.JPG","This is a bim:","","",""
"html-keyboard-response","301","420756","0.0-7.0-0.18","LF","r4145wj5y7","1600","900","0","1","1","5f78b0e3b43f410c88d3af45","","null","","","learningBlock2","","","","This is a dep:","null","","","","","",""
"image-keyboard-response","302","421095","0.0-7.0-1.18","LF","r4145wj5y7","1600","900","0","1","1","5f78b0e3b43f410c88d3af45","","null","","","","","","","learning/Slide99.JPG","null","","","","","",""
"html-keyboard-response","303","422101","0.0-7.0-2.18","LF","r4145wj5y7","1600","900","0","1","1","5f78b0e3b43f410c88d3af45","","null","","","learningBlock2","","","","<div style=""font-size:60px;""> </div>","null","LF","learning/Slide99.JPG","This is a dep:","","",""
"html-keyboard-response","304","423106","0.0-7.0-0.19","LF","r4145wj5y7","1600","900","0","1","1","5f78b0e3b43f410c88d3af45","","null","","","learningBlock2","","","","This is a bim:","null","","","","","",""
"image-keyboard-response","305","423445","0.0-7.0-1.19","LF","r4145wj5y7","1600","900","0","1","1","5f78b0e3b43f410c88d3af45","","null","","","","","","","learning/Slide100.JPG","null","","","","","",""
"html-keyboard-response","306","424456","0.0-7.0-2.19","LF","r4145wj5y7","1600","900","0","1","1","5f78b0e3b43f410c88d3af45","","null","","","learningBlock2","","","","<div style=""font-size:60px;""> </div>","null","LF","learning/Slide100.JPG","This is a bim:","","",""
"html-keyboard-response","307","425473","0.0-7.0-0.20","LF","r4145wj5y7","1600","900","0","1","1","5f78b0e3b43f410c88d3af45","","null","","","learningBlock2","","","","This is a tob:","null","","","","","",""
"image-keyboard-response","308","425812","0.0-7.0-1.20","LF","r4145wj5y7","1600","900","0","1","1","5f78b0e3b43f410c88d3af45","","null","","","","","","","learning/Slide101.JPG","null","","","","","",""
"html-keyboard-response","309","426823","0.0-7.0-2.20","LF","r4145wj5y7","1600","900","0","1","1","5f78b0e3b43f410c88d3af45","","null","","","learningBlock2","","","","<div style=""font-size:60px;""> </div>","null","LF","learning/Slide101.JPG","This is a tob:","","",""
"html-keyboard-response","310","427839","0.0-7.0-0.21","LF","r4145wj5y7","1600","900","0","1","1","5f78b0e3b43f410c88d3af45","","null","","","learningBlock2","","","","This is a bim:","null","","","","","",""
"image-keyboard-response","311","428180","0.0-7.0-1.21","LF","r4145wj5y7","1600","900","0","1","1","5f78b0e3b43f410c88d3af45","","null","","","","","","","learning/Slide102.JPG","null","","","","","",""
"html-keyboard-response","312","429190","0.0-7.0-2.21","LF","r4145wj5y7","1600","900","0","1","1","5f78b0e3b43f410c88d3af45","","null","","","learningBlock2","","","","<div style=""font-size:60px;""> </div>","null","LF","learning/Slide102.JPG","This is a bim:","","",""
"html-keyboard-response","313","430207","0.0-7.0-0.22","LF","r4145wj5y7","1600","900","0","1","1","5f78b0e3b43f410c88d3af45","","null","","","learningBlock2","","","","This is a dep:","null","","","","","",""
"image-keyboard-response","314","430546","0.0-7.0-1.22","LF","r4145wj5y7","1600","900","0","1","1","5f78b0e3b43f410c88d3af45","","null","","","","","","","learning/Slide103.JPG","null","","","","","",""
"html-keyboard-response","315","431551","0.0-7.0-2.22","LF","r4145wj5y7","1600","900","0","1","1","5f78b0e3b43f410c88d3af45","","null","","","learningBlock2","","","","<div style=""font-size:60px;""> </div>","null","LF","learning/Slide103.JPG","This is a dep:","","",""
"html-keyboard-response","316","432556","0.0-7.0-0.23","LF","r4145wj5y7","1600","900","0","1","1","5f78b0e3b43f410c88d3af45","","null","","","learningBlock2","","","","This is a tob:","null","","","","","",""
"image-keyboard-response","317","432897","0.0-7.0-1.23","LF","r4145wj5y7","1600","900","0","1","1","5f78b0e3b43f410c88d3af45","","null","","","","","","","learning/Slide104.JPG","null","","","","","",""
"html-keyboard-response","318","433899","0.0-7.0-2.23","LF","r4145wj5y7","1600","900","0","1","1","5f78b0e3b43f410c88d3af45","","null","","","learningBlock2","","","","<div style=""font-size:60px;""> </div>","null","LF","learning/Slide104.JPG","This is a tob:","","",""
"html-keyboard-response","319","434907","0.0-7.0-0.24","LF","r4145wj5y7","1600","900","0","1","1","5f78b0e3b43f410c88d3af45","","null","","","learningBlock2","","","","This is a dep:","null","","","","","",""
"image-keyboard-response","320","435246","0.0-7.0-1.24","LF","r4145wj5y7","1600","900","0","1","1","5f78b0e3b43f410c88d3af45","","null","","","","","","","learning/Slide105.JPG","null","","","","","",""
"html-keyboard-response","321","436257","0.0-7.0-2.24","LF","r4145wj5y7","1600","900","0","1","1","5f78b0e3b43f410c88d3af45","","null","","","learningBlock2","","","","<div style=""font-size:60px;""> </div>","null","LF","learning/Slide105.JPG","This is a dep:","","",""
"html-keyboard-response","322","437258","0.0-7.0-0.25","LF","r4145wj5y7","1600","900","0","1","1","5f78b0e3b43f410c88d3af45","","null","","","learningBlock2","","","","This is a wug:","null","","","","","",""
"image-keyboard-response","323","437597","0.0-7.0-1.25","LF","r4145wj5y7","1600","900","0","1","1","5f78b0e3b43f410c88d3af45","","null","","","","","","","learning/Slide106.JPG","null","","","","","",""
"html-keyboard-response","324","438601","0.0-7.0-2.25","LF","r4145wj5y7","1600","900","0","1","1","5f78b0e3b43f410c88d3af45","","null","","","learningBlock2","","","","<div style=""font-size:60px;""> </div>","null","LF","learning/Slide106.JPG","This is a wug:","","",""
"html-keyboard-response","325","439604","0.0-7.0-0.26","LF","r4145wj5y7","1600","900","0","1","1","5f78b0e3b43f410c88d3af45","","null","","","learningBlock2","","","","This is a bim:","null","","","","","",""
"image-keyboard-response","326","439947","0.0-7.0-1.26","LF","r4145wj5y7","1600","900","0","1","1","5f78b0e3b43f410c88d3af45","","null","","","","","","","learning/Slide107.JPG","null","","","","","",""
"html-keyboard-response","327","440958","0.0-7.0-2.26","LF","r4145wj5y7","1600","900","0","1","1","5f78b0e3b43f410c88d3af45","","null","","","learningBlock2","","","","<div style=""font-size:60px;""> </div>","null","LF","learning/Slide107.JPG","This is a bim:","","",""
"html-keyboard-response","328","441974","0.0-7.0-0.27","LF","r4145wj5y7","1600","900","0","1","1","5f78b0e3b43f410c88d3af45","","null","","","learningBlock2","","","","This is a dep:","null","","","","","",""
"image-keyboard-response","329","442314","0.0-7.0-1.27","LF","r4145wj5y7","1600","900","0","1","1","5f78b0e3b43f410c88d3af45","","null","","","","","","","learning/Slide108.JPG","null","","","","","",""
"html-keyboard-response","330","443323","0.0-7.0-2.27","LF","r4145wj5y7","1600","900","0","1","1","5f78b0e3b43f410c88d3af45","","null","","","learningBlock2","","","","<div style=""font-size:60px;""> </div>","null","LF","learning/Slide108.JPG","This is a dep:","","",""
"html-keyboard-response","331","444326","0.0-7.0-0.28","LF","r4145wj5y7","1600","900","0","1","1","5f78b0e3b43f410c88d3af45","","null","","","learningBlock2","","","","This is a wug:","null","","","","","",""
"image-keyboard-response","332","444664","0.0-7.0-1.28","LF","r4145wj5y7","1600","900","0","1","1","5f78b0e3b43f410c88d3af45","","null","","","","","","","learning/Slide109.JPG","null","","","","","",""
"html-keyboard-response","333","445678","0.0-7.0-2.28","LF","r4145wj5y7","1600","900","0","1","1","5f78b0e3b43f410c88d3af45","","null","","","learningBlock2","","","","<div style=""font-size:60px;""> </div>","null","LF","learning/Slide109.JPG","This is a wug:","","",""
"html-keyboard-response","334","446692","0.0-7.0-0.29","LF","r4145wj5y7","1600","900","0","1","1","5f78b0e3b43f410c88d3af45","","null","","","learningBlock2","","","","This is a bim:","null","","","","","",""
"image-keyboard-response","335","447031","0.0-7.0-1.29","LF","r4145wj5y7","1600","900","0","1","1","5f78b0e3b43f410c88d3af45","","null","","","","","","","learning/Slide110.JPG","null","","","","","",""
"html-keyboard-response","336","448041","0.0-7.0-2.29","LF","r4145wj5y7","1600","900","0","1","1","5f78b0e3b43f410c88d3af45","","null","","","learningBlock2","","","","<div style=""font-size:60px;""> </div>","null","LF","learning/Slide110.JPG","This is a bim:","","",""
"html-keyboard-response","337","449043","0.0-7.0-0.30","LF","r4145wj5y7","1600","900","0","1","1","5f78b0e3b43f410c88d3af45","","null","","","learningBlock2","","","","This is a tob:","null","","","","","",""
"image-keyboard-response","338","449382","0.0-7.0-1.30","LF","r4145wj5y7","1600","900","0","1","1","5f78b0e3b43f410c88d3af45","","null","","","","","","","learning/Slide111.JPG","null","","","","","",""
"html-keyboard-response","339","450397","0.0-7.0-2.30","LF","r4145wj5y7","1600","900","0","1","1","5f78b0e3b43f410c88d3af45","","null","","","learningBlock2","","","","<div style=""font-size:60px;""> </div>","null","LF","learning/Slide111.JPG","This is a tob:","","",""
"html-keyboard-response","340","451409","0.0-7.0-0.31","LF","r4145wj5y7","1600","900","0","1","1","5f78b0e3b43f410c88d3af45","","null","","","learningBlock2","","","","This is a wug:","null","","","","","",""
"image-keyboard-response","341","451748","0.0-7.0-1.31","LF","r4145wj5y7","1600","900","0","1","1","5f78b0e3b43f410c88d3af45","","null","","","","","","","learning/Slide112.JPG","null","","","","","",""
"html-keyboard-response","342","452749","0.0-7.0-2.31","LF","r4145wj5y7","1600","900","0","1","1","5f78b0e3b43f410c88d3af45","","null","","","learningBlock2","","","","<div style=""font-size:60px;""> </div>","null","LF","learning/Slide112.JPG","This is a wug:","","",""
"html-keyboard-response","343","453758","0.0-7.0-0.32","LF","r4145wj5y7","1600","900","0","1","1","5f78b0e3b43f410c88d3af45","","null","","","learningBlock2","","","","This is a tob:","null","","","","","",""
"image-keyboard-response","344","454098","0.0-7.0-1.32","LF","r4145wj5y7","1600","900","0","1","1","5f78b0e3b43f410c88d3af45","","null","","","","","","","learning/Slide113.JPG","null","","","","","",""
"html-keyboard-response","345","455109","0.0-7.0-2.32","LF","r4145wj5y7","1600","900","0","1","1","5f78b0e3b43f410c88d3af45","","null","","","learningBlock2","","","","<div style=""font-size:60px;""> </div>","null","LF","learning/Slide113.JPG","This is a tob:","","",""
"html-keyboard-response","346","456126","0.0-7.0-0.33","LF","r4145wj5y7","1600","900","0","1","1","5f78b0e3b43f410c88d3af45","","null","","","learningBlock2","","","","This is a wug:","null","","","","","",""
"image-keyboard-response","347","456465","0.0-7.0-1.33","LF","r4145wj5y7","1600","900","0","1","1","5f78b0e3b43f410c88d3af45","","null","","","","","","","learning/Slide114.JPG","null","","","","","",""
"html-keyboard-response","348","457480","0.0-7.0-2.33","LF","r4145wj5y7","1600","900","0","1","1","5f78b0e3b43f410c88d3af45","","null","","","learningBlock2","","","","<div style=""font-size:60px;""> </div>","null","LF","learning/Slide114.JPG","This is a wug:","","",""
"html-keyboard-response","349","458492","0.0-7.0-0.34","LF","r4145wj5y7","1600","900","0","1","1","5f78b0e3b43f410c88d3af45","","null","","","learningBlock2","","","","This is a bim:","null","","","","","",""
"image-keyboard-response","350","458831","0.0-7.0-1.34","LF","r4145wj5y7","1600","900","0","1","1","5f78b0e3b43f410c88d3af45","","null","","","","","","","learning/Slide115.JPG","null","","","","","",""
"html-keyboard-response","351","459842","0.0-7.0-2.34","LF","r4145wj5y7","1600","900","0","1","1","5f78b0e3b43f410c88d3af45","","null","","","learningBlock2","","","","<div style=""font-size:60px;""> </div>","null","LF","learning/Slide115.JPG","This is a bim:","","",""
"html-keyboard-response","352","460844","0.0-7.0-0.35","LF","r4145wj5y7","1600","900","0","1","1","5f78b0e3b43f410c88d3af45","","null","","","learningBlock2","","","","This is a dep:","null","","","","","",""
"image-keyboard-response","353","461184","0.0-7.0-1.35","LF","r4145wj5y7","1600","900","0","1","1","5f78b0e3b43f410c88d3af45","","null","","","","","","","learning/Slide116.JPG","null","","","","","",""
"html-keyboard-response","354","462193","0.0-7.0-2.35","LF","r4145wj5y7","1600","900","0","1","1","5f78b0e3b43f410c88d3af45","","null","","","learningBlock2","","","","<div style=""font-size:60px;""> </div>","null","LF","learning/Slide116.JPG","This is a dep:","","",""
"html-keyboard-response","355","463209","0.0-7.0-0.36","LF","r4145wj5y7","1600","900","0","1","1","5f78b0e3b43f410c88d3af45","","null","","","learningBlock2","","","","This is a tob:","null","","","","","",""
"image-keyboard-response","356","463548","0.0-7.0-1.36","LF","r4145wj5y7","1600","900","0","1","1","5f78b0e3b43f410c88d3af45","","null","","","","","","","learning/Slide117.JPG","null","","","","","",""
"html-keyboard-response","357","464559","0.0-7.0-2.36","LF","r4145wj5y7","1600","900","0","1","1","5f78b0e3b43f410c88d3af45","","null","","","learningBlock2","","","","<div style=""font-size:60px;""> </div>","null","LF","learning/Slide117.JPG","This is a tob:","","",""
"html-keyboard-response","358","465565","0.0-7.0-0.37","LF","r4145wj5y7","1600","900","0","1","1","5f78b0e3b43f410c88d3af45","","null","","","learningBlock2","","","","This is a dep:","null","","","","","",""
"image-keyboard-response","359","465899","0.0-7.0-1.37","LF","r4145wj5y7","1600","900","0","1","1","5f78b0e3b43f410c88d3af45","","null","","","","","","","learning/Slide118.JPG","null","","","","","",""
"html-keyboard-response","360","466900","0.0-7.0-2.37","LF","r4145wj5y7","1600","900","0","1","1","5f78b0e3b43f410c88d3af45","","null","","","learningBlock2","","","","<div style=""font-size:60px;""> </div>","null","LF","learning/Slide118.JPG","This is a dep:","","",""
"html-keyboard-response","361","467914","0.0-7.0-0.38","LF","r4145wj5y7","1600","900","0","1","1","5f78b0e3b43f410c88d3af45","","null","","","learningBlock2","","","","This is a wug:","null","","","","","",""
"image-keyboard-response","362","468249","0.0-7.0-1.38","LF","r4145wj5y7","1600","900","0","1","1","5f78b0e3b43f410c88d3af45","","null","","","","","","","learning/Slide119.JPG","null","","","","","",""
"html-keyboard-response","363","469259","0.0-7.0-2.38","LF","r4145wj5y7","1600","900","0","1","1","5f78b0e3b43f410c88d3af45","","null","","","learningBlock2","","","","<div style=""font-size:60px;""> </div>","null","LF","learning/Slide119.JPG","This is a wug:","","",""
"html-keyboard-response","364","470276","0.0-7.0-0.39","LF","r4145wj5y7","1600","900","0","1","1","5f78b0e3b43f410c88d3af45","","null","","","learningBlock2","","","","This is a dep:","null","","","","","",""
"image-keyboard-response","365","470616","0.0-7.0-1.39","LF","r4145wj5y7","1600","900","0","1","1","5f78b0e3b43f410c88d3af45","","null","","","","","","","learning/Slide120.JPG","null","","","","","",""
"html-keyboard-response","366","471625","0.0-7.0-2.39","LF","r4145wj5y7","1600","900","0","1","1","5f78b0e3b43f410c88d3af45","","null","","","learningBlock2","","","","<div style=""font-size:60px;""> </div>","null","LF","learning/Slide120.JPG","This is a dep:","","",""
"html-keyboard-response","367","472628","0.0-7.0-0.40","LF","r4145wj5y7","1600","900","0","1","1","5f78b0e3b43f410c88d3af45","","null","","","learningBlock2","","","","This is a bim:","null","","","","","",""
"image-keyboard-response","368","472960","0.0-7.0-1.40","LF","r4145wj5y7","1600","900","0","1","1","5f78b0e3b43f410c88d3af45","","null","","","","","","","learning/Slide121.JPG","null","","","","","",""
"html-keyboard-response","369","473975","0.0-7.0-2.40","LF","r4145wj5y7","1600","900","0","1","1","5f78b0e3b43f410c88d3af45","","null","","","learningBlock2","","","","<div style=""font-size:60px;""> </div>","null","LF","learning/Slide121.JPG","This is a bim:","","",""
"html-keyboard-response","370","474980","0.0-7.0-0.41","LF","r4145wj5y7","1600","900","0","1","1","5f78b0e3b43f410c88d3af45","","null","","","learningBlock2","","","","This is a wug:","null","","","","","",""
"image-keyboard-response","371","475316","0.0-7.0-1.41","LF","r4145wj5y7","1600","900","0","1","1","5f78b0e3b43f410c88d3af45","","null","","","","","","","learning/Slide122.JPG","null","","","","","",""
"html-keyboard-response","372","476323","0.0-7.0-2.41","LF","r4145wj5y7","1600","900","0","1","1","5f78b0e3b43f410c88d3af45","","null","","","learningBlock2","","","","<div style=""font-size:60px;""> </div>","null","LF","learning/Slide122.JPG","This is a wug:","","",""
"html-keyboard-response","373","477328","0.0-7.0-0.42","LF","r4145wj5y7","1600","900","0","1","1","5f78b0e3b43f410c88d3af45","","null","","","learningBlock2","","","","This is a bim:","null","","","","","",""
"image-keyboard-response","374","477666","0.0-7.0-1.42","LF","r4145wj5y7","1600","900","0","1","1","5f78b0e3b43f410c88d3af45","","null","","","","","","","learning/Slide123.JPG","null","","","","","",""
"html-keyboard-response","375","478677","0.0-7.0-2.42","LF","r4145wj5y7","1600","900","0","1","1","5f78b0e3b43f410c88d3af45","","null","","","learningBlock2","","","","<div style=""font-size:60px;""> </div>","null","LF","learning/Slide123.JPG","This is a bim:","","",""
"html-keyboard-response","376","479682","0.0-7.0-0.43","LF","r4145wj5y7","1600","900","0","1","1","5f78b0e3b43f410c88d3af45","","null","","","learningBlock2","","","","This is a tob:","null","","","","","",""
"image-keyboard-response","377","480016","0.0-7.0-1.43","LF","r4145wj5y7","1600","900","0","1","1","5f78b0e3b43f410c88d3af45","","null","","","","","","","learning/Slide124.JPG","null","","","","","",""
"html-keyboard-response","378","481027","0.0-7.0-2.43","LF","r4145wj5y7","1600","900","0","1","1","5f78b0e3b43f410c88d3af45","","null","","","learningBlock2","","","","<div style=""font-size:60px;""> </div>","null","LF","learning/Slide124.JPG","This is a tob:","","",""
"html-keyboard-response","379","482029","0.0-7.0-0.44","LF","r4145wj5y7","1600","900","0","1","1","5f78b0e3b43f410c88d3af45","","null","","","learningBlock2","","","","This is a bim:","null","","","","","",""
"image-keyboard-response","380","482366","0.0-7.0-1.44","LF","r4145wj5y7","1600","900","0","1","1","5f78b0e3b43f410c88d3af45","","null","","","","","","","learning/Slide125.JPG","null","","","","","",""
"html-keyboard-response","381","483381","0.0-7.0-2.44","LF","r4145wj5y7","1600","900","0","1","1","5f78b0e3b43f410c88d3af45","","null","","","learningBlock2","","","","<div style=""font-size:60px;""> </div>","null","LF","learning/Slide125.JPG","This is a bim:","","",""
"html-keyboard-response","382","484394","0.0-7.0-0.45","LF","r4145wj5y7","1600","900","0","1","1","5f78b0e3b43f410c88d3af45","","null","","","learningBlock2","","","","This is a tob:","null","","","","","",""
"image-keyboard-response","383","484742","0.0-7.0-1.45","LF","r4145wj5y7","1600","900","0","1","1","5f78b0e3b43f410c88d3af45","","null","","","","","","","learning/Slide126.JPG","null","","","","","",""
"html-keyboard-response","384","485750","0.0-7.0-2.45","LF","r4145wj5y7","1600","900","0","1","1","5f78b0e3b43f410c88d3af45","","null","","","learningBlock2","","","","<div style=""font-size:60px;""> </div>","null","LF","learning/Slide126.JPG","This is a tob:","","",""
"html-keyboard-response","385","486760","0.0-7.0-0.46","LF","r4145wj5y7","1600","900","0","1","1","5f78b0e3b43f410c88d3af45","","null","","","learningBlock2","","","","This is a dep:","null","","","","","",""
"image-keyboard-response","386","487100","0.0-7.0-1.46","LF","r4145wj5y7","1600","900","0","1","1","5f78b0e3b43f410c88d3af45","","null","","","","","","","learning/Slide127.JPG","null","","","","","",""
"html-keyboard-response","387","488112","0.0-7.0-2.46","LF","r4145wj5y7","1600","900","0","1","1","5f78b0e3b43f410c88d3af45","","null","","","learningBlock2","","","","<div style=""font-size:60px;""> </div>","null","LF","learning/Slide127.JPG","This is a dep:","","",""
"html-keyboard-response","388","489115","0.0-7.0-0.47","LF","r4145wj5y7","1600","900","0","1","1","5f78b0e3b43f410c88d3af45","","null","","","learningBlock2","","","","This is a wug:","null","","","","","",""
"image-keyboard-response","389","489450","0.0-7.0-1.47","LF","r4145wj5y7","1600","900","0","1","1","5f78b0e3b43f410c88d3af45","","null","","","","","","","learning/Slide128.JPG","null","","","","","",""
"html-keyboard-response","390","490461","0.0-7.0-2.47","LF","r4145wj5y7","1600","900","0","1","1","5f78b0e3b43f410c88d3af45","","null","","","learningBlock2","","","","<div style=""font-size:60px;""> </div>","null","LF","learning/Slide128.JPG","This is a wug:","","",""
"html-keyboard-response","391","491463","0.0-7.0-0.48","LF","r4145wj5y7","1600","900","0","1","1","5f78b0e3b43f410c88d3af45","","null","","","learningBlock2","","","","This is a tob:","null","","","","","",""
"image-keyboard-response","392","491800","0.0-7.0-1.48","LF","r4145wj5y7","1600","900","0","1","1","5f78b0e3b43f410c88d3af45","","null","","","","","","","learning/Slide129.JPG","null","","","","","",""
"html-keyboard-response","393","492802","0.0-7.0-2.48","LF","r4145wj5y7","1600","900","0","1","1","5f78b0e3b43f410c88d3af45","","null","","","learningBlock2","","","","<div style=""font-size:60px;""> </div>","null","LF","learning/Slide129.JPG","This is a tob:","","",""
"html-keyboard-response","394","493812","0.0-7.0-0.49","LF","r4145wj5y7","1600","900","0","1","1","5f78b0e3b43f410c88d3af45","","null","","","learningBlock2","","","","This is a wug:","null","","","","","",""
"image-keyboard-response","395","494151","0.0-7.0-1.49","LF","r4145wj5y7","1600","900","0","1","1","5f78b0e3b43f410c88d3af45","","null","","","","","","","learning/Slide130.JPG","null","","","","","",""
"html-keyboard-response","396","495164","0.0-7.0-2.49","LF","r4145wj5y7","1600","900","0","1","1","5f78b0e3b43f410c88d3af45","","null","","","learningBlock2","","","","<div style=""font-size:60px;""> </div>","null","LF","learning/Slide130.JPG","This is a wug:","","",""
"html-keyboard-response","397","496178","0.0-7.0-0.50","LF","r4145wj5y7","1600","900","0","1","1","5f78b0e3b43f410c88d3af45","","null","","","learningBlock2","","","","This is a bim:","null","","","","","",""
"image-keyboard-response","398","496517","0.0-7.0-1.50","LF","r4145wj5y7","1600","900","0","1","1","5f78b0e3b43f410c88d3af45","","null","","","","","","","learning/Slide131.JPG","null","","","","","",""
"html-keyboard-response","399","497528","0.0-7.0-2.50","LF","r4145wj5y7","1600","900","0","1","1","5f78b0e3b43f410c88d3af45","","null","","","learningBlock2","","","","<div style=""font-size:60px;""> </div>","null","LF","learning/Slide131.JPG","This is a bim:","","",""
"html-keyboard-response","400","498534","0.0-7.0-0.51","LF","r4145wj5y7","1600","900","0","1","1","5f78b0e3b43f410c88d3af45","","null","","","learningBlock2","","","","This is a dep:","null","","","","","",""
"image-keyboard-response","401","498867","0.0-7.0-1.51","LF","r4145wj5y7","1600","900","0","1","1","5f78b0e3b43f410c88d3af45","","null","","","","","","","learning/Slide132.JPG","null","","","","","",""
"html-keyboard-response","402","499879","0.0-7.0-2.51","LF","r4145wj5y7","1600","900","0","1","1","5f78b0e3b43f410c88d3af45","","null","","","learningBlock2","","","","<div style=""font-size:60px;""> </div>","null","LF","learning/Slide132.JPG","This is a dep:","","",""
"html-keyboard-response","403","500880","0.0-7.0-0.52","LF","r4145wj5y7","1600","900","0","1","1","5f78b0e3b43f410c88d3af45","","null","","","learningBlock2","","","","This is a tob:","null","","","","","",""
"image-keyboard-response","404","501218","0.0-7.0-1.52","LF","r4145wj5y7","1600","900","0","1","1","5f78b0e3b43f410c88d3af45","","null","","","","","","","learning/Slide133.JPG","null","","","","","",""
"html-keyboard-response","405","502228","0.0-7.0-2.52","LF","r4145wj5y7","1600","900","0","1","1","5f78b0e3b43f410c88d3af45","","null","","","learningBlock2","","","","<div style=""font-size:60px;""> </div>","null","LF","learning/Slide133.JPG","This is a tob:","","",""
"html-keyboard-response","406","503230","0.0-7.0-0.53","LF","r4145wj5y7","1600","900","0","1","1","5f78b0e3b43f410c88d3af45","","null","","","learningBlock2","","","","This is a dep:","null","","","","","",""
"image-keyboard-response","407","503568","0.0-7.0-1.53","LF","r4145wj5y7","1600","900","0","1","1","5f78b0e3b43f410c88d3af45","","null","","","","","","","learning/Slide134.JPG","null","","","","","",""
"html-keyboard-response","408","504578","0.0-7.0-2.53","LF","r4145wj5y7","1600","900","0","1","1","5f78b0e3b43f410c88d3af45","","null","","","learningBlock2","","","","<div style=""font-size:60px;""> </div>","null","LF","learning/Slide134.JPG","This is a dep:","","",""
"html-keyboard-response","409","505580","0.0-7.0-0.54","LF","r4145wj5y7","1600","900","0","1","1","5f78b0e3b43f410c88d3af45","","null","","","learningBlock2","","","","This is a tob:","null","","","","","",""
"image-keyboard-response","410","505912","0.0-7.0-1.54","LF","r4145wj5y7","1600","900","0","1","1","5f78b0e3b43f410c88d3af45","","null","","","","","","","learning/Slide135.JPG","null","","","","","",""
"html-keyboard-response","411","506917","0.0-7.0-2.54","LF","r4145wj5y7","1600","900","0","1","1","5f78b0e3b43f410c88d3af45","","null","","","learningBlock2","","","","<div style=""font-size:60px;""> </div>","null","LF","learning/Slide135.JPG","This is a tob:","","",""
"html-keyboard-response","412","507929","0.0-7.0-0.55","LF","r4145wj5y7","1600","900","0","1","1","5f78b0e3b43f410c88d3af45","","null","","","learningBlock2","","","","This is a wug:","null","","","","","",""
"image-keyboard-response","413","508268","0.0-7.0-1.55","LF","r4145wj5y7","1600","900","0","1","1","5f78b0e3b43f410c88d3af45","","null","","","","","","","learning/Slide136.JPG","null","","","","","",""
"html-keyboard-response","414","509279","0.0-7.0-2.55","LF","r4145wj5y7","1600","900","0","1","1","5f78b0e3b43f410c88d3af45","","null","","","learningBlock2","","","","<div style=""font-size:60px;""> </div>","null","LF","learning/Slide136.JPG","This is a wug:","","",""
"html-keyboard-response","415","510280","0.0-7.0-0.56","LF","r4145wj5y7","1600","900","0","1","1","5f78b0e3b43f410c88d3af45","","null","","","learningBlock2","","","","This is a tob:","null","","","","","",""
"image-keyboard-response","416","510618","0.0-7.0-1.56","LF","r4145wj5y7","1600","900","0","1","1","5f78b0e3b43f410c88d3af45","","null","","","","","","","learning/Slide137.JPG","null","","","","","",""
"html-keyboard-response","417","511629","0.0-7.0-2.56","LF","r4145wj5y7","1600","900","0","1","1","5f78b0e3b43f410c88d3af45","","null","","","learningBlock2","","","","<div style=""font-size:60px;""> </div>","null","LF","learning/Slide137.JPG","This is a tob:","","",""
"html-keyboard-response","418","512633","0.0-7.0-0.57","LF","r4145wj5y7","1600","900","0","1","1","5f78b0e3b43f410c88d3af45","","null","","","learningBlock2","","","","This is a bim:","null","","","","","",""
"image-keyboard-response","419","512969","0.0-7.0-1.57","LF","r4145wj5y7","1600","900","0","1","1","5f78b0e3b43f410c88d3af45","","null","","","","","","","learning/Slide138.JPG","null","","","","","",""
"html-keyboard-response","420","513980","0.0-7.0-2.57","LF","r4145wj5y7","1600","900","0","1","1","5f78b0e3b43f410c88d3af45","","null","","","learningBlock2","","","","<div style=""font-size:60px;""> </div>","null","LF","learning/Slide138.JPG","This is a bim:","","",""
"html-keyboard-response","421","514981","0.0-7.0-0.58","LF","r4145wj5y7","1600","900","0","1","1","5f78b0e3b43f410c88d3af45","","null","","","learningBlock2","","","","This is a wug:","null","","","","","",""
"image-keyboard-response","422","515319","0.0-7.0-1.58","LF","r4145wj5y7","1600","900","0","1","1","5f78b0e3b43f410c88d3af45","","null","","","","","","","learning/Slide139.JPG","null","","","","","",""
"html-keyboard-response","423","516330","0.0-7.0-2.58","LF","r4145wj5y7","1600","900","0","1","1","5f78b0e3b43f410c88d3af45","","null","","","learningBlock2","","","","<div style=""font-size:60px;""> </div>","null","LF","learning/Slide139.JPG","This is a wug:","","",""
"html-keyboard-response","424","517347","0.0-7.0-0.59","LF","r4145wj5y7","1600","900","0","1","1","5f78b0e3b43f410c88d3af45","","null","","","learningBlock2","","","","This is a dep:","null","","","","","",""
"image-keyboard-response","425","517686","0.0-7.0-1.59","LF","r4145wj5y7","1600","900","0","1","1","5f78b0e3b43f410c88d3af45","","null","","","","","","","learning/Slide140.JPG","null","","","","","",""
"html-keyboard-response","426","518696","0.0-7.0-2.59","LF","r4145wj5y7","1600","900","0","1","1","5f78b0e3b43f410c88d3af45","","null","","","learningBlock2","","","","<div style=""font-size:60px;""> </div>","null","LF","learning/Slide140.JPG","This is a dep:","","",""
"html-keyboard-response","427","519698","0.0-7.0-0.60","LF","r4145wj5y7","1600","900","0","1","1","5f78b0e3b43f410c88d3af45","","null","","","learningBlock2","","","","This is a tob:","null","","","","","",""
"image-keyboard-response","428","520038","0.0-7.0-1.60","LF","r4145wj5y7","1600","900","0","1","1","5f78b0e3b43f410c88d3af45","","null","","","","","","","learning/Slide141.JPG","null","","","","","",""
"html-keyboard-response","429","521047","0.0-7.0-2.60","LF","r4145wj5y7","1600","900","0","1","1","5f78b0e3b43f410c88d3af45","","null","","","learningBlock2","","","","<div style=""font-size:60px;""> </div>","null","LF","learning/Slide141.JPG","This is a tob:","","",""
"html-keyboard-response","430","522056","0.0-7.0-0.61","LF","r4145wj5y7","1600","900","0","1","1","5f78b0e3b43f410c88d3af45","","null","","","learningBlock2","","","","This is a wug:","null","","","","","",""
"image-keyboard-response","431","522403","0.0-7.0-1.61","LF","r4145wj5y7","1600","900","0","1","1","5f78b0e3b43f410c88d3af45","","null","","","","","","","learning/Slide142.JPG","null","","","","","",""
"html-keyboard-response","432","523412","0.0-7.0-2.61","LF","r4145wj5y7","1600","900","0","1","1","5f78b0e3b43f410c88d3af45","","null","","","learningBlock2","","","","<div style=""font-size:60px;""> </div>","null","LF","learning/Slide142.JPG","This is a wug:","","",""
"html-keyboard-response","433","524415","0.0-7.0-0.62","LF","r4145wj5y7","1600","900","0","1","1","5f78b0e3b43f410c88d3af45","","null","","","learningBlock2","","","","This is a bim:","null","","","","","",""
"image-keyboard-response","434","524753","0.0-7.0-1.62","LF","r4145wj5y7","1600","900","0","1","1","5f78b0e3b43f410c88d3af45","","null","","","","","","","learning/Slide143.JPG","null","","","","","",""
"html-keyboard-response","435","525764","0.0-7.0-2.62","LF","r4145wj5y7","1600","900","0","1","1","5f78b0e3b43f410c88d3af45","","null","","","learningBlock2","","","","<div style=""font-size:60px;""> </div>","null","LF","learning/Slide143.JPG","This is a bim:","","",""
"html-keyboard-response","436","526769","0.0-7.0-0.63","LF","r4145wj5y7","1600","900","0","1","1","5f78b0e3b43f410c88d3af45","","null","","","learningBlock2","","","","This is a dep:","null","","","","","",""
"image-keyboard-response","437","527103","0.0-7.0-1.63","LF","r4145wj5y7","1600","900","0","1","1","5f78b0e3b43f410c88d3af45","","null","","","","","","","learning/Slide144.JPG","null","","","","","",""
