"trial_type","trial_index","time_elapsed","internal_node_id","condition","subject","screen_width","screen_height","attention","distraction","conscientious","prolificID","success","rt","url","view_history","test_part","final_height_px","final_width_px","scale_factor","stimulus","key_press","learningType","presentedImage","presentedLabel","button_pressed","response","responses"
"pavlovia","0","6","0.0-0.0","LF","vkybhfxevw","1920","1080","0","1","0","5f9d4170f629422451ac7fd8","","","","","","","","","","","","","","","",""
"fullscreen","1","2903","0.0-1.0","LF","vkybhfxevw","1920","1080","0","1","0","5f9d4170f629422451ac7fd8","true","","","","","","","","","","","","","","",""
"external-html","2","5521","0.0-2.0-0.0","LF","vkybhfxevw","1920","1080","0","1","0","5f9d4170f629422451ac7fd8","","2612.3700000007375","text/information_english.html","","","","","","","","","","","","",""
"external-html","3","13803","0.0-2.0-1.0","LF","vkybhfxevw","1920","1080","0","1","0","5f9d4170f629422451ac7fd8","","8271.96499999991","text/consent_english.html","","","","","","","","","","","","",""
"instructions","4","26461","0.0-3.0","LF","vkybhfxevw","1920","1080","0","1","0","5f9d4170f629422451ac7fd8","","NA","","[{""page_index"":0,""viewing_time"":2175.5099999991216},{""page_index"":1,""viewing_time"":10477.684999999838}]","instructions","","","","","","","","","","",""
"resize","5","41918","0.0-4.0","LF","vkybhfxevw","1920","1080","0","1","0","5f9d4170f629422451ac7fd8","","","","","","","400","2.53968253968254","","","","","","","",""
"html-keyboard-response","6","42920","0.0-5.0-0.0","LF","vkybhfxevw","1920","1080","0","1","0","5f9d4170f629422451ac7fd8","","null","","","learningBlock1","","","","This is a tob:","null","","","","","",""
"image-keyboard-response","7","43248","0.0-5.0-1.0","LF","vkybhfxevw","1920","1080","0","1","0","5f9d4170f629422451ac7fd8","","null","","","","","","","learning/Slide1.JPG","null","","","","","",""
"html-keyboard-response","8","44256","0.0-5.0-2.0","LF","vkybhfxevw","1920","1080","0","1","0","5f9d4170f629422451ac7fd8","","null","","","learningBlock1","","","","<div style=""font-size:60px;""> </div>","null","LF","learning/Slide1.JPG","This is a tob:","","",""
"html-keyboard-response","9","45272","0.0-5.0-0.1","LF","vkybhfxevw","1920","1080","0","1","0","5f9d4170f629422451ac7fd8","","null","","","learningBlock1","","","","This is a wug:","null","","","","","",""
"image-keyboard-response","10","45612","0.0-5.0-1.1","LF","vkybhfxevw","1920","1080","0","1","0","5f9d4170f629422451ac7fd8","","null","","","","","","","learning/Slide2.JPG","null","","","","","",""
"html-keyboard-response","11","46628","0.0-5.0-2.1","LF","vkybhfxevw","1920","1080","0","1","0","5f9d4170f629422451ac7fd8","","null","","","learningBlock1","","","","<div style=""font-size:60px;""> </div>","null","LF","learning/Slide2.JPG","This is a wug:","","",""
"html-keyboard-response","12","47640","0.0-5.0-0.2","LF","vkybhfxevw","1920","1080","0","1","0","5f9d4170f629422451ac7fd8","","null","","","learningBlock1","","","","This is a bim:","null","","","","","",""
"image-keyboard-response","13","47981","0.0-5.0-1.2","LF","vkybhfxevw","1920","1080","0","1","0","5f9d4170f629422451ac7fd8","","null","","","","","","","learning/Slide3.JPG","null","","","","","",""
"html-keyboard-response","14","48994","0.0-5.0-2.2","LF","vkybhfxevw","1920","1080","0","1","0","5f9d4170f629422451ac7fd8","","null","","","learningBlock1","","","","<div style=""font-size:60px;""> </div>","null","LF","learning/Slide3.JPG","This is a bim:","","",""
"html-keyboard-response","15","50010","0.0-5.0-0.3","LF","vkybhfxevw","1920","1080","0","1","0","5f9d4170f629422451ac7fd8","","null","","","learningBlock1","","","","This is a dep:","null","","","","","",""
"image-keyboard-response","16","50348","0.0-5.0-1.3","LF","vkybhfxevw","1920","1080","0","1","0","5f9d4170f629422451ac7fd8","","null","","","","","","","learning/Slide4.JPG","null","","","","","",""
"html-keyboard-response","17","51351","0.0-5.0-2.3","LF","vkybhfxevw","1920","1080","0","1","0","5f9d4170f629422451ac7fd8","","null","","","learningBlock1","","","","<div style=""font-size:60px;""> </div>","null","LF","learning/Slide4.JPG","This is a dep:","","",""
"html-keyboard-response","18","52364","0.0-5.0-0.4","LF","vkybhfxevw","1920","1080","0","1","0","5f9d4170f629422451ac7fd8","","null","","","learningBlock1","","","","This is a wug:","null","","","","","",""
"image-keyboard-response","19","52706","0.0-5.0-1.4","LF","vkybhfxevw","1920","1080","0","1","0","5f9d4170f629422451ac7fd8","","null","","","","","","","learning/Slide5.JPG","null","","","","","",""
"html-keyboard-response","20","53709","0.0-5.0-2.4","LF","vkybhfxevw","1920","1080","0","1","0","5f9d4170f629422451ac7fd8","","null","","","learningBlock1","","","","<div style=""font-size:60px;""> </div>","null","LF","learning/Slide5.JPG","This is a wug:","","",""
"html-keyboard-response","21","54722","0.0-5.0-0.5","LF","vkybhfxevw","1920","1080","0","1","0","5f9d4170f629422451ac7fd8","","null","","","learningBlock1","","","","This is a dep:","null","","","","","",""
"image-keyboard-response","22","55060","0.0-5.0-1.5","LF","vkybhfxevw","1920","1080","0","1","0","5f9d4170f629422451ac7fd8","","null","","","","","","","learning/Slide6.JPG","null","","","","","",""
"html-keyboard-response","23","56074","0.0-5.0-2.5","LF","vkybhfxevw","1920","1080","0","1","0","5f9d4170f629422451ac7fd8","","null","","","learningBlock1","","","","<div style=""font-size:60px;""> </div>","null","LF","learning/Slide6.JPG","This is a dep:","","",""
"html-keyboard-response","24","57076","0.0-5.0-0.6","LF","vkybhfxevw","1920","1080","0","1","0","5f9d4170f629422451ac7fd8","","null","","","learningBlock1","","","","This is a wug:","null","","","","","",""
"image-keyboard-response","25","57415","0.0-5.0-1.6","LF","vkybhfxevw","1920","1080","0","1","0","5f9d4170f629422451ac7fd8","","null","","","","","","","learning/Slide7.JPG","null","","","","","",""
"html-keyboard-response","26","58419","0.0-5.0-2.6","LF","vkybhfxevw","1920","1080","0","1","0","5f9d4170f629422451ac7fd8","","null","","","learningBlock1","","","","<div style=""font-size:60px;""> </div>","null","LF","learning/Slide7.JPG","This is a wug:","","",""
"html-keyboard-response","27","59436","0.0-5.0-0.7","LF","vkybhfxevw","1920","1080","0","1","0","5f9d4170f629422451ac7fd8","","null","","","learningBlock1","","","","This is a bim:","null","","","","","",""
"image-keyboard-response","28","59775","0.0-5.0-1.7","LF","vkybhfxevw","1920","1080","0","1","0","5f9d4170f629422451ac7fd8","","null","","","","","","","learning/Slide8.JPG","null","","","","","",""
"html-keyboard-response","29","60790","0.0-5.0-2.7","LF","vkybhfxevw","1920","1080","0","1","0","5f9d4170f629422451ac7fd8","","null","","","learningBlock1","","","","<div style=""font-size:60px;""> </div>","null","LF","learning/Slide8.JPG","This is a bim:","","",""
"html-keyboard-response","30","61792","0.0-5.0-0.8","LF","vkybhfxevw","1920","1080","0","1","0","5f9d4170f629422451ac7fd8","","null","","","learningBlock1","","","","This is a wug:","null","","","","","",""
"image-keyboard-response","31","62130","0.0-5.0-1.8","LF","vkybhfxevw","1920","1080","0","1","0","5f9d4170f629422451ac7fd8","","null","","","","","","","learning/Slide9.JPG","null","","","","","",""
"html-keyboard-response","32","63133","0.0-5.0-2.8","LF","vkybhfxevw","1920","1080","0","1","0","5f9d4170f629422451ac7fd8","","null","","","learningBlock1","","","","<div style=""font-size:60px;""> </div>","null","LF","learning/Slide9.JPG","This is a wug:","","",""
"html-keyboard-response","33","64137","0.0-5.0-0.9","LF","vkybhfxevw","1920","1080","0","1","0","5f9d4170f629422451ac7fd8","","null","","","learningBlock1","","","","This is a dep:","null","","","","","",""
"image-keyboard-response","34","64475","0.0-5.0-1.9","LF","vkybhfxevw","1920","1080","0","1","0","5f9d4170f629422451ac7fd8","","null","","","","","","","learning/Slide10.JPG","null","","","","","",""
"html-keyboard-response","35","65479","0.0-5.0-2.9","LF","vkybhfxevw","1920","1080","0","1","0","5f9d4170f629422451ac7fd8","","null","","","learningBlock1","","","","<div style=""font-size:60px;""> </div>","null","LF","learning/Slide10.JPG","This is a dep:","","",""
"html-keyboard-response","36","66494","0.0-5.0-0.10","LF","vkybhfxevw","1920","1080","0","1","0","5f9d4170f629422451ac7fd8","","null","","","learningBlock1","","","","This is a tob:","null","","","","","",""
"image-keyboard-response","37","66833","0.0-5.0-1.10","LF","vkybhfxevw","1920","1080","0","1","0","5f9d4170f629422451ac7fd8","","null","","","","","","","learning/Slide11.JPG","null","","","","","",""
"html-keyboard-response","38","67848","0.0-5.0-2.10","LF","vkybhfxevw","1920","1080","0","1","0","5f9d4170f629422451ac7fd8","","null","","","learningBlock1","","","","<div style=""font-size:60px;""> </div>","null","LF","learning/Slide11.JPG","This is a tob:","","",""
"html-keyboard-response","39","68862","0.0-5.0-0.11","LF","vkybhfxevw","1920","1080","0","1","0","5f9d4170f629422451ac7fd8","","null","","","learningBlock1","","","","This is a dep:","null","","","","","",""
"image-keyboard-response","40","69201","0.0-5.0-1.11","LF","vkybhfxevw","1920","1080","0","1","0","5f9d4170f629422451ac7fd8","","null","","","","","","","learning/Slide12.JPG","null","","","","","",""
"html-keyboard-response","41","70217","0.0-5.0-2.11","LF","vkybhfxevw","1920","1080","0","1","0","5f9d4170f629422451ac7fd8","","null","","","learningBlock1","","","","<div style=""font-size:60px;""> </div>","null","LF","learning/Slide12.JPG","This is a dep:","","",""
"html-keyboard-response","42","71233","0.0-5.0-0.12","LF","vkybhfxevw","1920","1080","0","1","0","5f9d4170f629422451ac7fd8","","null","","","learningBlock1","","","","This is a bim:","null","","","","","",""
"image-keyboard-response","43","71560","0.0-5.0-1.12","LF","vkybhfxevw","1920","1080","0","1","0","5f9d4170f629422451ac7fd8","","null","","","","","","","learning/Slide13.JPG","null","","","","","",""
"html-keyboard-response","44","72575","0.0-5.0-2.12","LF","vkybhfxevw","1920","1080","0","1","0","5f9d4170f629422451ac7fd8","","null","","","learningBlock1","","","","<div style=""font-size:60px;""> </div>","null","LF","learning/Slide13.JPG","This is a bim:","","",""
"html-keyboard-response","45","73578","0.0-5.0-0.13","LF","vkybhfxevw","1920","1080","0","1","0","5f9d4170f629422451ac7fd8","","null","","","learningBlock1","","","","This is a wug:","null","","","","","",""
"image-keyboard-response","46","73915","0.0-5.0-1.13","LF","vkybhfxevw","1920","1080","0","1","0","5f9d4170f629422451ac7fd8","","null","","","","","","","learning/Slide14.JPG","null","","","","","",""
"html-keyboard-response","47","74918","0.0-5.0-2.13","LF","vkybhfxevw","1920","1080","0","1","0","5f9d4170f629422451ac7fd8","","null","","","learningBlock1","","","","<div style=""font-size:60px;""> </div>","null","LF","learning/Slide14.JPG","This is a wug:","","",""
"html-keyboard-response","48","75931","0.0-5.0-0.14","LF","vkybhfxevw","1920","1080","0","1","0","5f9d4170f629422451ac7fd8","","null","","","learningBlock1","","","","This is a tob:","null","","","","","",""
"image-keyboard-response","49","76269","0.0-5.0-1.14","LF","vkybhfxevw","1920","1080","0","1","0","5f9d4170f629422451ac7fd8","","null","","","","","","","learning/Slide15.JPG","null","","","","","",""
"html-keyboard-response","50","77284","0.0-5.0-2.14","LF","vkybhfxevw","1920","1080","0","1","0","5f9d4170f629422451ac7fd8","","null","","","learningBlock1","","","","<div style=""font-size:60px;""> </div>","null","LF","learning/Slide15.JPG","This is a tob:","","",""
"html-keyboard-response","51","78300","0.0-5.0-0.15","LF","vkybhfxevw","1920","1080","0","1","0","5f9d4170f629422451ac7fd8","","null","","","learningBlock1","","","","This is a dep:","null","","","","","",""
"image-keyboard-response","52","78639","0.0-5.0-1.15","LF","vkybhfxevw","1920","1080","0","1","0","5f9d4170f629422451ac7fd8","","null","","","","","","","learning/Slide16.JPG","null","","","","","",""
"html-keyboard-response","53","79653","0.0-5.0-2.15","LF","vkybhfxevw","1920","1080","0","1","0","5f9d4170f629422451ac7fd8","","null","","","learningBlock1","","","","<div style=""font-size:60px;""> </div>","null","LF","learning/Slide16.JPG","This is a dep:","","",""
"html-keyboard-response","54","80655","0.0-5.0-0.16","LF","vkybhfxevw","1920","1080","0","1","0","5f9d4170f629422451ac7fd8","","null","","","learningBlock1","","","","This is a bim:","null","","","","","",""
"image-keyboard-response","55","80982","0.0-5.0-1.16","LF","vkybhfxevw","1920","1080","0","1","0","5f9d4170f629422451ac7fd8","","null","","","","","","","learning/Slide17.JPG","null","","","","","",""
"html-keyboard-response","56","81995","0.0-5.0-2.16","LF","vkybhfxevw","1920","1080","0","1","0","5f9d4170f629422451ac7fd8","","null","","","learningBlock1","","","","<div style=""font-size:60px;""> </div>","null","LF","learning/Slide17.JPG","This is a bim:","","",""
"html-keyboard-response","57","83012","0.0-5.0-0.17","LF","vkybhfxevw","1920","1080","0","1","0","5f9d4170f629422451ac7fd8","","null","","","learningBlock1","","","","This is a tob:","null","","","","","",""
"image-keyboard-response","58","83343","0.0-5.0-1.17","LF","vkybhfxevw","1920","1080","0","1","0","5f9d4170f629422451ac7fd8","","null","","","","","","","learning/Slide18.JPG","null","","","","","",""
"html-keyboard-response","59","84351","0.0-5.0-2.17","LF","vkybhfxevw","1920","1080","0","1","0","5f9d4170f629422451ac7fd8","","null","","","learningBlock1","","","","<div style=""font-size:60px;""> </div>","null","LF","learning/Slide18.JPG","This is a tob:","","",""
"html-keyboard-response","60","85364","0.0-5.0-0.18","LF","vkybhfxevw","1920","1080","0","1","0","5f9d4170f629422451ac7fd8","","null","","","learningBlock1","","","","This is a wug:","null","","","","","",""
"image-keyboard-response","61","85703","0.0-5.0-1.18","LF","vkybhfxevw","1920","1080","0","1","0","5f9d4170f629422451ac7fd8","","null","","","","","","","learning/Slide19.JPG","null","","","","","",""
"html-keyboard-response","62","86718","0.0-5.0-2.18","LF","vkybhfxevw","1920","1080","0","1","0","5f9d4170f629422451ac7fd8","","null","","","learningBlock1","","","","<div style=""font-size:60px;""> </div>","null","LF","learning/Slide19.JPG","This is a wug:","","",""
"html-keyboard-response","63","87733","0.0-5.0-0.19","LF","vkybhfxevw","1920","1080","0","1","0","5f9d4170f629422451ac7fd8","","null","","","learningBlock1","","","","This is a bim:","null","","","","","",""
"image-keyboard-response","64","88071","0.0-5.0-1.19","LF","vkybhfxevw","1920","1080","0","1","0","5f9d4170f629422451ac7fd8","","null","","","","","","","learning/Slide20.JPG","null","","","","","",""
"html-keyboard-response","65","89086","0.0-5.0-2.19","LF","vkybhfxevw","1920","1080","0","1","0","5f9d4170f629422451ac7fd8","","null","","","learningBlock1","","","","<div style=""font-size:60px;""> </div>","null","LF","learning/Slide20.JPG","This is a bim:","","",""
"html-keyboard-response","66","90100","0.0-5.0-0.20","LF","vkybhfxevw","1920","1080","0","1","0","5f9d4170f629422451ac7fd8","","null","","","learningBlock1","","","","This is a dep:","null","","","","","",""
"image-keyboard-response","67","90439","0.0-5.0-1.20","LF","vkybhfxevw","1920","1080","0","1","0","5f9d4170f629422451ac7fd8","","null","","","","","","","learning/Slide21.JPG","null","","","","","",""
"html-keyboard-response","68","91452","0.0-5.0-2.20","LF","vkybhfxevw","1920","1080","0","1","0","5f9d4170f629422451ac7fd8","","null","","","learningBlock1","","","","<div style=""font-size:60px;""> </div>","null","LF","learning/Slide21.JPG","This is a dep:","","",""
"html-keyboard-response","69","92468","0.0-5.0-0.21","LF","vkybhfxevw","1920","1080","0","1","0","5f9d4170f629422451ac7fd8","","null","","","learningBlock1","","","","This is a bim:","null","","","","","",""
"image-keyboard-response","70","92799","0.0-5.0-1.21","LF","vkybhfxevw","1920","1080","0","1","0","5f9d4170f629422451ac7fd8","","null","","","","","","","learning/Slide22.JPG","null","","","","","",""
"html-keyboard-response","71","93812","0.0-5.0-2.21","LF","vkybhfxevw","1920","1080","0","1","0","5f9d4170f629422451ac7fd8","","null","","","learningBlock1","","","","<div style=""font-size:60px;""> </div>","null","LF","learning/Slide22.JPG","This is a bim:","","",""
"html-keyboard-response","72","94826","0.0-5.0-0.22","LF","vkybhfxevw","1920","1080","0","1","0","5f9d4170f629422451ac7fd8","","null","","","learningBlock1","","","","This is a tob:","null","","","","","",""
"image-keyboard-response","73","95153","0.0-5.0-1.22","LF","vkybhfxevw","1920","1080","0","1","0","5f9d4170f629422451ac7fd8","","null","","","","","","","learning/Slide23.JPG","null","","","","","",""
"html-keyboard-response","74","96163","0.0-5.0-2.22","LF","vkybhfxevw","1920","1080","0","1","0","5f9d4170f629422451ac7fd8","","null","","","learningBlock1","","","","<div style=""font-size:60px;""> </div>","null","LF","learning/Slide23.JPG","This is a tob:","","",""
"html-keyboard-response","75","97178","0.0-5.0-0.23","LF","vkybhfxevw","1920","1080","0","1","0","5f9d4170f629422451ac7fd8","","null","","","learningBlock1","","","","This is a wug:","null","","","","","",""
"image-keyboard-response","76","97517","0.0-5.0-1.23","LF","vkybhfxevw","1920","1080","0","1","0","5f9d4170f629422451ac7fd8","","null","","","","","","","learning/Slide24.JPG","null","","","","","",""
"html-keyboard-response","77","98532","0.0-5.0-2.23","LF","vkybhfxevw","1920","1080","0","1","0","5f9d4170f629422451ac7fd8","","null","","","learningBlock1","","","","<div style=""font-size:60px;""> </div>","null","LF","learning/Slide24.JPG","This is a wug:","","",""
"html-keyboard-response","78","99546","0.0-5.0-0.24","LF","vkybhfxevw","1920","1080","0","1","0","5f9d4170f629422451ac7fd8","","null","","","learningBlock1","","","","This is a dep:","null","","","","","",""
"image-keyboard-response","79","99884","0.0-5.0-1.24","LF","vkybhfxevw","1920","1080","0","1","0","5f9d4170f629422451ac7fd8","","null","","","","","","","learning/Slide25.JPG","null","","","","","",""
"html-keyboard-response","80","100897","0.0-5.0-2.24","LF","vkybhfxevw","1920","1080","0","1","0","5f9d4170f629422451ac7fd8","","null","","","learningBlock1","","","","<div style=""font-size:60px;""> </div>","null","LF","learning/Slide25.JPG","This is a dep:","","",""
"html-keyboard-response","81","101908","0.0-5.0-0.25","LF","vkybhfxevw","1920","1080","0","1","0","5f9d4170f629422451ac7fd8","","null","","","learningBlock1","","","","This is a wug:","null","","","","","",""
"image-keyboard-response","82","102236","0.0-5.0-1.25","LF","vkybhfxevw","1920","1080","0","1","0","5f9d4170f629422451ac7fd8","","null","","","","","","","learning/Slide26.JPG","null","","","","","",""
"html-keyboard-response","83","103247","0.0-5.0-2.25","LF","vkybhfxevw","1920","1080","0","1","0","5f9d4170f629422451ac7fd8","","null","","","learningBlock1","","","","<div style=""font-size:60px;""> </div>","null","LF","learning/Slide26.JPG","This is a wug:","","",""
"html-keyboard-response","84","104249","0.0-5.0-0.26","LF","vkybhfxevw","1920","1080","0","1","0","5f9d4170f629422451ac7fd8","","null","","","learningBlock1","","","","This is a bim:","null","","","","","",""
"image-keyboard-response","85","104579","0.0-5.0-1.26","LF","vkybhfxevw","1920","1080","0","1","0","5f9d4170f629422451ac7fd8","","null","","","","","","","learning/Slide27.JPG","null","","","","","",""
"html-keyboard-response","86","105587","0.0-5.0-2.26","LF","vkybhfxevw","1920","1080","0","1","0","5f9d4170f629422451ac7fd8","","null","","","learningBlock1","","","","<div style=""font-size:60px;""> </div>","null","LF","learning/Slide27.JPG","This is a bim:","","",""
"html-keyboard-response","87","106602","0.0-5.0-0.27","LF","vkybhfxevw","1920","1080","0","1","0","5f9d4170f629422451ac7fd8","","null","","","learningBlock1","","","","This is a dep:","null","","","","","",""
"image-keyboard-response","88","106932","0.0-5.0-1.27","LF","vkybhfxevw","1920","1080","0","1","0","5f9d4170f629422451ac7fd8","","null","","","","","","","learning/Slide28.JPG","null","","","","","",""
"html-keyboard-response","89","107939","0.0-5.0-2.27","LF","vkybhfxevw","1920","1080","0","1","0","5f9d4170f629422451ac7fd8","","null","","","learningBlock1","","","","<div style=""font-size:60px;""> </div>","null","LF","learning/Slide28.JPG","This is a dep:","","",""
"html-keyboard-response","90","108954","0.0-5.0-0.28","LF","vkybhfxevw","1920","1080","0","1","0","5f9d4170f629422451ac7fd8","","null","","","learningBlock1","","","","This is a tob:","null","","","","","",""
"image-keyboard-response","91","109292","0.0-5.0-1.28","LF","vkybhfxevw","1920","1080","0","1","0","5f9d4170f629422451ac7fd8","","null","","","","","","","learning/Slide29.JPG","null","","","","","",""
"html-keyboard-response","92","110293","0.0-5.0-2.28","LF","vkybhfxevw","1920","1080","0","1","0","5f9d4170f629422451ac7fd8","","null","","","learningBlock1","","","","<div style=""font-size:60px;""> </div>","null","LF","learning/Slide29.JPG","This is a tob:","","",""
"html-keyboard-response","93","111306","0.0-5.0-0.29","LF","vkybhfxevw","1920","1080","0","1","0","5f9d4170f629422451ac7fd8","","null","","","learningBlock1","","","","This is a dep:","null","","","","","",""
"image-keyboard-response","94","111636","0.0-5.0-1.29","LF","vkybhfxevw","1920","1080","0","1","0","5f9d4170f629422451ac7fd8","","null","","","","","","","learning/Slide30.JPG","null","","","","","",""
"html-keyboard-response","95","112643","0.0-5.0-2.29","LF","vkybhfxevw","1920","1080","0","1","0","5f9d4170f629422451ac7fd8","","null","","","learningBlock1","","","","<div style=""font-size:60px;""> </div>","null","LF","learning/Slide30.JPG","This is a dep:","","",""
"html-keyboard-response","96","113648","0.0-5.0-0.30","LF","vkybhfxevw","1920","1080","0","1","0","5f9d4170f629422451ac7fd8","","null","","","learningBlock1","","","","This is a wug:","null","","","","","",""
"image-keyboard-response","97","113986","0.0-5.0-1.30","LF","vkybhfxevw","1920","1080","0","1","0","5f9d4170f629422451ac7fd8","","null","","","","","","","learning/Slide31.JPG","null","","","","","",""
"html-keyboard-response","98","115001","0.0-5.0-2.30","LF","vkybhfxevw","1920","1080","0","1","0","5f9d4170f629422451ac7fd8","","null","","","learningBlock1","","","","<div style=""font-size:60px;""> </div>","null","LF","learning/Slide31.JPG","This is a wug:","","",""
"html-keyboard-response","99","116016","0.0-5.0-0.31","LF","vkybhfxevw","1920","1080","0","1","0","5f9d4170f629422451ac7fd8","","null","","","learningBlock1","","","","This is a tob:","null","","","","","",""
"image-keyboard-response","100","116346","0.0-5.0-1.31","LF","vkybhfxevw","1920","1080","0","1","0","5f9d4170f629422451ac7fd8","","null","","","","","","","learning/Slide32.JPG","null","","","","","",""
"html-keyboard-response","101","117355","0.0-5.0-2.31","LF","vkybhfxevw","1920","1080","0","1","0","5f9d4170f629422451ac7fd8","","null","","","learningBlock1","","","","<div style=""font-size:60px;""> </div>","null","LF","learning/Slide32.JPG","This is a tob:","","",""
"html-keyboard-response","102","118370","0.0-5.0-0.32","LF","vkybhfxevw","1920","1080","0","1","0","5f9d4170f629422451ac7fd8","","null","","","learningBlock1","","","","This is a bim:","null","","","","","",""
"image-keyboard-response","103","118710","0.0-5.0-1.32","LF","vkybhfxevw","1920","1080","0","1","0","5f9d4170f629422451ac7fd8","","null","","","","","","","learning/Slide33.JPG","null","","","","","",""
"html-keyboard-response","104","119723","0.0-5.0-2.32","LF","vkybhfxevw","1920","1080","0","1","0","5f9d4170f629422451ac7fd8","","null","","","learningBlock1","","","","<div style=""font-size:60px;""> </div>","null","LF","learning/Slide33.JPG","This is a bim:","","",""
"html-keyboard-response","105","120738","0.0-5.0-0.33","LF","vkybhfxevw","1920","1080","0","1","0","5f9d4170f629422451ac7fd8","","null","","","learningBlock1","","","","This is a tob:","null","","","","","",""
"image-keyboard-response","106","121076","0.0-5.0-1.33","LF","vkybhfxevw","1920","1080","0","1","0","5f9d4170f629422451ac7fd8","","null","","","","","","","learning/Slide34.JPG","null","","","","","",""
"html-keyboard-response","107","122092","0.0-5.0-2.33","LF","vkybhfxevw","1920","1080","0","1","0","5f9d4170f629422451ac7fd8","","null","","","learningBlock1","","","","<div style=""font-size:60px;""> </div>","null","LF","learning/Slide34.JPG","This is a tob:","","",""
"html-keyboard-response","108","123106","0.0-5.0-0.34","LF","vkybhfxevw","1920","1080","0","1","0","5f9d4170f629422451ac7fd8","","null","","","learningBlock1","","","","This is a bim:","null","","","","","",""
"image-keyboard-response","109","123433","0.0-5.0-1.34","LF","vkybhfxevw","1920","1080","0","1","0","5f9d4170f629422451ac7fd8","","null","","","","","","","learning/Slide35.JPG","null","","","","","",""
"html-keyboard-response","110","124444","0.0-5.0-2.34","LF","vkybhfxevw","1920","1080","0","1","0","5f9d4170f629422451ac7fd8","","null","","","learningBlock1","","","","<div style=""font-size:60px;""> </div>","null","LF","learning/Slide35.JPG","This is a bim:","","",""
"html-keyboard-response","111","125460","0.0-5.0-0.35","LF","vkybhfxevw","1920","1080","0","1","0","5f9d4170f629422451ac7fd8","","null","","","learningBlock1","","","","This is a dep:","null","","","","","",""
"image-keyboard-response","112","125799","0.0-5.0-1.35","LF","vkybhfxevw","1920","1080","0","1","0","5f9d4170f629422451ac7fd8","","null","","","","","","","learning/Slide36.JPG","null","","","","","",""
"html-keyboard-response","113","126814","0.0-5.0-2.35","LF","vkybhfxevw","1920","1080","0","1","0","5f9d4170f629422451ac7fd8","","null","","","learningBlock1","","","","<div style=""font-size:60px;""> </div>","null","LF","learning/Slide36.JPG","This is a dep:","","",""
"html-keyboard-response","114","127826","0.0-5.0-0.36","LF","vkybhfxevw","1920","1080","0","1","0","5f9d4170f629422451ac7fd8","","null","","","learningBlock1","","","","This is a tob:","null","","","","","",""
"image-keyboard-response","115","128154","0.0-5.0-1.36","LF","vkybhfxevw","1920","1080","0","1","0","5f9d4170f629422451ac7fd8","","null","","","","","","","learning/Slide37.JPG","null","","","","","",""
"html-keyboard-response","116","129164","0.0-5.0-2.36","LF","vkybhfxevw","1920","1080","0","1","0","5f9d4170f629422451ac7fd8","","null","","","learningBlock1","","","","<div style=""font-size:60px;""> </div>","null","LF","learning/Slide37.JPG","This is a tob:","","",""
"html-keyboard-response","117","130179","0.0-5.0-0.37","LF","vkybhfxevw","1920","1080","0","1","0","5f9d4170f629422451ac7fd8","","null","","","learningBlock1","","","","This is a wug:","null","","","","","",""
"image-keyboard-response","118","130519","0.0-5.0-1.37","LF","vkybhfxevw","1920","1080","0","1","0","5f9d4170f629422451ac7fd8","","null","","","","","","","learning/Slide38.JPG","null","","","","","",""
"html-keyboard-response","119","131534","0.0-5.0-2.37","LF","vkybhfxevw","1920","1080","0","1","0","5f9d4170f629422451ac7fd8","","null","","","learningBlock1","","","","<div style=""font-size:60px;""> </div>","null","LF","learning/Slide38.JPG","This is a wug:","","",""
"html-keyboard-response","120","132535","0.0-5.0-0.38","LF","vkybhfxevw","1920","1080","0","1","0","5f9d4170f629422451ac7fd8","","null","","","learningBlock1","","","","This is a bim:","null","","","","","",""
"image-keyboard-response","121","132864","0.0-5.0-1.38","LF","vkybhfxevw","1920","1080","0","1","0","5f9d4170f629422451ac7fd8","","null","","","","","","","learning/Slide39.JPG","null","","","","","",""
"html-keyboard-response","122","133872","0.0-5.0-2.38","LF","vkybhfxevw","1920","1080","0","1","0","5f9d4170f629422451ac7fd8","","null","","","learningBlock1","","","","<div style=""font-size:60px;""> </div>","null","LF","learning/Slide39.JPG","This is a bim:","","",""
"html-keyboard-response","123","134874","0.0-5.0-0.39","LF","vkybhfxevw","1920","1080","0","1","0","5f9d4170f629422451ac7fd8","","null","","","learningBlock1","","","","This is a tob:","null","","","","","",""
"image-keyboard-response","124","135200","0.0-5.0-1.39","LF","vkybhfxevw","1920","1080","0","1","0","5f9d4170f629422451ac7fd8","","null","","","","","","","learning/Slide40.JPG","null","","","","","",""
"html-keyboard-response","125","136211","0.0-5.0-2.39","LF","vkybhfxevw","1920","1080","0","1","0","5f9d4170f629422451ac7fd8","","null","","","learningBlock1","","","","<div style=""font-size:60px;""> </div>","null","LF","learning/Slide40.JPG","This is a tob:","","",""
"html-keyboard-response","126","137227","0.0-5.0-0.40","LF","vkybhfxevw","1920","1080","0","1","0","5f9d4170f629422451ac7fd8","","null","","","learningBlock1","","","","This is a bim:","null","","","","","",""
"image-keyboard-response","127","137566","0.0-5.0-1.40","LF","vkybhfxevw","1920","1080","0","1","0","5f9d4170f629422451ac7fd8","","null","","","","","","","learning/Slide41.JPG","null","","","","","",""
"html-keyboard-response","128","138580","0.0-5.0-2.40","LF","vkybhfxevw","1920","1080","0","1","0","5f9d4170f629422451ac7fd8","","null","","","learningBlock1","","","","<div style=""font-size:60px;""> </div>","null","LF","learning/Slide41.JPG","This is a bim:","","",""
"html-keyboard-response","129","139594","0.0-5.0-0.41","LF","vkybhfxevw","1920","1080","0","1","0","5f9d4170f629422451ac7fd8","","null","","","learningBlock1","","","","This is a dep:","null","","","","","",""
"image-keyboard-response","130","139935","0.0-5.0-1.41","LF","vkybhfxevw","1920","1080","0","1","0","5f9d4170f629422451ac7fd8","","null","","","","","","","learning/Slide42.JPG","null","","","","","",""
"html-keyboard-response","131","140949","0.0-5.0-2.41","LF","vkybhfxevw","1920","1080","0","1","0","5f9d4170f629422451ac7fd8","","null","","","learningBlock1","","","","<div style=""font-size:60px;""> </div>","null","LF","learning/Slide42.JPG","This is a dep:","","",""
"html-keyboard-response","132","141952","0.0-5.0-0.42","LF","vkybhfxevw","1920","1080","0","1","0","5f9d4170f629422451ac7fd8","","null","","","learningBlock1","","","","This is a wug:","null","","","","","",""
"image-keyboard-response","133","142292","0.0-5.0-1.42","LF","vkybhfxevw","1920","1080","0","1","0","5f9d4170f629422451ac7fd8","","null","","","","","","","learning/Slide43.JPG","null","","","","","",""
"html-keyboard-response","134","143307","0.0-5.0-2.42","LF","vkybhfxevw","1920","1080","0","1","0","5f9d4170f629422451ac7fd8","","null","","","learningBlock1","","","","<div style=""font-size:60px;""> </div>","null","LF","learning/Slide43.JPG","This is a wug:","","",""
"html-keyboard-response","135","144318","0.0-5.0-0.43","LF","vkybhfxevw","1920","1080","0","1","0","5f9d4170f629422451ac7fd8","","null","","","learningBlock1","","","","This is a bim:","null","","","","","",""
"image-keyboard-response","136","144648","0.0-5.0-1.43","LF","vkybhfxevw","1920","1080","0","1","0","5f9d4170f629422451ac7fd8","","null","","","","","","","learning/Slide44.JPG","null","","","","","",""
"html-keyboard-response","137","145659","0.0-5.0-2.43","LF","vkybhfxevw","1920","1080","0","1","0","5f9d4170f629422451ac7fd8","","null","","","learningBlock1","","","","<div style=""font-size:60px;""> </div>","null","LF","learning/Slide44.JPG","This is a bim:","","",""
"html-keyboard-response","138","146674","0.0-5.0-0.44","LF","vkybhfxevw","1920","1080","0","1","0","5f9d4170f629422451ac7fd8","","null","","","learningBlock1","","","","This is a wug:","null","","","","","",""
"image-keyboard-response","139","147004","0.0-5.0-1.44","LF","vkybhfxevw","1920","1080","0","1","0","5f9d4170f629422451ac7fd8","","null","","","","","","","learning/Slide45.JPG","null","","","","","",""
"html-keyboard-response","140","148014","0.0-5.0-2.44","LF","vkybhfxevw","1920","1080","0","1","0","5f9d4170f629422451ac7fd8","","null","","","learningBlock1","","","","<div style=""font-size:60px;""> </div>","null","LF","learning/Slide45.JPG","This is a wug:","","",""
"html-keyboard-response","141","149029","0.0-5.0-0.45","LF","vkybhfxevw","1920","1080","0","1","0","5f9d4170f629422451ac7fd8","","null","","","learningBlock1","","","","This is a dep:","null","","","","","",""
"image-keyboard-response","142","149369","0.0-5.0-1.45","LF","vkybhfxevw","1920","1080","0","1","0","5f9d4170f629422451ac7fd8","","null","","","","","","","learning/Slide46.JPG","null","","","","","",""
"html-keyboard-response","143","150372","0.0-5.0-2.45","LF","vkybhfxevw","1920","1080","0","1","0","5f9d4170f629422451ac7fd8","","null","","","learningBlock1","","","","<div style=""font-size:60px;""> </div>","null","LF","learning/Slide46.JPG","This is a dep:","","",""
"html-keyboard-response","144","151388","0.0-5.0-0.46","LF","vkybhfxevw","1920","1080","0","1","0","5f9d4170f629422451ac7fd8","","null","","","learningBlock1","","","","This is a tob:","null","","","","","",""
"image-keyboard-response","145","151715","0.0-5.0-1.46","LF","vkybhfxevw","1920","1080","0","1","0","5f9d4170f629422451ac7fd8","","null","","","","","","","learning/Slide47.JPG","null","","","","","",""
"html-keyboard-response","146","152726","0.0-5.0-2.46","LF","vkybhfxevw","1920","1080","0","1","0","5f9d4170f629422451ac7fd8","","null","","","learningBlock1","","","","<div style=""font-size:60px;""> </div>","null","LF","learning/Slide47.JPG","This is a tob:","","",""
"html-keyboard-response","147","153740","0.0-5.0-0.47","LF","vkybhfxevw","1920","1080","0","1","0","5f9d4170f629422451ac7fd8","","null","","","learningBlock1","","","","This is a bim:","null","","","","","",""
"image-keyboard-response","148","154072","0.0-5.0-1.47","LF","vkybhfxevw","1920","1080","0","1","0","5f9d4170f629422451ac7fd8","","null","","","","","","","learning/Slide48.JPG","null","","","","","",""
"html-keyboard-response","149","155079","0.0-5.0-2.47","LF","vkybhfxevw","1920","1080","0","1","0","5f9d4170f629422451ac7fd8","","null","","","learningBlock1","","","","<div style=""font-size:60px;""> </div>","null","LF","learning/Slide48.JPG","This is a bim:","","",""
"html-keyboard-response","150","156093","0.0-5.0-0.48","LF","vkybhfxevw","1920","1080","0","1","0","5f9d4170f629422451ac7fd8","","null","","","learningBlock1","","","","This is a dep:","null","","","","","",""
"image-keyboard-response","151","156433","0.0-5.0-1.48","LF","vkybhfxevw","1920","1080","0","1","0","5f9d4170f629422451ac7fd8","","null","","","","","","","learning/Slide49.JPG","null","","","","","",""
"html-keyboard-response","152","157447","0.0-5.0-2.48","LF","vkybhfxevw","1920","1080","0","1","0","5f9d4170f629422451ac7fd8","","null","","","learningBlock1","","","","<div style=""font-size:60px;""> </div>","null","LF","learning/Slide49.JPG","This is a dep:","","",""
"html-keyboard-response","153","158462","0.0-5.0-0.49","LF","vkybhfxevw","1920","1080","0","1","0","5f9d4170f629422451ac7fd8","","null","","","learningBlock1","","","","This is a tob:","null","","","","","",""
"image-keyboard-response","154","158799","0.0-5.0-1.49","LF","vkybhfxevw","1920","1080","0","1","0","5f9d4170f629422451ac7fd8","","null","","","","","","","learning/Slide50.JPG","null","","","","","",""
"html-keyboard-response","155","159800","0.0-5.0-2.49","LF","vkybhfxevw","1920","1080","0","1","0","5f9d4170f629422451ac7fd8","","null","","","learningBlock1","","","","<div style=""font-size:60px;""> </div>","null","LF","learning/Slide50.JPG","This is a tob:","","",""
"html-keyboard-response","156","160816","0.0-5.0-0.50","LF","vkybhfxevw","1920","1080","0","1","0","5f9d4170f629422451ac7fd8","","null","","","learningBlock1","","","","This is a bim:","null","","","","","",""
"image-keyboard-response","157","161147","0.0-5.0-1.50","LF","vkybhfxevw","1920","1080","0","1","0","5f9d4170f629422451ac7fd8","","null","","","","","","","learning/Slide51.JPG","null","","","","","",""
"html-keyboard-response","158","162159","0.0-5.0-2.50","LF","vkybhfxevw","1920","1080","0","1","0","5f9d4170f629422451ac7fd8","","null","","","learningBlock1","","","","<div style=""font-size:60px;""> </div>","null","LF","learning/Slide51.JPG","This is a bim:","","",""
"html-keyboard-response","159","163175","0.0-5.0-0.51","LF","vkybhfxevw","1920","1080","0","1","0","5f9d4170f629422451ac7fd8","","null","","","learningBlock1","","","","This is a wug:","null","","","","","",""
"image-keyboard-response","160","163501","0.0-5.0-1.51","LF","vkybhfxevw","1920","1080","0","1","0","5f9d4170f629422451ac7fd8","","null","","","","","","","learning/Slide52.JPG","null","","","","","",""
"html-keyboard-response","161","164515","0.0-5.0-2.51","LF","vkybhfxevw","1920","1080","0","1","0","5f9d4170f629422451ac7fd8","","null","","","learningBlock1","","","","<div style=""font-size:60px;""> </div>","null","LF","learning/Slide52.JPG","This is a wug:","","",""
"html-keyboard-response","162","165530","0.0-5.0-0.52","LF","vkybhfxevw","1920","1080","0","1","0","5f9d4170f629422451ac7fd8","","null","","","learningBlock1","","","","This is a tob:","null","","","","","",""
"image-keyboard-response","163","165868","0.0-5.0-1.52","LF","vkybhfxevw","1920","1080","0","1","0","5f9d4170f629422451ac7fd8","","null","","","","","","","learning/Slide53.JPG","null","","","","","",""
"html-keyboard-response","164","166884","0.0-5.0-2.52","LF","vkybhfxevw","1920","1080","0","1","0","5f9d4170f629422451ac7fd8","","null","","","learningBlock1","","","","<div style=""font-size:60px;""> </div>","null","LF","learning/Slide53.JPG","This is a tob:","","",""
"html-keyboard-response","165","167899","0.0-5.0-0.53","LF","vkybhfxevw","1920","1080","0","1","0","5f9d4170f629422451ac7fd8","","null","","","learningBlock1","","","","This is a dep:","null","","","","","",""
"image-keyboard-response","166","168238","0.0-5.0-1.53","LF","vkybhfxevw","1920","1080","0","1","0","5f9d4170f629422451ac7fd8","","null","","","","","","","learning/Slide54.JPG","null","","","","","",""
"html-keyboard-response","167","169252","0.0-5.0-2.53","LF","vkybhfxevw","1920","1080","0","1","0","5f9d4170f629422451ac7fd8","","null","","","learningBlock1","","","","<div style=""font-size:60px;""> </div>","null","LF","learning/Slide54.JPG","This is a dep:","","",""
"html-keyboard-response","168","170266","0.0-5.0-0.54","LF","vkybhfxevw","1920","1080","0","1","0","5f9d4170f629422451ac7fd8","","null","","","learningBlock1","","","","This is a bim:","null","","","","","",""
"image-keyboard-response","169","170605","0.0-5.0-1.54","LF","vkybhfxevw","1920","1080","0","1","0","5f9d4170f629422451ac7fd8","","null","","","","","","","learning/Slide55.JPG","null","","","","","",""
"html-keyboard-response","170","171620","0.0-5.0-2.54","LF","vkybhfxevw","1920","1080","0","1","0","5f9d4170f629422451ac7fd8","","null","","","learningBlock1","","","","<div style=""font-size:60px;""> </div>","null","LF","learning/Slide55.JPG","This is a bim:","","",""
"html-keyboard-response","171","172634","0.0-5.0-0.55","LF","vkybhfxevw","1920","1080","0","1","0","5f9d4170f629422451ac7fd8","","null","","","learningBlock1","","","","This is a tob:","null","","","","","",""
"image-keyboard-response","172","172963","0.0-5.0-1.55","LF","vkybhfxevw","1920","1080","0","1","0","5f9d4170f629422451ac7fd8","","null","","","","","","","learning/Slide56.JPG","null","","","","","",""
"html-keyboard-response","173","173977","0.0-5.0-2.55","LF","vkybhfxevw","1920","1080","0","1","0","5f9d4170f629422451ac7fd8","","null","","","learningBlock1","","","","<div style=""font-size:60px;""> </div>","null","LF","learning/Slide56.JPG","This is a tob:","","",""
"html-keyboard-response","174","174990","0.0-5.0-0.56","LF","vkybhfxevw","1920","1080","0","1","0","5f9d4170f629422451ac7fd8","","null","","","learningBlock1","","","","This is a dep:","null","","","","","",""
"image-keyboard-response","175","175320","0.0-5.0-1.56","LF","vkybhfxevw","1920","1080","0","1","0","5f9d4170f629422451ac7fd8","","null","","","","","","","learning/Slide57.JPG","null","","","","","",""
"html-keyboard-response","176","176326","0.0-5.0-2.56","LF","vkybhfxevw","1920","1080","0","1","0","5f9d4170f629422451ac7fd8","","null","","","learningBlock1","","","","<div style=""font-size:60px;""> </div>","null","LF","learning/Slide57.JPG","This is a dep:","","",""
"html-keyboard-response","177","177338","0.0-5.0-0.57","LF","vkybhfxevw","1920","1080","0","1","0","5f9d4170f629422451ac7fd8","","null","","","learningBlock1","","","","This is a wug:","null","","","","","",""
"image-keyboard-response","178","177677","0.0-5.0-1.57","LF","vkybhfxevw","1920","1080","0","1","0","5f9d4170f629422451ac7fd8","","null","","","","","","","learning/Slide58.JPG","null","","","","","",""
"html-keyboard-response","179","178690","0.0-5.0-2.57","LF","vkybhfxevw","1920","1080","0","1","0","5f9d4170f629422451ac7fd8","","null","","","learningBlock1","","","","<div style=""font-size:60px;""> </div>","null","LF","learning/Slide58.JPG","This is a wug:","","",""
"html-keyboard-response","180","179705","0.0-5.0-0.58","LF","vkybhfxevw","1920","1080","0","1","0","5f9d4170f629422451ac7fd8","","null","","","learningBlock1","","","","This is a dep:","null","","","","","",""
"image-keyboard-response","181","180032","0.0-5.0-1.58","LF","vkybhfxevw","1920","1080","0","1","0","5f9d4170f629422451ac7fd8","","null","","","","","","","learning/Slide59.JPG","null","","","","","",""
"html-keyboard-response","182","181047","0.0-5.0-2.58","LF","vkybhfxevw","1920","1080","0","1","0","5f9d4170f629422451ac7fd8","","null","","","learningBlock1","","","","<div style=""font-size:60px;""> </div>","null","LF","learning/Slide59.JPG","This is a dep:","","",""
"html-keyboard-response","183","182063","0.0-5.0-0.59","LF","vkybhfxevw","1920","1080","0","1","0","5f9d4170f629422451ac7fd8","","null","","","learningBlock1","","","","This is a wug:","null","","","","","",""
"image-keyboard-response","184","182402","0.0-5.0-1.59","LF","vkybhfxevw","1920","1080","0","1","0","5f9d4170f629422451ac7fd8","","null","","","","","","","learning/Slide60.JPG","null","","","","","",""
"html-keyboard-response","185","183414","0.0-5.0-2.59","LF","vkybhfxevw","1920","1080","0","1","0","5f9d4170f629422451ac7fd8","","null","","","learningBlock1","","","","<div style=""font-size:60px;""> </div>","null","LF","learning/Slide60.JPG","This is a wug:","","",""
"html-keyboard-response","186","184429","0.0-5.0-0.60","LF","vkybhfxevw","1920","1080","0","1","0","5f9d4170f629422451ac7fd8","","null","","","learningBlock1","","","","This is a bim:","null","","","","","",""
"image-keyboard-response","187","184756","0.0-5.0-1.60","LF","vkybhfxevw","1920","1080","0","1","0","5f9d4170f629422451ac7fd8","","null","","","","","","","learning/Slide61.JPG","null","","","","","",""
"html-keyboard-response","188","185761","0.0-5.0-2.60","LF","vkybhfxevw","1920","1080","0","1","0","5f9d4170f629422451ac7fd8","","null","","","learningBlock1","","","","<div style=""font-size:60px;""> </div>","null","LF","learning/Slide61.JPG","This is a bim:","","",""
"html-keyboard-response","189","186763","0.0-5.0-0.61","LF","vkybhfxevw","1920","1080","0","1","0","5f9d4170f629422451ac7fd8","","null","","","learningBlock1","","","","This is a dep:","null","","","","","",""
"image-keyboard-response","190","187104","0.0-5.0-1.61","LF","vkybhfxevw","1920","1080","0","1","0","5f9d4170f629422451ac7fd8","","null","","","","","","","learning/Slide62.JPG","null","","","","","",""
"html-keyboard-response","191","188120","0.0-5.0-2.61","LF","vkybhfxevw","1920","1080","0","1","0","5f9d4170f629422451ac7fd8","","null","","","learningBlock1","","","","<div style=""font-size:60px;""> </div>","null","LF","learning/Slide62.JPG","This is a dep:","","",""
"html-keyboard-response","192","189121","0.0-5.0-0.62","LF","vkybhfxevw","1920","1080","0","1","0","5f9d4170f629422451ac7fd8","","null","","","learningBlock1","","","","This is a bim:","null","","","","","",""
"image-keyboard-response","193","189451","0.0-5.0-1.62","LF","vkybhfxevw","1920","1080","0","1","0","5f9d4170f629422451ac7fd8","","null","","","","","","","learning/Slide63.JPG","null","","","","","",""
"html-keyboard-response","194","190461","0.0-5.0-2.62","LF","vkybhfxevw","1920","1080","0","1","0","5f9d4170f629422451ac7fd8","","null","","","learningBlock1","","","","<div style=""font-size:60px;""> </div>","null","LF","learning/Slide63.JPG","This is a bim:","","",""
"html-keyboard-response","195","191474","0.0-5.0-0.63","LF","vkybhfxevw","1920","1080","0","1","0","5f9d4170f629422451ac7fd8","","null","","","learningBlock1","","","","This is a tob:","null","","","","","",""
"image-keyboard-response","196","191801","0.0-5.0-1.63","LF","vkybhfxevw","1920","1080","0","1","0","5f9d4170f629422451ac7fd8","","null","","","","","","","learning/Slide64.JPG","null","","","","","",""
"html-keyboard-response","197","192812","0.0-5.0-2.63","LF","vkybhfxevw","1920","1080","0","1","0","5f9d4170f629422451ac7fd8","","null","","","learningBlock1","","","","<div style=""font-size:60px;""> </div>","null","LF","learning/Slide64.JPG","This is a tob:","","",""
"html-keyboard-response","198","193826","0.0-5.0-0.64","LF","vkybhfxevw","1920","1080","0","1","0","5f9d4170f629422451ac7fd8","","null","","","learningBlock1","","","","This is a wug:","null","","","","","",""
"image-keyboard-response","199","194153","0.0-5.0-1.64","LF","vkybhfxevw","1920","1080","0","1","0","5f9d4170f629422451ac7fd8","","null","","","","","","","learning/Slide65.JPG","null","","","","","",""
"html-keyboard-response","200","195164","0.0-5.0-2.64","LF","vkybhfxevw","1920","1080","0","1","0","5f9d4170f629422451ac7fd8","","null","","","learningBlock1","","","","<div style=""font-size:60px;""> </div>","null","LF","learning/Slide65.JPG","This is a wug:","","",""
"html-keyboard-response","201","196177","0.0-5.0-0.65","LF","vkybhfxevw","1920","1080","0","1","0","5f9d4170f629422451ac7fd8","","null","","","learningBlock1","","","","This is a dep:","null","","","","","",""
"image-keyboard-response","202","196516","0.0-5.0-1.65","LF","vkybhfxevw","1920","1080","0","1","0","5f9d4170f629422451ac7fd8","","null","","","","","","","learning/Slide66.JPG","null","","","","","",""
"html-keyboard-response","203","197533","0.0-5.0-2.65","LF","vkybhfxevw","1920","1080","0","1","0","5f9d4170f629422451ac7fd8","","null","","","learningBlock1","","","","<div style=""font-size:60px;""> </div>","null","LF","learning/Slide66.JPG","This is a dep:","","",""
"html-keyboard-response","204","198548","0.0-5.0-0.66","LF","vkybhfxevw","1920","1080","0","1","0","5f9d4170f629422451ac7fd8","","null","","","learningBlock1","","","","This is a tob:","null","","","","","",""
"image-keyboard-response","205","198886","0.0-5.0-1.66","LF","vkybhfxevw","1920","1080","0","1","0","5f9d4170f629422451ac7fd8","","null","","","","","","","learning/Slide67.JPG","null","","","","","",""
"html-keyboard-response","206","199902","0.0-5.0-2.66","LF","vkybhfxevw","1920","1080","0","1","0","5f9d4170f629422451ac7fd8","","null","","","learningBlock1","","","","<div style=""font-size:60px;""> </div>","null","LF","learning/Slide67.JPG","This is a tob:","","",""
"html-keyboard-response","207","200914","0.0-5.0-0.67","LF","vkybhfxevw","1920","1080","0","1","0","5f9d4170f629422451ac7fd8","","null","","","learningBlock1","","","","This is a wug:","null","","","","","",""
"image-keyboard-response","208","201252","0.0-5.0-1.67","LF","vkybhfxevw","1920","1080","0","1","0","5f9d4170f629422451ac7fd8","","null","","","","","","","learning/Slide68.JPG","null","","","","","",""
"html-keyboard-response","209","202266","0.0-5.0-2.67","LF","vkybhfxevw","1920","1080","0","1","0","5f9d4170f629422451ac7fd8","","null","","","learningBlock1","","","","<div style=""font-size:60px;""> </div>","null","LF","learning/Slide68.JPG","This is a wug:","","",""
"html-keyboard-response","210","203268","0.0-5.0-0.68","LF","vkybhfxevw","1920","1080","0","1","0","5f9d4170f629422451ac7fd8","","null","","","learningBlock1","","","","This is a tob:","null","","","","","",""
"image-keyboard-response","211","203598","0.0-5.0-1.68","LF","vkybhfxevw","1920","1080","0","1","0","5f9d4170f629422451ac7fd8","","null","","","","","","","learning/Slide69.JPG","null","","","","","",""
"html-keyboard-response","212","204606","0.0-5.0-2.68","LF","vkybhfxevw","1920","1080","0","1","0","5f9d4170f629422451ac7fd8","","null","","","learningBlock1","","","","<div style=""font-size:60px;""> </div>","null","LF","learning/Slide69.JPG","This is a tob:","","",""
"html-keyboard-response","213","205608","0.0-5.0-0.69","LF","vkybhfxevw","1920","1080","0","1","0","5f9d4170f629422451ac7fd8","","null","","","learningBlock1","","","","This is a dep:","null","","","","","",""
"image-keyboard-response","214","205935","0.0-5.0-1.69","LF","vkybhfxevw","1920","1080","0","1","0","5f9d4170f629422451ac7fd8","","null","","","","","","","learning/Slide70.JPG","null","","","","","",""
"html-keyboard-response","215","206946","0.0-5.0-2.69","LF","vkybhfxevw","1920","1080","0","1","0","5f9d4170f629422451ac7fd8","","null","","","learningBlock1","","","","<div style=""font-size:60px;""> </div>","null","LF","learning/Slide70.JPG","This is a dep:","","",""
"html-keyboard-response","216","207962","0.0-5.0-0.70","LF","vkybhfxevw","1920","1080","0","1","0","5f9d4170f629422451ac7fd8","","null","","","learningBlock1","","","","This is a wug:","null","","","","","",""
"image-keyboard-response","217","208289","0.0-5.0-1.70","LF","vkybhfxevw","1920","1080","0","1","0","5f9d4170f629422451ac7fd8","","null","","","","","","","learning/Slide71.JPG","null","","","","","",""
"html-keyboard-response","218","209303","0.0-5.0-2.70","LF","vkybhfxevw","1920","1080","0","1","0","5f9d4170f629422451ac7fd8","","null","","","learningBlock1","","","","<div style=""font-size:60px;""> </div>","null","LF","learning/Slide71.JPG","This is a wug:","","",""
"html-keyboard-response","219","210319","0.0-5.0-0.71","LF","vkybhfxevw","1920","1080","0","1","0","5f9d4170f629422451ac7fd8","","null","","","learningBlock1","","","","This is a bim:","null","","","","","",""
"image-keyboard-response","220","210649","0.0-5.0-1.71","LF","vkybhfxevw","1920","1080","0","1","0","5f9d4170f629422451ac7fd8","","null","","","","","","","learning/Slide72.JPG","null","","","","","",""
"html-keyboard-response","221","211657","0.0-5.0-2.71","LF","vkybhfxevw","1920","1080","0","1","0","5f9d4170f629422451ac7fd8","","null","","","learningBlock1","","","","<div style=""font-size:60px;""> </div>","null","LF","learning/Slide72.JPG","This is a bim:","","",""
"html-keyboard-response","222","212672","0.0-5.0-0.72","LF","vkybhfxevw","1920","1080","0","1","0","5f9d4170f629422451ac7fd8","","null","","","learningBlock1","","","","This is a wug:","null","","","","","",""
"image-keyboard-response","223","212998","0.0-5.0-1.72","LF","vkybhfxevw","1920","1080","0","1","0","5f9d4170f629422451ac7fd8","","null","","","","","","","learning/Slide73.JPG","null","","","","","",""
"html-keyboard-response","224","214008","0.0-5.0-2.72","LF","vkybhfxevw","1920","1080","0","1","0","5f9d4170f629422451ac7fd8","","null","","","learningBlock1","","","","<div style=""font-size:60px;""> </div>","null","LF","learning/Slide73.JPG","This is a wug:","","",""
"html-keyboard-response","225","215010","0.0-5.0-0.73","LF","vkybhfxevw","1920","1080","0","1","0","5f9d4170f629422451ac7fd8","","null","","","learningBlock1","","","","This is a dep:","null","","","","","",""
"image-keyboard-response","226","215337","0.0-5.0-1.73","LF","vkybhfxevw","1920","1080","0","1","0","5f9d4170f629422451ac7fd8","","null","","","","","","","learning/Slide74.JPG","null","","","","","",""
"html-keyboard-response","227","216349","0.0-5.0-2.73","LF","vkybhfxevw","1920","1080","0","1","0","5f9d4170f629422451ac7fd8","","null","","","learningBlock1","","","","<div style=""font-size:60px;""> </div>","null","LF","learning/Slide74.JPG","This is a dep:","","",""
"html-keyboard-response","228","217362","0.0-5.0-0.74","LF","vkybhfxevw","1920","1080","0","1","0","5f9d4170f629422451ac7fd8","","null","","","learningBlock1","","","","This is a tob:","null","","","","","",""
"image-keyboard-response","229","217689","0.0-5.0-1.74","LF","vkybhfxevw","1920","1080","0","1","0","5f9d4170f629422451ac7fd8","","null","","","","","","","learning/Slide75.JPG","null","","","","","",""
"html-keyboard-response","230","218702","0.0-5.0-2.74","LF","vkybhfxevw","1920","1080","0","1","0","5f9d4170f629422451ac7fd8","","null","","","learningBlock1","","","","<div style=""font-size:60px;""> </div>","null","LF","learning/Slide75.JPG","This is a tob:","","",""
"html-keyboard-response","231","219715","0.0-5.0-0.75","LF","vkybhfxevw","1920","1080","0","1","0","5f9d4170f629422451ac7fd8","","null","","","learningBlock1","","","","This is a bim:","null","","","","","",""
"image-keyboard-response","232","220054","0.0-5.0-1.75","LF","vkybhfxevw","1920","1080","0","1","0","5f9d4170f629422451ac7fd8","","null","","","","","","","learning/Slide76.JPG","null","","","","","",""
"html-keyboard-response","233","221068","0.0-5.0-2.75","LF","vkybhfxevw","1920","1080","0","1","0","5f9d4170f629422451ac7fd8","","null","","","learningBlock1","","","","<div style=""font-size:60px;""> </div>","null","LF","learning/Slide76.JPG","This is a bim:","","",""
"html-keyboard-response","234","222081","0.0-5.0-0.76","LF","vkybhfxevw","1920","1080","0","1","0","5f9d4170f629422451ac7fd8","","null","","","learningBlock1","","","","This is a tob:","null","","","","","",""
"image-keyboard-response","235","222419","0.0-5.0-1.76","LF","vkybhfxevw","1920","1080","0","1","0","5f9d4170f629422451ac7fd8","","null","","","","","","","learning/Slide77.JPG","null","","","","","",""
"html-keyboard-response","236","223433","0.0-5.0-2.76","LF","vkybhfxevw","1920","1080","0","1","0","5f9d4170f629422451ac7fd8","","null","","","learningBlock1","","","","<div style=""font-size:60px;""> </div>","null","LF","learning/Slide77.JPG","This is a tob:","","",""
"html-keyboard-response","237","224448","0.0-5.0-0.77","LF","vkybhfxevw","1920","1080","0","1","0","5f9d4170f629422451ac7fd8","","null","","","learningBlock1","","","","This is a wug:","null","","","","","",""
"image-keyboard-response","238","224788","0.0-5.0-1.77","LF","vkybhfxevw","1920","1080","0","1","0","5f9d4170f629422451ac7fd8","","null","","","","","","","learning/Slide78.JPG","null","","","","","",""
"html-keyboard-response","239","225800","0.0-5.0-2.77","LF","vkybhfxevw","1920","1080","0","1","0","5f9d4170f629422451ac7fd8","","null","","","learningBlock1","","","","<div style=""font-size:60px;""> </div>","null","LF","learning/Slide78.JPG","This is a wug:","","",""
"html-keyboard-response","240","226802","0.0-5.0-0.78","LF","vkybhfxevw","1920","1080","0","1","0","5f9d4170f629422451ac7fd8","","null","","","learningBlock1","","","","This is a bim:","null","","","","","",""
"image-keyboard-response","241","227140","0.0-5.0-1.78","LF","vkybhfxevw","1920","1080","0","1","0","5f9d4170f629422451ac7fd8","","null","","","","","","","learning/Slide79.JPG","null","","","","","",""
"html-keyboard-response","242","228156","0.0-5.0-2.78","LF","vkybhfxevw","1920","1080","0","1","0","5f9d4170f629422451ac7fd8","","null","","","learningBlock1","","","","<div style=""font-size:60px;""> </div>","null","LF","learning/Slide79.JPG","This is a bim:","","",""
"html-keyboard-response","243","229169","0.0-5.0-0.79","LF","vkybhfxevw","1920","1080","0","1","0","5f9d4170f629422451ac7fd8","","null","","","learningBlock1","","","","This is a tob:","null","","","","","",""
"image-keyboard-response","244","229499","0.0-5.0-1.79","LF","vkybhfxevw","1920","1080","0","1","0","5f9d4170f629422451ac7fd8","","null","","","","","","","learning/Slide80.JPG","null","","","","","",""
"html-keyboard-response","245","230507","0.0-5.0-2.79","LF","vkybhfxevw","1920","1080","0","1","0","5f9d4170f629422451ac7fd8","","null","","","learningBlock1","","","","<div style=""font-size:60px;""> </div>","null","LF","learning/Slide80.JPG","This is a tob:","","",""
"instructions","246","232839","0.0-6.0","LF","vkybhfxevw","1920","1080","0","1","0","5f9d4170f629422451ac7fd8","","NA","","[{""page_index"":0,""viewing_time"":2331.320000001171}]","instructions","","","","","","","","","","",""
"html-keyboard-response","247","233843","0.0-7.0-0.0","LF","vkybhfxevw","1920","1080","0","1","0","5f9d4170f629422451ac7fd8","","null","","","learningBlock2","","","","This is a wug:","null","","","","","",""
"image-keyboard-response","248","234171","0.0-7.0-1.0","LF","vkybhfxevw","1920","1080","0","1","0","5f9d4170f629422451ac7fd8","","null","","","","","","","learning/Slide81.JPG","null","","","","","",""
"html-keyboard-response","249","235182","0.0-7.0-2.0","LF","vkybhfxevw","1920","1080","0","1","0","5f9d4170f629422451ac7fd8","","null","","","learningBlock2","","","","<div style=""font-size:60px;""> </div>","null","LF","learning/Slide81.JPG","This is a wug:","","",""
"html-keyboard-response","250","236198","0.0-7.0-0.1","LF","vkybhfxevw","1920","1080","0","1","0","5f9d4170f629422451ac7fd8","","null","","","learningBlock2","","","","This is a bim:","null","","","","","",""
"image-keyboard-response","251","236536","0.0-7.0-1.1","LF","vkybhfxevw","1920","1080","0","1","0","5f9d4170f629422451ac7fd8","","null","","","","","","","learning/Slide82.JPG","null","","","","","",""
"html-keyboard-response","252","237551","0.0-7.0-2.1","LF","vkybhfxevw","1920","1080","0","1","0","5f9d4170f629422451ac7fd8","","null","","","learningBlock2","","","","<div style=""font-size:60px;""> </div>","null","LF","learning/Slide82.JPG","This is a bim:","","",""
"html-keyboard-response","253","238566","0.0-7.0-0.2","LF","vkybhfxevw","1920","1080","0","1","0","5f9d4170f629422451ac7fd8","","null","","","learningBlock2","","","","This is a wug:","null","","","","","",""
"image-keyboard-response","254","238894","0.0-7.0-1.2","LF","vkybhfxevw","1920","1080","0","1","0","5f9d4170f629422451ac7fd8","","null","","","","","","","learning/Slide83.JPG","null","","","","","",""
"html-keyboard-response","255","239903","0.0-7.0-2.2","LF","vkybhfxevw","1920","1080","0","1","0","5f9d4170f629422451ac7fd8","","null","","","learningBlock2","","","","<div style=""font-size:60px;""> </div>","null","LF","learning/Slide83.JPG","This is a wug:","","",""
"html-keyboard-response","256","240919","0.0-7.0-0.3","LF","vkybhfxevw","1920","1080","0","1","0","5f9d4170f629422451ac7fd8","","null","","","learningBlock2","","","","This is a dep:","null","","","","","",""
"image-keyboard-response","257","241256","0.0-7.0-1.3","LF","vkybhfxevw","1920","1080","0","1","0","5f9d4170f629422451ac7fd8","","null","","","","","","","learning/Slide84.JPG","null","","","","","",""
"html-keyboard-response","258","242259","0.0-7.0-2.3","LF","vkybhfxevw","1920","1080","0","1","0","5f9d4170f629422451ac7fd8","","null","","","learningBlock2","","","","<div style=""font-size:60px;""> </div>","null","LF","learning/Slide84.JPG","This is a dep:","","",""
"html-keyboard-response","259","243274","0.0-7.0-0.4","LF","vkybhfxevw","1920","1080","0","1","0","5f9d4170f629422451ac7fd8","","null","","","learningBlock2","","","","This is a bim:","null","","","","","",""
"image-keyboard-response","260","243611","0.0-7.0-1.4","LF","vkybhfxevw","1920","1080","0","1","0","5f9d4170f629422451ac7fd8","","null","","","","","","","learning/Slide85.JPG","null","","","","","",""
"html-keyboard-response","261","244612","0.0-7.0-2.4","LF","vkybhfxevw","1920","1080","0","1","0","5f9d4170f629422451ac7fd8","","null","","","learningBlock2","","","","<div style=""font-size:60px;""> </div>","null","LF","learning/Slide85.JPG","This is a bim:","","",""
"html-keyboard-response","262","245615","0.0-7.0-0.5","LF","vkybhfxevw","1920","1080","0","1","0","5f9d4170f629422451ac7fd8","","null","","","learningBlock2","","","","This is a tob:","null","","","","","",""
"image-keyboard-response","263","245953","0.0-7.0-1.5","LF","vkybhfxevw","1920","1080","0","1","0","5f9d4170f629422451ac7fd8","","null","","","","","","","learning/Slide86.JPG","null","","","","","",""
"html-keyboard-response","264","246968","0.0-7.0-2.5","LF","vkybhfxevw","1920","1080","0","1","0","5f9d4170f629422451ac7fd8","","null","","","learningBlock2","","","","<div style=""font-size:60px;""> </div>","null","LF","learning/Slide86.JPG","This is a tob:","","",""
"html-keyboard-response","265","247983","0.0-7.0-0.6","LF","vkybhfxevw","1920","1080","0","1","0","5f9d4170f629422451ac7fd8","","null","","","learningBlock2","","","","This is a wug:","null","","","","","",""
"image-keyboard-response","266","248322","0.0-7.0-1.6","LF","vkybhfxevw","1920","1080","0","1","0","5f9d4170f629422451ac7fd8","","null","","","","","","","learning/Slide87.JPG","null","","","","","",""
"html-keyboard-response","267","249325","0.0-7.0-2.6","LF","vkybhfxevw","1920","1080","0","1","0","5f9d4170f629422451ac7fd8","","null","","","learningBlock2","","","","<div style=""font-size:60px;""> </div>","null","LF","learning/Slide87.JPG","This is a wug:","","",""
"html-keyboard-response","268","250341","0.0-7.0-0.7","LF","vkybhfxevw","1920","1080","0","1","0","5f9d4170f629422451ac7fd8","","null","","","learningBlock2","","","","This is a tob:","null","","","","","",""
"image-keyboard-response","269","250677","0.0-7.0-1.7","LF","vkybhfxevw","1920","1080","0","1","0","5f9d4170f629422451ac7fd8","","null","","","","","","","learning/Slide88.JPG","null","","","","","",""
"html-keyboard-response","270","251690","0.0-7.0-2.7","LF","vkybhfxevw","1920","1080","0","1","0","5f9d4170f629422451ac7fd8","","null","","","learningBlock2","","","","<div style=""font-size:60px;""> </div>","null","LF","learning/Slide88.JPG","This is a tob:","","",""
"html-keyboard-response","271","252705","0.0-7.0-0.8","LF","vkybhfxevw","1920","1080","0","1","0","5f9d4170f629422451ac7fd8","","null","","","learningBlock2","","","","This is a bim:","null","","","","","",""
"image-keyboard-response","272","253044","0.0-7.0-1.8","LF","vkybhfxevw","1920","1080","0","1","0","5f9d4170f629422451ac7fd8","","null","","","","","","","learning/Slide89.JPG","null","","","","","",""
"html-keyboard-response","273","254060","0.0-7.0-2.8","LF","vkybhfxevw","1920","1080","0","1","0","5f9d4170f629422451ac7fd8","","null","","","learningBlock2","","","","<div style=""font-size:60px;""> </div>","null","LF","learning/Slide89.JPG","This is a bim:","","",""
"html-keyboard-response","274","255076","0.0-7.0-0.9","LF","vkybhfxevw","1920","1080","0","1","0","5f9d4170f629422451ac7fd8","","null","","","learningBlock2","","","","This is a dep:","null","","","","","",""
"image-keyboard-response","275","255403","0.0-7.0-1.9","LF","vkybhfxevw","1920","1080","0","1","0","5f9d4170f629422451ac7fd8","","null","","","","","","","learning/Slide90.JPG","null","","","","","",""
"html-keyboard-response","276","256413","0.0-7.0-2.9","LF","vkybhfxevw","1920","1080","0","1","0","5f9d4170f629422451ac7fd8","","null","","","learningBlock2","","","","<div style=""font-size:60px;""> </div>","null","LF","learning/Slide90.JPG","This is a dep:","","",""
"html-keyboard-response","277","257427","0.0-7.0-0.10","LF","vkybhfxevw","1920","1080","0","1","0","5f9d4170f629422451ac7fd8","","null","","","learningBlock2","","","","This is a wug:","null","","","","","",""
"image-keyboard-response","278","257757","0.0-7.0-1.10","LF","vkybhfxevw","1920","1080","0","1","0","5f9d4170f629422451ac7fd8","","null","","","","","","","learning/Slide91.JPG","null","","","","","",""
"html-keyboard-response","279","258769","0.0-7.0-2.10","LF","vkybhfxevw","1920","1080","0","1","0","5f9d4170f629422451ac7fd8","","null","","","learningBlock2","","","","<div style=""font-size:60px;""> </div>","null","LF","learning/Slide91.JPG","This is a wug:","","",""
"html-keyboard-response","280","259783","0.0-7.0-0.11","LF","vkybhfxevw","1920","1080","0","1","0","5f9d4170f629422451ac7fd8","","null","","","learningBlock2","","","","This is a tob:","null","","","","","",""
"image-keyboard-response","281","260120","0.0-7.0-1.11","LF","vkybhfxevw","1920","1080","0","1","0","5f9d4170f629422451ac7fd8","","null","","","","","","","learning/Slide92.JPG","null","","","","","",""
"html-keyboard-response","282","261122","0.0-7.0-2.11","LF","vkybhfxevw","1920","1080","0","1","0","5f9d4170f629422451ac7fd8","","null","","","learningBlock2","","","","<div style=""font-size:60px;""> </div>","null","LF","learning/Slide92.JPG","This is a tob:","","",""
"html-keyboard-response","283","262125","0.0-7.0-0.12","LF","vkybhfxevw","1920","1080","0","1","0","5f9d4170f629422451ac7fd8","","null","","","learningBlock2","","","","This is a bim:","null","","","","","",""
"image-keyboard-response","284","262452","0.0-7.0-1.12","LF","vkybhfxevw","1920","1080","0","1","0","5f9d4170f629422451ac7fd8","","null","","","","","","","learning/Slide93.JPG","null","","","","","",""
"html-keyboard-response","285","263463","0.0-7.0-2.12","LF","vkybhfxevw","1920","1080","0","1","0","5f9d4170f629422451ac7fd8","","null","","","learningBlock2","","","","<div style=""font-size:60px;""> </div>","null","LF","learning/Slide93.JPG","This is a bim:","","",""
"html-keyboard-response","286","264465","0.0-7.0-0.13","LF","vkybhfxevw","1920","1080","0","1","0","5f9d4170f629422451ac7fd8","","null","","","learningBlock2","","","","This is a tob:","null","","","","","",""
"image-keyboard-response","287","264802","0.0-7.0-1.13","LF","vkybhfxevw","1920","1080","0","1","0","5f9d4170f629422451ac7fd8","","null","","","","","","","learning/Slide94.JPG","null","","","","","",""
"html-keyboard-response","288","265806","0.0-7.0-2.13","LF","vkybhfxevw","1920","1080","0","1","0","5f9d4170f629422451ac7fd8","","null","","","learningBlock2","","","","<div style=""font-size:60px;""> </div>","null","LF","learning/Slide94.JPG","This is a tob:","","",""
"html-keyboard-response","289","266810","0.0-7.0-0.14","LF","vkybhfxevw","1920","1080","0","1","0","5f9d4170f629422451ac7fd8","","null","","","learningBlock2","","","","This is a wug:","null","","","","","",""
"image-keyboard-response","290","267139","0.0-7.0-1.14","LF","vkybhfxevw","1920","1080","0","1","0","5f9d4170f629422451ac7fd8","","null","","","","","","","learning/Slide95.JPG","null","","","","","",""
"html-keyboard-response","291","268149","0.0-7.0-2.14","LF","vkybhfxevw","1920","1080","0","1","0","5f9d4170f629422451ac7fd8","","null","","","learningBlock2","","","","<div style=""font-size:60px;""> </div>","null","LF","learning/Slide95.JPG","This is a wug:","","",""
"html-keyboard-response","292","269162","0.0-7.0-0.15","LF","vkybhfxevw","1920","1080","0","1","0","5f9d4170f629422451ac7fd8","","null","","","learningBlock2","","","","This is a tob:","null","","","","","",""
"image-keyboard-response","293","269489","0.0-7.0-1.15","LF","vkybhfxevw","1920","1080","0","1","0","5f9d4170f629422451ac7fd8","","null","","","","","","","learning/Slide96.JPG","null","","","","","",""
"html-keyboard-response","294","270505","0.0-7.0-2.15","LF","vkybhfxevw","1920","1080","0","1","0","5f9d4170f629422451ac7fd8","","null","","","learningBlock2","","","","<div style=""font-size:60px;""> </div>","null","LF","learning/Slide96.JPG","This is a tob:","","",""
"html-keyboard-response","295","271507","0.0-7.0-0.16","LF","vkybhfxevw","1920","1080","0","1","0","5f9d4170f629422451ac7fd8","","null","","","learningBlock2","","","","This is a dep:","null","","","","","",""
"image-keyboard-response","296","271838","0.0-7.0-1.16","LF","vkybhfxevw","1920","1080","0","1","0","5f9d4170f629422451ac7fd8","","null","","","","","","","learning/Slide97.JPG","null","","","","","",""
"html-keyboard-response","297","272852","0.0-7.0-2.16","LF","vkybhfxevw","1920","1080","0","1","0","5f9d4170f629422451ac7fd8","","null","","","learningBlock2","","","","<div style=""font-size:60px;""> </div>","null","LF","learning/Slide97.JPG","This is a dep:","","",""
"html-keyboard-response","298","273867","0.0-7.0-0.17","LF","vkybhfxevw","1920","1080","0","1","0","5f9d4170f629422451ac7fd8","","null","","","learningBlock2","","","","This is a bim:","null","","","","","",""
"image-keyboard-response","299","274207","0.0-7.0-1.17","LF","vkybhfxevw","1920","1080","0","1","0","5f9d4170f629422451ac7fd8","","null","","","","","","","learning/Slide98.JPG","null","","","","","",""
"html-keyboard-response","300","275221","0.0-7.0-2.17","LF","vkybhfxevw","1920","1080","0","1","0","5f9d4170f629422451ac7fd8","","null","","","learningBlock2","","","","<div style=""font-size:60px;""> </div>","null","LF","learning/Slide98.JPG","This is a bim:","","",""
"html-keyboard-response","301","276236","0.0-7.0-0.18","LF","vkybhfxevw","1920","1080","0","1","0","5f9d4170f629422451ac7fd8","","null","","","learningBlock2","","","","This is a dep:","null","","","","","",""
"image-keyboard-response","302","276575","0.0-7.0-1.18","LF","vkybhfxevw","1920","1080","0","1","0","5f9d4170f629422451ac7fd8","","null","","","","","","","learning/Slide99.JPG","null","","","","","",""
"html-keyboard-response","303","277586","0.0-7.0-2.18","LF","vkybhfxevw","1920","1080","0","1","0","5f9d4170f629422451ac7fd8","","null","","","learningBlock2","","","","<div style=""font-size:60px;""> </div>","null","LF","learning/Slide99.JPG","This is a dep:","","",""
"html-keyboard-response","304","278598","0.0-7.0-0.19","LF","vkybhfxevw","1920","1080","0","1","0","5f9d4170f629422451ac7fd8","","null","","","learningBlock2","","","","This is a bim:","null","","","","","",""
"image-keyboard-response","305","278938","0.0-7.0-1.19","LF","vkybhfxevw","1920","1080","0","1","0","5f9d4170f629422451ac7fd8","","null","","","","","","","learning/Slide100.JPG","null","","","","","",""
"html-keyboard-response","306","279953","0.0-7.0-2.19","LF","vkybhfxevw","1920","1080","0","1","0","5f9d4170f629422451ac7fd8","","null","","","learningBlock2","","","","<div style=""font-size:60px;""> </div>","null","LF","learning/Slide100.JPG","This is a bim:","","",""
"html-keyboard-response","307","280968","0.0-7.0-0.20","LF","vkybhfxevw","1920","1080","0","1","0","5f9d4170f629422451ac7fd8","","null","","","learningBlock2","","","","This is a tob:","null","","","","","",""
"image-keyboard-response","308","281305","0.0-7.0-1.20","LF","vkybhfxevw","1920","1080","0","1","0","5f9d4170f629422451ac7fd8","","null","","","","","","","learning/Slide101.JPG","null","","","","","",""
"html-keyboard-response","309","282318","0.0-7.0-2.20","LF","vkybhfxevw","1920","1080","0","1","0","5f9d4170f629422451ac7fd8","","null","","","learningBlock2","","","","<div style=""font-size:60px;""> </div>","null","LF","learning/Slide101.JPG","This is a tob:","","",""
"html-keyboard-response","310","283322","0.0-7.0-0.21","LF","vkybhfxevw","1920","1080","0","1","0","5f9d4170f629422451ac7fd8","","null","","","learningBlock2","","","","This is a bim:","null","","","","","",""
"image-keyboard-response","311","283662","0.0-7.0-1.21","LF","vkybhfxevw","1920","1080","0","1","0","5f9d4170f629422451ac7fd8","","null","","","","","","","learning/Slide102.JPG","null","","","","","",""
"html-keyboard-response","312","284678","0.0-7.0-2.21","LF","vkybhfxevw","1920","1080","0","1","0","5f9d4170f629422451ac7fd8","","null","","","learningBlock2","","","","<div style=""font-size:60px;""> </div>","null","LF","learning/Slide102.JPG","This is a bim:","","",""
"html-keyboard-response","313","285692","0.0-7.0-0.22","LF","vkybhfxevw","1920","1080","0","1","0","5f9d4170f629422451ac7fd8","","null","","","learningBlock2","","","","This is a dep:","null","","","","","",""
"image-keyboard-response","314","286023","0.0-7.0-1.22","LF","vkybhfxevw","1920","1080","0","1","0","5f9d4170f629422451ac7fd8","","null","","","","","","","learning/Slide103.JPG","null","","","","","",""
"html-keyboard-response","315","287035","0.0-7.0-2.22","LF","vkybhfxevw","1920","1080","0","1","0","5f9d4170f629422451ac7fd8","","null","","","learningBlock2","","","","<div style=""font-size:60px;""> </div>","null","LF","learning/Slide103.JPG","This is a dep:","","",""
"html-keyboard-response","316","288039","0.0-7.0-0.23","LF","vkybhfxevw","1920","1080","0","1","0","5f9d4170f629422451ac7fd8","","null","","","learningBlock2","","","","This is a tob:","null","","","","","",""
"image-keyboard-response","317","288369","0.0-7.0-1.23","LF","vkybhfxevw","1920","1080","0","1","0","5f9d4170f629422451ac7fd8","","null","","","","","","","learning/Slide104.JPG","null","","","","","",""
"html-keyboard-response","318","289376","0.0-7.0-2.23","LF","vkybhfxevw","1920","1080","0","1","0","5f9d4170f629422451ac7fd8","","null","","","learningBlock2","","","","<div style=""font-size:60px;""> </div>","null","LF","learning/Slide104.JPG","This is a tob:","","",""
"html-keyboard-response","319","290392","0.0-7.0-0.24","LF","vkybhfxevw","1920","1080","0","1","0","5f9d4170f629422451ac7fd8","","null","","","learningBlock2","","","","This is a dep:","null","","","","","",""
"image-keyboard-response","320","290731","0.0-7.0-1.24","LF","vkybhfxevw","1920","1080","0","1","0","5f9d4170f629422451ac7fd8","","null","","","","","","","learning/Slide105.JPG","null","","","","","",""
"html-keyboard-response","321","291747","0.0-7.0-2.24","LF","vkybhfxevw","1920","1080","0","1","0","5f9d4170f629422451ac7fd8","","null","","","learningBlock2","","","","<div style=""font-size:60px;""> </div>","null","LF","learning/Slide105.JPG","This is a dep:","","",""
"html-keyboard-response","322","292748","0.0-7.0-0.25","LF","vkybhfxevw","1920","1080","0","1","0","5f9d4170f629422451ac7fd8","","null","","","learningBlock2","","","","This is a wug:","null","","","","","",""
"image-keyboard-response","323","293087","0.0-7.0-1.25","LF","vkybhfxevw","1920","1080","0","1","0","5f9d4170f629422451ac7fd8","","null","","","","","","","learning/Slide106.JPG","null","","","","","",""
"html-keyboard-response","324","294097","0.0-7.0-2.25","LF","vkybhfxevw","1920","1080","0","1","0","5f9d4170f629422451ac7fd8","","null","","","learningBlock2","","","","<div style=""font-size:60px;""> </div>","null","LF","learning/Slide106.JPG","This is a wug:","","",""
"html-keyboard-response","325","295098","0.0-7.0-0.26","LF","vkybhfxevw","1920","1080","0","1","0","5f9d4170f629422451ac7fd8","","null","","","learningBlock2","","","","This is a bim:","null","","","","","",""
"image-keyboard-response","326","295425","0.0-7.0-1.26","LF","vkybhfxevw","1920","1080","0","1","0","5f9d4170f629422451ac7fd8","","null","","","","","","","learning/Slide107.JPG","null","","","","","",""
"html-keyboard-response","327","296438","0.0-7.0-2.26","LF","vkybhfxevw","1920","1080","0","1","0","5f9d4170f629422451ac7fd8","","null","","","learningBlock2","","","","<div style=""font-size:60px;""> </div>","null","LF","learning/Slide107.JPG","This is a bim:","","",""
"html-keyboard-response","328","297453","0.0-7.0-0.27","LF","vkybhfxevw","1920","1080","0","1","0","5f9d4170f629422451ac7fd8","","null","","","learningBlock2","","","","This is a dep:","null","","","","","",""
"image-keyboard-response","329","297791","0.0-7.0-1.27","LF","vkybhfxevw","1920","1080","0","1","0","5f9d4170f629422451ac7fd8","","null","","","","","","","learning/Slide108.JPG","null","","","","","",""
"html-keyboard-response","330","298793","0.0-7.0-2.27","LF","vkybhfxevw","1920","1080","0","1","0","5f9d4170f629422451ac7fd8","","null","","","learningBlock2","","","","<div style=""font-size:60px;""> </div>","null","LF","learning/Slide108.JPG","This is a dep:","","",""
"html-keyboard-response","331","299808","0.0-7.0-0.28","LF","vkybhfxevw","1920","1080","0","1","0","5f9d4170f629422451ac7fd8","","null","","","learningBlock2","","","","This is a wug:","null","","","","","",""
"image-keyboard-response","332","300138","0.0-7.0-1.28","LF","vkybhfxevw","1920","1080","0","1","0","5f9d4170f629422451ac7fd8","","null","","","","","","","learning/Slide109.JPG","null","","","","","",""
"html-keyboard-response","333","301144","0.0-7.0-2.28","LF","vkybhfxevw","1920","1080","0","1","0","5f9d4170f629422451ac7fd8","","null","","","learningBlock2","","","","<div style=""font-size:60px;""> </div>","null","LF","learning/Slide109.JPG","This is a wug:","","",""
"html-keyboard-response","334","302159","0.0-7.0-0.29","LF","vkybhfxevw","1920","1080","0","1","0","5f9d4170f629422451ac7fd8","","null","","","learningBlock2","","","","This is a bim:","null","","","","","",""
"image-keyboard-response","335","302486","0.0-7.0-1.29","LF","vkybhfxevw","1920","1080","0","1","0","5f9d4170f629422451ac7fd8","","null","","","","","","","learning/Slide110.JPG","null","","","","","",""
"html-keyboard-response","336","303490","0.0-7.0-2.29","LF","vkybhfxevw","1920","1080","0","1","0","5f9d4170f629422451ac7fd8","","null","","","learningBlock2","","","","<div style=""font-size:60px;""> </div>","null","LF","learning/Slide110.JPG","This is a bim:","","",""
"html-keyboard-response","337","304506","0.0-7.0-0.30","LF","vkybhfxevw","1920","1080","0","1","0","5f9d4170f629422451ac7fd8","","null","","","learningBlock2","","","","This is a tob:","null","","","","","",""
"image-keyboard-response","338","304836","0.0-7.0-1.30","LF","vkybhfxevw","1920","1080","0","1","0","5f9d4170f629422451ac7fd8","","null","","","","","","","learning/Slide111.JPG","null","","","","","",""
"html-keyboard-response","339","305842","0.0-7.0-2.30","LF","vkybhfxevw","1920","1080","0","1","0","5f9d4170f629422451ac7fd8","","null","","","learningBlock2","","","","<div style=""font-size:60px;""> </div>","null","LF","learning/Slide111.JPG","This is a tob:","","",""
"html-keyboard-response","340","306844","0.0-7.0-0.31","LF","vkybhfxevw","1920","1080","0","1","0","5f9d4170f629422451ac7fd8","","null","","","learningBlock2","","","","This is a wug:","null","","","","","",""
"image-keyboard-response","341","307170","0.0-7.0-1.31","LF","vkybhfxevw","1920","1080","0","1","0","5f9d4170f629422451ac7fd8","","null","","","","","","","learning/Slide112.JPG","null","","","","","",""
"html-keyboard-response","342","308182","0.0-7.0-2.31","LF","vkybhfxevw","1920","1080","0","1","0","5f9d4170f629422451ac7fd8","","null","","","learningBlock2","","","","<div style=""font-size:60px;""> </div>","null","LF","learning/Slide112.JPG","This is a wug:","","",""
"html-keyboard-response","343","309183","0.0-7.0-0.32","LF","vkybhfxevw","1920","1080","0","1","0","5f9d4170f629422451ac7fd8","","null","","","learningBlock2","","","","This is a tob:","null","","","","","",""
"image-keyboard-response","344","309519","0.0-7.0-1.32","LF","vkybhfxevw","1920","1080","0","1","0","5f9d4170f629422451ac7fd8","","null","","","","","","","learning/Slide113.JPG","null","","","","","",""
"html-keyboard-response","345","310532","0.0-7.0-2.32","LF","vkybhfxevw","1920","1080","0","1","0","5f9d4170f629422451ac7fd8","","null","","","learningBlock2","","","","<div style=""font-size:60px;""> </div>","null","LF","learning/Slide113.JPG","This is a tob:","","",""
"html-keyboard-response","346","311548","0.0-7.0-0.33","LF","vkybhfxevw","1920","1080","0","1","0","5f9d4170f629422451ac7fd8","","null","","","learningBlock2","","","","This is a wug:","null","","","","","",""
"image-keyboard-response","347","311887","0.0-7.0-1.33","LF","vkybhfxevw","1920","1080","0","1","0","5f9d4170f629422451ac7fd8","","null","","","","","","","learning/Slide114.JPG","null","","","","","",""
"html-keyboard-response","348","312901","0.0-7.0-2.33","LF","vkybhfxevw","1920","1080","0","1","0","5f9d4170f629422451ac7fd8","","null","","","learningBlock2","","","","<div style=""font-size:60px;""> </div>","null","LF","learning/Slide114.JPG","This is a wug:","","",""
"html-keyboard-response","349","313916","0.0-7.0-0.34","LF","vkybhfxevw","1920","1080","0","1","0","5f9d4170f629422451ac7fd8","","null","","","learningBlock2","","","","This is a bim:","null","","","","","",""
"image-keyboard-response","350","314253","0.0-7.0-1.34","LF","vkybhfxevw","1920","1080","0","1","0","5f9d4170f629422451ac7fd8","","null","","","","","","","learning/Slide115.JPG","null","","","","","",""
"html-keyboard-response","351","315255","0.0-7.0-2.34","LF","vkybhfxevw","1920","1080","0","1","0","5f9d4170f629422451ac7fd8","","null","","","learningBlock2","","","","<div style=""font-size:60px;""> </div>","null","LF","learning/Slide115.JPG","This is a bim:","","",""
"html-keyboard-response","352","316270","0.0-7.0-0.35","LF","vkybhfxevw","1920","1080","0","1","0","5f9d4170f629422451ac7fd8","","null","","","learningBlock2","","","","This is a dep:","null","","","","","",""
"image-keyboard-response","353","316610","0.0-7.0-1.35","LF","vkybhfxevw","1920","1080","0","1","0","5f9d4170f629422451ac7fd8","","null","","","","","","","learning/Slide116.JPG","null","","","","","",""
"html-keyboard-response","354","317623","0.0-7.0-2.35","LF","vkybhfxevw","1920","1080","0","1","0","5f9d4170f629422451ac7fd8","","null","","","learningBlock2","","","","<div style=""font-size:60px;""> </div>","null","LF","learning/Slide116.JPG","This is a dep:","","",""
"html-keyboard-response","355","318626","0.0-7.0-0.36","LF","vkybhfxevw","1920","1080","0","1","0","5f9d4170f629422451ac7fd8","","null","","","learningBlock2","","","","This is a tob:","null","","","","","",""
"image-keyboard-response","356","318956","0.0-7.0-1.36","LF","vkybhfxevw","1920","1080","0","1","0","5f9d4170f629422451ac7fd8","","null","","","","","","","learning/Slide117.JPG","null","","","","","",""
"html-keyboard-response","357","319968","0.0-7.0-2.36","LF","vkybhfxevw","1920","1080","0","1","0","5f9d4170f629422451ac7fd8","","null","","","learningBlock2","","","","<div style=""font-size:60px;""> </div>","null","LF","learning/Slide117.JPG","This is a tob:","","",""
"html-keyboard-response","358","320983","0.0-7.0-0.37","LF","vkybhfxevw","1920","1080","0","1","0","5f9d4170f629422451ac7fd8","","null","","","learningBlock2","","","","This is a dep:","null","","","","","",""
"image-keyboard-response","359","321321","0.0-7.0-1.37","LF","vkybhfxevw","1920","1080","0","1","0","5f9d4170f629422451ac7fd8","","null","","","","","","","learning/Slide118.JPG","null","","","","","",""
"html-keyboard-response","360","322336","0.0-7.0-2.37","LF","vkybhfxevw","1920","1080","0","1","0","5f9d4170f629422451ac7fd8","","null","","","learningBlock2","","","","<div style=""font-size:60px;""> </div>","null","LF","learning/Slide118.JPG","This is a dep:","","",""
"html-keyboard-response","361","323352","0.0-7.0-0.38","LF","vkybhfxevw","1920","1080","0","1","0","5f9d4170f629422451ac7fd8","","null","","","learningBlock2","","","","This is a wug:","null","","","","","",""
"image-keyboard-response","362","323690","0.0-7.0-1.38","LF","vkybhfxevw","1920","1080","0","1","0","5f9d4170f629422451ac7fd8","","null","","","","","","","learning/Slide119.JPG","null","","","","","",""
"html-keyboard-response","363","324705","0.0-7.0-2.38","LF","vkybhfxevw","1920","1080","0","1","0","5f9d4170f629422451ac7fd8","","null","","","learningBlock2","","","","<div style=""font-size:60px;""> </div>","null","LF","learning/Slide119.JPG","This is a wug:","","",""
"html-keyboard-response","364","325720","0.0-7.0-0.39","LF","vkybhfxevw","1920","1080","0","1","0","5f9d4170f629422451ac7fd8","","null","","","learningBlock2","","","","This is a dep:","null","","","","","",""
"image-keyboard-response","365","326059","0.0-7.0-1.39","LF","vkybhfxevw","1920","1080","0","1","0","5f9d4170f629422451ac7fd8","","null","","","","","","","learning/Slide120.JPG","null","","","","","",""
"html-keyboard-response","366","327062","0.0-7.0-2.39","LF","vkybhfxevw","1920","1080","0","1","0","5f9d4170f629422451ac7fd8","","null","","","learningBlock2","","","","<div style=""font-size:60px;""> </div>","null","LF","learning/Slide120.JPG","This is a dep:","","",""
"html-keyboard-response","367","328063","0.0-7.0-0.40","LF","vkybhfxevw","1920","1080","0","1","0","5f9d4170f629422451ac7fd8","","null","","","learningBlock2","","","","This is a bim:","null","","","","","",""
"image-keyboard-response","368","328402","0.0-7.0-1.40","LF","vkybhfxevw","1920","1080","0","1","0","5f9d4170f629422451ac7fd8","","null","","","","","","","learning/Slide121.JPG","null","","","","","",""
"html-keyboard-response","369","329416","0.0-7.0-2.40","LF","vkybhfxevw","1920","1080","0","1","0","5f9d4170f629422451ac7fd8","","null","","","learningBlock2","","","","<div style=""font-size:60px;""> </div>","null","LF","learning/Slide121.JPG","This is a bim:","","",""
"html-keyboard-response","370","330429","0.0-7.0-0.41","LF","vkybhfxevw","1920","1080","0","1","0","5f9d4170f629422451ac7fd8","","null","","","learningBlock2","","","","This is a wug:","null","","","","","",""
"image-keyboard-response","371","330767","0.0-7.0-1.41","LF","vkybhfxevw","1920","1080","0","1","0","5f9d4170f629422451ac7fd8","","null","","","","","","","learning/Slide122.JPG","null","","","","","",""
"html-keyboard-response","372","331769","0.0-7.0-2.41","LF","vkybhfxevw","1920","1080","0","1","0","5f9d4170f629422451ac7fd8","","null","","","learningBlock2","","","","<div style=""font-size:60px;""> </div>","null","LF","learning/Slide122.JPG","This is a wug:","","",""
"html-keyboard-response","373","332770","0.0-7.0-0.42","LF","vkybhfxevw","1920","1080","0","1","0","5f9d4170f629422451ac7fd8","","null","","","learningBlock2","","","","This is a bim:","null","","","","","",""
"image-keyboard-response","374","333101","0.0-7.0-1.42","LF","vkybhfxevw","1920","1080","0","1","0","5f9d4170f629422451ac7fd8","","null","","","","","","","learning/Slide123.JPG","null","","","","","",""
"html-keyboard-response","375","334108","0.0-7.0-2.42","LF","vkybhfxevw","1920","1080","0","1","0","5f9d4170f629422451ac7fd8","","null","","","learningBlock2","","","","<div style=""font-size:60px;""> </div>","null","LF","learning/Slide123.JPG","This is a bim:","","",""
"html-keyboard-response","376","335110","0.0-7.0-0.43","LF","vkybhfxevw","1920","1080","0","1","0","5f9d4170f629422451ac7fd8","","null","","","learningBlock2","","","","This is a tob:","null","","","","","",""
"image-keyboard-response","377","335447","0.0-7.0-1.43","LF","vkybhfxevw","1920","1080","0","1","0","5f9d4170f629422451ac7fd8","","null","","","","","","","learning/Slide124.JPG","null","","","","","",""
"html-keyboard-response","378","336460","0.0-7.0-2.43","LF","vkybhfxevw","1920","1080","0","1","0","5f9d4170f629422451ac7fd8","","null","","","learningBlock2","","","","<div style=""font-size:60px;""> </div>","null","LF","learning/Slide124.JPG","This is a tob:","","",""
"html-keyboard-response","379","337463","0.0-7.0-0.44","LF","vkybhfxevw","1920","1080","0","1","0","5f9d4170f629422451ac7fd8","","null","","","learningBlock2","","","","This is a bim:","null","","","","","",""
"image-keyboard-response","380","337789","0.0-7.0-1.44","LF","vkybhfxevw","1920","1080","0","1","0","5f9d4170f629422451ac7fd8","","null","","","","","","","learning/Slide125.JPG","null","","","","","",""
"html-keyboard-response","381","338800","0.0-7.0-2.44","LF","vkybhfxevw","1920","1080","0","1","0","5f9d4170f629422451ac7fd8","","null","","","learningBlock2","","","","<div style=""font-size:60px;""> </div>","null","LF","learning/Slide125.JPG","This is a bim:","","",""
"html-keyboard-response","382","339802","0.0-7.0-0.45","LF","vkybhfxevw","1920","1080","0","1","0","5f9d4170f629422451ac7fd8","","null","","","learningBlock2","","","","This is a tob:","null","","","","","",""
"image-keyboard-response","383","340141","0.0-7.0-1.45","LF","vkybhfxevw","1920","1080","0","1","0","5f9d4170f629422451ac7fd8","","null","","","","","","","learning/Slide126.JPG","null","","","","","",""
"html-keyboard-response","384","341155","0.0-7.0-2.45","LF","vkybhfxevw","1920","1080","0","1","0","5f9d4170f629422451ac7fd8","","null","","","learningBlock2","","","","<div style=""font-size:60px;""> </div>","null","LF","learning/Slide126.JPG","This is a tob:","","",""
"html-keyboard-response","385","342169","0.0-7.0-0.46","LF","vkybhfxevw","1920","1080","0","1","0","5f9d4170f629422451ac7fd8","","null","","","learningBlock2","","","","This is a dep:","null","","","","","",""
"image-keyboard-response","386","342499","0.0-7.0-1.46","LF","vkybhfxevw","1920","1080","0","1","0","5f9d4170f629422451ac7fd8","","null","","","","","","","learning/Slide127.JPG","null","","","","","",""
"html-keyboard-response","387","343510","0.0-7.0-2.46","LF","vkybhfxevw","1920","1080","0","1","0","5f9d4170f629422451ac7fd8","","null","","","learningBlock2","","","","<div style=""font-size:60px;""> </div>","null","LF","learning/Slide127.JPG","This is a dep:","","",""
"html-keyboard-response","388","344512","0.0-7.0-0.47","LF","vkybhfxevw","1920","1080","0","1","0","5f9d4170f629422451ac7fd8","","null","","","learningBlock2","","","","This is a wug:","null","","","","","",""
"image-keyboard-response","389","344851","0.0-7.0-1.47","LF","vkybhfxevw","1920","1080","0","1","0","5f9d4170f629422451ac7fd8","","null","","","","","","","learning/Slide128.JPG","null","","","","","",""
"html-keyboard-response","390","345853","0.0-7.0-2.47","LF","vkybhfxevw","1920","1080","0","1","0","5f9d4170f629422451ac7fd8","","null","","","learningBlock2","","","","<div style=""font-size:60px;""> </div>","null","LF","learning/Slide128.JPG","This is a wug:","","",""
"html-keyboard-response","391","346869","0.0-7.0-0.48","LF","vkybhfxevw","1920","1080","0","1","0","5f9d4170f629422451ac7fd8","","null","","","learningBlock2","","","","This is a tob:","null","","","","","",""
"image-keyboard-response","392","347208","0.0-7.0-1.48","LF","vkybhfxevw","1920","1080","0","1","0","5f9d4170f629422451ac7fd8","","null","","","","","","","learning/Slide129.JPG","null","","","","","",""
"html-keyboard-response","393","348223","0.0-7.0-2.48","LF","vkybhfxevw","1920","1080","0","1","0","5f9d4170f629422451ac7fd8","","null","","","learningBlock2","","","","<div style=""font-size:60px;""> </div>","null","LF","learning/Slide129.JPG","This is a tob:","","",""
"html-keyboard-response","394","349225","0.0-7.0-0.49","LF","vkybhfxevw","1920","1080","0","1","0","5f9d4170f629422451ac7fd8","","null","","","learningBlock2","","","","This is a wug:","null","","","","","",""
"image-keyboard-response","395","349556","0.0-7.0-1.49","LF","vkybhfxevw","1920","1080","0","1","0","5f9d4170f629422451ac7fd8","","null","","","","","","","learning/Slide130.JPG","null","","","","","",""
"html-keyboard-response","396","350564","0.0-7.0-2.49","LF","vkybhfxevw","1920","1080","0","1","0","5f9d4170f629422451ac7fd8","","null","","","learningBlock2","","","","<div style=""font-size:60px;""> </div>","null","LF","learning/Slide130.JPG","This is a wug:","","",""
"html-keyboard-response","397","351578","0.0-7.0-0.50","LF","vkybhfxevw","1920","1080","0","1","0","5f9d4170f629422451ac7fd8","","null","","","learningBlock2","","","","This is a bim:","null","","","","","",""
"image-keyboard-response","398","351905","0.0-7.0-1.50","LF","vkybhfxevw","1920","1080","0","1","0","5f9d4170f629422451ac7fd8","","null","","","","","","","learning/Slide131.JPG","null","","","","","",""
"html-keyboard-response","399","352918","0.0-7.0-2.50","LF","vkybhfxevw","1920","1080","0","1","0","5f9d4170f629422451ac7fd8","","null","","","learningBlock2","","","","<div style=""font-size:60px;""> </div>","null","LF","learning/Slide131.JPG","This is a bim:","","",""
"html-keyboard-response","400","353919","0.0-7.0-0.51","LF","vkybhfxevw","1920","1080","0","1","0","5f9d4170f629422451ac7fd8","","null","","","learningBlock2","","","","This is a dep:","null","","","","","",""
"image-keyboard-response","401","354257","0.0-7.0-1.51","LF","vkybhfxevw","1920","1080","0","1","0","5f9d4170f629422451ac7fd8","","null","","","","","","","learning/Slide132.JPG","null","","","","","",""
"html-keyboard-response","402","355270","0.0-7.0-2.51","LF","vkybhfxevw","1920","1080","0","1","0","5f9d4170f629422451ac7fd8","","null","","","learningBlock2","","","","<div style=""font-size:60px;""> </div>","null","LF","learning/Slide132.JPG","This is a dep:","","",""
"html-keyboard-response","403","356271","0.0-7.0-0.52","LF","vkybhfxevw","1920","1080","0","1","0","5f9d4170f629422451ac7fd8","","null","","","learningBlock2","","","","This is a tob:","null","","","","","",""
"image-keyboard-response","404","356600","0.0-7.0-1.52","LF","vkybhfxevw","1920","1080","0","1","0","5f9d4170f629422451ac7fd8","","null","","","","","","","learning/Slide133.JPG","null","","","","","",""
"html-keyboard-response","405","357612","0.0-7.0-2.52","LF","vkybhfxevw","1920","1080","0","1","0","5f9d4170f629422451ac7fd8","","null","","","learningBlock2","","","","<div style=""font-size:60px;""> </div>","null","LF","learning/Slide133.JPG","This is a tob:","","",""
"html-keyboard-response","406","358628","0.0-7.0-0.53","LF","vkybhfxevw","1920","1080","0","1","0","5f9d4170f629422451ac7fd8","","null","","","learningBlock2","","","","This is a dep:","null","","","","","",""
"image-keyboard-response","407","358968","0.0-7.0-1.53","LF","vkybhfxevw","1920","1080","0","1","0","5f9d4170f629422451ac7fd8","","null","","","","","","","learning/Slide134.JPG","null","","","","","",""
"html-keyboard-response","408","359982","0.0-7.0-2.53","LF","vkybhfxevw","1920","1080","0","1","0","5f9d4170f629422451ac7fd8","","null","","","learningBlock2","","","","<div style=""font-size:60px;""> </div>","null","LF","learning/Slide134.JPG","This is a dep:","","",""
"html-keyboard-response","409","360983","0.0-7.0-0.54","LF","vkybhfxevw","1920","1080","0","1","0","5f9d4170f629422451ac7fd8","","null","","","learningBlock2","","","","This is a tob:","null","","","","","",""
"image-keyboard-response","410","361324","0.0-7.0-1.54","LF","vkybhfxevw","1920","1080","0","1","0","5f9d4170f629422451ac7fd8","","null","","","","","","","learning/Slide135.JPG","null","","","","","",""
"html-keyboard-response","411","362335","0.0-7.0-2.54","LF","vkybhfxevw","1920","1080","0","1","0","5f9d4170f629422451ac7fd8","","null","","","learningBlock2","","","","<div style=""font-size:60px;""> </div>","null","LF","learning/Slide135.JPG","This is a tob:","","",""
"html-keyboard-response","412","363349","0.0-7.0-0.55","LF","vkybhfxevw","1920","1080","0","1","0","5f9d4170f629422451ac7fd8","","null","","","learningBlock2","","","","This is a wug:","null","","","","","",""
"image-keyboard-response","413","363679","0.0-7.0-1.55","LF","vkybhfxevw","1920","1080","0","1","0","5f9d4170f629422451ac7fd8","","null","","","","","","","learning/Slide136.JPG","null","","","","","",""
"html-keyboard-response","414","364688","0.0-7.0-2.55","LF","vkybhfxevw","1920","1080","0","1","0","5f9d4170f629422451ac7fd8","","null","","","learningBlock2","","","","<div style=""font-size:60px;""> </div>","null","LF","learning/Slide136.JPG","This is a wug:","","",""
"html-keyboard-response","415","365689","0.0-7.0-0.56","LF","vkybhfxevw","1920","1080","0","1","0","5f9d4170f629422451ac7fd8","","null","","","learningBlock2","","","","This is a tob:","null","","","","","",""
"image-keyboard-response","416","366029","0.0-7.0-1.56","LF","vkybhfxevw","1920","1080","0","1","0","5f9d4170f629422451ac7fd8","","null","","","","","","","learning/Slide137.JPG","null","","","","","",""
"html-keyboard-response","417","367032","0.0-7.0-2.56","LF","vkybhfxevw","1920","1080","0","1","0","5f9d4170f629422451ac7fd8","","null","","","learningBlock2","","","","<div style=""font-size:60px;""> </div>","null","LF","learning/Slide137.JPG","This is a tob:","","",""
"html-keyboard-response","418","368044","0.0-7.0-0.57","LF","vkybhfxevw","1920","1080","0","1","0","5f9d4170f629422451ac7fd8","","null","","","learningBlock2","","","","This is a bim:","null","","","","","",""
"image-keyboard-response","419","368371","0.0-7.0-1.57","LF","vkybhfxevw","1920","1080","0","1","0","5f9d4170f629422451ac7fd8","","null","","","","","","","learning/Slide138.JPG","null","","","","","",""
"html-keyboard-response","420","369384","0.0-7.0-2.57","LF","vkybhfxevw","1920","1080","0","1","0","5f9d4170f629422451ac7fd8","","null","","","learningBlock2","","","","<div style=""font-size:60px;""> </div>","null","LF","learning/Slide138.JPG","This is a bim:","","",""
"html-keyboard-response","421","370388","0.0-7.0-0.58","LF","vkybhfxevw","1920","1080","0","1","0","5f9d4170f629422451ac7fd8","","null","","","learningBlock2","","","","This is a wug:","null","","","","","",""
"image-keyboard-response","422","370726","0.0-7.0-1.58","LF","vkybhfxevw","1920","1080","0","1","0","5f9d4170f629422451ac7fd8","","null","","","","","","","learning/Slide139.JPG","null","","","","","",""
"html-keyboard-response","423","371739","0.0-7.0-2.58","LF","vkybhfxevw","1920","1080","0","1","0","5f9d4170f629422451ac7fd8","","null","","","learningBlock2","","","","<div style=""font-size:60px;""> </div>","null","LF","learning/Slide139.JPG","This is a wug:","","",""
"html-keyboard-response","424","372741","0.0-7.0-0.59","LF","vkybhfxevw","1920","1080","0","1","0","5f9d4170f629422451ac7fd8","","null","","","learningBlock2","","","","This is a dep:","null","","","","","",""
"image-keyboard-response","425","373070","0.0-7.0-1.59","LF","vkybhfxevw","1920","1080","0","1","0","5f9d4170f629422451ac7fd8","","null","","","","","","","learning/Slide140.JPG","null","","","","","",""
"html-keyboard-response","426","374079","0.0-7.0-2.59","LF","vkybhfxevw","1920","1080","0","1","0","5f9d4170f629422451ac7fd8","","null","","","learningBlock2","","","","<div style=""font-size:60px;""> </div>","null","LF","learning/Slide140.JPG","This is a dep:","","",""
"html-keyboard-response","427","375094","0.0-7.0-0.60","LF","vkybhfxevw","1920","1080","0","1","0","5f9d4170f629422451ac7fd8","","null","","","learningBlock2","","","","This is a tob:","null","","","","","",""
"image-keyboard-response","428","375422","0.0-7.0-1.60","LF","vkybhfxevw","1920","1080","0","1","0","5f9d4170f629422451ac7fd8","","null","","","","","","","learning/Slide141.JPG","null","","","","","",""
"html-keyboard-response","429","376436","0.0-7.0-2.60","LF","vkybhfxevw","1920","1080","0","1","0","5f9d4170f629422451ac7fd8","","null","","","learningBlock2","","","","<div style=""font-size:60px;""> </div>","null","LF","learning/Slide141.JPG","This is a tob:","","",""
"html-keyboard-response","430","377436","0.0-7.0-0.61","LF","vkybhfxevw","1920","1080","0","1","0","5f9d4170f629422451ac7fd8","","null","","","learningBlock2","","","","This is a wug:","null","","","","","",""
"image-keyboard-response","431","377776","0.0-7.0-1.61","LF","vkybhfxevw","1920","1080","0","1","0","5f9d4170f629422451ac7fd8","","null","","","","","","","learning/Slide142.JPG","null","","","","","",""
"html-keyboard-response","432","378779","0.0-7.0-2.61","LF","vkybhfxevw","1920","1080","0","1","0","5f9d4170f629422451ac7fd8","","null","","","learningBlock2","","","","<div style=""font-size:60px;""> </div>","null","LF","learning/Slide142.JPG","This is a wug:","","",""
"html-keyboard-response","433","379793","0.0-7.0-0.62","LF","vkybhfxevw","1920","1080","0","1","0","5f9d4170f629422451ac7fd8","","null","","","learningBlock2","","","","This is a bim:","null","","","","","",""
"image-keyboard-response","434","380133","0.0-7.0-1.62","LF","vkybhfxevw","1920","1080","0","1","0","5f9d4170f629422451ac7fd8","","null","","","","","","","learning/Slide143.JPG","null","","","","","",""
"html-keyboard-response","435","381150","0.0-7.0-2.62","LF","vkybhfxevw","1920","1080","0","1","0","5f9d4170f629422451ac7fd8","","null","","","learningBlock2","","","","<div style=""font-size:60px;""> </div>","null","LF","learning/Slide143.JPG","This is a bim:","","",""
"html-keyboard-response","436","382152","0.0-7.0-0.63","LF","vkybhfxevw","1920","1080","0","1","0","5f9d4170f629422451ac7fd8","","null","","","learningBlock2","","","","This is a dep:","null","","","","","",""
