"trial_type","trial_index","time_elapsed","internal_node_id","condition","subject","screen_width","screen_height","attention","distraction","conscientious","prolificID","success","rt","url","view_history","test_part","final_height_px","final_width_px","scale_factor","stimulus","key_press","learningType","presentedImage","presentedLabel","button_pressed","response","responses"
"pavlovia","0","43","0.0-0.0","LF","98ysefwhzk","1093","615","0","1","0","5f482f05cd5e5d2d1d57c1ff","","","","","","","","","","","","","","","",""
"fullscreen","1","59222","0.0-1.0","LF","98ysefwhzk","1093","615","0","1","0","5f482f05cd5e5d2d1d57c1ff","true","","","","","","","","","","","","","","",""
"external-html","2","208729","0.0-2.0-0.0","LF","98ysefwhzk","1093","615","0","1","0","5f482f05cd5e5d2d1d57c1ff","","149460.13500000117","text/information_english.html","","","","","","","","","","","","",""
"external-html","3","225897","0.0-2.0-1.0","LF","98ysefwhzk","1093","615","0","1","0","5f482f05cd5e5d2d1d57c1ff","","17108.285000023898","text/consent_english.html","","","","","","","","","","","","",""
"instructions","4","238189","0.0-3.0","LF","98ysefwhzk","1093","615","0","1","0","5f482f05cd5e5d2d1d57c1ff","","NA","","[{""page_index"":0,""viewing_time"":1322.9500000015832},{""page_index"":1,""viewing_time"":10965.51000000909}]","instructions","","","","","","","","","","",""
"resize","5","302658","0.0-4.0","LF","98ysefwhzk","1093","615","0","1","0","5f482f05cd5e5d2d1d57c1ff","","","","","","","361","2.292063492063492","","","","","","","",""
"html-keyboard-response","6","303669","0.0-5.0-0.0","LF","98ysefwhzk","1093","615","0","1","0","5f482f05cd5e5d2d1d57c1ff","","null","","","learningBlock1","","","","This is a tob:","null","","","","","",""
"image-keyboard-response","7","304017","0.0-5.0-1.0","LF","98ysefwhzk","1093","615","0","1","0","5f482f05cd5e5d2d1d57c1ff","","null","","","","","","","learning/Slide1.JPG","null","","","","","",""
"html-keyboard-response","8","305027","0.0-5.0-2.0","LF","98ysefwhzk","1093","615","0","1","0","5f482f05cd5e5d2d1d57c1ff","","null","","","learningBlock1","","","","<div style=""font-size:60px;""> </div>","null","LF","learning/Slide1.JPG","This is a tob:","","",""
"html-keyboard-response","9","306045","0.0-5.0-0.1","LF","98ysefwhzk","1093","615","0","1","0","5f482f05cd5e5d2d1d57c1ff","","null","","","learningBlock1","","","","This is a wug:","null","","","","","",""
"image-keyboard-response","10","306386","0.0-5.0-1.1","LF","98ysefwhzk","1093","615","0","1","0","5f482f05cd5e5d2d1d57c1ff","","null","","","","","","","learning/Slide2.JPG","null","","","","","",""
"html-keyboard-response","11","307399","0.0-5.0-2.1","LF","98ysefwhzk","1093","615","0","1","0","5f482f05cd5e5d2d1d57c1ff","","null","","","learningBlock1","","","","<div style=""font-size:60px;""> </div>","null","LF","learning/Slide2.JPG","This is a wug:","","",""
"html-keyboard-response","12","308401","0.0-5.0-0.2","LF","98ysefwhzk","1093","615","0","1","0","5f482f05cd5e5d2d1d57c1ff","","null","","","learningBlock1","","","","This is a bim:","null","","","","","",""
"image-keyboard-response","13","308729","0.0-5.0-1.2","LF","98ysefwhzk","1093","615","0","1","0","5f482f05cd5e5d2d1d57c1ff","","null","","","","","","","learning/Slide3.JPG","null","","","","","",""
"html-keyboard-response","14","309745","0.0-5.0-2.2","LF","98ysefwhzk","1093","615","0","1","0","5f482f05cd5e5d2d1d57c1ff","","null","","","learningBlock1","","","","<div style=""font-size:60px;""> </div>","null","LF","learning/Slide3.JPG","This is a bim:","","",""
"html-keyboard-response","15","310754","0.0-5.0-0.3","LF","98ysefwhzk","1093","615","0","1","0","5f482f05cd5e5d2d1d57c1ff","","null","","","learningBlock1","","","","This is a dep:","null","","","","","",""
"image-keyboard-response","16","311095","0.0-5.0-1.3","LF","98ysefwhzk","1093","615","0","1","0","5f482f05cd5e5d2d1d57c1ff","","null","","","","","","","learning/Slide4.JPG","null","","","","","",""
"html-keyboard-response","17","312097","0.0-5.0-2.3","LF","98ysefwhzk","1093","615","0","1","0","5f482f05cd5e5d2d1d57c1ff","","null","","","learningBlock1","","","","<div style=""font-size:60px;""> </div>","null","LF","learning/Slide4.JPG","This is a dep:","","",""
"html-keyboard-response","18","313103","0.0-5.0-0.4","LF","98ysefwhzk","1093","615","0","1","0","5f482f05cd5e5d2d1d57c1ff","","null","","","learningBlock1","","","","This is a wug:","null","","","","","",""
"image-keyboard-response","19","313452","0.0-5.0-1.4","LF","98ysefwhzk","1093","615","0","1","0","5f482f05cd5e5d2d1d57c1ff","","null","","","","","","","learning/Slide5.JPG","null","","","","","",""
"html-keyboard-response","20","314464","0.0-5.0-2.4","LF","98ysefwhzk","1093","615","0","1","0","5f482f05cd5e5d2d1d57c1ff","","null","","","learningBlock1","","","","<div style=""font-size:60px;""> </div>","null","LF","learning/Slide5.JPG","This is a wug:","","",""
"html-keyboard-response","21","315466","0.0-5.0-0.5","LF","98ysefwhzk","1093","615","0","1","0","5f482f05cd5e5d2d1d57c1ff","","null","","","learningBlock1","","","","This is a dep:","null","","","","","",""
"image-keyboard-response","22","315808","0.0-5.0-1.5","LF","98ysefwhzk","1093","615","0","1","0","5f482f05cd5e5d2d1d57c1ff","","null","","","","","","","learning/Slide6.JPG","null","","","","","",""
"html-keyboard-response","23","316818","0.0-5.0-2.5","LF","98ysefwhzk","1093","615","0","1","0","5f482f05cd5e5d2d1d57c1ff","","null","","","learningBlock1","","","","<div style=""font-size:60px;""> </div>","null","LF","learning/Slide6.JPG","This is a dep:","","",""
"html-keyboard-response","24","317821","0.0-5.0-0.6","LF","98ysefwhzk","1093","615","0","1","0","5f482f05cd5e5d2d1d57c1ff","","null","","","learningBlock1","","","","This is a wug:","null","","","","","",""
"image-keyboard-response","25","318161","0.0-5.0-1.6","LF","98ysefwhzk","1093","615","0","1","0","5f482f05cd5e5d2d1d57c1ff","","null","","","","","","","learning/Slide7.JPG","null","","","","","",""
"html-keyboard-response","26","319174","0.0-5.0-2.6","LF","98ysefwhzk","1093","615","0","1","0","5f482f05cd5e5d2d1d57c1ff","","null","","","learningBlock1","","","","<div style=""font-size:60px;""> </div>","null","LF","learning/Slide7.JPG","This is a wug:","","",""
"html-keyboard-response","27","320176","0.0-5.0-0.7","LF","98ysefwhzk","1093","615","0","1","0","5f482f05cd5e5d2d1d57c1ff","","null","","","learningBlock1","","","","This is a bim:","null","","","","","",""
"image-keyboard-response","28","320516","0.0-5.0-1.7","LF","98ysefwhzk","1093","615","0","1","0","5f482f05cd5e5d2d1d57c1ff","","null","","","","","","","learning/Slide8.JPG","null","","","","","",""
"html-keyboard-response","29","321529","0.0-5.0-2.7","LF","98ysefwhzk","1093","615","0","1","0","5f482f05cd5e5d2d1d57c1ff","","null","","","learningBlock1","","","","<div style=""font-size:60px;""> </div>","null","LF","learning/Slide8.JPG","This is a bim:","","",""
"html-keyboard-response","30","322537","0.0-5.0-0.8","LF","98ysefwhzk","1093","615","0","1","0","5f482f05cd5e5d2d1d57c1ff","","null","","","learningBlock1","","","","This is a wug:","null","","","","","",""
"image-keyboard-response","31","322873","0.0-5.0-1.8","LF","98ysefwhzk","1093","615","0","1","0","5f482f05cd5e5d2d1d57c1ff","","null","","","","","","","learning/Slide9.JPG","null","","","","","",""
"html-keyboard-response","32","323885","0.0-5.0-2.8","LF","98ysefwhzk","1093","615","0","1","0","5f482f05cd5e5d2d1d57c1ff","","null","","","learningBlock1","","","","<div style=""font-size:60px;""> </div>","null","LF","learning/Slide9.JPG","This is a wug:","","",""
"html-keyboard-response","33","324894","0.0-5.0-0.9","LF","98ysefwhzk","1093","615","0","1","0","5f482f05cd5e5d2d1d57c1ff","","null","","","learningBlock1","","","","This is a dep:","null","","","","","",""
"image-keyboard-response","34","325245","0.0-5.0-1.9","LF","98ysefwhzk","1093","615","0","1","0","5f482f05cd5e5d2d1d57c1ff","","null","","","","","","","learning/Slide10.JPG","null","","","","","",""
"html-keyboard-response","35","326255","0.0-5.0-2.9","LF","98ysefwhzk","1093","615","0","1","0","5f482f05cd5e5d2d1d57c1ff","","null","","","learningBlock1","","","","<div style=""font-size:60px;""> </div>","null","LF","learning/Slide10.JPG","This is a dep:","","",""
"html-keyboard-response","36","327258","0.0-5.0-0.10","LF","98ysefwhzk","1093","615","0","1","0","5f482f05cd5e5d2d1d57c1ff","","null","","","learningBlock1","","","","This is a tob:","null","","","","","",""
"image-keyboard-response","37","327599","0.0-5.0-1.10","LF","98ysefwhzk","1093","615","0","1","0","5f482f05cd5e5d2d1d57c1ff","","null","","","","","","","learning/Slide11.JPG","null","","","","","",""
"html-keyboard-response","38","328607","0.0-5.0-2.10","LF","98ysefwhzk","1093","615","0","1","0","5f482f05cd5e5d2d1d57c1ff","","null","","","learningBlock1","","","","<div style=""font-size:60px;""> </div>","null","LF","learning/Slide11.JPG","This is a tob:","","",""
"html-keyboard-response","39","329622","0.0-5.0-0.11","LF","98ysefwhzk","1093","615","0","1","0","5f482f05cd5e5d2d1d57c1ff","","null","","","learningBlock1","","","","This is a dep:","null","","","","","",""
"image-keyboard-response","40","329950","0.0-5.0-1.11","LF","98ysefwhzk","1093","615","0","1","0","5f482f05cd5e5d2d1d57c1ff","","null","","","","","","","learning/Slide12.JPG","null","","","","","",""
"html-keyboard-response","41","330952","0.0-5.0-2.11","LF","98ysefwhzk","1093","615","0","1","0","5f482f05cd5e5d2d1d57c1ff","","null","","","learningBlock1","","","","<div style=""font-size:60px;""> </div>","null","LF","learning/Slide12.JPG","This is a dep:","","",""
"html-keyboard-response","42","331963","0.0-5.0-0.12","LF","98ysefwhzk","1093","615","0","1","0","5f482f05cd5e5d2d1d57c1ff","","null","","","learningBlock1","","","","This is a bim:","null","","","","","",""
"image-keyboard-response","43","332311","0.0-5.0-1.12","LF","98ysefwhzk","1093","615","0","1","0","5f482f05cd5e5d2d1d57c1ff","","null","","","","","","","learning/Slide13.JPG","null","","","","","",""
"html-keyboard-response","44","333327","0.0-5.0-2.12","LF","98ysefwhzk","1093","615","0","1","0","5f482f05cd5e5d2d1d57c1ff","","null","","","learningBlock1","","","","<div style=""font-size:60px;""> </div>","null","LF","learning/Slide13.JPG","This is a bim:","","",""
"html-keyboard-response","45","334338","0.0-5.0-0.13","LF","98ysefwhzk","1093","615","0","1","0","5f482f05cd5e5d2d1d57c1ff","","null","","","learningBlock1","","","","This is a wug:","null","","","","","",""
"image-keyboard-response","46","334682","0.0-5.0-1.13","LF","98ysefwhzk","1093","615","0","1","0","5f482f05cd5e5d2d1d57c1ff","","null","","","","","","","learning/Slide14.JPG","null","","","","","",""
"html-keyboard-response","47","335695","0.0-5.0-2.13","LF","98ysefwhzk","1093","615","0","1","0","5f482f05cd5e5d2d1d57c1ff","","null","","","learningBlock1","","","","<div style=""font-size:60px;""> </div>","null","LF","learning/Slide14.JPG","This is a wug:","","",""
"html-keyboard-response","48","336713","0.0-5.0-0.14","LF","98ysefwhzk","1093","615","0","1","0","5f482f05cd5e5d2d1d57c1ff","","null","","","learningBlock1","","","","This is a tob:","null","","","","","",""
"image-keyboard-response","49","337052","0.0-5.0-1.14","LF","98ysefwhzk","1093","615","0","1","0","5f482f05cd5e5d2d1d57c1ff","","null","","","","","","","learning/Slide15.JPG","null","","","","","",""
"html-keyboard-response","50","338054","0.0-5.0-2.14","LF","98ysefwhzk","1093","615","0","1","0","5f482f05cd5e5d2d1d57c1ff","","null","","","learningBlock1","","","","<div style=""font-size:60px;""> </div>","null","LF","learning/Slide15.JPG","This is a tob:","","",""
"html-keyboard-response","51","339060","0.0-5.0-0.15","LF","98ysefwhzk","1093","615","0","1","0","5f482f05cd5e5d2d1d57c1ff","","null","","","learningBlock1","","","","This is a dep:","null","","","","","",""
"image-keyboard-response","52","339410","0.0-5.0-1.15","LF","98ysefwhzk","1093","615","0","1","0","5f482f05cd5e5d2d1d57c1ff","","null","","","","","","","learning/Slide16.JPG","null","","","","","",""
"html-keyboard-response","53","340421","0.0-5.0-2.15","LF","98ysefwhzk","1093","615","0","1","0","5f482f05cd5e5d2d1d57c1ff","","null","","","learningBlock1","","","","<div style=""font-size:60px;""> </div>","null","LF","learning/Slide16.JPG","This is a dep:","","",""
"html-keyboard-response","54","341438","0.0-5.0-0.16","LF","98ysefwhzk","1093","615","0","1","0","5f482f05cd5e5d2d1d57c1ff","","null","","","learningBlock1","","","","This is a bim:","null","","","","","",""
"image-keyboard-response","55","341781","0.0-5.0-1.16","LF","98ysefwhzk","1093","615","0","1","0","5f482f05cd5e5d2d1d57c1ff","","null","","","","","","","learning/Slide17.JPG","null","","","","","",""
"html-keyboard-response","56","342792","0.0-5.0-2.16","LF","98ysefwhzk","1093","615","0","1","0","5f482f05cd5e5d2d1d57c1ff","","null","","","learningBlock1","","","","<div style=""font-size:60px;""> </div>","null","LF","learning/Slide17.JPG","This is a bim:","","",""
"html-keyboard-response","57","343808","0.0-5.0-0.17","LF","98ysefwhzk","1093","615","0","1","0","5f482f05cd5e5d2d1d57c1ff","","null","","","learningBlock1","","","","This is a tob:","null","","","","","",""
"image-keyboard-response","58","344152","0.0-5.0-1.17","LF","98ysefwhzk","1093","615","0","1","0","5f482f05cd5e5d2d1d57c1ff","","null","","","","","","","learning/Slide18.JPG","null","","","","","",""
"html-keyboard-response","59","345156","0.0-5.0-2.17","LF","98ysefwhzk","1093","615","0","1","0","5f482f05cd5e5d2d1d57c1ff","","null","","","learningBlock1","","","","<div style=""font-size:60px;""> </div>","null","LF","learning/Slide18.JPG","This is a tob:","","",""
"html-keyboard-response","60","346165","0.0-5.0-0.18","LF","98ysefwhzk","1093","615","0","1","0","5f482f05cd5e5d2d1d57c1ff","","null","","","learningBlock1","","","","This is a wug:","null","","","","","",""
"image-keyboard-response","61","346508","0.0-5.0-1.18","LF","98ysefwhzk","1093","615","0","1","0","5f482f05cd5e5d2d1d57c1ff","","null","","","","","","","learning/Slide19.JPG","null","","","","","",""
"html-keyboard-response","62","347519","0.0-5.0-2.18","LF","98ysefwhzk","1093","615","0","1","0","5f482f05cd5e5d2d1d57c1ff","","null","","","learningBlock1","","","","<div style=""font-size:60px;""> </div>","null","LF","learning/Slide19.JPG","This is a wug:","","",""
"html-keyboard-response","63","348520","0.0-5.0-0.19","LF","98ysefwhzk","1093","615","0","1","0","5f482f05cd5e5d2d1d57c1ff","","null","","","learningBlock1","","","","This is a bim:","null","","","","","",""
"image-keyboard-response","64","348863","0.0-5.0-1.19","LF","98ysefwhzk","1093","615","0","1","0","5f482f05cd5e5d2d1d57c1ff","","null","","","","","","","learning/Slide20.JPG","null","","","","","",""
"html-keyboard-response","65","349875","0.0-5.0-2.19","LF","98ysefwhzk","1093","615","0","1","0","5f482f05cd5e5d2d1d57c1ff","","null","","","learningBlock1","","","","<div style=""font-size:60px;""> </div>","null","LF","learning/Slide20.JPG","This is a bim:","","",""
"html-keyboard-response","66","350892","0.0-5.0-0.20","LF","98ysefwhzk","1093","615","0","1","0","5f482f05cd5e5d2d1d57c1ff","","null","","","learningBlock1","","","","This is a dep:","null","","","","","",""
"image-keyboard-response","67","351234","0.0-5.0-1.20","LF","98ysefwhzk","1093","615","0","1","0","5f482f05cd5e5d2d1d57c1ff","","null","","","","","","","learning/Slide21.JPG","null","","","","","",""
"html-keyboard-response","68","352246","0.0-5.0-2.20","LF","98ysefwhzk","1093","615","0","1","0","5f482f05cd5e5d2d1d57c1ff","","null","","","learningBlock1","","","","<div style=""font-size:60px;""> </div>","null","LF","learning/Slide21.JPG","This is a dep:","","",""
"html-keyboard-response","69","353264","0.0-5.0-0.21","LF","98ysefwhzk","1093","615","0","1","0","5f482f05cd5e5d2d1d57c1ff","","null","","","learningBlock1","","","","This is a bim:","null","","","","","",""
"image-keyboard-response","70","353607","0.0-5.0-1.21","LF","98ysefwhzk","1093","615","0","1","0","5f482f05cd5e5d2d1d57c1ff","","null","","","","","","","learning/Slide22.JPG","null","","","","","",""
"html-keyboard-response","71","354619","0.0-5.0-2.21","LF","98ysefwhzk","1093","615","0","1","0","5f482f05cd5e5d2d1d57c1ff","","null","","","learningBlock1","","","","<div style=""font-size:60px;""> </div>","null","LF","learning/Slide22.JPG","This is a bim:","","",""
"html-keyboard-response","72","355621","0.0-5.0-0.22","LF","98ysefwhzk","1093","615","0","1","0","5f482f05cd5e5d2d1d57c1ff","","null","","","learningBlock1","","","","This is a tob:","null","","","","","",""
"image-keyboard-response","73","355962","0.0-5.0-1.22","LF","98ysefwhzk","1093","615","0","1","0","5f482f05cd5e5d2d1d57c1ff","","null","","","","","","","learning/Slide23.JPG","null","","","","","",""
"html-keyboard-response","74","356974","0.0-5.0-2.22","LF","98ysefwhzk","1093","615","0","1","0","5f482f05cd5e5d2d1d57c1ff","","null","","","learningBlock1","","","","<div style=""font-size:60px;""> </div>","null","LF","learning/Slide23.JPG","This is a tob:","","",""
"html-keyboard-response","75","357977","0.0-5.0-0.23","LF","98ysefwhzk","1093","615","0","1","0","5f482f05cd5e5d2d1d57c1ff","","null","","","learningBlock1","","","","This is a wug:","null","","","","","",""
"image-keyboard-response","76","358318","0.0-5.0-1.23","LF","98ysefwhzk","1093","615","0","1","0","5f482f05cd5e5d2d1d57c1ff","","null","","","","","","","learning/Slide24.JPG","null","","","","","",""
"html-keyboard-response","77","359330","0.0-5.0-2.23","LF","98ysefwhzk","1093","615","0","1","0","5f482f05cd5e5d2d1d57c1ff","","null","","","learningBlock1","","","","<div style=""font-size:60px;""> </div>","null","LF","learning/Slide24.JPG","This is a wug:","","",""
"html-keyboard-response","78","360332","0.0-5.0-0.24","LF","98ysefwhzk","1093","615","0","1","0","5f482f05cd5e5d2d1d57c1ff","","null","","","learningBlock1","","","","This is a dep:","null","","","","","",""
"image-keyboard-response","79","360672","0.0-5.0-1.24","LF","98ysefwhzk","1093","615","0","1","0","5f482f05cd5e5d2d1d57c1ff","","null","","","","","","","learning/Slide25.JPG","null","","","","","",""
"html-keyboard-response","80","361680","0.0-5.0-2.24","LF","98ysefwhzk","1093","615","0","1","0","5f482f05cd5e5d2d1d57c1ff","","null","","","learningBlock1","","","","<div style=""font-size:60px;""> </div>","null","LF","learning/Slide25.JPG","This is a dep:","","",""
"html-keyboard-response","81","362686","0.0-5.0-0.25","LF","98ysefwhzk","1093","615","0","1","0","5f482f05cd5e5d2d1d57c1ff","","null","","","learningBlock1","","","","This is a wug:","null","","","","","",""
"image-keyboard-response","82","363028","0.0-5.0-1.25","LF","98ysefwhzk","1093","615","0","1","0","5f482f05cd5e5d2d1d57c1ff","","null","","","","","","","learning/Slide26.JPG","null","","","","","",""
"html-keyboard-response","83","364040","0.0-5.0-2.25","LF","98ysefwhzk","1093","615","0","1","0","5f482f05cd5e5d2d1d57c1ff","","null","","","learningBlock1","","","","<div style=""font-size:60px;""> </div>","null","LF","learning/Slide26.JPG","This is a wug:","","",""
"html-keyboard-response","84","365042","0.0-5.0-0.26","LF","98ysefwhzk","1093","615","0","1","0","5f482f05cd5e5d2d1d57c1ff","","null","","","learningBlock1","","","","This is a bim:","null","","","","","",""
"image-keyboard-response","85","365383","0.0-5.0-1.26","LF","98ysefwhzk","1093","615","0","1","0","5f482f05cd5e5d2d1d57c1ff","","null","","","","","","","learning/Slide27.JPG","null","","","","","",""
"html-keyboard-response","86","366395","0.0-5.0-2.26","LF","98ysefwhzk","1093","615","0","1","0","5f482f05cd5e5d2d1d57c1ff","","null","","","learningBlock1","","","","<div style=""font-size:60px;""> </div>","null","LF","learning/Slide27.JPG","This is a bim:","","",""
"html-keyboard-response","87","367397","0.0-5.0-0.27","LF","98ysefwhzk","1093","615","0","1","0","5f482f05cd5e5d2d1d57c1ff","","null","","","learningBlock1","","","","This is a dep:","null","","","","","",""
"image-keyboard-response","88","367738","0.0-5.0-1.27","LF","98ysefwhzk","1093","615","0","1","0","5f482f05cd5e5d2d1d57c1ff","","null","","","","","","","learning/Slide28.JPG","null","","","","","",""
"html-keyboard-response","89","368750","0.0-5.0-2.27","LF","98ysefwhzk","1093","615","0","1","0","5f482f05cd5e5d2d1d57c1ff","","null","","","learningBlock1","","","","<div style=""font-size:60px;""> </div>","null","LF","learning/Slide28.JPG","This is a dep:","","",""
"html-keyboard-response","90","369752","0.0-5.0-0.28","LF","98ysefwhzk","1093","615","0","1","0","5f482f05cd5e5d2d1d57c1ff","","null","","","learningBlock1","","","","This is a tob:","null","","","","","",""
"image-keyboard-response","91","370092","0.0-5.0-1.28","LF","98ysefwhzk","1093","615","0","1","0","5f482f05cd5e5d2d1d57c1ff","","null","","","","","","","learning/Slide29.JPG","null","","","","","",""
"html-keyboard-response","92","371104","0.0-5.0-2.28","LF","98ysefwhzk","1093","615","0","1","0","5f482f05cd5e5d2d1d57c1ff","","null","","","learningBlock1","","","","<div style=""font-size:60px;""> </div>","null","LF","learning/Slide29.JPG","This is a tob:","","",""
"html-keyboard-response","93","372106","0.0-5.0-0.29","LF","98ysefwhzk","1093","615","0","1","0","5f482f05cd5e5d2d1d57c1ff","","null","","","learningBlock1","","","","This is a dep:","null","","","","","",""
"image-keyboard-response","94","372449","0.0-5.0-1.29","LF","98ysefwhzk","1093","615","0","1","0","5f482f05cd5e5d2d1d57c1ff","","null","","","","","","","learning/Slide30.JPG","null","","","","","",""
"html-keyboard-response","95","373461","0.0-5.0-2.29","LF","98ysefwhzk","1093","615","0","1","0","5f482f05cd5e5d2d1d57c1ff","","null","","","learningBlock1","","","","<div style=""font-size:60px;""> </div>","null","LF","learning/Slide30.JPG","This is a dep:","","",""
"html-keyboard-response","96","374464","0.0-5.0-0.30","LF","98ysefwhzk","1093","615","0","1","0","5f482f05cd5e5d2d1d57c1ff","","null","","","learningBlock1","","","","This is a wug:","null","","","","","",""
"image-keyboard-response","97","374802","0.0-5.0-1.30","LF","98ysefwhzk","1093","615","0","1","0","5f482f05cd5e5d2d1d57c1ff","","null","","","","","","","learning/Slide31.JPG","null","","","","","",""
"html-keyboard-response","98","375814","0.0-5.0-2.30","LF","98ysefwhzk","1093","615","0","1","0","5f482f05cd5e5d2d1d57c1ff","","null","","","learningBlock1","","","","<div style=""font-size:60px;""> </div>","null","LF","learning/Slide31.JPG","This is a wug:","","",""
"html-keyboard-response","99","376817","0.0-5.0-0.31","LF","98ysefwhzk","1093","615","0","1","0","5f482f05cd5e5d2d1d57c1ff","","null","","","learningBlock1","","","","This is a tob:","null","","","","","",""
"image-keyboard-response","100","377159","0.0-5.0-1.31","LF","98ysefwhzk","1093","615","0","1","0","5f482f05cd5e5d2d1d57c1ff","","null","","","","","","","learning/Slide32.JPG","null","","","","","",""
"html-keyboard-response","101","378168","0.0-5.0-2.31","LF","98ysefwhzk","1093","615","0","1","0","5f482f05cd5e5d2d1d57c1ff","","null","","","learningBlock1","","","","<div style=""font-size:60px;""> </div>","null","LF","learning/Slide32.JPG","This is a tob:","","",""
"html-keyboard-response","102","379173","0.0-5.0-0.32","LF","98ysefwhzk","1093","615","0","1","0","5f482f05cd5e5d2d1d57c1ff","","null","","","learningBlock1","","","","This is a bim:","null","","","","","",""
"image-keyboard-response","103","379514","0.0-5.0-1.32","LF","98ysefwhzk","1093","615","0","1","0","5f482f05cd5e5d2d1d57c1ff","","null","","","","","","","learning/Slide33.JPG","null","","","","","",""
"html-keyboard-response","104","380526","0.0-5.0-2.32","LF","98ysefwhzk","1093","615","0","1","0","5f482f05cd5e5d2d1d57c1ff","","null","","","learningBlock1","","","","<div style=""font-size:60px;""> </div>","null","LF","learning/Slide33.JPG","This is a bim:","","",""
"html-keyboard-response","105","381528","0.0-5.0-0.33","LF","98ysefwhzk","1093","615","0","1","0","5f482f05cd5e5d2d1d57c1ff","","null","","","learningBlock1","","","","This is a tob:","null","","","","","",""
"image-keyboard-response","106","381868","0.0-5.0-1.33","LF","98ysefwhzk","1093","615","0","1","0","5f482f05cd5e5d2d1d57c1ff","","null","","","","","","","learning/Slide34.JPG","null","","","","","",""
"html-keyboard-response","107","382880","0.0-5.0-2.33","LF","98ysefwhzk","1093","615","0","1","0","5f482f05cd5e5d2d1d57c1ff","","null","","","learningBlock1","","","","<div style=""font-size:60px;""> </div>","null","LF","learning/Slide34.JPG","This is a tob:","","",""
"html-keyboard-response","108","383882","0.0-5.0-0.34","LF","98ysefwhzk","1093","615","0","1","0","5f482f05cd5e5d2d1d57c1ff","","null","","","learningBlock1","","","","This is a bim:","null","","","","","",""
"image-keyboard-response","109","384223","0.0-5.0-1.34","LF","98ysefwhzk","1093","615","0","1","0","5f482f05cd5e5d2d1d57c1ff","","null","","","","","","","learning/Slide35.JPG","null","","","","","",""
"html-keyboard-response","110","385235","0.0-5.0-2.34","LF","98ysefwhzk","1093","615","0","1","0","5f482f05cd5e5d2d1d57c1ff","","null","","","learningBlock1","","","","<div style=""font-size:60px;""> </div>","null","LF","learning/Slide35.JPG","This is a bim:","","",""
"html-keyboard-response","111","386238","0.0-5.0-0.35","LF","98ysefwhzk","1093","615","0","1","0","5f482f05cd5e5d2d1d57c1ff","","null","","","learningBlock1","","","","This is a dep:","null","","","","","",""
"image-keyboard-response","112","386579","0.0-5.0-1.35","LF","98ysefwhzk","1093","615","0","1","0","5f482f05cd5e5d2d1d57c1ff","","null","","","","","","","learning/Slide36.JPG","null","","","","","",""
"html-keyboard-response","113","387592","0.0-5.0-2.35","LF","98ysefwhzk","1093","615","0","1","0","5f482f05cd5e5d2d1d57c1ff","","null","","","learningBlock1","","","","<div style=""font-size:60px;""> </div>","null","LF","learning/Slide36.JPG","This is a dep:","","",""
"html-keyboard-response","114","388608","0.0-5.0-0.36","LF","98ysefwhzk","1093","615","0","1","0","5f482f05cd5e5d2d1d57c1ff","","null","","","learningBlock1","","","","This is a tob:","null","","","","","",""
"image-keyboard-response","115","388951","0.0-5.0-1.36","LF","98ysefwhzk","1093","615","0","1","0","5f482f05cd5e5d2d1d57c1ff","","null","","","","","","","learning/Slide37.JPG","null","","","","","",""
"html-keyboard-response","116","389962","0.0-5.0-2.36","LF","98ysefwhzk","1093","615","0","1","0","5f482f05cd5e5d2d1d57c1ff","","null","","","learningBlock1","","","","<div style=""font-size:60px;""> </div>","null","LF","learning/Slide37.JPG","This is a tob:","","",""
"html-keyboard-response","117","390965","0.0-5.0-0.37","LF","98ysefwhzk","1093","615","0","1","0","5f482f05cd5e5d2d1d57c1ff","","null","","","learningBlock1","","","","This is a wug:","null","","","","","",""
"image-keyboard-response","118","391307","0.0-5.0-1.37","LF","98ysefwhzk","1093","615","0","1","0","5f482f05cd5e5d2d1d57c1ff","","null","","","","","","","learning/Slide38.JPG","null","","","","","",""
"html-keyboard-response","119","392319","0.0-5.0-2.37","LF","98ysefwhzk","1093","615","0","1","0","5f482f05cd5e5d2d1d57c1ff","","null","","","learningBlock1","","","","<div style=""font-size:60px;""> </div>","null","LF","learning/Slide38.JPG","This is a wug:","","",""
"html-keyboard-response","120","393336","0.0-5.0-0.38","LF","98ysefwhzk","1093","615","0","1","0","5f482f05cd5e5d2d1d57c1ff","","null","","","learningBlock1","","","","This is a bim:","null","","","","","",""
"image-keyboard-response","121","393671","0.0-5.0-1.38","LF","98ysefwhzk","1093","615","0","1","0","5f482f05cd5e5d2d1d57c1ff","","null","","","","","","","learning/Slide39.JPG","null","","","","","",""
"html-keyboard-response","122","394684","0.0-5.0-2.38","LF","98ysefwhzk","1093","615","0","1","0","5f482f05cd5e5d2d1d57c1ff","","null","","","learningBlock1","","","","<div style=""font-size:60px;""> </div>","null","LF","learning/Slide39.JPG","This is a bim:","","",""
"html-keyboard-response","123","395692","0.0-5.0-0.39","LF","98ysefwhzk","1093","615","0","1","0","5f482f05cd5e5d2d1d57c1ff","","null","","","learningBlock1","","","","This is a tob:","null","","","","","",""
"image-keyboard-response","124","396034","0.0-5.0-1.39","LF","98ysefwhzk","1093","615","0","1","0","5f482f05cd5e5d2d1d57c1ff","","null","","","","","","","learning/Slide40.JPG","null","","","","","",""
"html-keyboard-response","125","397045","0.0-5.0-2.39","LF","98ysefwhzk","1093","615","0","1","0","5f482f05cd5e5d2d1d57c1ff","","null","","","learningBlock1","","","","<div style=""font-size:60px;""> </div>","null","LF","learning/Slide40.JPG","This is a tob:","","",""
"html-keyboard-response","126","398048","0.0-5.0-0.40","LF","98ysefwhzk","1093","615","0","1","0","5f482f05cd5e5d2d1d57c1ff","","null","","","learningBlock1","","","","This is a bim:","null","","","","","",""
"image-keyboard-response","127","398389","0.0-5.0-1.40","LF","98ysefwhzk","1093","615","0","1","0","5f482f05cd5e5d2d1d57c1ff","","null","","","","","","","learning/Slide41.JPG","null","","","","","",""
"html-keyboard-response","128","399400","0.0-5.0-2.40","LF","98ysefwhzk","1093","615","0","1","0","5f482f05cd5e5d2d1d57c1ff","","null","","","learningBlock1","","","","<div style=""font-size:60px;""> </div>","null","LF","learning/Slide41.JPG","This is a bim:","","",""
"html-keyboard-response","129","400403","0.0-5.0-0.41","LF","98ysefwhzk","1093","615","0","1","0","5f482f05cd5e5d2d1d57c1ff","","null","","","learningBlock1","","","","This is a dep:","null","","","","","",""
"image-keyboard-response","130","400744","0.0-5.0-1.41","LF","98ysefwhzk","1093","615","0","1","0","5f482f05cd5e5d2d1d57c1ff","","null","","","","","","","learning/Slide42.JPG","null","","","","","",""
"html-keyboard-response","131","401755","0.0-5.0-2.41","LF","98ysefwhzk","1093","615","0","1","0","5f482f05cd5e5d2d1d57c1ff","","null","","","learningBlock1","","","","<div style=""font-size:60px;""> </div>","null","LF","learning/Slide42.JPG","This is a dep:","","",""
"html-keyboard-response","132","402759","0.0-5.0-0.42","LF","98ysefwhzk","1093","615","0","1","0","5f482f05cd5e5d2d1d57c1ff","","null","","","learningBlock1","","","","This is a wug:","null","","","","","",""
"image-keyboard-response","133","403100","0.0-5.0-1.42","LF","98ysefwhzk","1093","615","0","1","0","5f482f05cd5e5d2d1d57c1ff","","null","","","","","","","learning/Slide43.JPG","null","","","","","",""
"html-keyboard-response","134","404111","0.0-5.0-2.42","LF","98ysefwhzk","1093","615","0","1","0","5f482f05cd5e5d2d1d57c1ff","","null","","","learningBlock1","","","","<div style=""font-size:60px;""> </div>","null","LF","learning/Slide43.JPG","This is a wug:","","",""
"html-keyboard-response","135","405114","0.0-5.0-0.43","LF","98ysefwhzk","1093","615","0","1","0","5f482f05cd5e5d2d1d57c1ff","","null","","","learningBlock1","","","","This is a bim:","null","","","","","",""
"image-keyboard-response","136","405454","0.0-5.0-1.43","LF","98ysefwhzk","1093","615","0","1","0","5f482f05cd5e5d2d1d57c1ff","","null","","","","","","","learning/Slide44.JPG","null","","","","","",""
"html-keyboard-response","137","406466","0.0-5.0-2.43","LF","98ysefwhzk","1093","615","0","1","0","5f482f05cd5e5d2d1d57c1ff","","null","","","learningBlock1","","","","<div style=""font-size:60px;""> </div>","null","LF","learning/Slide44.JPG","This is a bim:","","",""
"html-keyboard-response","138","407468","0.0-5.0-0.44","LF","98ysefwhzk","1093","615","0","1","0","5f482f05cd5e5d2d1d57c1ff","","null","","","learningBlock1","","","","This is a wug:","null","","","","","",""
"image-keyboard-response","139","407810","0.0-5.0-1.44","LF","98ysefwhzk","1093","615","0","1","0","5f482f05cd5e5d2d1d57c1ff","","null","","","","","","","learning/Slide45.JPG","null","","","","","",""
"html-keyboard-response","140","408822","0.0-5.0-2.44","LF","98ysefwhzk","1093","615","0","1","0","5f482f05cd5e5d2d1d57c1ff","","null","","","learningBlock1","","","","<div style=""font-size:60px;""> </div>","null","LF","learning/Slide45.JPG","This is a wug:","","",""
"html-keyboard-response","141","409824","0.0-5.0-0.45","LF","98ysefwhzk","1093","615","0","1","0","5f482f05cd5e5d2d1d57c1ff","","null","","","learningBlock1","","","","This is a dep:","null","","","","","",""
"image-keyboard-response","142","410166","0.0-5.0-1.45","LF","98ysefwhzk","1093","615","0","1","0","5f482f05cd5e5d2d1d57c1ff","","null","","","","","","","learning/Slide46.JPG","null","","","","","",""
"html-keyboard-response","143","411177","0.0-5.0-2.45","LF","98ysefwhzk","1093","615","0","1","0","5f482f05cd5e5d2d1d57c1ff","","null","","","learningBlock1","","","","<div style=""font-size:60px;""> </div>","null","LF","learning/Slide46.JPG","This is a dep:","","",""
"html-keyboard-response","144","412179","0.0-5.0-0.46","LF","98ysefwhzk","1093","615","0","1","0","5f482f05cd5e5d2d1d57c1ff","","null","","","learningBlock1","","","","This is a tob:","null","","","","","",""
"image-keyboard-response","145","412520","0.0-5.0-1.46","LF","98ysefwhzk","1093","615","0","1","0","5f482f05cd5e5d2d1d57c1ff","","null","","","","","","","learning/Slide47.JPG","null","","","","","",""
"html-keyboard-response","146","413532","0.0-5.0-2.46","LF","98ysefwhzk","1093","615","0","1","0","5f482f05cd5e5d2d1d57c1ff","","null","","","learningBlock1","","","","<div style=""font-size:60px;""> </div>","null","LF","learning/Slide47.JPG","This is a tob:","","",""
"html-keyboard-response","147","414534","0.0-5.0-0.47","LF","98ysefwhzk","1093","615","0","1","0","5f482f05cd5e5d2d1d57c1ff","","null","","","learningBlock1","","","","This is a bim:","null","","","","","",""
"image-keyboard-response","148","414875","0.0-5.0-1.47","LF","98ysefwhzk","1093","615","0","1","0","5f482f05cd5e5d2d1d57c1ff","","null","","","","","","","learning/Slide48.JPG","null","","","","","",""
"html-keyboard-response","149","415887","0.0-5.0-2.47","LF","98ysefwhzk","1093","615","0","1","0","5f482f05cd5e5d2d1d57c1ff","","null","","","learningBlock1","","","","<div style=""font-size:60px;""> </div>","null","LF","learning/Slide48.JPG","This is a bim:","","",""
"html-keyboard-response","150","416890","0.0-5.0-0.48","LF","98ysefwhzk","1093","615","0","1","0","5f482f05cd5e5d2d1d57c1ff","","null","","","learningBlock1","","","","This is a dep:","null","","","","","",""
"image-keyboard-response","151","417230","0.0-5.0-1.48","LF","98ysefwhzk","1093","615","0","1","0","5f482f05cd5e5d2d1d57c1ff","","null","","","","","","","learning/Slide49.JPG","null","","","","","",""
"html-keyboard-response","152","418241","0.0-5.0-2.48","LF","98ysefwhzk","1093","615","0","1","0","5f482f05cd5e5d2d1d57c1ff","","null","","","learningBlock1","","","","<div style=""font-size:60px;""> </div>","null","LF","learning/Slide49.JPG","This is a dep:","","",""
"html-keyboard-response","153","419245","0.0-5.0-0.49","LF","98ysefwhzk","1093","615","0","1","0","5f482f05cd5e5d2d1d57c1ff","","null","","","learningBlock1","","","","This is a tob:","null","","","","","",""
"image-keyboard-response","154","419585","0.0-5.0-1.49","LF","98ysefwhzk","1093","615","0","1","0","5f482f05cd5e5d2d1d57c1ff","","null","","","","","","","learning/Slide50.JPG","null","","","","","",""
"html-keyboard-response","155","420597","0.0-5.0-2.49","LF","98ysefwhzk","1093","615","0","1","0","5f482f05cd5e5d2d1d57c1ff","","null","","","learningBlock1","","","","<div style=""font-size:60px;""> </div>","null","LF","learning/Slide50.JPG","This is a tob:","","",""
"html-keyboard-response","156","421602","0.0-5.0-0.50","LF","98ysefwhzk","1093","615","0","1","0","5f482f05cd5e5d2d1d57c1ff","","null","","","learningBlock1","","","","This is a bim:","null","","","","","",""
"image-keyboard-response","157","421941","0.0-5.0-1.50","LF","98ysefwhzk","1093","615","0","1","0","5f482f05cd5e5d2d1d57c1ff","","null","","","","","","","learning/Slide51.JPG","null","","","","","",""
"html-keyboard-response","158","422946","0.0-5.0-2.50","LF","98ysefwhzk","1093","615","0","1","0","5f482f05cd5e5d2d1d57c1ff","","null","","","learningBlock1","","","","<div style=""font-size:60px;""> </div>","null","LF","learning/Slide51.JPG","This is a bim:","","",""
"html-keyboard-response","159","423954","0.0-5.0-0.51","LF","98ysefwhzk","1093","615","0","1","0","5f482f05cd5e5d2d1d57c1ff","","null","","","learningBlock1","","","","This is a wug:","null","","","","","",""
"image-keyboard-response","160","424297","0.0-5.0-1.51","LF","98ysefwhzk","1093","615","0","1","0","5f482f05cd5e5d2d1d57c1ff","","null","","","","","","","learning/Slide52.JPG","null","","","","","",""
"html-keyboard-response","161","425308","0.0-5.0-2.51","LF","98ysefwhzk","1093","615","0","1","0","5f482f05cd5e5d2d1d57c1ff","","null","","","learningBlock1","","","","<div style=""font-size:60px;""> </div>","null","LF","learning/Slide52.JPG","This is a wug:","","",""
"html-keyboard-response","162","426311","0.0-5.0-0.52","LF","98ysefwhzk","1093","615","0","1","0","5f482f05cd5e5d2d1d57c1ff","","null","","","learningBlock1","","","","This is a tob:","null","","","","","",""
"image-keyboard-response","163","426651","0.0-5.0-1.52","LF","98ysefwhzk","1093","615","0","1","0","5f482f05cd5e5d2d1d57c1ff","","null","","","","","","","learning/Slide53.JPG","null","","","","","",""
"html-keyboard-response","164","427663","0.0-5.0-2.52","LF","98ysefwhzk","1093","615","0","1","0","5f482f05cd5e5d2d1d57c1ff","","null","","","learningBlock1","","","","<div style=""font-size:60px;""> </div>","null","LF","learning/Slide53.JPG","This is a tob:","","",""
"html-keyboard-response","165","428680","0.0-5.0-0.53","LF","98ysefwhzk","1093","615","0","1","0","5f482f05cd5e5d2d1d57c1ff","","null","","","learningBlock1","","","","This is a dep:","null","","","","","",""
"image-keyboard-response","166","429021","0.0-5.0-1.53","LF","98ysefwhzk","1093","615","0","1","0","5f482f05cd5e5d2d1d57c1ff","","null","","","","","","","learning/Slide54.JPG","null","","","","","",""
"html-keyboard-response","167","430033","0.0-5.0-2.53","LF","98ysefwhzk","1093","615","0","1","0","5f482f05cd5e5d2d1d57c1ff","","null","","","learningBlock1","","","","<div style=""font-size:60px;""> </div>","null","LF","learning/Slide54.JPG","This is a dep:","","",""
"html-keyboard-response","168","431038","0.0-5.0-0.54","LF","98ysefwhzk","1093","615","0","1","0","5f482f05cd5e5d2d1d57c1ff","","null","","","learningBlock1","","","","This is a bim:","null","","","","","",""
"image-keyboard-response","169","431377","0.0-5.0-1.54","LF","98ysefwhzk","1093","615","0","1","0","5f482f05cd5e5d2d1d57c1ff","","null","","","","","","","learning/Slide55.JPG","null","","","","","",""
"html-keyboard-response","170","432389","0.0-5.0-2.54","LF","98ysefwhzk","1093","615","0","1","0","5f482f05cd5e5d2d1d57c1ff","","null","","","learningBlock1","","","","<div style=""font-size:60px;""> </div>","null","LF","learning/Slide55.JPG","This is a bim:","","",""
"html-keyboard-response","171","433391","0.0-5.0-0.55","LF","98ysefwhzk","1093","615","0","1","0","5f482f05cd5e5d2d1d57c1ff","","null","","","learningBlock1","","","","This is a tob:","null","","","","","",""
"image-keyboard-response","172","433733","0.0-5.0-1.55","LF","98ysefwhzk","1093","615","0","1","0","5f482f05cd5e5d2d1d57c1ff","","null","","","","","","","learning/Slide56.JPG","null","","","","","",""
"html-keyboard-response","173","434744","0.0-5.0-2.55","LF","98ysefwhzk","1093","615","0","1","0","5f482f05cd5e5d2d1d57c1ff","","null","","","learningBlock1","","","","<div style=""font-size:60px;""> </div>","null","LF","learning/Slide56.JPG","This is a tob:","","",""
"html-keyboard-response","174","435748","0.0-5.0-0.56","LF","98ysefwhzk","1093","615","0","1","0","5f482f05cd5e5d2d1d57c1ff","","null","","","learningBlock1","","","","This is a dep:","null","","","","","",""
"image-keyboard-response","175","436089","0.0-5.0-1.56","LF","98ysefwhzk","1093","615","0","1","0","5f482f05cd5e5d2d1d57c1ff","","null","","","","","","","learning/Slide57.JPG","null","","","","","",""
"html-keyboard-response","176","437101","0.0-5.0-2.56","LF","98ysefwhzk","1093","615","0","1","0","5f482f05cd5e5d2d1d57c1ff","","null","","","learningBlock1","","","","<div style=""font-size:60px;""> </div>","null","LF","learning/Slide57.JPG","This is a dep:","","",""
"html-keyboard-response","177","438116","0.0-5.0-0.57","LF","98ysefwhzk","1093","615","0","1","0","5f482f05cd5e5d2d1d57c1ff","","null","","","learningBlock1","","","","This is a wug:","null","","","","","",""
"image-keyboard-response","178","438459","0.0-5.0-1.57","LF","98ysefwhzk","1093","615","0","1","0","5f482f05cd5e5d2d1d57c1ff","","null","","","","","","","learning/Slide58.JPG","null","","","","","",""
"html-keyboard-response","179","439471","0.0-5.0-2.57","LF","98ysefwhzk","1093","615","0","1","0","5f482f05cd5e5d2d1d57c1ff","","null","","","learningBlock1","","","","<div style=""font-size:60px;""> </div>","null","LF","learning/Slide58.JPG","This is a wug:","","",""
"html-keyboard-response","180","440474","0.0-5.0-0.58","LF","98ysefwhzk","1093","615","0","1","0","5f482f05cd5e5d2d1d57c1ff","","null","","","learningBlock1","","","","This is a dep:","null","","","","","",""
"image-keyboard-response","181","440816","0.0-5.0-1.58","LF","98ysefwhzk","1093","615","0","1","0","5f482f05cd5e5d2d1d57c1ff","","null","","","","","","","learning/Slide59.JPG","null","","","","","",""
"html-keyboard-response","182","441828","0.0-5.0-2.58","LF","98ysefwhzk","1093","615","0","1","0","5f482f05cd5e5d2d1d57c1ff","","null","","","learningBlock1","","","","<div style=""font-size:60px;""> </div>","null","LF","learning/Slide59.JPG","This is a dep:","","",""
"html-keyboard-response","183","442830","0.0-5.0-0.59","LF","98ysefwhzk","1093","615","0","1","0","5f482f05cd5e5d2d1d57c1ff","","null","","","learningBlock1","","","","This is a wug:","null","","","","","",""
"image-keyboard-response","184","443171","0.0-5.0-1.59","LF","98ysefwhzk","1093","615","0","1","0","5f482f05cd5e5d2d1d57c1ff","","null","","","","","","","learning/Slide60.JPG","null","","","","","",""
"html-keyboard-response","185","444183","0.0-5.0-2.59","LF","98ysefwhzk","1093","615","0","1","0","5f482f05cd5e5d2d1d57c1ff","","null","","","learningBlock1","","","","<div style=""font-size:60px;""> </div>","null","LF","learning/Slide60.JPG","This is a wug:","","",""
"html-keyboard-response","186","445185","0.0-5.0-0.60","LF","98ysefwhzk","1093","615","0","1","0","5f482f05cd5e5d2d1d57c1ff","","null","","","learningBlock1","","","","This is a bim:","null","","","","","",""
"image-keyboard-response","187","445526","0.0-5.0-1.60","LF","98ysefwhzk","1093","615","0","1","0","5f482f05cd5e5d2d1d57c1ff","","null","","","","","","","learning/Slide61.JPG","null","","","","","",""
"html-keyboard-response","188","446538","0.0-5.0-2.60","LF","98ysefwhzk","1093","615","0","1","0","5f482f05cd5e5d2d1d57c1ff","","null","","","learningBlock1","","","","<div style=""font-size:60px;""> </div>","null","LF","learning/Slide61.JPG","This is a bim:","","",""
"html-keyboard-response","189","447540","0.0-5.0-0.61","LF","98ysefwhzk","1093","615","0","1","0","5f482f05cd5e5d2d1d57c1ff","","null","","","learningBlock1","","","","This is a dep:","null","","","","","",""
"image-keyboard-response","190","447881","0.0-5.0-1.61","LF","98ysefwhzk","1093","615","0","1","0","5f482f05cd5e5d2d1d57c1ff","","null","","","","","","","learning/Slide62.JPG","null","","","","","",""
"html-keyboard-response","191","448893","0.0-5.0-2.61","LF","98ysefwhzk","1093","615","0","1","0","5f482f05cd5e5d2d1d57c1ff","","null","","","learningBlock1","","","","<div style=""font-size:60px;""> </div>","null","LF","learning/Slide62.JPG","This is a dep:","","",""
"html-keyboard-response","192","449895","0.0-5.0-0.62","LF","98ysefwhzk","1093","615","0","1","0","5f482f05cd5e5d2d1d57c1ff","","null","","","learningBlock1","","","","This is a bim:","null","","","","","",""
"image-keyboard-response","193","450237","0.0-5.0-1.62","LF","98ysefwhzk","1093","615","0","1","0","5f482f05cd5e5d2d1d57c1ff","","null","","","","","","","learning/Slide63.JPG","null","","","","","",""
"html-keyboard-response","194","451247","0.0-5.0-2.62","LF","98ysefwhzk","1093","615","0","1","0","5f482f05cd5e5d2d1d57c1ff","","null","","","learningBlock1","","","","<div style=""font-size:60px;""> </div>","null","LF","learning/Slide63.JPG","This is a bim:","","",""
"html-keyboard-response","195","452250","0.0-5.0-0.63","LF","98ysefwhzk","1093","615","0","1","0","5f482f05cd5e5d2d1d57c1ff","","null","","","learningBlock1","","","","This is a tob:","null","","","","","",""
"image-keyboard-response","196","452591","0.0-5.0-1.63","LF","98ysefwhzk","1093","615","0","1","0","5f482f05cd5e5d2d1d57c1ff","","null","","","","","","","learning/Slide64.JPG","null","","","","","",""
"html-keyboard-response","197","453604","0.0-5.0-2.63","LF","98ysefwhzk","1093","615","0","1","0","5f482f05cd5e5d2d1d57c1ff","","null","","","learningBlock1","","","","<div style=""font-size:60px;""> </div>","null","LF","learning/Slide64.JPG","This is a tob:","","",""
"html-keyboard-response","198","454606","0.0-5.0-0.64","LF","98ysefwhzk","1093","615","0","1","0","5f482f05cd5e5d2d1d57c1ff","","null","","","learningBlock1","","","","This is a wug:","null","","","","","",""
"image-keyboard-response","199","454947","0.0-5.0-1.64","LF","98ysefwhzk","1093","615","0","1","0","5f482f05cd5e5d2d1d57c1ff","","null","","","","","","","learning/Slide65.JPG","null","","","","","",""
"html-keyboard-response","200","455957","0.0-5.0-2.64","LF","98ysefwhzk","1093","615","0","1","0","5f482f05cd5e5d2d1d57c1ff","","null","","","learningBlock1","","","","<div style=""font-size:60px;""> </div>","null","LF","learning/Slide65.JPG","This is a wug:","","",""
"html-keyboard-response","201","456963","0.0-5.0-0.65","LF","98ysefwhzk","1093","615","0","1","0","5f482f05cd5e5d2d1d57c1ff","","null","","","learningBlock1","","","","This is a dep:","null","","","","","",""
"image-keyboard-response","202","457303","0.0-5.0-1.65","LF","98ysefwhzk","1093","615","0","1","0","5f482f05cd5e5d2d1d57c1ff","","null","","","","","","","learning/Slide66.JPG","null","","","","","",""
"html-keyboard-response","203","458314","0.0-5.0-2.65","LF","98ysefwhzk","1093","615","0","1","0","5f482f05cd5e5d2d1d57c1ff","","null","","","learningBlock1","","","","<div style=""font-size:60px;""> </div>","null","LF","learning/Slide66.JPG","This is a dep:","","",""
"html-keyboard-response","204","459319","0.0-5.0-0.66","LF","98ysefwhzk","1093","615","0","1","0","5f482f05cd5e5d2d1d57c1ff","","null","","","learningBlock1","","","","This is a tob:","null","","","","","",""
"image-keyboard-response","205","459658","0.0-5.0-1.66","LF","98ysefwhzk","1093","615","0","1","0","5f482f05cd5e5d2d1d57c1ff","","null","","","","","","","learning/Slide67.JPG","null","","","","","",""
"html-keyboard-response","206","460668","0.0-5.0-2.66","LF","98ysefwhzk","1093","615","0","1","0","5f482f05cd5e5d2d1d57c1ff","","null","","","learningBlock1","","","","<div style=""font-size:60px;""> </div>","null","LF","learning/Slide67.JPG","This is a tob:","","",""
"html-keyboard-response","207","461686","0.0-5.0-0.67","LF","98ysefwhzk","1093","615","0","1","0","5f482f05cd5e5d2d1d57c1ff","","null","","","learningBlock1","","","","This is a wug:","null","","","","","",""
"image-keyboard-response","208","462028","0.0-5.0-1.67","LF","98ysefwhzk","1093","615","0","1","0","5f482f05cd5e5d2d1d57c1ff","","null","","","","","","","learning/Slide68.JPG","null","","","","","",""
"html-keyboard-response","209","463040","0.0-5.0-2.67","LF","98ysefwhzk","1093","615","0","1","0","5f482f05cd5e5d2d1d57c1ff","","null","","","learningBlock1","","","","<div style=""font-size:60px;""> </div>","null","LF","learning/Slide68.JPG","This is a wug:","","",""
"html-keyboard-response","210","464057","0.0-5.0-0.68","LF","98ysefwhzk","1093","615","0","1","0","5f482f05cd5e5d2d1d57c1ff","","null","","","learningBlock1","","","","This is a tob:","null","","","","","",""
"image-keyboard-response","211","464399","0.0-5.0-1.68","LF","98ysefwhzk","1093","615","0","1","0","5f482f05cd5e5d2d1d57c1ff","","null","","","","","","","learning/Slide69.JPG","null","","","","","",""
"html-keyboard-response","212","465412","0.0-5.0-2.68","LF","98ysefwhzk","1093","615","0","1","0","5f482f05cd5e5d2d1d57c1ff","","null","","","learningBlock1","","","","<div style=""font-size:60px;""> </div>","null","LF","learning/Slide69.JPG","This is a tob:","","",""
"html-keyboard-response","213","466418","0.0-5.0-0.69","LF","98ysefwhzk","1093","615","0","1","0","5f482f05cd5e5d2d1d57c1ff","","null","","","learningBlock1","","","","This is a dep:","null","","","","","",""
"image-keyboard-response","214","466754","0.0-5.0-1.69","LF","98ysefwhzk","1093","615","0","1","0","5f482f05cd5e5d2d1d57c1ff","","null","","","","","","","learning/Slide70.JPG","null","","","","","",""
"html-keyboard-response","215","467766","0.0-5.0-2.69","LF","98ysefwhzk","1093","615","0","1","0","5f482f05cd5e5d2d1d57c1ff","","null","","","learningBlock1","","","","<div style=""font-size:60px;""> </div>","null","LF","learning/Slide70.JPG","This is a dep:","","",""
"html-keyboard-response","216","468782","0.0-5.0-0.70","LF","98ysefwhzk","1093","615","0","1","0","5f482f05cd5e5d2d1d57c1ff","","null","","","learningBlock1","","","","This is a wug:","null","","","","","",""
"image-keyboard-response","217","469128","0.0-5.0-1.70","LF","98ysefwhzk","1093","615","0","1","0","5f482f05cd5e5d2d1d57c1ff","","null","","","","","","","learning/Slide71.JPG","null","","","","","",""
"html-keyboard-response","218","470139","0.0-5.0-2.70","LF","98ysefwhzk","1093","615","0","1","0","5f482f05cd5e5d2d1d57c1ff","","null","","","learningBlock1","","","","<div style=""font-size:60px;""> </div>","null","LF","learning/Slide71.JPG","This is a wug:","","",""
"html-keyboard-response","219","471143","0.0-5.0-0.71","LF","98ysefwhzk","1093","615","0","1","0","5f482f05cd5e5d2d1d57c1ff","","null","","","learningBlock1","","","","This is a bim:","null","","","","","",""
"image-keyboard-response","220","471483","0.0-5.0-1.71","LF","98ysefwhzk","1093","615","0","1","0","5f482f05cd5e5d2d1d57c1ff","","null","","","","","","","learning/Slide72.JPG","null","","","","","",""
"html-keyboard-response","221","472495","0.0-5.0-2.71","LF","98ysefwhzk","1093","615","0","1","0","5f482f05cd5e5d2d1d57c1ff","","null","","","learningBlock1","","","","<div style=""font-size:60px;""> </div>","null","LF","learning/Slide72.JPG","This is a bim:","","",""
"html-keyboard-response","222","473511","0.0-5.0-0.72","LF","98ysefwhzk","1093","615","0","1","0","5f482f05cd5e5d2d1d57c1ff","","null","","","learningBlock1","","","","This is a wug:","null","","","","","",""
"image-keyboard-response","223","473855","0.0-5.0-1.72","LF","98ysefwhzk","1093","615","0","1","0","5f482f05cd5e5d2d1d57c1ff","","null","","","","","","","learning/Slide73.JPG","null","","","","","",""
"html-keyboard-response","224","474867","0.0-5.0-2.72","LF","98ysefwhzk","1093","615","0","1","0","5f482f05cd5e5d2d1d57c1ff","","null","","","learningBlock1","","","","<div style=""font-size:60px;""> </div>","null","LF","learning/Slide73.JPG","This is a wug:","","",""
"html-keyboard-response","225","475869","0.0-5.0-0.73","LF","98ysefwhzk","1093","615","0","1","0","5f482f05cd5e5d2d1d57c1ff","","null","","","learningBlock1","","","","This is a dep:","null","","","","","",""
"image-keyboard-response","226","476213","0.0-5.0-1.73","LF","98ysefwhzk","1093","615","0","1","0","5f482f05cd5e5d2d1d57c1ff","","null","","","","","","","learning/Slide74.JPG","null","","","","","",""
"html-keyboard-response","227","477223","0.0-5.0-2.73","LF","98ysefwhzk","1093","615","0","1","0","5f482f05cd5e5d2d1d57c1ff","","null","","","learningBlock1","","","","<div style=""font-size:60px;""> </div>","null","LF","learning/Slide74.JPG","This is a dep:","","",""
"html-keyboard-response","228","478227","0.0-5.0-0.74","LF","98ysefwhzk","1093","615","0","1","0","5f482f05cd5e5d2d1d57c1ff","","null","","","learningBlock1","","","","This is a tob:","null","","","","","",""
"image-keyboard-response","229","478564","0.0-5.0-1.74","LF","98ysefwhzk","1093","615","0","1","0","5f482f05cd5e5d2d1d57c1ff","","null","","","","","","","learning/Slide75.JPG","null","","","","","",""
"html-keyboard-response","230","479576","0.0-5.0-2.74","LF","98ysefwhzk","1093","615","0","1","0","5f482f05cd5e5d2d1d57c1ff","","null","","","learningBlock1","","","","<div style=""font-size:60px;""> </div>","null","LF","learning/Slide75.JPG","This is a tob:","","",""
"html-keyboard-response","231","480580","0.0-5.0-0.75","LF","98ysefwhzk","1093","615","0","1","0","5f482f05cd5e5d2d1d57c1ff","","null","","","learningBlock1","","","","This is a bim:","null","","","","","",""
"image-keyboard-response","232","480920","0.0-5.0-1.75","LF","98ysefwhzk","1093","615","0","1","0","5f482f05cd5e5d2d1d57c1ff","","null","","","","","","","learning/Slide76.JPG","null","","","","","",""
"html-keyboard-response","233","481928","0.0-5.0-2.75","LF","98ysefwhzk","1093","615","0","1","0","5f482f05cd5e5d2d1d57c1ff","","null","","","learningBlock1","","","","<div style=""font-size:60px;""> </div>","null","LF","learning/Slide76.JPG","This is a bim:","","",""
"html-keyboard-response","234","482942","0.0-5.0-0.76","LF","98ysefwhzk","1093","615","0","1","0","5f482f05cd5e5d2d1d57c1ff","","null","","","learningBlock1","","","","This is a tob:","null","","","","","",""
"image-keyboard-response","235","483292","0.0-5.0-1.76","LF","98ysefwhzk","1093","615","0","1","0","5f482f05cd5e5d2d1d57c1ff","","null","","","","","","","learning/Slide77.JPG","null","","","","","",""
"html-keyboard-response","236","484307","0.0-5.0-2.76","LF","98ysefwhzk","1093","615","0","1","0","5f482f05cd5e5d2d1d57c1ff","","null","","","learningBlock1","","","","<div style=""font-size:60px;""> </div>","null","LF","learning/Slide77.JPG","This is a tob:","","",""
"html-keyboard-response","237","485312","0.0-5.0-0.77","LF","98ysefwhzk","1093","615","0","1","0","5f482f05cd5e5d2d1d57c1ff","","null","","","learningBlock1","","","","This is a wug:","null","","","","","",""
"image-keyboard-response","238","485643","0.0-5.0-1.77","LF","98ysefwhzk","1093","615","0","1","0","5f482f05cd5e5d2d1d57c1ff","","null","","","","","","","learning/Slide78.JPG","null","","","","","",""
"html-keyboard-response","239","486659","0.0-5.0-2.77","LF","98ysefwhzk","1093","615","0","1","0","5f482f05cd5e5d2d1d57c1ff","","null","","","learningBlock1","","","","<div style=""font-size:60px;""> </div>","null","LF","learning/Slide78.JPG","This is a wug:","","",""
"html-keyboard-response","240","487662","0.0-5.0-0.78","LF","98ysefwhzk","1093","615","0","1","0","5f482f05cd5e5d2d1d57c1ff","","null","","","learningBlock1","","","","This is a bim:","null","","","","","",""
"image-keyboard-response","241","488001","0.0-5.0-1.78","LF","98ysefwhzk","1093","615","0","1","0","5f482f05cd5e5d2d1d57c1ff","","null","","","","","","","learning/Slide79.JPG","null","","","","","",""
"html-keyboard-response","242","489007","0.0-5.0-2.78","LF","98ysefwhzk","1093","615","0","1","0","5f482f05cd5e5d2d1d57c1ff","","null","","","learningBlock1","","","","<div style=""font-size:60px;""> </div>","null","LF","learning/Slide79.JPG","This is a bim:","","",""
"html-keyboard-response","243","490009","0.0-5.0-0.79","LF","98ysefwhzk","1093","615","0","1","0","5f482f05cd5e5d2d1d57c1ff","","null","","","learningBlock1","","","","This is a tob:","null","","","","","",""
"image-keyboard-response","244","490357","0.0-5.0-1.79","LF","98ysefwhzk","1093","615","0","1","0","5f482f05cd5e5d2d1d57c1ff","","null","","","","","","","learning/Slide80.JPG","null","","","","","",""
"html-keyboard-response","245","491370","0.0-5.0-2.79","LF","98ysefwhzk","1093","615","0","1","0","5f482f05cd5e5d2d1d57c1ff","","null","","","learningBlock1","","","","<div style=""font-size:60px;""> </div>","null","LF","learning/Slide80.JPG","This is a tob:","","",""
"instructions","246","493864","0.0-6.0","LF","98ysefwhzk","1093","615","0","1","0","5f482f05cd5e5d2d1d57c1ff","","NA","","[{""page_index"":0,""viewing_time"":2492.95499996515}]","instructions","","","","","","","","","","",""
"html-keyboard-response","247","494877","0.0-7.0-0.0","LF","98ysefwhzk","1093","615","0","1","0","5f482f05cd5e5d2d1d57c1ff","","null","","","learningBlock2","","","","This is a wug:","null","","","","","",""
"image-keyboard-response","248","495217","0.0-7.0-1.0","LF","98ysefwhzk","1093","615","0","1","0","5f482f05cd5e5d2d1d57c1ff","","null","","","","","","","learning/Slide81.JPG","null","","","","","",""
"html-keyboard-response","249","496228","0.0-7.0-2.0","LF","98ysefwhzk","1093","615","0","1","0","5f482f05cd5e5d2d1d57c1ff","","null","","","learningBlock2","","","","<div style=""font-size:60px;""> </div>","null","LF","learning/Slide81.JPG","This is a wug:","","",""
"html-keyboard-response","250","497230","0.0-7.0-0.1","LF","98ysefwhzk","1093","615","0","1","0","5f482f05cd5e5d2d1d57c1ff","","null","","","learningBlock2","","","","This is a bim:","null","","","","","",""
"image-keyboard-response","251","497571","0.0-7.0-1.1","LF","98ysefwhzk","1093","615","0","1","0","5f482f05cd5e5d2d1d57c1ff","","null","","","","","","","learning/Slide82.JPG","null","","","","","",""
"html-keyboard-response","252","498583","0.0-7.0-2.1","LF","98ysefwhzk","1093","615","0","1","0","5f482f05cd5e5d2d1d57c1ff","","null","","","learningBlock2","","","","<div style=""font-size:60px;""> </div>","null","LF","learning/Slide82.JPG","This is a bim:","","",""
"html-keyboard-response","253","499591","0.0-7.0-0.2","LF","98ysefwhzk","1093","615","0","1","0","5f482f05cd5e5d2d1d57c1ff","","null","","","learningBlock2","","","","This is a wug:","null","","","","","",""
"image-keyboard-response","254","499924","0.0-7.0-1.2","LF","98ysefwhzk","1093","615","0","1","0","5f482f05cd5e5d2d1d57c1ff","","null","","","","","","","learning/Slide83.JPG","null","","","","","",""
"html-keyboard-response","255","500942","0.0-7.0-2.2","LF","98ysefwhzk","1093","615","0","1","0","5f482f05cd5e5d2d1d57c1ff","","null","","","learningBlock2","","","","<div style=""font-size:60px;""> </div>","null","LF","learning/Slide83.JPG","This is a wug:","","",""
"html-keyboard-response","256","501944","0.0-7.0-0.3","LF","98ysefwhzk","1093","615","0","1","0","5f482f05cd5e5d2d1d57c1ff","","null","","","learningBlock2","","","","This is a dep:","null","","","","","",""
"image-keyboard-response","257","502283","0.0-7.0-1.3","LF","98ysefwhzk","1093","615","0","1","0","5f482f05cd5e5d2d1d57c1ff","","null","","","","","","","learning/Slide84.JPG","null","","","","","",""
"html-keyboard-response","258","503295","0.0-7.0-2.3","LF","98ysefwhzk","1093","615","0","1","0","5f482f05cd5e5d2d1d57c1ff","","null","","","learningBlock2","","","","<div style=""font-size:60px;""> </div>","null","LF","learning/Slide84.JPG","This is a dep:","","",""
"html-keyboard-response","259","504299","0.0-7.0-0.4","LF","98ysefwhzk","1093","615","0","1","0","5f482f05cd5e5d2d1d57c1ff","","null","","","learningBlock2","","","","This is a bim:","null","","","","","",""
"image-keyboard-response","260","504638","0.0-7.0-1.4","LF","98ysefwhzk","1093","615","0","1","0","5f482f05cd5e5d2d1d57c1ff","","null","","","","","","","learning/Slide85.JPG","null","","","","","",""
"html-keyboard-response","261","505650","0.0-7.0-2.4","LF","98ysefwhzk","1093","615","0","1","0","5f482f05cd5e5d2d1d57c1ff","","null","","","learningBlock2","","","","<div style=""font-size:60px;""> </div>","null","LF","learning/Slide85.JPG","This is a bim:","","",""
"html-keyboard-response","262","506652","0.0-7.0-0.5","LF","98ysefwhzk","1093","615","0","1","0","5f482f05cd5e5d2d1d57c1ff","","null","","","learningBlock2","","","","This is a tob:","null","","","","","",""
"image-keyboard-response","263","506994","0.0-7.0-1.5","LF","98ysefwhzk","1093","615","0","1","0","5f482f05cd5e5d2d1d57c1ff","","null","","","","","","","learning/Slide86.JPG","null","","","","","",""
"html-keyboard-response","264","508005","0.0-7.0-2.5","LF","98ysefwhzk","1093","615","0","1","0","5f482f05cd5e5d2d1d57c1ff","","null","","","learningBlock2","","","","<div style=""font-size:60px;""> </div>","null","LF","learning/Slide86.JPG","This is a tob:","","",""
"html-keyboard-response","265","509022","0.0-7.0-0.6","LF","98ysefwhzk","1093","615","0","1","0","5f482f05cd5e5d2d1d57c1ff","","null","","","learningBlock2","","","","This is a wug:","null","","","","","",""
"image-keyboard-response","266","509366","0.0-7.0-1.6","LF","98ysefwhzk","1093","615","0","1","0","5f482f05cd5e5d2d1d57c1ff","","null","","","","","","","learning/Slide87.JPG","null","","","","","",""
"html-keyboard-response","267","510376","0.0-7.0-2.6","LF","98ysefwhzk","1093","615","0","1","0","5f482f05cd5e5d2d1d57c1ff","","null","","","learningBlock2","","","","<div style=""font-size:60px;""> </div>","null","LF","learning/Slide87.JPG","This is a wug:","","",""
"html-keyboard-response","268","511379","0.0-7.0-0.7","LF","98ysefwhzk","1093","615","0","1","0","5f482f05cd5e5d2d1d57c1ff","","null","","","learningBlock2","","","","This is a tob:","null","","","","","",""
"image-keyboard-response","269","511719","0.0-7.0-1.7","LF","98ysefwhzk","1093","615","0","1","0","5f482f05cd5e5d2d1d57c1ff","","null","","","","","","","learning/Slide88.JPG","null","","","","","",""
"html-keyboard-response","270","512732","0.0-7.0-2.7","LF","98ysefwhzk","1093","615","0","1","0","5f482f05cd5e5d2d1d57c1ff","","null","","","learningBlock2","","","","<div style=""font-size:60px;""> </div>","null","LF","learning/Slide88.JPG","This is a tob:","","",""
"html-keyboard-response","271","513734","0.0-7.0-0.8","LF","98ysefwhzk","1093","615","0","1","0","5f482f05cd5e5d2d1d57c1ff","","null","","","learningBlock2","","","","This is a bim:","null","","","","","",""
"image-keyboard-response","272","514076","0.0-7.0-1.8","LF","98ysefwhzk","1093","615","0","1","0","5f482f05cd5e5d2d1d57c1ff","","null","","","","","","","learning/Slide89.JPG","null","","","","","",""
"html-keyboard-response","273","515087","0.0-7.0-2.8","LF","98ysefwhzk","1093","615","0","1","0","5f482f05cd5e5d2d1d57c1ff","","null","","","learningBlock2","","","","<div style=""font-size:60px;""> </div>","null","LF","learning/Slide89.JPG","This is a bim:","","",""
"html-keyboard-response","274","516090","0.0-7.0-0.9","LF","98ysefwhzk","1093","615","0","1","0","5f482f05cd5e5d2d1d57c1ff","","null","","","learningBlock2","","","","This is a dep:","null","","","","","",""
"image-keyboard-response","275","516431","0.0-7.0-1.9","LF","98ysefwhzk","1093","615","0","1","0","5f482f05cd5e5d2d1d57c1ff","","null","","","","","","","learning/Slide90.JPG","null","","","","","",""
"html-keyboard-response","276","517442","0.0-7.0-2.9","LF","98ysefwhzk","1093","615","0","1","0","5f482f05cd5e5d2d1d57c1ff","","null","","","learningBlock2","","","","<div style=""font-size:60px;""> </div>","null","LF","learning/Slide90.JPG","This is a dep:","","",""
"html-keyboard-response","277","518446","0.0-7.0-0.10","LF","98ysefwhzk","1093","615","0","1","0","5f482f05cd5e5d2d1d57c1ff","","null","","","learningBlock2","","","","This is a wug:","null","","","","","",""
"image-keyboard-response","278","518788","0.0-7.0-1.10","LF","98ysefwhzk","1093","615","0","1","0","5f482f05cd5e5d2d1d57c1ff","","null","","","","","","","learning/Slide91.JPG","null","","","","","",""
"html-keyboard-response","279","519798","0.0-7.0-2.10","LF","98ysefwhzk","1093","615","0","1","0","5f482f05cd5e5d2d1d57c1ff","","null","","","learningBlock2","","","","<div style=""font-size:60px;""> </div>","null","LF","learning/Slide91.JPG","This is a wug:","","",""
"html-keyboard-response","280","520800","0.0-7.0-0.11","LF","98ysefwhzk","1093","615","0","1","0","5f482f05cd5e5d2d1d57c1ff","","null","","","learningBlock2","","","","This is a tob:","null","","","","","",""
"image-keyboard-response","281","521140","0.0-7.0-1.11","LF","98ysefwhzk","1093","615","0","1","0","5f482f05cd5e5d2d1d57c1ff","","null","","","","","","","learning/Slide92.JPG","null","","","","","",""
"html-keyboard-response","282","522151","0.0-7.0-2.11","LF","98ysefwhzk","1093","615","0","1","0","5f482f05cd5e5d2d1d57c1ff","","null","","","learningBlock2","","","","<div style=""font-size:60px;""> </div>","null","LF","learning/Slide92.JPG","This is a tob:","","",""
"html-keyboard-response","283","523156","0.0-7.0-0.12","LF","98ysefwhzk","1093","615","0","1","0","5f482f05cd5e5d2d1d57c1ff","","null","","","learningBlock2","","","","This is a bim:","null","","","","","",""
"image-keyboard-response","284","523496","0.0-7.0-1.12","LF","98ysefwhzk","1093","615","0","1","0","5f482f05cd5e5d2d1d57c1ff","","null","","","","","","","learning/Slide93.JPG","null","","","","","",""
"html-keyboard-response","285","524508","0.0-7.0-2.12","LF","98ysefwhzk","1093","615","0","1","0","5f482f05cd5e5d2d1d57c1ff","","null","","","learningBlock2","","","","<div style=""font-size:60px;""> </div>","null","LF","learning/Slide93.JPG","This is a bim:","","",""
"html-keyboard-response","286","525510","0.0-7.0-0.13","LF","98ysefwhzk","1093","615","0","1","0","5f482f05cd5e5d2d1d57c1ff","","null","","","learningBlock2","","","","This is a tob:","null","","","","","",""
"image-keyboard-response","287","525851","0.0-7.0-1.13","LF","98ysefwhzk","1093","615","0","1","0","5f482f05cd5e5d2d1d57c1ff","","null","","","","","","","learning/Slide94.JPG","null","","","","","",""
"html-keyboard-response","288","526863","0.0-7.0-2.13","LF","98ysefwhzk","1093","615","0","1","0","5f482f05cd5e5d2d1d57c1ff","","null","","","learningBlock2","","","","<div style=""font-size:60px;""> </div>","null","LF","learning/Slide94.JPG","This is a tob:","","",""
"html-keyboard-response","289","527865","0.0-7.0-0.14","LF","98ysefwhzk","1093","615","0","1","0","5f482f05cd5e5d2d1d57c1ff","","null","","","learningBlock2","","","","This is a wug:","null","","","","","",""
"image-keyboard-response","290","528207","0.0-7.0-1.14","LF","98ysefwhzk","1093","615","0","1","0","5f482f05cd5e5d2d1d57c1ff","","null","","","","","","","learning/Slide95.JPG","null","","","","","",""
"html-keyboard-response","291","529219","0.0-7.0-2.14","LF","98ysefwhzk","1093","615","0","1","0","5f482f05cd5e5d2d1d57c1ff","","null","","","learningBlock2","","","","<div style=""font-size:60px;""> </div>","null","LF","learning/Slide95.JPG","This is a wug:","","",""
"html-keyboard-response","292","530221","0.0-7.0-0.15","LF","98ysefwhzk","1093","615","0","1","0","5f482f05cd5e5d2d1d57c1ff","","null","","","learningBlock2","","","","This is a tob:","null","","","","","",""
"image-keyboard-response","293","530560","0.0-7.0-1.15","LF","98ysefwhzk","1093","615","0","1","0","5f482f05cd5e5d2d1d57c1ff","","null","","","","","","","learning/Slide96.JPG","null","","","","","",""
"html-keyboard-response","294","531573","0.0-7.0-2.15","LF","98ysefwhzk","1093","615","0","1","0","5f482f05cd5e5d2d1d57c1ff","","null","","","learningBlock2","","","","<div style=""font-size:60px;""> </div>","null","LF","learning/Slide96.JPG","This is a tob:","","",""
"html-keyboard-response","295","532575","0.0-7.0-0.16","LF","98ysefwhzk","1093","615","0","1","0","5f482f05cd5e5d2d1d57c1ff","","null","","","learningBlock2","","","","This is a dep:","null","","","","","",""
"image-keyboard-response","296","532917","0.0-7.0-1.16","LF","98ysefwhzk","1093","615","0","1","0","5f482f05cd5e5d2d1d57c1ff","","null","","","","","","","learning/Slide97.JPG","null","","","","","",""
"html-keyboard-response","297","533928","0.0-7.0-2.16","LF","98ysefwhzk","1093","615","0","1","0","5f482f05cd5e5d2d1d57c1ff","","null","","","learningBlock2","","","","<div style=""font-size:60px;""> </div>","null","LF","learning/Slide97.JPG","This is a dep:","","",""
"html-keyboard-response","298","534930","0.0-7.0-0.17","LF","98ysefwhzk","1093","615","0","1","0","5f482f05cd5e5d2d1d57c1ff","","null","","","learningBlock2","","","","This is a bim:","null","","","","","",""
"image-keyboard-response","299","535272","0.0-7.0-1.17","LF","98ysefwhzk","1093","615","0","1","0","5f482f05cd5e5d2d1d57c1ff","","null","","","","","","","learning/Slide98.JPG","null","","","","","",""
"html-keyboard-response","300","536283","0.0-7.0-2.17","LF","98ysefwhzk","1093","615","0","1","0","5f482f05cd5e5d2d1d57c1ff","","null","","","learningBlock2","","","","<div style=""font-size:60px;""> </div>","null","LF","learning/Slide98.JPG","This is a bim:","","",""
"html-keyboard-response","301","537287","0.0-7.0-0.18","LF","98ysefwhzk","1093","615","0","1","0","5f482f05cd5e5d2d1d57c1ff","","null","","","learningBlock2","","","","This is a dep:","null","","","","","",""
"image-keyboard-response","302","537628","0.0-7.0-1.18","LF","98ysefwhzk","1093","615","0","1","0","5f482f05cd5e5d2d1d57c1ff","","null","","","","","","","learning/Slide99.JPG","null","","","","","",""
"html-keyboard-response","303","538640","0.0-7.0-2.18","LF","98ysefwhzk","1093","615","0","1","0","5f482f05cd5e5d2d1d57c1ff","","null","","","learningBlock2","","","","<div style=""font-size:60px;""> </div>","null","LF","learning/Slide99.JPG","This is a dep:","","",""
"html-keyboard-response","304","539657","0.0-7.0-0.19","LF","98ysefwhzk","1093","615","0","1","0","5f482f05cd5e5d2d1d57c1ff","","null","","","learningBlock2","","","","This is a bim:","null","","","","","",""
"image-keyboard-response","305","540000","0.0-7.0-1.19","LF","98ysefwhzk","1093","615","0","1","0","5f482f05cd5e5d2d1d57c1ff","","null","","","","","","","learning/Slide100.JPG","null","","","","","",""
"html-keyboard-response","306","541011","0.0-7.0-2.19","LF","98ysefwhzk","1093","615","0","1","0","5f482f05cd5e5d2d1d57c1ff","","null","","","learningBlock2","","","","<div style=""font-size:60px;""> </div>","null","LF","learning/Slide100.JPG","This is a bim:","","",""
"html-keyboard-response","307","542014","0.0-7.0-0.20","LF","98ysefwhzk","1093","615","0","1","0","5f482f05cd5e5d2d1d57c1ff","","null","","","learningBlock2","","","","This is a tob:","null","","","","","",""
"image-keyboard-response","308","542356","0.0-7.0-1.20","LF","98ysefwhzk","1093","615","0","1","0","5f482f05cd5e5d2d1d57c1ff","","null","","","","","","","learning/Slide101.JPG","null","","","","","",""
"html-keyboard-response","309","543366","0.0-7.0-2.20","LF","98ysefwhzk","1093","615","0","1","0","5f482f05cd5e5d2d1d57c1ff","","null","","","learningBlock2","","","","<div style=""font-size:60px;""> </div>","null","LF","learning/Slide101.JPG","This is a tob:","","",""
"html-keyboard-response","310","544369","0.0-7.0-0.21","LF","98ysefwhzk","1093","615","0","1","0","5f482f05cd5e5d2d1d57c1ff","","null","","","learningBlock2","","","","This is a bim:","null","","","","","",""
"image-keyboard-response","311","544709","0.0-7.0-1.21","LF","98ysefwhzk","1093","615","0","1","0","5f482f05cd5e5d2d1d57c1ff","","null","","","","","","","learning/Slide102.JPG","null","","","","","",""
"html-keyboard-response","312","545721","0.0-7.0-2.21","LF","98ysefwhzk","1093","615","0","1","0","5f482f05cd5e5d2d1d57c1ff","","null","","","learningBlock2","","","","<div style=""font-size:60px;""> </div>","null","LF","learning/Slide102.JPG","This is a bim:","","",""
"html-keyboard-response","313","546723","0.0-7.0-0.22","LF","98ysefwhzk","1093","615","0","1","0","5f482f05cd5e5d2d1d57c1ff","","null","","","learningBlock2","","","","This is a dep:","null","","","","","",""
"image-keyboard-response","314","547065","0.0-7.0-1.22","LF","98ysefwhzk","1093","615","0","1","0","5f482f05cd5e5d2d1d57c1ff","","null","","","","","","","learning/Slide103.JPG","null","","","","","",""
"html-keyboard-response","315","548077","0.0-7.0-2.22","LF","98ysefwhzk","1093","615","0","1","0","5f482f05cd5e5d2d1d57c1ff","","null","","","learningBlock2","","","","<div style=""font-size:60px;""> </div>","null","LF","learning/Slide103.JPG","This is a dep:","","",""
"html-keyboard-response","316","549079","0.0-7.0-0.23","LF","98ysefwhzk","1093","615","0","1","0","5f482f05cd5e5d2d1d57c1ff","","null","","","learningBlock2","","","","This is a tob:","null","","","","","",""
"image-keyboard-response","317","549421","0.0-7.0-1.23","LF","98ysefwhzk","1093","615","0","1","0","5f482f05cd5e5d2d1d57c1ff","","null","","","","","","","learning/Slide104.JPG","null","","","","","",""
"html-keyboard-response","318","550432","0.0-7.0-2.23","LF","98ysefwhzk","1093","615","0","1","0","5f482f05cd5e5d2d1d57c1ff","","null","","","learningBlock2","","","","<div style=""font-size:60px;""> </div>","null","LF","learning/Slide104.JPG","This is a tob:","","",""
"html-keyboard-response","319","551437","0.0-7.0-0.24","LF","98ysefwhzk","1093","615","0","1","0","5f482f05cd5e5d2d1d57c1ff","","null","","","learningBlock2","","","","This is a dep:","null","","","","","",""
"image-keyboard-response","320","551776","0.0-7.0-1.24","LF","98ysefwhzk","1093","615","0","1","0","5f482f05cd5e5d2d1d57c1ff","","null","","","","","","","learning/Slide105.JPG","null","","","","","",""
"html-keyboard-response","321","552789","0.0-7.0-2.24","LF","98ysefwhzk","1093","615","0","1","0","5f482f05cd5e5d2d1d57c1ff","","null","","","learningBlock2","","","","<div style=""font-size:60px;""> </div>","null","LF","learning/Slide105.JPG","This is a dep:","","",""
"html-keyboard-response","322","553792","0.0-7.0-0.25","LF","98ysefwhzk","1093","615","0","1","0","5f482f05cd5e5d2d1d57c1ff","","null","","","learningBlock2","","","","This is a wug:","null","","","","","",""
"image-keyboard-response","323","554129","0.0-7.0-1.25","LF","98ysefwhzk","1093","615","0","1","0","5f482f05cd5e5d2d1d57c1ff","","null","","","","","","","learning/Slide106.JPG","null","","","","","",""
"html-keyboard-response","324","555142","0.0-7.0-2.25","LF","98ysefwhzk","1093","615","0","1","0","5f482f05cd5e5d2d1d57c1ff","","null","","","learningBlock2","","","","<div style=""font-size:60px;""> </div>","null","LF","learning/Slide106.JPG","This is a wug:","","",""
"html-keyboard-response","325","556145","0.0-7.0-0.26","LF","98ysefwhzk","1093","615","0","1","0","5f482f05cd5e5d2d1d57c1ff","","null","","","learningBlock2","","","","This is a bim:","null","","","","","",""
"image-keyboard-response","326","556485","0.0-7.0-1.26","LF","98ysefwhzk","1093","615","0","1","0","5f482f05cd5e5d2d1d57c1ff","","null","","","","","","","learning/Slide107.JPG","null","","","","","",""
"html-keyboard-response","327","557498","0.0-7.0-2.26","LF","98ysefwhzk","1093","615","0","1","0","5f482f05cd5e5d2d1d57c1ff","","null","","","learningBlock2","","","","<div style=""font-size:60px;""> </div>","null","LF","learning/Slide107.JPG","This is a bim:","","",""
"html-keyboard-response","328","558507","0.0-7.0-0.27","LF","98ysefwhzk","1093","615","0","1","0","5f482f05cd5e5d2d1d57c1ff","","null","","","learningBlock2","","","","This is a dep:","null","","","","","",""
"image-keyboard-response","329","558843","0.0-7.0-1.27","LF","98ysefwhzk","1093","615","0","1","0","5f482f05cd5e5d2d1d57c1ff","","null","","","","","","","learning/Slide108.JPG","null","","","","","",""
"html-keyboard-response","330","559855","0.0-7.0-2.27","LF","98ysefwhzk","1093","615","0","1","0","5f482f05cd5e5d2d1d57c1ff","","null","","","learningBlock2","","","","<div style=""font-size:60px;""> </div>","null","LF","learning/Slide108.JPG","This is a dep:","","",""
"html-keyboard-response","331","560859","0.0-7.0-0.28","LF","98ysefwhzk","1093","615","0","1","0","5f482f05cd5e5d2d1d57c1ff","","null","","","learningBlock2","","","","This is a wug:","null","","","","","",""
"image-keyboard-response","332","561195","0.0-7.0-1.28","LF","98ysefwhzk","1093","615","0","1","0","5f482f05cd5e5d2d1d57c1ff","","null","","","","","","","learning/Slide109.JPG","null","","","","","",""
"html-keyboard-response","333","562207","0.0-7.0-2.28","LF","98ysefwhzk","1093","615","0","1","0","5f482f05cd5e5d2d1d57c1ff","","null","","","learningBlock2","","","","<div style=""font-size:60px;""> </div>","null","LF","learning/Slide109.JPG","This is a wug:","","",""
"html-keyboard-response","334","563211","0.0-7.0-0.29","LF","98ysefwhzk","1093","615","0","1","0","5f482f05cd5e5d2d1d57c1ff","","null","","","learningBlock2","","","","This is a bim:","null","","","","","",""
"image-keyboard-response","335","563551","0.0-7.0-1.29","LF","98ysefwhzk","1093","615","0","1","0","5f482f05cd5e5d2d1d57c1ff","","null","","","","","","","learning/Slide110.JPG","null","","","","","",""
"html-keyboard-response","336","564563","0.0-7.0-2.29","LF","98ysefwhzk","1093","615","0","1","0","5f482f05cd5e5d2d1d57c1ff","","null","","","learningBlock2","","","","<div style=""font-size:60px;""> </div>","null","LF","learning/Slide110.JPG","This is a bim:","","",""
"html-keyboard-response","337","565567","0.0-7.0-0.30","LF","98ysefwhzk","1093","615","0","1","0","5f482f05cd5e5d2d1d57c1ff","","null","","","learningBlock2","","","","This is a tob:","null","","","","","",""
"image-keyboard-response","338","565907","0.0-7.0-1.30","LF","98ysefwhzk","1093","615","0","1","0","5f482f05cd5e5d2d1d57c1ff","","null","","","","","","","learning/Slide111.JPG","null","","","","","",""
"html-keyboard-response","339","566919","0.0-7.0-2.30","LF","98ysefwhzk","1093","615","0","1","0","5f482f05cd5e5d2d1d57c1ff","","null","","","learningBlock2","","","","<div style=""font-size:60px;""> </div>","null","LF","learning/Slide111.JPG","This is a tob:","","",""
"html-keyboard-response","340","567921","0.0-7.0-0.31","LF","98ysefwhzk","1093","615","0","1","0","5f482f05cd5e5d2d1d57c1ff","","null","","","learningBlock2","","","","This is a wug:","null","","","","","",""
"image-keyboard-response","341","568262","0.0-7.0-1.31","LF","98ysefwhzk","1093","615","0","1","0","5f482f05cd5e5d2d1d57c1ff","","null","","","","","","","learning/Slide112.JPG","null","","","","","",""
"html-keyboard-response","342","569273","0.0-7.0-2.31","LF","98ysefwhzk","1093","615","0","1","0","5f482f05cd5e5d2d1d57c1ff","","null","","","learningBlock2","","","","<div style=""font-size:60px;""> </div>","null","LF","learning/Slide112.JPG","This is a wug:","","",""
"html-keyboard-response","343","570276","0.0-7.0-0.32","LF","98ysefwhzk","1093","615","0","1","0","5f482f05cd5e5d2d1d57c1ff","","null","","","learningBlock2","","","","This is a tob:","null","","","","","",""
"image-keyboard-response","344","570617","0.0-7.0-1.32","LF","98ysefwhzk","1093","615","0","1","0","5f482f05cd5e5d2d1d57c1ff","","null","","","","","","","learning/Slide113.JPG","null","","","","","",""
"html-keyboard-response","345","571627","0.0-7.0-2.32","LF","98ysefwhzk","1093","615","0","1","0","5f482f05cd5e5d2d1d57c1ff","","null","","","learningBlock2","","","","<div style=""font-size:60px;""> </div>","null","LF","learning/Slide113.JPG","This is a tob:","","",""
"html-keyboard-response","346","572631","0.0-7.0-0.33","LF","98ysefwhzk","1093","615","0","1","0","5f482f05cd5e5d2d1d57c1ff","","null","","","learningBlock2","","","","This is a wug:","null","","","","","",""
"image-keyboard-response","347","572976","0.0-7.0-1.33","LF","98ysefwhzk","1093","615","0","1","0","5f482f05cd5e5d2d1d57c1ff","","null","","","","","","","learning/Slide114.JPG","null","","","","","",""
"html-keyboard-response","348","573984","0.0-7.0-2.33","LF","98ysefwhzk","1093","615","0","1","0","5f482f05cd5e5d2d1d57c1ff","","null","","","learningBlock2","","","","<div style=""font-size:60px;""> </div>","null","LF","learning/Slide114.JPG","This is a wug:","","",""
"html-keyboard-response","349","574986","0.0-7.0-0.34","LF","98ysefwhzk","1093","615","0","1","0","5f482f05cd5e5d2d1d57c1ff","","null","","","learningBlock2","","","","This is a bim:","null","","","","","",""
"image-keyboard-response","350","575328","0.0-7.0-1.34","LF","98ysefwhzk","1093","615","0","1","0","5f482f05cd5e5d2d1d57c1ff","","null","","","","","","","learning/Slide115.JPG","null","","","","","",""
"html-keyboard-response","351","576339","0.0-7.0-2.34","LF","98ysefwhzk","1093","615","0","1","0","5f482f05cd5e5d2d1d57c1ff","","null","","","learningBlock2","","","","<div style=""font-size:60px;""> </div>","null","LF","learning/Slide115.JPG","This is a bim:","","",""
"html-keyboard-response","352","577356","0.0-7.0-0.35","LF","98ysefwhzk","1093","615","0","1","0","5f482f05cd5e5d2d1d57c1ff","","null","","","learningBlock2","","","","This is a dep:","null","","","","","",""
"image-keyboard-response","353","577699","0.0-7.0-1.35","LF","98ysefwhzk","1093","615","0","1","0","5f482f05cd5e5d2d1d57c1ff","","null","","","","","","","learning/Slide116.JPG","null","","","","","",""
"html-keyboard-response","354","578712","0.0-7.0-2.35","LF","98ysefwhzk","1093","615","0","1","0","5f482f05cd5e5d2d1d57c1ff","","null","","","learningBlock2","","","","<div style=""font-size:60px;""> </div>","null","LF","learning/Slide116.JPG","This is a dep:","","",""
"html-keyboard-response","355","579714","0.0-7.0-0.36","LF","98ysefwhzk","1093","615","0","1","0","5f482f05cd5e5d2d1d57c1ff","","null","","","learningBlock2","","","","This is a tob:","null","","","","","",""
"image-keyboard-response","356","580055","0.0-7.0-1.36","LF","98ysefwhzk","1093","615","0","1","0","5f482f05cd5e5d2d1d57c1ff","","null","","","","","","","learning/Slide117.JPG","null","","","","","",""
"html-keyboard-response","357","581067","0.0-7.0-2.36","LF","98ysefwhzk","1093","615","0","1","0","5f482f05cd5e5d2d1d57c1ff","","null","","","learningBlock2","","","","<div style=""font-size:60px;""> </div>","null","LF","learning/Slide117.JPG","This is a tob:","","",""
"html-keyboard-response","358","582069","0.0-7.0-0.37","LF","98ysefwhzk","1093","615","0","1","0","5f482f05cd5e5d2d1d57c1ff","","null","","","learningBlock2","","","","This is a dep:","null","","","","","",""
"image-keyboard-response","359","582410","0.0-7.0-1.37","LF","98ysefwhzk","1093","615","0","1","0","5f482f05cd5e5d2d1d57c1ff","","null","","","","","","","learning/Slide118.JPG","null","","","","","",""
"html-keyboard-response","360","583422","0.0-7.0-2.37","LF","98ysefwhzk","1093","615","0","1","0","5f482f05cd5e5d2d1d57c1ff","","null","","","learningBlock2","","","","<div style=""font-size:60px;""> </div>","null","LF","learning/Slide118.JPG","This is a dep:","","",""
"html-keyboard-response","361","584424","0.0-7.0-0.38","LF","98ysefwhzk","1093","615","0","1","0","5f482f05cd5e5d2d1d57c1ff","","null","","","learningBlock2","","","","This is a wug:","null","","","","","",""
"image-keyboard-response","362","584765","0.0-7.0-1.38","LF","98ysefwhzk","1093","615","0","1","0","5f482f05cd5e5d2d1d57c1ff","","null","","","","","","","learning/Slide119.JPG","null","","","","","",""
"html-keyboard-response","363","585777","0.0-7.0-2.38","LF","98ysefwhzk","1093","615","0","1","0","5f482f05cd5e5d2d1d57c1ff","","null","","","learningBlock2","","","","<div style=""font-size:60px;""> </div>","null","LF","learning/Slide119.JPG","This is a wug:","","",""
"html-keyboard-response","364","586779","0.0-7.0-0.39","LF","98ysefwhzk","1093","615","0","1","0","5f482f05cd5e5d2d1d57c1ff","","null","","","learningBlock2","","","","This is a dep:","null","","","","","",""
"image-keyboard-response","365","587120","0.0-7.0-1.39","LF","98ysefwhzk","1093","615","0","1","0","5f482f05cd5e5d2d1d57c1ff","","null","","","","","","","learning/Slide120.JPG","null","","","","","",""
"html-keyboard-response","366","588131","0.0-7.0-2.39","LF","98ysefwhzk","1093","615","0","1","0","5f482f05cd5e5d2d1d57c1ff","","null","","","learningBlock2","","","","<div style=""font-size:60px;""> </div>","null","LF","learning/Slide120.JPG","This is a dep:","","",""
"html-keyboard-response","367","589134","0.0-7.0-0.40","LF","98ysefwhzk","1093","615","0","1","0","5f482f05cd5e5d2d1d57c1ff","","null","","","learningBlock2","","","","This is a bim:","null","","","","","",""
"image-keyboard-response","368","589476","0.0-7.0-1.40","LF","98ysefwhzk","1093","615","0","1","0","5f482f05cd5e5d2d1d57c1ff","","null","","","","","","","learning/Slide121.JPG","null","","","","","",""
"html-keyboard-response","369","590486","0.0-7.0-2.40","LF","98ysefwhzk","1093","615","0","1","0","5f482f05cd5e5d2d1d57c1ff","","null","","","learningBlock2","","","","<div style=""font-size:60px;""> </div>","null","LF","learning/Slide121.JPG","This is a bim:","","",""
"html-keyboard-response","370","591489","0.0-7.0-0.41","LF","98ysefwhzk","1093","615","0","1","0","5f482f05cd5e5d2d1d57c1ff","","null","","","learningBlock2","","","","This is a wug:","null","","","","","",""
"image-keyboard-response","371","591830","0.0-7.0-1.41","LF","98ysefwhzk","1093","615","0","1","0","5f482f05cd5e5d2d1d57c1ff","","null","","","","","","","learning/Slide122.JPG","null","","","","","",""
"html-keyboard-response","372","592842","0.0-7.0-2.41","LF","98ysefwhzk","1093","615","0","1","0","5f482f05cd5e5d2d1d57c1ff","","null","","","learningBlock2","","","","<div style=""font-size:60px;""> </div>","null","LF","learning/Slide122.JPG","This is a wug:","","",""
"html-keyboard-response","373","593846","0.0-7.0-0.42","LF","98ysefwhzk","1093","615","0","1","0","5f482f05cd5e5d2d1d57c1ff","","null","","","learningBlock2","","","","This is a bim:","null","","","","","",""
"image-keyboard-response","374","594186","0.0-7.0-1.42","LF","98ysefwhzk","1093","615","0","1","0","5f482f05cd5e5d2d1d57c1ff","","null","","","","","","","learning/Slide123.JPG","null","","","","","",""
"html-keyboard-response","375","595197","0.0-7.0-2.42","LF","98ysefwhzk","1093","615","0","1","0","5f482f05cd5e5d2d1d57c1ff","","null","","","learningBlock2","","","","<div style=""font-size:60px;""> </div>","null","LF","learning/Slide123.JPG","This is a bim:","","",""
"html-keyboard-response","376","596200","0.0-7.0-0.43","LF","98ysefwhzk","1093","615","0","1","0","5f482f05cd5e5d2d1d57c1ff","","null","","","learningBlock2","","","","This is a tob:","null","","","","","",""
"image-keyboard-response","377","596540","0.0-7.0-1.43","LF","98ysefwhzk","1093","615","0","1","0","5f482f05cd5e5d2d1d57c1ff","","null","","","","","","","learning/Slide124.JPG","null","","","","","",""
"html-keyboard-response","378","597552","0.0-7.0-2.43","LF","98ysefwhzk","1093","615","0","1","0","5f482f05cd5e5d2d1d57c1ff","","null","","","learningBlock2","","","","<div style=""font-size:60px;""> </div>","null","LF","learning/Slide124.JPG","This is a tob:","","",""
"html-keyboard-response","379","598555","0.0-7.0-0.44","LF","98ysefwhzk","1093","615","0","1","0","5f482f05cd5e5d2d1d57c1ff","","null","","","learningBlock2","","","","This is a bim:","null","","","","","",""
"image-keyboard-response","380","598895","0.0-7.0-1.44","LF","98ysefwhzk","1093","615","0","1","0","5f482f05cd5e5d2d1d57c1ff","","null","","","","","","","learning/Slide125.JPG","null","","","","","",""
"html-keyboard-response","381","599907","0.0-7.0-2.44","LF","98ysefwhzk","1093","615","0","1","0","5f482f05cd5e5d2d1d57c1ff","","null","","","learningBlock2","","","","<div style=""font-size:60px;""> </div>","null","LF","learning/Slide125.JPG","This is a bim:","","",""
"html-keyboard-response","382","600908","0.0-7.0-0.45","LF","98ysefwhzk","1093","615","0","1","0","5f482f05cd5e5d2d1d57c1ff","","null","","","learningBlock2","","","","This is a tob:","null","","","","","",""
"image-keyboard-response","383","601249","0.0-7.0-1.45","LF","98ysefwhzk","1093","615","0","1","0","5f482f05cd5e5d2d1d57c1ff","","null","","","","","","","learning/Slide126.JPG","null","","","","","",""
"html-keyboard-response","384","602262","0.0-7.0-2.45","LF","98ysefwhzk","1093","615","0","1","0","5f482f05cd5e5d2d1d57c1ff","","null","","","learningBlock2","","","","<div style=""font-size:60px;""> </div>","null","LF","learning/Slide126.JPG","This is a tob:","","",""
"html-keyboard-response","385","603267","0.0-7.0-0.46","LF","98ysefwhzk","1093","615","0","1","0","5f482f05cd5e5d2d1d57c1ff","","null","","","learningBlock2","","","","This is a dep:","null","","","","","",""
"image-keyboard-response","386","603606","0.0-7.0-1.46","LF","98ysefwhzk","1093","615","0","1","0","5f482f05cd5e5d2d1d57c1ff","","null","","","","","","","learning/Slide127.JPG","null","","","","","",""
"html-keyboard-response","387","604616","0.0-7.0-2.46","LF","98ysefwhzk","1093","615","0","1","0","5f482f05cd5e5d2d1d57c1ff","","null","","","learningBlock2","","","","<div style=""font-size:60px;""> </div>","null","LF","learning/Slide127.JPG","This is a dep:","","",""
"html-keyboard-response","388","605619","0.0-7.0-0.47","LF","98ysefwhzk","1093","615","0","1","0","5f482f05cd5e5d2d1d57c1ff","","null","","","learningBlock2","","","","This is a wug:","null","","","","","",""
"image-keyboard-response","389","605959","0.0-7.0-1.47","LF","98ysefwhzk","1093","615","0","1","0","5f482f05cd5e5d2d1d57c1ff","","null","","","","","","","learning/Slide128.JPG","null","","","","","",""
"html-keyboard-response","390","606972","0.0-7.0-2.47","LF","98ysefwhzk","1093","615","0","1","0","5f482f05cd5e5d2d1d57c1ff","","null","","","learningBlock2","","","","<div style=""font-size:60px;""> </div>","null","LF","learning/Slide128.JPG","This is a wug:","","",""
"html-keyboard-response","391","607988","0.0-7.0-0.48","LF","98ysefwhzk","1093","615","0","1","0","5f482f05cd5e5d2d1d57c1ff","","null","","","learningBlock2","","","","This is a tob:","null","","","","","",""
"image-keyboard-response","392","608333","0.0-7.0-1.48","LF","98ysefwhzk","1093","615","0","1","0","5f482f05cd5e5d2d1d57c1ff","","null","","","","","","","learning/Slide129.JPG","null","","","","","",""
"html-keyboard-response","393","609345","0.0-7.0-2.48","LF","98ysefwhzk","1093","615","0","1","0","5f482f05cd5e5d2d1d57c1ff","","null","","","learningBlock2","","","","<div style=""font-size:60px;""> </div>","null","LF","learning/Slide129.JPG","This is a tob:","","",""
"html-keyboard-response","394","610361","0.0-7.0-0.49","LF","98ysefwhzk","1093","615","0","1","0","5f482f05cd5e5d2d1d57c1ff","","null","","","learningBlock2","","","","This is a wug:","null","","","","","",""
"image-keyboard-response","395","610703","0.0-7.0-1.49","LF","98ysefwhzk","1093","615","0","1","0","5f482f05cd5e5d2d1d57c1ff","","null","","","","","","","learning/Slide130.JPG","null","","","","","",""
"html-keyboard-response","396","611715","0.0-7.0-2.49","LF","98ysefwhzk","1093","615","0","1","0","5f482f05cd5e5d2d1d57c1ff","","null","","","learningBlock2","","","","<div style=""font-size:60px;""> </div>","null","LF","learning/Slide130.JPG","This is a wug:","","",""
"html-keyboard-response","397","612719","0.0-7.0-0.50","LF","98ysefwhzk","1093","615","0","1","0","5f482f05cd5e5d2d1d57c1ff","","null","","","learningBlock2","","","","This is a bim:","null","","","","","",""
"image-keyboard-response","398","613058","0.0-7.0-1.50","LF","98ysefwhzk","1093","615","0","1","0","5f482f05cd5e5d2d1d57c1ff","","null","","","","","","","learning/Slide131.JPG","null","","","","","",""
"html-keyboard-response","399","614071","0.0-7.0-2.50","LF","98ysefwhzk","1093","615","0","1","0","5f482f05cd5e5d2d1d57c1ff","","null","","","learningBlock2","","","","<div style=""font-size:60px;""> </div>","null","LF","learning/Slide131.JPG","This is a bim:","","",""
"html-keyboard-response","400","615073","0.0-7.0-0.51","LF","98ysefwhzk","1093","615","0","1","0","5f482f05cd5e5d2d1d57c1ff","","null","","","learningBlock2","","","","This is a dep:","null","","","","","",""
"image-keyboard-response","401","615415","0.0-7.0-1.51","LF","98ysefwhzk","1093","615","0","1","0","5f482f05cd5e5d2d1d57c1ff","","null","","","","","","","learning/Slide132.JPG","null","","","","","",""
"html-keyboard-response","402","616427","0.0-7.0-2.51","LF","98ysefwhzk","1093","615","0","1","0","5f482f05cd5e5d2d1d57c1ff","","null","","","learningBlock2","","","","<div style=""font-size:60px;""> </div>","null","LF","learning/Slide132.JPG","This is a dep:","","",""
"html-keyboard-response","403","617429","0.0-7.0-0.52","LF","98ysefwhzk","1093","615","0","1","0","5f482f05cd5e5d2d1d57c1ff","","null","","","learningBlock2","","","","This is a tob:","null","","","","","",""
"image-keyboard-response","404","617771","0.0-7.0-1.52","LF","98ysefwhzk","1093","615","0","1","0","5f482f05cd5e5d2d1d57c1ff","","null","","","","","","","learning/Slide133.JPG","null","","","","","",""
"html-keyboard-response","405","618782","0.0-7.0-2.52","LF","98ysefwhzk","1093","615","0","1","0","5f482f05cd5e5d2d1d57c1ff","","null","","","learningBlock2","","","","<div style=""font-size:60px;""> </div>","null","LF","learning/Slide133.JPG","This is a tob:","","",""
"html-keyboard-response","406","619784","0.0-7.0-0.53","LF","98ysefwhzk","1093","615","0","1","0","5f482f05cd5e5d2d1d57c1ff","","null","","","learningBlock2","","","","This is a dep:","null","","","","","",""
"image-keyboard-response","407","620124","0.0-7.0-1.53","LF","98ysefwhzk","1093","615","0","1","0","5f482f05cd5e5d2d1d57c1ff","","null","","","","","","","learning/Slide134.JPG","null","","","","","",""
"html-keyboard-response","408","621136","0.0-7.0-2.53","LF","98ysefwhzk","1093","615","0","1","0","5f482f05cd5e5d2d1d57c1ff","","null","","","learningBlock2","","","","<div style=""font-size:60px;""> </div>","null","LF","learning/Slide134.JPG","This is a dep:","","",""
"html-keyboard-response","409","622141","0.0-7.0-0.54","LF","98ysefwhzk","1093","615","0","1","0","5f482f05cd5e5d2d1d57c1ff","","null","","","learningBlock2","","","","This is a tob:","null","","","","","",""
"image-keyboard-response","410","622480","0.0-7.0-1.54","LF","98ysefwhzk","1093","615","0","1","0","5f482f05cd5e5d2d1d57c1ff","","null","","","","","","","learning/Slide135.JPG","null","","","","","",""
"html-keyboard-response","411","623493","0.0-7.0-2.54","LF","98ysefwhzk","1093","615","0","1","0","5f482f05cd5e5d2d1d57c1ff","","null","","","learningBlock2","","","","<div style=""font-size:60px;""> </div>","null","LF","learning/Slide135.JPG","This is a tob:","","",""
"html-keyboard-response","412","624495","0.0-7.0-0.55","LF","98ysefwhzk","1093","615","0","1","0","5f482f05cd5e5d2d1d57c1ff","","null","","","learningBlock2","","","","This is a wug:","null","","","","","",""
"image-keyboard-response","413","624835","0.0-7.0-1.55","LF","98ysefwhzk","1093","615","0","1","0","5f482f05cd5e5d2d1d57c1ff","","null","","","","","","","learning/Slide136.JPG","null","","","","","",""
"html-keyboard-response","414","625847","0.0-7.0-2.55","LF","98ysefwhzk","1093","615","0","1","0","5f482f05cd5e5d2d1d57c1ff","","null","","","learningBlock2","","","","<div style=""font-size:60px;""> </div>","null","LF","learning/Slide136.JPG","This is a wug:","","",""
"html-keyboard-response","415","626849","0.0-7.0-0.56","LF","98ysefwhzk","1093","615","0","1","0","5f482f05cd5e5d2d1d57c1ff","","null","","","learningBlock2","","","","This is a tob:","null","","","","","",""
"image-keyboard-response","416","627190","0.0-7.0-1.56","LF","98ysefwhzk","1093","615","0","1","0","5f482f05cd5e5d2d1d57c1ff","","null","","","","","","","learning/Slide137.JPG","null","","","","","",""
"html-keyboard-response","417","628202","0.0-7.0-2.56","LF","98ysefwhzk","1093","615","0","1","0","5f482f05cd5e5d2d1d57c1ff","","null","","","learningBlock2","","","","<div style=""font-size:60px;""> </div>","null","LF","learning/Slide137.JPG","This is a tob:","","",""
"html-keyboard-response","418","629204","0.0-7.0-0.57","LF","98ysefwhzk","1093","615","0","1","0","5f482f05cd5e5d2d1d57c1ff","","null","","","learningBlock2","","","","This is a bim:","null","","","","","",""
"image-keyboard-response","419","629545","0.0-7.0-1.57","LF","98ysefwhzk","1093","615","0","1","0","5f482f05cd5e5d2d1d57c1ff","","null","","","","","","","learning/Slide138.JPG","null","","","","","",""
"html-keyboard-response","420","630556","0.0-7.0-2.57","LF","98ysefwhzk","1093","615","0","1","0","5f482f05cd5e5d2d1d57c1ff","","null","","","learningBlock2","","","","<div style=""font-size:60px;""> </div>","null","LF","learning/Slide138.JPG","This is a bim:","","",""
"html-keyboard-response","421","631561","0.0-7.0-0.58","LF","98ysefwhzk","1093","615","0","1","0","5f482f05cd5e5d2d1d57c1ff","","null","","","learningBlock2","","","","This is a wug:","null","","","","","",""
"image-keyboard-response","422","631901","0.0-7.0-1.58","LF","98ysefwhzk","1093","615","0","1","0","5f482f05cd5e5d2d1d57c1ff","","null","","","","","","","learning/Slide139.JPG","null","","","","","",""
"html-keyboard-response","423","632913","0.0-7.0-2.58","LF","98ysefwhzk","1093","615","0","1","0","5f482f05cd5e5d2d1d57c1ff","","null","","","learningBlock2","","","","<div style=""font-size:60px;""> </div>","null","LF","learning/Slide139.JPG","This is a wug:","","",""
"html-keyboard-response","424","633915","0.0-7.0-0.59","LF","98ysefwhzk","1093","615","0","1","0","5f482f05cd5e5d2d1d57c1ff","","null","","","learningBlock2","","","","This is a dep:","null","","","","","",""
"image-keyboard-response","425","634256","0.0-7.0-1.59","LF","98ysefwhzk","1093","615","0","1","0","5f482f05cd5e5d2d1d57c1ff","","null","","","","","","","learning/Slide140.JPG","null","","","","","",""
"html-keyboard-response","426","635267","0.0-7.0-2.59","LF","98ysefwhzk","1093","615","0","1","0","5f482f05cd5e5d2d1d57c1ff","","null","","","learningBlock2","","","","<div style=""font-size:60px;""> </div>","null","LF","learning/Slide140.JPG","This is a dep:","","",""
"html-keyboard-response","427","636271","0.0-7.0-0.60","LF","98ysefwhzk","1093","615","0","1","0","5f482f05cd5e5d2d1d57c1ff","","null","","","learningBlock2","","","","This is a tob:","null","","","","","",""
"image-keyboard-response","428","636611","0.0-7.0-1.60","LF","98ysefwhzk","1093","615","0","1","0","5f482f05cd5e5d2d1d57c1ff","","null","","","","","","","learning/Slide141.JPG","null","","","","","",""
"html-keyboard-response","429","637622","0.0-7.0-2.60","LF","98ysefwhzk","1093","615","0","1","0","5f482f05cd5e5d2d1d57c1ff","","null","","","learningBlock2","","","","<div style=""font-size:60px;""> </div>","null","LF","learning/Slide141.JPG","This is a tob:","","",""
"html-keyboard-response","430","638625","0.0-7.0-0.61","LF","98ysefwhzk","1093","615","0","1","0","5f482f05cd5e5d2d1d57c1ff","","null","","","learningBlock2","","","","This is a wug:","null","","","","","",""
"image-keyboard-response","431","638966","0.0-7.0-1.61","LF","98ysefwhzk","1093","615","0","1","0","5f482f05cd5e5d2d1d57c1ff","","null","","","","","","","learning/Slide142.JPG","null","","","","","",""
"html-keyboard-response","432","639977","0.0-7.0-2.61","LF","98ysefwhzk","1093","615","0","1","0","5f482f05cd5e5d2d1d57c1ff","","null","","","learningBlock2","","","","<div style=""font-size:60px;""> </div>","null","LF","learning/Slide142.JPG","This is a wug:","","",""
"html-keyboard-response","433","640979","0.0-7.0-0.62","LF","98ysefwhzk","1093","615","0","1","0","5f482f05cd5e5d2d1d57c1ff","","null","","","learningBlock2","","","","This is a bim:","null","","","","","",""
"image-keyboard-response","434","641322","0.0-7.0-1.62","LF","98ysefwhzk","1093","615","0","1","0","5f482f05cd5e5d2d1d57c1ff","","null","","","","","","","learning/Slide143.JPG","null","","","","","",""
"html-keyboard-response","435","642333","0.0-7.0-2.62","LF","98ysefwhzk","1093","615","0","1","0","5f482f05cd5e5d2d1d57c1ff","","null","","","learningBlock2","","","","<div style=""font-size:60px;""> </div>","null","LF","learning/Slide143.JPG","This is a bim:","","",""
"html-keyboard-response","436","643337","0.0-7.0-0.63","LF","98ysefwhzk","1093","615","0","1","0","5f482f05cd5e5d2d1d57c1ff","","null","","","learningBlock2","","","","This is a dep:","null","","","","","",""
"image-keyboard-response","437","643677","0.0-7.0-1.63","LF","98ysefwhzk","1093","615","0","1","0","5f482f05cd5e5d2d1d57c1ff","","null","","","","","","","learning/Slide144.JPG","null","","","","","",""
