"trial_type","trial_index","time_elapsed","internal_node_id","condition","subject","screen_width","screen_height","attention","distraction","conscientious","prolificID","success","rt","url","view_history","test_part","final_height_px","final_width_px","scale_factor","stimulus","key_press","learningType","presentedImage","presentedLabel","button_pressed","response","responses"
"pavlovia","0","19","0.0-0.0","LF","t5ex7zbfo2","1920","1080","0","1","0","5fd7ee02c0a4610ea7d258b4","","","","","","","","","","","","","","","",""
"fullscreen","1","17538","0.0-1.0","LF","t5ex7zbfo2","1920","1080","0","1","0","5fd7ee02c0a4610ea7d258b4","true","","","","","","","","","","","","","","",""
"external-html","2","25998","0.0-2.0-0.0","LF","t5ex7zbfo2","1920","1080","0","1","0","5fd7ee02c0a4610ea7d258b4","","8423.84000000311","text/information_english.html","","","","","","","","","","","","",""
"external-html","3","39162","0.0-2.0-1.0","LF","t5ex7zbfo2","1920","1080","0","1","0","5fd7ee02c0a4610ea7d258b4","","13130.360000002838","text/consent_english.html","","","","","","","","","","","","",""
"instructions","4","47811","0.0-3.0","LF","t5ex7zbfo2","1920","1080","0","1","0","5fd7ee02c0a4610ea7d258b4","","NA","","[{""page_index"":0,""viewing_time"":1344.9650000002293},{""page_index"":1,""viewing_time"":7302.835000002233}]","instructions","","","","","","","","","","",""
"resize","5","82245","0.0-4.0","LF","t5ex7zbfo2","1920","1080","0","1","0","5fd7ee02c0a4610ea7d258b4","","","","","","","314","1.9936507936507935","","","","","","","",""
"html-keyboard-response","6","83254","0.0-5.0-0.0","LF","t5ex7zbfo2","1920","1080","0","1","0","5fd7ee02c0a4610ea7d258b4","","null","","","learningBlock1","","","","This is a tob:","null","","","","","",""
"image-keyboard-response","7","83582","0.0-5.0-1.0","LF","t5ex7zbfo2","1920","1080","0","1","0","5fd7ee02c0a4610ea7d258b4","","null","","","","","","","learning/Slide1.JPG","null","","","","","",""
"html-keyboard-response","8","84598","0.0-5.0-2.0","LF","t5ex7zbfo2","1920","1080","0","1","0","5fd7ee02c0a4610ea7d258b4","","null","","","learningBlock1","","","","<div style=""font-size:60px;""> </div>","null","LF","learning/Slide1.JPG","This is a tob:","","",""
"html-keyboard-response","9","85599","0.0-5.0-0.1","LF","t5ex7zbfo2","1920","1080","0","1","0","5fd7ee02c0a4610ea7d258b4","","null","","","learningBlock1","","","","This is a wug:","null","","","","","",""
"image-keyboard-response","10","85926","0.0-5.0-1.1","LF","t5ex7zbfo2","1920","1080","0","1","0","5fd7ee02c0a4610ea7d258b4","","null","","","","","","","learning/Slide2.JPG","null","","","","","",""
"html-keyboard-response","11","86932","0.0-5.0-2.1","LF","t5ex7zbfo2","1920","1080","0","1","0","5fd7ee02c0a4610ea7d258b4","","null","","","learningBlock1","","","","<div style=""font-size:60px;""> </div>","null","LF","learning/Slide2.JPG","This is a wug:","","",""
"html-keyboard-response","12","87945","0.0-5.0-0.2","LF","t5ex7zbfo2","1920","1080","0","1","0","5fd7ee02c0a4610ea7d258b4","","null","","","learningBlock1","","","","This is a bim:","null","","","","","",""
"image-keyboard-response","13","88274","0.0-5.0-1.2","LF","t5ex7zbfo2","1920","1080","0","1","0","5fd7ee02c0a4610ea7d258b4","","null","","","","","","","learning/Slide3.JPG","null","","","","","",""
"html-keyboard-response","14","89275","0.0-5.0-2.2","LF","t5ex7zbfo2","1920","1080","0","1","0","5fd7ee02c0a4610ea7d258b4","","null","","","learningBlock1","","","","<div style=""font-size:60px;""> </div>","null","LF","learning/Slide3.JPG","This is a bim:","","",""
"html-keyboard-response","15","90291","0.0-5.0-0.3","LF","t5ex7zbfo2","1920","1080","0","1","0","5fd7ee02c0a4610ea7d258b4","","null","","","learningBlock1","","","","This is a dep:","null","","","","","",""
"image-keyboard-response","16","90623","0.0-5.0-1.3","LF","t5ex7zbfo2","1920","1080","0","1","0","5fd7ee02c0a4610ea7d258b4","","null","","","","","","","learning/Slide4.JPG","null","","","","","",""
"html-keyboard-response","17","91639","0.0-5.0-2.3","LF","t5ex7zbfo2","1920","1080","0","1","0","5fd7ee02c0a4610ea7d258b4","","null","","","learningBlock1","","","","<div style=""font-size:60px;""> </div>","null","LF","learning/Slide4.JPG","This is a dep:","","",""
"html-keyboard-response","18","92648","0.0-5.0-0.4","LF","t5ex7zbfo2","1920","1080","0","1","0","5fd7ee02c0a4610ea7d258b4","","null","","","learningBlock1","","","","This is a wug:","null","","","","","",""
"image-keyboard-response","19","92975","0.0-5.0-1.4","LF","t5ex7zbfo2","1920","1080","0","1","0","5fd7ee02c0a4610ea7d258b4","","null","","","","","","","learning/Slide5.JPG","null","","","","","",""
"html-keyboard-response","20","93982","0.0-5.0-2.4","LF","t5ex7zbfo2","1920","1080","0","1","0","5fd7ee02c0a4610ea7d258b4","","null","","","learningBlock1","","","","<div style=""font-size:60px;""> </div>","null","LF","learning/Slide5.JPG","This is a wug:","","",""
"html-keyboard-response","21","94996","0.0-5.0-0.5","LF","t5ex7zbfo2","1920","1080","0","1","0","5fd7ee02c0a4610ea7d258b4","","null","","","learningBlock1","","","","This is a dep:","null","","","","","",""
"image-keyboard-response","22","95322","0.0-5.0-1.5","LF","t5ex7zbfo2","1920","1080","0","1","0","5fd7ee02c0a4610ea7d258b4","","null","","","","","","","learning/Slide6.JPG","null","","","","","",""
"html-keyboard-response","23","96329","0.0-5.0-2.5","LF","t5ex7zbfo2","1920","1080","0","1","0","5fd7ee02c0a4610ea7d258b4","","null","","","learningBlock1","","","","<div style=""font-size:60px;""> </div>","null","LF","learning/Slide6.JPG","This is a dep:","","",""
"html-keyboard-response","24","97333","0.0-5.0-0.6","LF","t5ex7zbfo2","1920","1080","0","1","0","5fd7ee02c0a4610ea7d258b4","","null","","","learningBlock1","","","","This is a wug:","null","","","","","",""
"image-keyboard-response","25","97666","0.0-5.0-1.6","LF","t5ex7zbfo2","1920","1080","0","1","0","5fd7ee02c0a4610ea7d258b4","","null","","","","","","","learning/Slide7.JPG","null","","","","","",""
"html-keyboard-response","26","98674","0.0-5.0-2.6","LF","t5ex7zbfo2","1920","1080","0","1","0","5fd7ee02c0a4610ea7d258b4","","null","","","learningBlock1","","","","<div style=""font-size:60px;""> </div>","null","LF","learning/Slide7.JPG","This is a wug:","","",""
"html-keyboard-response","27","99689","0.0-5.0-0.7","LF","t5ex7zbfo2","1920","1080","0","1","0","5fd7ee02c0a4610ea7d258b4","","null","","","learningBlock1","","","","This is a bim:","null","","","","","",""
"image-keyboard-response","28","100035","0.0-5.0-1.7","LF","t5ex7zbfo2","1920","1080","0","1","0","5fd7ee02c0a4610ea7d258b4","","null","","","","","","","learning/Slide8.JPG","null","","","","","",""
"html-keyboard-response","29","101038","0.0-5.0-2.7","LF","t5ex7zbfo2","1920","1080","0","1","0","5fd7ee02c0a4610ea7d258b4","","null","","","learningBlock1","","","","<div style=""font-size:60px;""> </div>","null","LF","learning/Slide8.JPG","This is a bim:","","",""
"html-keyboard-response","30","102049","0.0-5.0-0.8","LF","t5ex7zbfo2","1920","1080","0","1","0","5fd7ee02c0a4610ea7d258b4","","null","","","learningBlock1","","","","This is a wug:","null","","","","","",""
"image-keyboard-response","31","102391","0.0-5.0-1.8","LF","t5ex7zbfo2","1920","1080","0","1","0","5fd7ee02c0a4610ea7d258b4","","null","","","","","","","learning/Slide9.JPG","null","","","","","",""
"html-keyboard-response","32","103405","0.0-5.0-2.8","LF","t5ex7zbfo2","1920","1080","0","1","0","5fd7ee02c0a4610ea7d258b4","","null","","","learningBlock1","","","","<div style=""font-size:60px;""> </div>","null","LF","learning/Slide9.JPG","This is a wug:","","",""
"html-keyboard-response","33","104407","0.0-5.0-0.9","LF","t5ex7zbfo2","1920","1080","0","1","0","5fd7ee02c0a4610ea7d258b4","","null","","","learningBlock1","","","","This is a dep:","null","","","","","",""
"image-keyboard-response","34","104734","0.0-5.0-1.9","LF","t5ex7zbfo2","1920","1080","0","1","0","5fd7ee02c0a4610ea7d258b4","","null","","","","","","","learning/Slide10.JPG","null","","","","","",""
"html-keyboard-response","35","105744","0.0-5.0-2.9","LF","t5ex7zbfo2","1920","1080","0","1","0","5fd7ee02c0a4610ea7d258b4","","null","","","learningBlock1","","","","<div style=""font-size:60px;""> </div>","null","LF","learning/Slide10.JPG","This is a dep:","","",""
"html-keyboard-response","36","106758","0.0-5.0-0.10","LF","t5ex7zbfo2","1920","1080","0","1","0","5fd7ee02c0a4610ea7d258b4","","null","","","learningBlock1","","","","This is a tob:","null","","","","","",""
"image-keyboard-response","37","107089","0.0-5.0-1.10","LF","t5ex7zbfo2","1920","1080","0","1","0","5fd7ee02c0a4610ea7d258b4","","null","","","","","","","learning/Slide11.JPG","null","","","","","",""
"html-keyboard-response","38","108102","0.0-5.0-2.10","LF","t5ex7zbfo2","1920","1080","0","1","0","5fd7ee02c0a4610ea7d258b4","","null","","","learningBlock1","","","","<div style=""font-size:60px;""> </div>","null","LF","learning/Slide11.JPG","This is a tob:","","",""
"html-keyboard-response","39","109111","0.0-5.0-0.11","LF","t5ex7zbfo2","1920","1080","0","1","0","5fd7ee02c0a4610ea7d258b4","","null","","","learningBlock1","","","","This is a dep:","null","","","","","",""
"image-keyboard-response","40","109439","0.0-5.0-1.11","LF","t5ex7zbfo2","1920","1080","0","1","0","5fd7ee02c0a4610ea7d258b4","","null","","","","","","","learning/Slide12.JPG","null","","","","","",""
"html-keyboard-response","41","110442","0.0-5.0-2.11","LF","t5ex7zbfo2","1920","1080","0","1","0","5fd7ee02c0a4610ea7d258b4","","null","","","learningBlock1","","","","<div style=""font-size:60px;""> </div>","null","LF","learning/Slide12.JPG","This is a dep:","","",""
"html-keyboard-response","42","111445","0.0-5.0-0.12","LF","t5ex7zbfo2","1920","1080","0","1","0","5fd7ee02c0a4610ea7d258b4","","null","","","learningBlock1","","","","This is a bim:","null","","","","","",""
"image-keyboard-response","43","111777","0.0-5.0-1.12","LF","t5ex7zbfo2","1920","1080","0","1","0","5fd7ee02c0a4610ea7d258b4","","null","","","","","","","learning/Slide13.JPG","null","","","","","",""
"html-keyboard-response","44","112792","0.0-5.0-2.12","LF","t5ex7zbfo2","1920","1080","0","1","0","5fd7ee02c0a4610ea7d258b4","","null","","","learningBlock1","","","","<div style=""font-size:60px;""> </div>","null","LF","learning/Slide13.JPG","This is a bim:","","",""
"html-keyboard-response","45","113794","0.0-5.0-0.13","LF","t5ex7zbfo2","1920","1080","0","1","0","5fd7ee02c0a4610ea7d258b4","","null","","","learningBlock1","","","","This is a wug:","null","","","","","",""
"image-keyboard-response","46","114126","0.0-5.0-1.13","LF","t5ex7zbfo2","1920","1080","0","1","0","5fd7ee02c0a4610ea7d258b4","","null","","","","","","","learning/Slide14.JPG","null","","","","","",""
"html-keyboard-response","47","115139","0.0-5.0-2.13","LF","t5ex7zbfo2","1920","1080","0","1","0","5fd7ee02c0a4610ea7d258b4","","null","","","learningBlock1","","","","<div style=""font-size:60px;""> </div>","null","LF","learning/Slide14.JPG","This is a wug:","","",""
"html-keyboard-response","48","116144","0.0-5.0-0.14","LF","t5ex7zbfo2","1920","1080","0","1","0","5fd7ee02c0a4610ea7d258b4","","null","","","learningBlock1","","","","This is a tob:","null","","","","","",""
"image-keyboard-response","49","116475","0.0-5.0-1.14","LF","t5ex7zbfo2","1920","1080","0","1","0","5fd7ee02c0a4610ea7d258b4","","null","","","","","","","learning/Slide15.JPG","null","","","","","",""
"html-keyboard-response","50","117486","0.0-5.0-2.14","LF","t5ex7zbfo2","1920","1080","0","1","0","5fd7ee02c0a4610ea7d258b4","","null","","","learningBlock1","","","","<div style=""font-size:60px;""> </div>","null","LF","learning/Slide15.JPG","This is a tob:","","",""
"html-keyboard-response","51","118494","0.0-5.0-0.15","LF","t5ex7zbfo2","1920","1080","0","1","0","5fd7ee02c0a4610ea7d258b4","","null","","","learningBlock1","","","","This is a dep:","null","","","","","",""
"image-keyboard-response","52","118826","0.0-5.0-1.15","LF","t5ex7zbfo2","1920","1080","0","1","0","5fd7ee02c0a4610ea7d258b4","","null","","","","","","","learning/Slide16.JPG","null","","","","","",""
"html-keyboard-response","53","119833","0.0-5.0-2.15","LF","t5ex7zbfo2","1920","1080","0","1","0","5fd7ee02c0a4610ea7d258b4","","null","","","learningBlock1","","","","<div style=""font-size:60px;""> </div>","null","LF","learning/Slide16.JPG","This is a dep:","","",""
"html-keyboard-response","54","120838","0.0-5.0-0.16","LF","t5ex7zbfo2","1920","1080","0","1","0","5fd7ee02c0a4610ea7d258b4","","null","","","learningBlock1","","","","This is a bim:","null","","","","","",""
"image-keyboard-response","55","121171","0.0-5.0-1.16","LF","t5ex7zbfo2","1920","1080","0","1","0","5fd7ee02c0a4610ea7d258b4","","null","","","","","","","learning/Slide17.JPG","null","","","","","",""
"html-keyboard-response","56","122181","0.0-5.0-2.16","LF","t5ex7zbfo2","1920","1080","0","1","0","5fd7ee02c0a4610ea7d258b4","","null","","","learningBlock1","","","","<div style=""font-size:60px;""> </div>","null","LF","learning/Slide17.JPG","This is a bim:","","",""
"html-keyboard-response","57","123195","0.0-5.0-0.17","LF","t5ex7zbfo2","1920","1080","0","1","0","5fd7ee02c0a4610ea7d258b4","","null","","","learningBlock1","","","","This is a tob:","null","","","","","",""
"image-keyboard-response","58","123529","0.0-5.0-1.17","LF","t5ex7zbfo2","1920","1080","0","1","0","5fd7ee02c0a4610ea7d258b4","","null","","","","","","","learning/Slide18.JPG","null","","","","","",""
"html-keyboard-response","59","124540","0.0-5.0-2.17","LF","t5ex7zbfo2","1920","1080","0","1","0","5fd7ee02c0a4610ea7d258b4","","null","","","learningBlock1","","","","<div style=""font-size:60px;""> </div>","null","LF","learning/Slide18.JPG","This is a tob:","","",""
"html-keyboard-response","60","125542","0.0-5.0-0.18","LF","t5ex7zbfo2","1920","1080","0","1","0","5fd7ee02c0a4610ea7d258b4","","null","","","learningBlock1","","","","This is a wug:","null","","","","","",""
"image-keyboard-response","61","125875","0.0-5.0-1.18","LF","t5ex7zbfo2","1920","1080","0","1","0","5fd7ee02c0a4610ea7d258b4","","null","","","","","","","learning/Slide19.JPG","null","","","","","",""
"html-keyboard-response","62","126886","0.0-5.0-2.18","LF","t5ex7zbfo2","1920","1080","0","1","0","5fd7ee02c0a4610ea7d258b4","","null","","","learningBlock1","","","","<div style=""font-size:60px;""> </div>","null","LF","learning/Slide19.JPG","This is a wug:","","",""
"html-keyboard-response","63","127895","0.0-5.0-0.19","LF","t5ex7zbfo2","1920","1080","0","1","0","5fd7ee02c0a4610ea7d258b4","","null","","","learningBlock1","","","","This is a bim:","null","","","","","",""
"image-keyboard-response","64","128228","0.0-5.0-1.19","LF","t5ex7zbfo2","1920","1080","0","1","0","5fd7ee02c0a4610ea7d258b4","","null","","","","","","","learning/Slide20.JPG","null","","","","","",""
"html-keyboard-response","65","129239","0.0-5.0-2.19","LF","t5ex7zbfo2","1920","1080","0","1","0","5fd7ee02c0a4610ea7d258b4","","null","","","learningBlock1","","","","<div style=""font-size:60px;""> </div>","null","LF","learning/Slide20.JPG","This is a bim:","","",""
"html-keyboard-response","66","130252","0.0-5.0-0.20","LF","t5ex7zbfo2","1920","1080","0","1","0","5fd7ee02c0a4610ea7d258b4","","null","","","learningBlock1","","","","This is a dep:","null","","","","","",""
"image-keyboard-response","67","130585","0.0-5.0-1.20","LF","t5ex7zbfo2","1920","1080","0","1","0","5fd7ee02c0a4610ea7d258b4","","null","","","","","","","learning/Slide21.JPG","null","","","","","",""
"html-keyboard-response","68","131587","0.0-5.0-2.20","LF","t5ex7zbfo2","1920","1080","0","1","0","5fd7ee02c0a4610ea7d258b4","","null","","","learningBlock1","","","","<div style=""font-size:60px;""> </div>","null","LF","learning/Slide21.JPG","This is a dep:","","",""
"html-keyboard-response","69","132600","0.0-5.0-0.21","LF","t5ex7zbfo2","1920","1080","0","1","0","5fd7ee02c0a4610ea7d258b4","","null","","","learningBlock1","","","","This is a bim:","null","","","","","",""
"image-keyboard-response","70","132928","0.0-5.0-1.21","LF","t5ex7zbfo2","1920","1080","0","1","0","5fd7ee02c0a4610ea7d258b4","","null","","","","","","","learning/Slide22.JPG","null","","","","","",""
"html-keyboard-response","71","133944","0.0-5.0-2.21","LF","t5ex7zbfo2","1920","1080","0","1","0","5fd7ee02c0a4610ea7d258b4","","null","","","learningBlock1","","","","<div style=""font-size:60px;""> </div>","null","LF","learning/Slide22.JPG","This is a bim:","","",""
"html-keyboard-response","72","134949","0.0-5.0-0.22","LF","t5ex7zbfo2","1920","1080","0","1","0","5fd7ee02c0a4610ea7d258b4","","null","","","learningBlock1","","","","This is a tob:","null","","","","","",""
"image-keyboard-response","73","135282","0.0-5.0-1.22","LF","t5ex7zbfo2","1920","1080","0","1","0","5fd7ee02c0a4610ea7d258b4","","null","","","","","","","learning/Slide23.JPG","null","","","","","",""
"html-keyboard-response","74","136293","0.0-5.0-2.22","LF","t5ex7zbfo2","1920","1080","0","1","0","5fd7ee02c0a4610ea7d258b4","","null","","","learningBlock1","","","","<div style=""font-size:60px;""> </div>","null","LF","learning/Slide23.JPG","This is a tob:","","",""
"html-keyboard-response","75","137304","0.0-5.0-0.23","LF","t5ex7zbfo2","1920","1080","0","1","0","5fd7ee02c0a4610ea7d258b4","","null","","","learningBlock1","","","","This is a wug:","null","","","","","",""
"image-keyboard-response","76","137631","0.0-5.0-1.23","LF","t5ex7zbfo2","1920","1080","0","1","0","5fd7ee02c0a4610ea7d258b4","","null","","","","","","","learning/Slide24.JPG","null","","","","","",""
"html-keyboard-response","77","138640","0.0-5.0-2.23","LF","t5ex7zbfo2","1920","1080","0","1","0","5fd7ee02c0a4610ea7d258b4","","null","","","learningBlock1","","","","<div style=""font-size:60px;""> </div>","null","LF","learning/Slide24.JPG","This is a wug:","","",""
"html-keyboard-response","78","139655","0.0-5.0-0.24","LF","t5ex7zbfo2","1920","1080","0","1","0","5fd7ee02c0a4610ea7d258b4","","null","","","learningBlock1","","","","This is a dep:","null","","","","","",""
"image-keyboard-response","79","139987","0.0-5.0-1.24","LF","t5ex7zbfo2","1920","1080","0","1","0","5fd7ee02c0a4610ea7d258b4","","null","","","","","","","learning/Slide25.JPG","null","","","","","",""
"html-keyboard-response","80","140995","0.0-5.0-2.24","LF","t5ex7zbfo2","1920","1080","0","1","0","5fd7ee02c0a4610ea7d258b4","","null","","","learningBlock1","","","","<div style=""font-size:60px;""> </div>","null","LF","learning/Slide25.JPG","This is a dep:","","",""
"html-keyboard-response","81","142008","0.0-5.0-0.25","LF","t5ex7zbfo2","1920","1080","0","1","0","5fd7ee02c0a4610ea7d258b4","","null","","","learningBlock1","","","","This is a wug:","null","","","","","",""
"image-keyboard-response","82","142345","0.0-5.0-1.25","LF","t5ex7zbfo2","1920","1080","0","1","0","5fd7ee02c0a4610ea7d258b4","","null","","","","","","","learning/Slide26.JPG","null","","","","","",""
"html-keyboard-response","83","143358","0.0-5.0-2.25","LF","t5ex7zbfo2","1920","1080","0","1","0","5fd7ee02c0a4610ea7d258b4","","null","","","learningBlock1","","","","<div style=""font-size:60px;""> </div>","null","LF","learning/Slide26.JPG","This is a wug:","","",""
"html-keyboard-response","84","144372","0.0-5.0-0.26","LF","t5ex7zbfo2","1920","1080","0","1","0","5fd7ee02c0a4610ea7d258b4","","null","","","learningBlock1","","","","This is a bim:","null","","","","","",""
"image-keyboard-response","85","144716","0.0-5.0-1.26","LF","t5ex7zbfo2","1920","1080","0","1","0","5fd7ee02c0a4610ea7d258b4","","null","","","","","","","learning/Slide27.JPG","null","","","","","",""
"html-keyboard-response","86","145720","0.0-5.0-2.26","LF","t5ex7zbfo2","1920","1080","0","1","0","5fd7ee02c0a4610ea7d258b4","","null","","","learningBlock1","","","","<div style=""font-size:60px;""> </div>","null","LF","learning/Slide27.JPG","This is a bim:","","",""
"html-keyboard-response","87","146723","0.0-5.0-0.27","LF","t5ex7zbfo2","1920","1080","0","1","0","5fd7ee02c0a4610ea7d258b4","","null","","","learningBlock1","","","","This is a dep:","null","","","","","",""
"image-keyboard-response","88","147049","0.0-5.0-1.27","LF","t5ex7zbfo2","1920","1080","0","1","0","5fd7ee02c0a4610ea7d258b4","","null","","","","","","","learning/Slide28.JPG","null","","","","","",""
"html-keyboard-response","89","148056","0.0-5.0-2.27","LF","t5ex7zbfo2","1920","1080","0","1","0","5fd7ee02c0a4610ea7d258b4","","null","","","learningBlock1","","","","<div style=""font-size:60px;""> </div>","null","LF","learning/Slide28.JPG","This is a dep:","","",""
"html-keyboard-response","90","149072","0.0-5.0-0.28","LF","t5ex7zbfo2","1920","1080","0","1","0","5fd7ee02c0a4610ea7d258b4","","null","","","learningBlock1","","","","This is a tob:","null","","","","","",""
"image-keyboard-response","91","149405","0.0-5.0-1.28","LF","t5ex7zbfo2","1920","1080","0","1","0","5fd7ee02c0a4610ea7d258b4","","null","","","","","","","learning/Slide29.JPG","null","","","","","",""
"html-keyboard-response","92","150420","0.0-5.0-2.28","LF","t5ex7zbfo2","1920","1080","0","1","0","5fd7ee02c0a4610ea7d258b4","","null","","","learningBlock1","","","","<div style=""font-size:60px;""> </div>","null","LF","learning/Slide29.JPG","This is a tob:","","",""
"html-keyboard-response","93","151434","0.0-5.0-0.29","LF","t5ex7zbfo2","1920","1080","0","1","0","5fd7ee02c0a4610ea7d258b4","","null","","","learningBlock1","","","","This is a dep:","null","","","","","",""
"image-keyboard-response","94","151767","0.0-5.0-1.29","LF","t5ex7zbfo2","1920","1080","0","1","0","5fd7ee02c0a4610ea7d258b4","","null","","","","","","","learning/Slide30.JPG","null","","","","","",""
"html-keyboard-response","95","152773","0.0-5.0-2.29","LF","t5ex7zbfo2","1920","1080","0","1","0","5fd7ee02c0a4610ea7d258b4","","null","","","learningBlock1","","","","<div style=""font-size:60px;""> </div>","null","LF","learning/Slide30.JPG","This is a dep:","","",""
"html-keyboard-response","96","153789","0.0-5.0-0.30","LF","t5ex7zbfo2","1920","1080","0","1","0","5fd7ee02c0a4610ea7d258b4","","null","","","learningBlock1","","","","This is a wug:","null","","","","","",""
"image-keyboard-response","97","154116","0.0-5.0-1.30","LF","t5ex7zbfo2","1920","1080","0","1","0","5fd7ee02c0a4610ea7d258b4","","null","","","","","","","learning/Slide31.JPG","null","","","","","",""
"html-keyboard-response","98","155132","0.0-5.0-2.30","LF","t5ex7zbfo2","1920","1080","0","1","0","5fd7ee02c0a4610ea7d258b4","","null","","","learningBlock1","","","","<div style=""font-size:60px;""> </div>","null","LF","learning/Slide31.JPG","This is a wug:","","",""
"html-keyboard-response","99","156148","0.0-5.0-0.31","LF","t5ex7zbfo2","1920","1080","0","1","0","5fd7ee02c0a4610ea7d258b4","","null","","","learningBlock1","","","","This is a tob:","null","","","","","",""
"image-keyboard-response","100","156491","0.0-5.0-1.31","LF","t5ex7zbfo2","1920","1080","0","1","0","5fd7ee02c0a4610ea7d258b4","","null","","","","","","","learning/Slide32.JPG","null","","","","","",""
"html-keyboard-response","101","157504","0.0-5.0-2.31","LF","t5ex7zbfo2","1920","1080","0","1","0","5fd7ee02c0a4610ea7d258b4","","null","","","learningBlock1","","","","<div style=""font-size:60px;""> </div>","null","LF","learning/Slide32.JPG","This is a tob:","","",""
"html-keyboard-response","102","158505","0.0-5.0-0.32","LF","t5ex7zbfo2","1920","1080","0","1","0","5fd7ee02c0a4610ea7d258b4","","null","","","learningBlock1","","","","This is a bim:","null","","","","","",""
"image-keyboard-response","103","158832","0.0-5.0-1.32","LF","t5ex7zbfo2","1920","1080","0","1","0","5fd7ee02c0a4610ea7d258b4","","null","","","","","","","learning/Slide33.JPG","null","","","","","",""
"html-keyboard-response","104","159834","0.0-5.0-2.32","LF","t5ex7zbfo2","1920","1080","0","1","0","5fd7ee02c0a4610ea7d258b4","","null","","","learningBlock1","","","","<div style=""font-size:60px;""> </div>","null","LF","learning/Slide33.JPG","This is a bim:","","",""
"html-keyboard-response","105","160840","0.0-5.0-0.33","LF","t5ex7zbfo2","1920","1080","0","1","0","5fd7ee02c0a4610ea7d258b4","","null","","","learningBlock1","","","","This is a tob:","null","","","","","",""
"image-keyboard-response","106","161180","0.0-5.0-1.33","LF","t5ex7zbfo2","1920","1080","0","1","0","5fd7ee02c0a4610ea7d258b4","","null","","","","","","","learning/Slide34.JPG","null","","","","","",""
"html-keyboard-response","107","162191","0.0-5.0-2.33","LF","t5ex7zbfo2","1920","1080","0","1","0","5fd7ee02c0a4610ea7d258b4","","null","","","learningBlock1","","","","<div style=""font-size:60px;""> </div>","null","LF","learning/Slide34.JPG","This is a tob:","","",""
"html-keyboard-response","108","163197","0.0-5.0-0.34","LF","t5ex7zbfo2","1920","1080","0","1","0","5fd7ee02c0a4610ea7d258b4","","null","","","learningBlock1","","","","This is a bim:","null","","","","","",""
"image-keyboard-response","109","163529","0.0-5.0-1.34","LF","t5ex7zbfo2","1920","1080","0","1","0","5fd7ee02c0a4610ea7d258b4","","null","","","","","","","learning/Slide35.JPG","null","","","","","",""
"html-keyboard-response","110","164531","0.0-5.0-2.34","LF","t5ex7zbfo2","1920","1080","0","1","0","5fd7ee02c0a4610ea7d258b4","","null","","","learningBlock1","","","","<div style=""font-size:60px;""> </div>","null","LF","learning/Slide35.JPG","This is a bim:","","",""
"html-keyboard-response","111","165545","0.0-5.0-0.35","LF","t5ex7zbfo2","1920","1080","0","1","0","5fd7ee02c0a4610ea7d258b4","","null","","","learningBlock1","","","","This is a dep:","null","","","","","",""
"image-keyboard-response","112","165871","0.0-5.0-1.35","LF","t5ex7zbfo2","1920","1080","0","1","0","5fd7ee02c0a4610ea7d258b4","","null","","","","","","","learning/Slide36.JPG","null","","","","","",""
"html-keyboard-response","113","166878","0.0-5.0-2.35","LF","t5ex7zbfo2","1920","1080","0","1","0","5fd7ee02c0a4610ea7d258b4","","null","","","learningBlock1","","","","<div style=""font-size:60px;""> </div>","null","LF","learning/Slide36.JPG","This is a dep:","","",""
"html-keyboard-response","114","167881","0.0-5.0-0.36","LF","t5ex7zbfo2","1920","1080","0","1","0","5fd7ee02c0a4610ea7d258b4","","null","","","learningBlock1","","","","This is a tob:","null","","","","","",""
"image-keyboard-response","115","168209","0.0-5.0-1.36","LF","t5ex7zbfo2","1920","1080","0","1","0","5fd7ee02c0a4610ea7d258b4","","null","","","","","","","learning/Slide37.JPG","null","","","","","",""
"html-keyboard-response","116","169224","0.0-5.0-2.36","LF","t5ex7zbfo2","1920","1080","0","1","0","5fd7ee02c0a4610ea7d258b4","","null","","","learningBlock1","","","","<div style=""font-size:60px;""> </div>","null","LF","learning/Slide37.JPG","This is a tob:","","",""
"html-keyboard-response","117","170238","0.0-5.0-0.37","LF","t5ex7zbfo2","1920","1080","0","1","0","5fd7ee02c0a4610ea7d258b4","","null","","","learningBlock1","","","","This is a wug:","null","","","","","",""
"image-keyboard-response","118","170588","0.0-5.0-1.37","LF","t5ex7zbfo2","1920","1080","0","1","0","5fd7ee02c0a4610ea7d258b4","","null","","","","","","","learning/Slide38.JPG","null","","","","","",""
"html-keyboard-response","119","171598","0.0-5.0-2.37","LF","t5ex7zbfo2","1920","1080","0","1","0","5fd7ee02c0a4610ea7d258b4","","null","","","learningBlock1","","","","<div style=""font-size:60px;""> </div>","null","LF","learning/Slide38.JPG","This is a wug:","","",""
"html-keyboard-response","120","172613","0.0-5.0-0.38","LF","t5ex7zbfo2","1920","1080","0","1","0","5fd7ee02c0a4610ea7d258b4","","null","","","learningBlock1","","","","This is a bim:","null","","","","","",""
"image-keyboard-response","121","172953","0.0-5.0-1.38","LF","t5ex7zbfo2","1920","1080","0","1","0","5fd7ee02c0a4610ea7d258b4","","null","","","","","","","learning/Slide39.JPG","null","","","","","",""
"html-keyboard-response","122","173959","0.0-5.0-2.38","LF","t5ex7zbfo2","1920","1080","0","1","0","5fd7ee02c0a4610ea7d258b4","","null","","","learningBlock1","","","","<div style=""font-size:60px;""> </div>","null","LF","learning/Slide39.JPG","This is a bim:","","",""
"html-keyboard-response","123","174962","0.0-5.0-0.39","LF","t5ex7zbfo2","1920","1080","0","1","0","5fd7ee02c0a4610ea7d258b4","","null","","","learningBlock1","","","","This is a tob:","null","","","","","",""
"image-keyboard-response","124","175289","0.0-5.0-1.39","LF","t5ex7zbfo2","1920","1080","0","1","0","5fd7ee02c0a4610ea7d258b4","","null","","","","","","","learning/Slide40.JPG","null","","","","","",""
"html-keyboard-response","125","176293","0.0-5.0-2.39","LF","t5ex7zbfo2","1920","1080","0","1","0","5fd7ee02c0a4610ea7d258b4","","null","","","learningBlock1","","","","<div style=""font-size:60px;""> </div>","null","LF","learning/Slide40.JPG","This is a tob:","","",""
"html-keyboard-response","126","177299","0.0-5.0-0.40","LF","t5ex7zbfo2","1920","1080","0","1","0","5fd7ee02c0a4610ea7d258b4","","null","","","learningBlock1","","","","This is a bim:","null","","","","","",""
"image-keyboard-response","127","177632","0.0-5.0-1.40","LF","t5ex7zbfo2","1920","1080","0","1","0","5fd7ee02c0a4610ea7d258b4","","null","","","","","","","learning/Slide41.JPG","null","","","","","",""
"html-keyboard-response","128","178644","0.0-5.0-2.40","LF","t5ex7zbfo2","1920","1080","0","1","0","5fd7ee02c0a4610ea7d258b4","","null","","","learningBlock1","","","","<div style=""font-size:60px;""> </div>","null","LF","learning/Slide41.JPG","This is a bim:","","",""
"html-keyboard-response","129","179649","0.0-5.0-0.41","LF","t5ex7zbfo2","1920","1080","0","1","0","5fd7ee02c0a4610ea7d258b4","","null","","","learningBlock1","","","","This is a dep:","null","","","","","",""
"image-keyboard-response","130","179977","0.0-5.0-1.41","LF","t5ex7zbfo2","1920","1080","0","1","0","5fd7ee02c0a4610ea7d258b4","","null","","","","","","","learning/Slide42.JPG","null","","","","","",""
"html-keyboard-response","131","180983","0.0-5.0-2.41","LF","t5ex7zbfo2","1920","1080","0","1","0","5fd7ee02c0a4610ea7d258b4","","null","","","learningBlock1","","","","<div style=""font-size:60px;""> </div>","null","LF","learning/Slide42.JPG","This is a dep:","","",""
"html-keyboard-response","132","181995","0.0-5.0-0.42","LF","t5ex7zbfo2","1920","1080","0","1","0","5fd7ee02c0a4610ea7d258b4","","null","","","learningBlock1","","","","This is a wug:","null","","","","","",""
"image-keyboard-response","133","182322","0.0-5.0-1.42","LF","t5ex7zbfo2","1920","1080","0","1","0","5fd7ee02c0a4610ea7d258b4","","null","","","","","","","learning/Slide43.JPG","null","","","","","",""
"html-keyboard-response","134","183328","0.0-5.0-2.42","LF","t5ex7zbfo2","1920","1080","0","1","0","5fd7ee02c0a4610ea7d258b4","","null","","","learningBlock1","","","","<div style=""font-size:60px;""> </div>","null","LF","learning/Slide43.JPG","This is a wug:","","",""
"html-keyboard-response","135","184334","0.0-5.0-0.43","LF","t5ex7zbfo2","1920","1080","0","1","0","5fd7ee02c0a4610ea7d258b4","","null","","","learningBlock1","","","","This is a bim:","null","","","","","",""
"image-keyboard-response","136","184678","0.0-5.0-1.43","LF","t5ex7zbfo2","1920","1080","0","1","0","5fd7ee02c0a4610ea7d258b4","","null","","","","","","","learning/Slide44.JPG","null","","","","","",""
"html-keyboard-response","137","185693","0.0-5.0-2.43","LF","t5ex7zbfo2","1920","1080","0","1","0","5fd7ee02c0a4610ea7d258b4","","null","","","learningBlock1","","","","<div style=""font-size:60px;""> </div>","null","LF","learning/Slide44.JPG","This is a bim:","","",""
"html-keyboard-response","138","186708","0.0-5.0-0.44","LF","t5ex7zbfo2","1920","1080","0","1","0","5fd7ee02c0a4610ea7d258b4","","null","","","learningBlock1","","","","This is a wug:","null","","","","","",""
"image-keyboard-response","139","187042","0.0-5.0-1.44","LF","t5ex7zbfo2","1920","1080","0","1","0","5fd7ee02c0a4610ea7d258b4","","null","","","","","","","learning/Slide45.JPG","null","","","","","",""
"html-keyboard-response","140","188054","0.0-5.0-2.44","LF","t5ex7zbfo2","1920","1080","0","1","0","5fd7ee02c0a4610ea7d258b4","","null","","","learningBlock1","","","","<div style=""font-size:60px;""> </div>","null","LF","learning/Slide45.JPG","This is a wug:","","",""
"html-keyboard-response","141","189056","0.0-5.0-0.45","LF","t5ex7zbfo2","1920","1080","0","1","0","5fd7ee02c0a4610ea7d258b4","","null","","","learningBlock1","","","","This is a dep:","null","","","","","",""
"image-keyboard-response","142","189383","0.0-5.0-1.45","LF","t5ex7zbfo2","1920","1080","0","1","0","5fd7ee02c0a4610ea7d258b4","","null","","","","","","","learning/Slide46.JPG","null","","","","","",""
"html-keyboard-response","143","190389","0.0-5.0-2.45","LF","t5ex7zbfo2","1920","1080","0","1","0","5fd7ee02c0a4610ea7d258b4","","null","","","learningBlock1","","","","<div style=""font-size:60px;""> </div>","null","LF","learning/Slide46.JPG","This is a dep:","","",""
"html-keyboard-response","144","191399","0.0-5.0-0.46","LF","t5ex7zbfo2","1920","1080","0","1","0","5fd7ee02c0a4610ea7d258b4","","null","","","learningBlock1","","","","This is a tob:","null","","","","","",""
"image-keyboard-response","145","191726","0.0-5.0-1.46","LF","t5ex7zbfo2","1920","1080","0","1","0","5fd7ee02c0a4610ea7d258b4","","null","","","","","","","learning/Slide47.JPG","null","","","","","",""
"html-keyboard-response","146","192743","0.0-5.0-2.46","LF","t5ex7zbfo2","1920","1080","0","1","0","5fd7ee02c0a4610ea7d258b4","","null","","","learningBlock1","","","","<div style=""font-size:60px;""> </div>","null","LF","learning/Slide47.JPG","This is a tob:","","",""
"html-keyboard-response","147","193749","0.0-5.0-0.47","LF","t5ex7zbfo2","1920","1080","0","1","0","5fd7ee02c0a4610ea7d258b4","","null","","","learningBlock1","","","","This is a bim:","null","","","","","",""
"image-keyboard-response","148","194077","0.0-5.0-1.47","LF","t5ex7zbfo2","1920","1080","0","1","0","5fd7ee02c0a4610ea7d258b4","","null","","","","","","","learning/Slide48.JPG","null","","","","","",""
"html-keyboard-response","149","195083","0.0-5.0-2.47","LF","t5ex7zbfo2","1920","1080","0","1","0","5fd7ee02c0a4610ea7d258b4","","null","","","learningBlock1","","","","<div style=""font-size:60px;""> </div>","null","LF","learning/Slide48.JPG","This is a bim:","","",""
"html-keyboard-response","150","196099","0.0-5.0-0.48","LF","t5ex7zbfo2","1920","1080","0","1","0","5fd7ee02c0a4610ea7d258b4","","null","","","learningBlock1","","","","This is a dep:","null","","","","","",""
"image-keyboard-response","151","196427","0.0-5.0-1.48","LF","t5ex7zbfo2","1920","1080","0","1","0","5fd7ee02c0a4610ea7d258b4","","null","","","","","","","learning/Slide49.JPG","null","","","","","",""
"html-keyboard-response","152","197442","0.0-5.0-2.48","LF","t5ex7zbfo2","1920","1080","0","1","0","5fd7ee02c0a4610ea7d258b4","","null","","","learningBlock1","","","","<div style=""font-size:60px;""> </div>","null","LF","learning/Slide49.JPG","This is a dep:","","",""
"html-keyboard-response","153","198456","0.0-5.0-0.49","LF","t5ex7zbfo2","1920","1080","0","1","0","5fd7ee02c0a4610ea7d258b4","","null","","","learningBlock1","","","","This is a tob:","null","","","","","",""
"image-keyboard-response","154","198797","0.0-5.0-1.49","LF","t5ex7zbfo2","1920","1080","0","1","0","5fd7ee02c0a4610ea7d258b4","","null","","","","","","","learning/Slide50.JPG","null","","","","","",""
"html-keyboard-response","155","199811","0.0-5.0-2.49","LF","t5ex7zbfo2","1920","1080","0","1","0","5fd7ee02c0a4610ea7d258b4","","null","","","learningBlock1","","","","<div style=""font-size:60px;""> </div>","null","LF","learning/Slide50.JPG","This is a tob:","","",""
"html-keyboard-response","156","200825","0.0-5.0-0.50","LF","t5ex7zbfo2","1920","1080","0","1","0","5fd7ee02c0a4610ea7d258b4","","null","","","learningBlock1","","","","This is a bim:","null","","","","","",""
"image-keyboard-response","157","201156","0.0-5.0-1.50","LF","t5ex7zbfo2","1920","1080","0","1","0","5fd7ee02c0a4610ea7d258b4","","null","","","","","","","learning/Slide51.JPG","null","","","","","",""
"html-keyboard-response","158","202169","0.0-5.0-2.50","LF","t5ex7zbfo2","1920","1080","0","1","0","5fd7ee02c0a4610ea7d258b4","","null","","","learningBlock1","","","","<div style=""font-size:60px;""> </div>","null","LF","learning/Slide51.JPG","This is a bim:","","",""
"html-keyboard-response","159","203183","0.0-5.0-0.51","LF","t5ex7zbfo2","1920","1080","0","1","0","5fd7ee02c0a4610ea7d258b4","","null","","","learningBlock1","","","","This is a wug:","null","","","","","",""
"image-keyboard-response","160","203525","0.0-5.0-1.51","LF","t5ex7zbfo2","1920","1080","0","1","0","5fd7ee02c0a4610ea7d258b4","","null","","","","","","","learning/Slide52.JPG","null","","","","","",""
"html-keyboard-response","161","204539","0.0-5.0-2.51","LF","t5ex7zbfo2","1920","1080","0","1","0","5fd7ee02c0a4610ea7d258b4","","null","","","learningBlock1","","","","<div style=""font-size:60px;""> </div>","null","LF","learning/Slide52.JPG","This is a wug:","","",""
"html-keyboard-response","162","205555","0.0-5.0-0.52","LF","t5ex7zbfo2","1920","1080","0","1","0","5fd7ee02c0a4610ea7d258b4","","null","","","learningBlock1","","","","This is a tob:","null","","","","","",""
"image-keyboard-response","163","205902","0.0-5.0-1.52","LF","t5ex7zbfo2","1920","1080","0","1","0","5fd7ee02c0a4610ea7d258b4","","null","","","","","","","learning/Slide53.JPG","null","","","","","",""
"html-keyboard-response","164","206912","0.0-5.0-2.52","LF","t5ex7zbfo2","1920","1080","0","1","0","5fd7ee02c0a4610ea7d258b4","","null","","","learningBlock1","","","","<div style=""font-size:60px;""> </div>","null","LF","learning/Slide53.JPG","This is a tob:","","",""
"html-keyboard-response","165","207921","0.0-5.0-0.53","LF","t5ex7zbfo2","1920","1080","0","1","0","5fd7ee02c0a4610ea7d258b4","","null","","","learningBlock1","","","","This is a dep:","null","","","","","",""
"image-keyboard-response","166","208248","0.0-5.0-1.53","LF","t5ex7zbfo2","1920","1080","0","1","0","5fd7ee02c0a4610ea7d258b4","","null","","","","","","","learning/Slide54.JPG","null","","","","","",""
"html-keyboard-response","167","209253","0.0-5.0-2.53","LF","t5ex7zbfo2","1920","1080","0","1","0","5fd7ee02c0a4610ea7d258b4","","null","","","learningBlock1","","","","<div style=""font-size:60px;""> </div>","null","LF","learning/Slide54.JPG","This is a dep:","","",""
"html-keyboard-response","168","210262","0.0-5.0-0.54","LF","t5ex7zbfo2","1920","1080","0","1","0","5fd7ee02c0a4610ea7d258b4","","null","","","learningBlock1","","","","This is a bim:","null","","","","","",""
"image-keyboard-response","169","210590","0.0-5.0-1.54","LF","t5ex7zbfo2","1920","1080","0","1","0","5fd7ee02c0a4610ea7d258b4","","null","","","","","","","learning/Slide55.JPG","null","","","","","",""
"html-keyboard-response","170","211591","0.0-5.0-2.54","LF","t5ex7zbfo2","1920","1080","0","1","0","5fd7ee02c0a4610ea7d258b4","","null","","","learningBlock1","","","","<div style=""font-size:60px;""> </div>","null","LF","learning/Slide55.JPG","This is a bim:","","",""
"html-keyboard-response","171","212596","0.0-5.0-0.55","LF","t5ex7zbfo2","1920","1080","0","1","0","5fd7ee02c0a4610ea7d258b4","","null","","","learningBlock1","","","","This is a tob:","null","","","","","",""
"image-keyboard-response","172","212929","0.0-5.0-1.55","LF","t5ex7zbfo2","1920","1080","0","1","0","5fd7ee02c0a4610ea7d258b4","","null","","","","","","","learning/Slide56.JPG","null","","","","","",""
"html-keyboard-response","173","213931","0.0-5.0-2.55","LF","t5ex7zbfo2","1920","1080","0","1","0","5fd7ee02c0a4610ea7d258b4","","null","","","learningBlock1","","","","<div style=""font-size:60px;""> </div>","null","LF","learning/Slide56.JPG","This is a tob:","","",""
"html-keyboard-response","174","214946","0.0-5.0-0.56","LF","t5ex7zbfo2","1920","1080","0","1","0","5fd7ee02c0a4610ea7d258b4","","null","","","learningBlock1","","","","This is a dep:","null","","","","","",""
"image-keyboard-response","175","215273","0.0-5.0-1.56","LF","t5ex7zbfo2","1920","1080","0","1","0","5fd7ee02c0a4610ea7d258b4","","null","","","","","","","learning/Slide57.JPG","null","","","","","",""
"html-keyboard-response","176","216285","0.0-5.0-2.56","LF","t5ex7zbfo2","1920","1080","0","1","0","5fd7ee02c0a4610ea7d258b4","","null","","","learningBlock1","","","","<div style=""font-size:60px;""> </div>","null","LF","learning/Slide57.JPG","This is a dep:","","",""
"html-keyboard-response","177","217287","0.0-5.0-0.57","LF","t5ex7zbfo2","1920","1080","0","1","0","5fd7ee02c0a4610ea7d258b4","","null","","","learningBlock1","","","","This is a wug:","null","","","","","",""
"image-keyboard-response","178","217614","0.0-5.0-1.57","LF","t5ex7zbfo2","1920","1080","0","1","0","5fd7ee02c0a4610ea7d258b4","","null","","","","","","","learning/Slide58.JPG","null","","","","","",""
"html-keyboard-response","179","218626","0.0-5.0-2.57","LF","t5ex7zbfo2","1920","1080","0","1","0","5fd7ee02c0a4610ea7d258b4","","null","","","learningBlock1","","","","<div style=""font-size:60px;""> </div>","null","LF","learning/Slide58.JPG","This is a wug:","","",""
"html-keyboard-response","180","219642","0.0-5.0-0.58","LF","t5ex7zbfo2","1920","1080","0","1","0","5fd7ee02c0a4610ea7d258b4","","null","","","learningBlock1","","","","This is a dep:","null","","","","","",""
"image-keyboard-response","181","219975","0.0-5.0-1.58","LF","t5ex7zbfo2","1920","1080","0","1","0","5fd7ee02c0a4610ea7d258b4","","null","","","","","","","learning/Slide59.JPG","null","","","","","",""
"html-keyboard-response","182","220988","0.0-5.0-2.58","LF","t5ex7zbfo2","1920","1080","0","1","0","5fd7ee02c0a4610ea7d258b4","","null","","","learningBlock1","","","","<div style=""font-size:60px;""> </div>","null","LF","learning/Slide59.JPG","This is a dep:","","",""
"html-keyboard-response","183","221999","0.0-5.0-0.59","LF","t5ex7zbfo2","1920","1080","0","1","0","5fd7ee02c0a4610ea7d258b4","","null","","","learningBlock1","","","","This is a wug:","null","","","","","",""
"image-keyboard-response","184","222326","0.0-5.0-1.59","LF","t5ex7zbfo2","1920","1080","0","1","0","5fd7ee02c0a4610ea7d258b4","","null","","","","","","","learning/Slide60.JPG","null","","","","","",""
"html-keyboard-response","185","223342","0.0-5.0-2.59","LF","t5ex7zbfo2","1920","1080","0","1","0","5fd7ee02c0a4610ea7d258b4","","null","","","learningBlock1","","","","<div style=""font-size:60px;""> </div>","null","LF","learning/Slide60.JPG","This is a wug:","","",""
"html-keyboard-response","186","224344","0.0-5.0-0.60","LF","t5ex7zbfo2","1920","1080","0","1","0","5fd7ee02c0a4610ea7d258b4","","null","","","learningBlock1","","","","This is a bim:","null","","","","","",""
"image-keyboard-response","187","224687","0.0-5.0-1.60","LF","t5ex7zbfo2","1920","1080","0","1","0","5fd7ee02c0a4610ea7d258b4","","null","","","","","","","learning/Slide61.JPG","null","","","","","",""
"html-keyboard-response","188","225696","0.0-5.0-2.60","LF","t5ex7zbfo2","1920","1080","0","1","0","5fd7ee02c0a4610ea7d258b4","","null","","","learningBlock1","","","","<div style=""font-size:60px;""> </div>","null","LF","learning/Slide61.JPG","This is a bim:","","",""
"html-keyboard-response","189","226697","0.0-5.0-0.61","LF","t5ex7zbfo2","1920","1080","0","1","0","5fd7ee02c0a4610ea7d258b4","","null","","","learningBlock1","","","","This is a dep:","null","","","","","",""
"image-keyboard-response","190","227030","0.0-5.0-1.61","LF","t5ex7zbfo2","1920","1080","0","1","0","5fd7ee02c0a4610ea7d258b4","","null","","","","","","","learning/Slide62.JPG","null","","","","","",""
"html-keyboard-response","191","228044","0.0-5.0-2.61","LF","t5ex7zbfo2","1920","1080","0","1","0","5fd7ee02c0a4610ea7d258b4","","null","","","learningBlock1","","","","<div style=""font-size:60px;""> </div>","null","LF","learning/Slide62.JPG","This is a dep:","","",""
"html-keyboard-response","192","229051","0.0-5.0-0.62","LF","t5ex7zbfo2","1920","1080","0","1","0","5fd7ee02c0a4610ea7d258b4","","null","","","learningBlock1","","","","This is a bim:","null","","","","","",""
"image-keyboard-response","193","229381","0.0-5.0-1.62","LF","t5ex7zbfo2","1920","1080","0","1","0","5fd7ee02c0a4610ea7d258b4","","null","","","","","","","learning/Slide63.JPG","null","","","","","",""
"html-keyboard-response","194","230396","0.0-5.0-2.62","LF","t5ex7zbfo2","1920","1080","0","1","0","5fd7ee02c0a4610ea7d258b4","","null","","","learningBlock1","","","","<div style=""font-size:60px;""> </div>","null","LF","learning/Slide63.JPG","This is a bim:","","",""
"html-keyboard-response","195","231410","0.0-5.0-0.63","LF","t5ex7zbfo2","1920","1080","0","1","0","5fd7ee02c0a4610ea7d258b4","","null","","","learningBlock1","","","","This is a tob:","null","","","","","",""
"image-keyboard-response","196","231741","0.0-5.0-1.63","LF","t5ex7zbfo2","1920","1080","0","1","0","5fd7ee02c0a4610ea7d258b4","","null","","","","","","","learning/Slide64.JPG","null","","","","","",""
"html-keyboard-response","197","232752","0.0-5.0-2.63","LF","t5ex7zbfo2","1920","1080","0","1","0","5fd7ee02c0a4610ea7d258b4","","null","","","learningBlock1","","","","<div style=""font-size:60px;""> </div>","null","LF","learning/Slide64.JPG","This is a tob:","","",""
"html-keyboard-response","198","233753","0.0-5.0-0.64","LF","t5ex7zbfo2","1920","1080","0","1","0","5fd7ee02c0a4610ea7d258b4","","null","","","learningBlock1","","","","This is a wug:","null","","","","","",""
"image-keyboard-response","199","234088","0.0-5.0-1.64","LF","t5ex7zbfo2","1920","1080","0","1","0","5fd7ee02c0a4610ea7d258b4","","null","","","","","","","learning/Slide65.JPG","null","","","","","",""
"html-keyboard-response","200","235098","0.0-5.0-2.64","LF","t5ex7zbfo2","1920","1080","0","1","0","5fd7ee02c0a4610ea7d258b4","","null","","","learningBlock1","","","","<div style=""font-size:60px;""> </div>","null","LF","learning/Slide65.JPG","This is a wug:","","",""
"html-keyboard-response","201","236111","0.0-5.0-0.65","LF","t5ex7zbfo2","1920","1080","0","1","0","5fd7ee02c0a4610ea7d258b4","","null","","","learningBlock1","","","","This is a dep:","null","","","","","",""
"image-keyboard-response","202","236444","0.0-5.0-1.65","LF","t5ex7zbfo2","1920","1080","0","1","0","5fd7ee02c0a4610ea7d258b4","","null","","","","","","","learning/Slide66.JPG","null","","","","","",""
"html-keyboard-response","203","237455","0.0-5.0-2.65","LF","t5ex7zbfo2","1920","1080","0","1","0","5fd7ee02c0a4610ea7d258b4","","null","","","learningBlock1","","","","<div style=""font-size:60px;""> </div>","null","LF","learning/Slide66.JPG","This is a dep:","","",""
"html-keyboard-response","204","238470","0.0-5.0-0.66","LF","t5ex7zbfo2","1920","1080","0","1","0","5fd7ee02c0a4610ea7d258b4","","null","","","learningBlock1","","","","This is a tob:","null","","","","","",""
"image-keyboard-response","205","238799","0.0-5.0-1.66","LF","t5ex7zbfo2","1920","1080","0","1","0","5fd7ee02c0a4610ea7d258b4","","null","","","","","","","learning/Slide67.JPG","null","","","","","",""
"html-keyboard-response","206","239806","0.0-5.0-2.66","LF","t5ex7zbfo2","1920","1080","0","1","0","5fd7ee02c0a4610ea7d258b4","","null","","","learningBlock1","","","","<div style=""font-size:60px;""> </div>","null","LF","learning/Slide67.JPG","This is a tob:","","",""
"html-keyboard-response","207","240812","0.0-5.0-0.67","LF","t5ex7zbfo2","1920","1080","0","1","0","5fd7ee02c0a4610ea7d258b4","","null","","","learningBlock1","","","","This is a wug:","null","","","","","",""
"image-keyboard-response","208","241159","0.0-5.0-1.67","LF","t5ex7zbfo2","1920","1080","0","1","0","5fd7ee02c0a4610ea7d258b4","","null","","","","","","","learning/Slide68.JPG","null","","","","","",""
"html-keyboard-response","209","242167","0.0-5.0-2.67","LF","t5ex7zbfo2","1920","1080","0","1","0","5fd7ee02c0a4610ea7d258b4","","null","","","learningBlock1","","","","<div style=""font-size:60px;""> </div>","null","LF","learning/Slide68.JPG","This is a wug:","","",""
"html-keyboard-response","210","243173","0.0-5.0-0.68","LF","t5ex7zbfo2","1920","1080","0","1","0","5fd7ee02c0a4610ea7d258b4","","null","","","learningBlock1","","","","This is a tob:","null","","","","","",""
"image-keyboard-response","211","243500","0.0-5.0-1.68","LF","t5ex7zbfo2","1920","1080","0","1","0","5fd7ee02c0a4610ea7d258b4","","null","","","","","","","learning/Slide69.JPG","null","","","","","",""
"html-keyboard-response","212","244506","0.0-5.0-2.68","LF","t5ex7zbfo2","1920","1080","0","1","0","5fd7ee02c0a4610ea7d258b4","","null","","","learningBlock1","","","","<div style=""font-size:60px;""> </div>","null","LF","learning/Slide69.JPG","This is a tob:","","",""
"html-keyboard-response","213","245512","0.0-5.0-0.69","LF","t5ex7zbfo2","1920","1080","0","1","0","5fd7ee02c0a4610ea7d258b4","","null","","","learningBlock1","","","","This is a dep:","null","","","","","",""
"image-keyboard-response","214","245839","0.0-5.0-1.69","LF","t5ex7zbfo2","1920","1080","0","1","0","5fd7ee02c0a4610ea7d258b4","","null","","","","","","","learning/Slide70.JPG","null","","","","","",""
"html-keyboard-response","215","246852","0.0-5.0-2.69","LF","t5ex7zbfo2","1920","1080","0","1","0","5fd7ee02c0a4610ea7d258b4","","null","","","learningBlock1","","","","<div style=""font-size:60px;""> </div>","null","LF","learning/Slide70.JPG","This is a dep:","","",""
"html-keyboard-response","216","247867","0.0-5.0-0.70","LF","t5ex7zbfo2","1920","1080","0","1","0","5fd7ee02c0a4610ea7d258b4","","null","","","learningBlock1","","","","This is a wug:","null","","","","","",""
"image-keyboard-response","217","248212","0.0-5.0-1.70","LF","t5ex7zbfo2","1920","1080","0","1","0","5fd7ee02c0a4610ea7d258b4","","null","","","","","","","learning/Slide71.JPG","null","","","","","",""
"html-keyboard-response","218","249225","0.0-5.0-2.70","LF","t5ex7zbfo2","1920","1080","0","1","0","5fd7ee02c0a4610ea7d258b4","","null","","","learningBlock1","","","","<div style=""font-size:60px;""> </div>","null","LF","learning/Slide71.JPG","This is a wug:","","",""
"html-keyboard-response","219","250241","0.0-5.0-0.71","LF","t5ex7zbfo2","1920","1080","0","1","0","5fd7ee02c0a4610ea7d258b4","","null","","","learningBlock1","","","","This is a bim:","null","","","","","",""
"image-keyboard-response","220","250569","0.0-5.0-1.71","LF","t5ex7zbfo2","1920","1080","0","1","0","5fd7ee02c0a4610ea7d258b4","","null","","","","","","","learning/Slide72.JPG","null","","","","","",""
"html-keyboard-response","221","251574","0.0-5.0-2.71","LF","t5ex7zbfo2","1920","1080","0","1","0","5fd7ee02c0a4610ea7d258b4","","null","","","learningBlock1","","","","<div style=""font-size:60px;""> </div>","null","LF","learning/Slide72.JPG","This is a bim:","","",""
"html-keyboard-response","222","252589","0.0-5.0-0.72","LF","t5ex7zbfo2","1920","1080","0","1","0","5fd7ee02c0a4610ea7d258b4","","null","","","learningBlock1","","","","This is a wug:","null","","","","","",""
"image-keyboard-response","223","252915","0.0-5.0-1.72","LF","t5ex7zbfo2","1920","1080","0","1","0","5fd7ee02c0a4610ea7d258b4","","null","","","","","","","learning/Slide73.JPG","null","","","","","",""
"html-keyboard-response","224","253918","0.0-5.0-2.72","LF","t5ex7zbfo2","1920","1080","0","1","0","5fd7ee02c0a4610ea7d258b4","","null","","","learningBlock1","","","","<div style=""font-size:60px;""> </div>","null","LF","learning/Slide73.JPG","This is a wug:","","",""
"html-keyboard-response","225","254931","0.0-5.0-0.73","LF","t5ex7zbfo2","1920","1080","0","1","0","5fd7ee02c0a4610ea7d258b4","","null","","","learningBlock1","","","","This is a dep:","null","","","","","",""
"image-keyboard-response","226","255263","0.0-5.0-1.73","LF","t5ex7zbfo2","1920","1080","0","1","0","5fd7ee02c0a4610ea7d258b4","","null","","","","","","","learning/Slide74.JPG","null","","","","","",""
"html-keyboard-response","227","256268","0.0-5.0-2.73","LF","t5ex7zbfo2","1920","1080","0","1","0","5fd7ee02c0a4610ea7d258b4","","null","","","learningBlock1","","","","<div style=""font-size:60px;""> </div>","null","LF","learning/Slide74.JPG","This is a dep:","","",""
"html-keyboard-response","228","257279","0.0-5.0-0.74","LF","t5ex7zbfo2","1920","1080","0","1","0","5fd7ee02c0a4610ea7d258b4","","null","","","learningBlock1","","","","This is a tob:","null","","","","","",""
"image-keyboard-response","229","257607","0.0-5.0-1.74","LF","t5ex7zbfo2","1920","1080","0","1","0","5fd7ee02c0a4610ea7d258b4","","null","","","","","","","learning/Slide75.JPG","null","","","","","",""
"html-keyboard-response","230","258610","0.0-5.0-2.74","LF","t5ex7zbfo2","1920","1080","0","1","0","5fd7ee02c0a4610ea7d258b4","","null","","","learningBlock1","","","","<div style=""font-size:60px;""> </div>","null","LF","learning/Slide75.JPG","This is a tob:","","",""
"html-keyboard-response","231","259619","0.0-5.0-0.75","LF","t5ex7zbfo2","1920","1080","0","1","0","5fd7ee02c0a4610ea7d258b4","","null","","","learningBlock1","","","","This is a bim:","null","","","","","",""
"image-keyboard-response","232","259947","0.0-5.0-1.75","LF","t5ex7zbfo2","1920","1080","0","1","0","5fd7ee02c0a4610ea7d258b4","","null","","","","","","","learning/Slide76.JPG","null","","","","","",""
"html-keyboard-response","233","260955","0.0-5.0-2.75","LF","t5ex7zbfo2","1920","1080","0","1","0","5fd7ee02c0a4610ea7d258b4","","null","","","learningBlock1","","","","<div style=""font-size:60px;""> </div>","null","LF","learning/Slide76.JPG","This is a bim:","","",""
"html-keyboard-response","234","261968","0.0-5.0-0.76","LF","t5ex7zbfo2","1920","1080","0","1","0","5fd7ee02c0a4610ea7d258b4","","null","","","learningBlock1","","","","This is a tob:","null","","","","","",""
"image-keyboard-response","235","262301","0.0-5.0-1.76","LF","t5ex7zbfo2","1920","1080","0","1","0","5fd7ee02c0a4610ea7d258b4","","null","","","","","","","learning/Slide77.JPG","null","","","","","",""
"html-keyboard-response","236","263310","0.0-5.0-2.76","LF","t5ex7zbfo2","1920","1080","0","1","0","5fd7ee02c0a4610ea7d258b4","","null","","","learningBlock1","","","","<div style=""font-size:60px;""> </div>","null","LF","learning/Slide77.JPG","This is a tob:","","",""
"html-keyboard-response","237","264326","0.0-5.0-0.77","LF","t5ex7zbfo2","1920","1080","0","1","0","5fd7ee02c0a4610ea7d258b4","","null","","","learningBlock1","","","","This is a wug:","null","","","","","",""
"image-keyboard-response","238","264654","0.0-5.0-1.77","LF","t5ex7zbfo2","1920","1080","0","1","0","5fd7ee02c0a4610ea7d258b4","","null","","","","","","","learning/Slide78.JPG","null","","","","","",""
"html-keyboard-response","239","265666","0.0-5.0-2.77","LF","t5ex7zbfo2","1920","1080","0","1","0","5fd7ee02c0a4610ea7d258b4","","null","","","learningBlock1","","","","<div style=""font-size:60px;""> </div>","null","LF","learning/Slide78.JPG","This is a wug:","","",""
"html-keyboard-response","240","266672","0.0-5.0-0.78","LF","t5ex7zbfo2","1920","1080","0","1","0","5fd7ee02c0a4610ea7d258b4","","null","","","learningBlock1","","","","This is a bim:","null","","","","","",""
"image-keyboard-response","241","267002","0.0-5.0-1.78","LF","t5ex7zbfo2","1920","1080","0","1","0","5fd7ee02c0a4610ea7d258b4","","null","","","","","","","learning/Slide79.JPG","null","","","","","",""
"html-keyboard-response","242","268011","0.0-5.0-2.78","LF","t5ex7zbfo2","1920","1080","0","1","0","5fd7ee02c0a4610ea7d258b4","","null","","","learningBlock1","","","","<div style=""font-size:60px;""> </div>","null","LF","learning/Slide79.JPG","This is a bim:","","",""
"html-keyboard-response","243","269023","0.0-5.0-0.79","LF","t5ex7zbfo2","1920","1080","0","1","0","5fd7ee02c0a4610ea7d258b4","","null","","","learningBlock1","","","","This is a tob:","null","","","","","",""
"image-keyboard-response","244","269368","0.0-5.0-1.79","LF","t5ex7zbfo2","1920","1080","0","1","0","5fd7ee02c0a4610ea7d258b4","","null","","","","","","","learning/Slide80.JPG","null","","","","","",""
"html-keyboard-response","245","270373","0.0-5.0-2.79","LF","t5ex7zbfo2","1920","1080","0","1","0","5fd7ee02c0a4610ea7d258b4","","null","","","learningBlock1","","","","<div style=""font-size:60px;""> </div>","null","LF","learning/Slide80.JPG","This is a tob:","","",""
"instructions","246","272551","0.0-6.0","LF","t5ex7zbfo2","1920","1080","0","1","0","5fd7ee02c0a4610ea7d258b4","","NA","","[{""page_index"":0,""viewing_time"":2177.349999998114}]","instructions","","","","","","","","","","",""
"html-keyboard-response","247","273554","0.0-7.0-0.0","LF","t5ex7zbfo2","1920","1080","0","1","0","5fd7ee02c0a4610ea7d258b4","","null","","","learningBlock2","","","","This is a wug:","null","","","","","",""
"image-keyboard-response","248","273880","0.0-7.0-1.0","LF","t5ex7zbfo2","1920","1080","0","1","0","5fd7ee02c0a4610ea7d258b4","","null","","","","","","","learning/Slide81.JPG","null","","","","","",""
"html-keyboard-response","249","274896","0.0-7.0-2.0","LF","t5ex7zbfo2","1920","1080","0","1","0","5fd7ee02c0a4610ea7d258b4","","null","","","learningBlock2","","","","<div style=""font-size:60px;""> </div>","null","LF","learning/Slide81.JPG","This is a wug:","","",""
"html-keyboard-response","250","275911","0.0-7.0-0.1","LF","t5ex7zbfo2","1920","1080","0","1","0","5fd7ee02c0a4610ea7d258b4","","null","","","learningBlock2","","","","This is a bim:","null","","","","","",""
"image-keyboard-response","251","276253","0.0-7.0-1.1","LF","t5ex7zbfo2","1920","1080","0","1","0","5fd7ee02c0a4610ea7d258b4","","null","","","","","","","learning/Slide82.JPG","null","","","","","",""
"html-keyboard-response","252","277263","0.0-7.0-2.1","LF","t5ex7zbfo2","1920","1080","0","1","0","5fd7ee02c0a4610ea7d258b4","","null","","","learningBlock2","","","","<div style=""font-size:60px;""> </div>","null","LF","learning/Slide82.JPG","This is a bim:","","",""
"html-keyboard-response","253","278267","0.0-7.0-0.2","LF","t5ex7zbfo2","1920","1080","0","1","0","5fd7ee02c0a4610ea7d258b4","","null","","","learningBlock2","","","","This is a wug:","null","","","","","",""
"image-keyboard-response","254","278601","0.0-7.0-1.2","LF","t5ex7zbfo2","1920","1080","0","1","0","5fd7ee02c0a4610ea7d258b4","","null","","","","","","","learning/Slide83.JPG","null","","","","","",""
"html-keyboard-response","255","279611","0.0-7.0-2.2","LF","t5ex7zbfo2","1920","1080","0","1","0","5fd7ee02c0a4610ea7d258b4","","null","","","learningBlock2","","","","<div style=""font-size:60px;""> </div>","null","LF","learning/Slide83.JPG","This is a wug:","","",""
"html-keyboard-response","256","280626","0.0-7.0-0.3","LF","t5ex7zbfo2","1920","1080","0","1","0","5fd7ee02c0a4610ea7d258b4","","null","","","learningBlock2","","","","This is a dep:","null","","","","","",""
"image-keyboard-response","257","280955","0.0-7.0-1.3","LF","t5ex7zbfo2","1920","1080","0","1","0","5fd7ee02c0a4610ea7d258b4","","null","","","","","","","learning/Slide84.JPG","null","","","","","",""
"html-keyboard-response","258","281956","0.0-7.0-2.3","LF","t5ex7zbfo2","1920","1080","0","1","0","5fd7ee02c0a4610ea7d258b4","","null","","","learningBlock2","","","","<div style=""font-size:60px;""> </div>","null","LF","learning/Slide84.JPG","This is a dep:","","",""
"html-keyboard-response","259","282964","0.0-7.0-0.4","LF","t5ex7zbfo2","1920","1080","0","1","0","5fd7ee02c0a4610ea7d258b4","","null","","","learningBlock2","","","","This is a bim:","null","","","","","",""
"image-keyboard-response","260","283293","0.0-7.0-1.4","LF","t5ex7zbfo2","1920","1080","0","1","0","5fd7ee02c0a4610ea7d258b4","","null","","","","","","","learning/Slide85.JPG","null","","","","","",""
"html-keyboard-response","261","284299","0.0-7.0-2.4","LF","t5ex7zbfo2","1920","1080","0","1","0","5fd7ee02c0a4610ea7d258b4","","null","","","learningBlock2","","","","<div style=""font-size:60px;""> </div>","null","LF","learning/Slide85.JPG","This is a bim:","","",""
"html-keyboard-response","262","285310","0.0-7.0-0.5","LF","t5ex7zbfo2","1920","1080","0","1","0","5fd7ee02c0a4610ea7d258b4","","null","","","learningBlock2","","","","This is a tob:","null","","","","","",""
"image-keyboard-response","263","285637","0.0-7.0-1.5","LF","t5ex7zbfo2","1920","1080","0","1","0","5fd7ee02c0a4610ea7d258b4","","null","","","","","","","learning/Slide86.JPG","null","","","","","",""
"html-keyboard-response","264","286649","0.0-7.0-2.5","LF","t5ex7zbfo2","1920","1080","0","1","0","5fd7ee02c0a4610ea7d258b4","","null","","","learningBlock2","","","","<div style=""font-size:60px;""> </div>","null","LF","learning/Slide86.JPG","This is a tob:","","",""
"html-keyboard-response","265","287652","0.0-7.0-0.6","LF","t5ex7zbfo2","1920","1080","0","1","0","5fd7ee02c0a4610ea7d258b4","","null","","","learningBlock2","","","","This is a wug:","null","","","","","",""
"image-keyboard-response","266","287980","0.0-7.0-1.6","LF","t5ex7zbfo2","1920","1080","0","1","0","5fd7ee02c0a4610ea7d258b4","","null","","","","","","","learning/Slide87.JPG","null","","","","","",""
"html-keyboard-response","267","288996","0.0-7.0-2.6","LF","t5ex7zbfo2","1920","1080","0","1","0","5fd7ee02c0a4610ea7d258b4","","null","","","learningBlock2","","","","<div style=""font-size:60px;""> </div>","null","LF","learning/Slide87.JPG","This is a wug:","","",""
"html-keyboard-response","268","289999","0.0-7.0-0.7","LF","t5ex7zbfo2","1920","1080","0","1","0","5fd7ee02c0a4610ea7d258b4","","null","","","learningBlock2","","","","This is a tob:","null","","","","","",""
"image-keyboard-response","269","290333","0.0-7.0-1.7","LF","t5ex7zbfo2","1920","1080","0","1","0","5fd7ee02c0a4610ea7d258b4","","null","","","","","","","learning/Slide88.JPG","null","","","","","",""
"html-keyboard-response","270","291335","0.0-7.0-2.7","LF","t5ex7zbfo2","1920","1080","0","1","0","5fd7ee02c0a4610ea7d258b4","","null","","","learningBlock2","","","","<div style=""font-size:60px;""> </div>","null","LF","learning/Slide88.JPG","This is a tob:","","",""
"html-keyboard-response","271","292343","0.0-7.0-0.8","LF","t5ex7zbfo2","1920","1080","0","1","0","5fd7ee02c0a4610ea7d258b4","","null","","","learningBlock2","","","","This is a bim:","null","","","","","",""
"image-keyboard-response","272","292671","0.0-7.0-1.8","LF","t5ex7zbfo2","1920","1080","0","1","0","5fd7ee02c0a4610ea7d258b4","","null","","","","","","","learning/Slide89.JPG","null","","","","","",""
"html-keyboard-response","273","293681","0.0-7.0-2.8","LF","t5ex7zbfo2","1920","1080","0","1","0","5fd7ee02c0a4610ea7d258b4","","null","","","learningBlock2","","","","<div style=""font-size:60px;""> </div>","null","LF","learning/Slide89.JPG","This is a bim:","","",""
"html-keyboard-response","274","294695","0.0-7.0-0.9","LF","t5ex7zbfo2","1920","1080","0","1","0","5fd7ee02c0a4610ea7d258b4","","null","","","learningBlock2","","","","This is a dep:","null","","","","","",""
"image-keyboard-response","275","295038","0.0-7.0-1.9","LF","t5ex7zbfo2","1920","1080","0","1","0","5fd7ee02c0a4610ea7d258b4","","null","","","","","","","learning/Slide90.JPG","null","","","","","",""
"html-keyboard-response","276","296053","0.0-7.0-2.9","LF","t5ex7zbfo2","1920","1080","0","1","0","5fd7ee02c0a4610ea7d258b4","","null","","","learningBlock2","","","","<div style=""font-size:60px;""> </div>","null","LF","learning/Slide90.JPG","This is a dep:","","",""
"html-keyboard-response","277","297056","0.0-7.0-0.10","LF","t5ex7zbfo2","1920","1080","0","1","0","5fd7ee02c0a4610ea7d258b4","","null","","","learningBlock2","","","","This is a wug:","null","","","","","",""
"image-keyboard-response","278","297386","0.0-7.0-1.10","LF","t5ex7zbfo2","1920","1080","0","1","0","5fd7ee02c0a4610ea7d258b4","","null","","","","","","","learning/Slide91.JPG","null","","","","","",""
"html-keyboard-response","279","298403","0.0-7.0-2.10","LF","t5ex7zbfo2","1920","1080","0","1","0","5fd7ee02c0a4610ea7d258b4","","null","","","learningBlock2","","","","<div style=""font-size:60px;""> </div>","null","LF","learning/Slide91.JPG","This is a wug:","","",""
"html-keyboard-response","280","299416","0.0-7.0-0.11","LF","t5ex7zbfo2","1920","1080","0","1","0","5fd7ee02c0a4610ea7d258b4","","null","","","learningBlock2","","","","This is a tob:","null","","","","","",""
"image-keyboard-response","281","299747","0.0-7.0-1.11","LF","t5ex7zbfo2","1920","1080","0","1","0","5fd7ee02c0a4610ea7d258b4","","null","","","","","","","learning/Slide92.JPG","null","","","","","",""
"html-keyboard-response","282","300763","0.0-7.0-2.11","LF","t5ex7zbfo2","1920","1080","0","1","0","5fd7ee02c0a4610ea7d258b4","","null","","","learningBlock2","","","","<div style=""font-size:60px;""> </div>","null","LF","learning/Slide92.JPG","This is a tob:","","",""
"html-keyboard-response","283","301778","0.0-7.0-0.12","LF","t5ex7zbfo2","1920","1080","0","1","0","5fd7ee02c0a4610ea7d258b4","","null","","","learningBlock2","","","","This is a bim:","null","","","","","",""
"image-keyboard-response","284","302125","0.0-7.0-1.12","LF","t5ex7zbfo2","1920","1080","0","1","0","5fd7ee02c0a4610ea7d258b4","","null","","","","","","","learning/Slide93.JPG","null","","","","","",""
"html-keyboard-response","285","303139","0.0-7.0-2.12","LF","t5ex7zbfo2","1920","1080","0","1","0","5fd7ee02c0a4610ea7d258b4","","null","","","learningBlock2","","","","<div style=""font-size:60px;""> </div>","null","LF","learning/Slide93.JPG","This is a bim:","","",""
"html-keyboard-response","286","304143","0.0-7.0-0.13","LF","t5ex7zbfo2","1920","1080","0","1","0","5fd7ee02c0a4610ea7d258b4","","null","","","learningBlock2","","","","This is a tob:","null","","","","","",""
"image-keyboard-response","287","304486","0.0-7.0-1.13","LF","t5ex7zbfo2","1920","1080","0","1","0","5fd7ee02c0a4610ea7d258b4","","null","","","","","","","learning/Slide94.JPG","null","","","","","",""
"html-keyboard-response","288","305497","0.0-7.0-2.13","LF","t5ex7zbfo2","1920","1080","0","1","0","5fd7ee02c0a4610ea7d258b4","","null","","","learningBlock2","","","","<div style=""font-size:60px;""> </div>","null","LF","learning/Slide94.JPG","This is a tob:","","",""
"html-keyboard-response","289","306512","0.0-7.0-0.14","LF","t5ex7zbfo2","1920","1080","0","1","0","5fd7ee02c0a4610ea7d258b4","","null","","","learningBlock2","","","","This is a wug:","null","","","","","",""
"image-keyboard-response","290","306846","0.0-7.0-1.14","LF","t5ex7zbfo2","1920","1080","0","1","0","5fd7ee02c0a4610ea7d258b4","","null","","","","","","","learning/Slide95.JPG","null","","","","","",""
"html-keyboard-response","291","307848","0.0-7.0-2.14","LF","t5ex7zbfo2","1920","1080","0","1","0","5fd7ee02c0a4610ea7d258b4","","null","","","learningBlock2","","","","<div style=""font-size:60px;""> </div>","null","LF","learning/Slide95.JPG","This is a wug:","","",""
"html-keyboard-response","292","308863","0.0-7.0-0.15","LF","t5ex7zbfo2","1920","1080","0","1","0","5fd7ee02c0a4610ea7d258b4","","null","","","learningBlock2","","","","This is a tob:","null","","","","","",""
"image-keyboard-response","293","309195","0.0-7.0-1.15","LF","t5ex7zbfo2","1920","1080","0","1","0","5fd7ee02c0a4610ea7d258b4","","null","","","","","","","learning/Slide96.JPG","null","","","","","",""
"html-keyboard-response","294","310209","0.0-7.0-2.15","LF","t5ex7zbfo2","1920","1080","0","1","0","5fd7ee02c0a4610ea7d258b4","","null","","","learningBlock2","","","","<div style=""font-size:60px;""> </div>","null","LF","learning/Slide96.JPG","This is a tob:","","",""
"html-keyboard-response","295","311220","0.0-7.0-0.16","LF","t5ex7zbfo2","1920","1080","0","1","0","5fd7ee02c0a4610ea7d258b4","","null","","","learningBlock2","","","","This is a dep:","null","","","","","",""
"image-keyboard-response","296","311548","0.0-7.0-1.16","LF","t5ex7zbfo2","1920","1080","0","1","0","5fd7ee02c0a4610ea7d258b4","","null","","","","","","","learning/Slide97.JPG","null","","","","","",""
"html-keyboard-response","297","312561","0.0-7.0-2.16","LF","t5ex7zbfo2","1920","1080","0","1","0","5fd7ee02c0a4610ea7d258b4","","null","","","learningBlock2","","","","<div style=""font-size:60px;""> </div>","null","LF","learning/Slide97.JPG","This is a dep:","","",""
"html-keyboard-response","298","313564","0.0-7.0-0.17","LF","t5ex7zbfo2","1920","1080","0","1","0","5fd7ee02c0a4610ea7d258b4","","null","","","learningBlock2","","","","This is a bim:","null","","","","","",""
"image-keyboard-response","299","313898","0.0-7.0-1.17","LF","t5ex7zbfo2","1920","1080","0","1","0","5fd7ee02c0a4610ea7d258b4","","null","","","","","","","learning/Slide98.JPG","null","","","","","",""
"html-keyboard-response","300","314903","0.0-7.0-2.17","LF","t5ex7zbfo2","1920","1080","0","1","0","5fd7ee02c0a4610ea7d258b4","","null","","","learningBlock2","","","","<div style=""font-size:60px;""> </div>","null","LF","learning/Slide98.JPG","This is a bim:","","",""
"html-keyboard-response","301","315911","0.0-7.0-0.18","LF","t5ex7zbfo2","1920","1080","0","1","0","5fd7ee02c0a4610ea7d258b4","","null","","","learningBlock2","","","","This is a dep:","null","","","","","",""
"image-keyboard-response","302","316239","0.0-7.0-1.18","LF","t5ex7zbfo2","1920","1080","0","1","0","5fd7ee02c0a4610ea7d258b4","","null","","","","","","","learning/Slide99.JPG","null","","","","","",""
"html-keyboard-response","303","317248","0.0-7.0-2.18","LF","t5ex7zbfo2","1920","1080","0","1","0","5fd7ee02c0a4610ea7d258b4","","null","","","learningBlock2","","","","<div style=""font-size:60px;""> </div>","null","LF","learning/Slide99.JPG","This is a dep:","","",""
"html-keyboard-response","304","318261","0.0-7.0-0.19","LF","t5ex7zbfo2","1920","1080","0","1","0","5fd7ee02c0a4610ea7d258b4","","null","","","learningBlock2","","","","This is a bim:","null","","","","","",""
"image-keyboard-response","305","318591","0.0-7.0-1.19","LF","t5ex7zbfo2","1920","1080","0","1","0","5fd7ee02c0a4610ea7d258b4","","null","","","","","","","learning/Slide100.JPG","null","","","","","",""
"html-keyboard-response","306","319594","0.0-7.0-2.19","LF","t5ex7zbfo2","1920","1080","0","1","0","5fd7ee02c0a4610ea7d258b4","","null","","","learningBlock2","","","","<div style=""font-size:60px;""> </div>","null","LF","learning/Slide100.JPG","This is a bim:","","",""
"html-keyboard-response","307","320610","0.0-7.0-0.20","LF","t5ex7zbfo2","1920","1080","0","1","0","5fd7ee02c0a4610ea7d258b4","","null","","","learningBlock2","","","","This is a tob:","null","","","","","",""
"image-keyboard-response","308","320939","0.0-7.0-1.20","LF","t5ex7zbfo2","1920","1080","0","1","0","5fd7ee02c0a4610ea7d258b4","","null","","","","","","","learning/Slide101.JPG","null","","","","","",""
"html-keyboard-response","309","321945","0.0-7.0-2.20","LF","t5ex7zbfo2","1920","1080","0","1","0","5fd7ee02c0a4610ea7d258b4","","null","","","learningBlock2","","","","<div style=""font-size:60px;""> </div>","null","LF","learning/Slide101.JPG","This is a tob:","","",""
"html-keyboard-response","310","322947","0.0-7.0-0.21","LF","t5ex7zbfo2","1920","1080","0","1","0","5fd7ee02c0a4610ea7d258b4","","null","","","learningBlock2","","","","This is a bim:","null","","","","","",""
"image-keyboard-response","311","323274","0.0-7.0-1.21","LF","t5ex7zbfo2","1920","1080","0","1","0","5fd7ee02c0a4610ea7d258b4","","null","","","","","","","learning/Slide102.JPG","null","","","","","",""
"html-keyboard-response","312","324288","0.0-7.0-2.21","LF","t5ex7zbfo2","1920","1080","0","1","0","5fd7ee02c0a4610ea7d258b4","","null","","","learningBlock2","","","","<div style=""font-size:60px;""> </div>","null","LF","learning/Slide102.JPG","This is a bim:","","",""
"html-keyboard-response","313","325301","0.0-7.0-0.22","LF","t5ex7zbfo2","1920","1080","0","1","0","5fd7ee02c0a4610ea7d258b4","","null","","","learningBlock2","","","","This is a dep:","null","","","","","",""
"image-keyboard-response","314","325628","0.0-7.0-1.22","LF","t5ex7zbfo2","1920","1080","0","1","0","5fd7ee02c0a4610ea7d258b4","","null","","","","","","","learning/Slide103.JPG","null","","","","","",""
"html-keyboard-response","315","326630","0.0-7.0-2.22","LF","t5ex7zbfo2","1920","1080","0","1","0","5fd7ee02c0a4610ea7d258b4","","null","","","learningBlock2","","","","<div style=""font-size:60px;""> </div>","null","LF","learning/Slide103.JPG","This is a dep:","","",""
"html-keyboard-response","316","327635","0.0-7.0-0.23","LF","t5ex7zbfo2","1920","1080","0","1","0","5fd7ee02c0a4610ea7d258b4","","null","","","learningBlock2","","","","This is a tob:","null","","","","","",""
"image-keyboard-response","317","327969","0.0-7.0-1.23","LF","t5ex7zbfo2","1920","1080","0","1","0","5fd7ee02c0a4610ea7d258b4","","null","","","","","","","learning/Slide104.JPG","null","","","","","",""
"html-keyboard-response","318","328984","0.0-7.0-2.23","LF","t5ex7zbfo2","1920","1080","0","1","0","5fd7ee02c0a4610ea7d258b4","","null","","","learningBlock2","","","","<div style=""font-size:60px;""> </div>","null","LF","learning/Slide104.JPG","This is a tob:","","",""
"html-keyboard-response","319","329998","0.0-7.0-0.24","LF","t5ex7zbfo2","1920","1080","0","1","0","5fd7ee02c0a4610ea7d258b4","","null","","","learningBlock2","","","","This is a dep:","null","","","","","",""
"image-keyboard-response","320","330324","0.0-7.0-1.24","LF","t5ex7zbfo2","1920","1080","0","1","0","5fd7ee02c0a4610ea7d258b4","","null","","","","","","","learning/Slide105.JPG","null","","","","","",""
"html-keyboard-response","321","331328","0.0-7.0-2.24","LF","t5ex7zbfo2","1920","1080","0","1","0","5fd7ee02c0a4610ea7d258b4","","null","","","learningBlock2","","","","<div style=""font-size:60px;""> </div>","null","LF","learning/Slide105.JPG","This is a dep:","","",""
"html-keyboard-response","322","332342","0.0-7.0-0.25","LF","t5ex7zbfo2","1920","1080","0","1","0","5fd7ee02c0a4610ea7d258b4","","null","","","learningBlock2","","","","This is a wug:","null","","","","","",""
"image-keyboard-response","323","332675","0.0-7.0-1.25","LF","t5ex7zbfo2","1920","1080","0","1","0","5fd7ee02c0a4610ea7d258b4","","null","","","","","","","learning/Slide106.JPG","null","","","","","",""
"html-keyboard-response","324","333676","0.0-7.0-2.25","LF","t5ex7zbfo2","1920","1080","0","1","0","5fd7ee02c0a4610ea7d258b4","","null","","","learningBlock2","","","","<div style=""font-size:60px;""> </div>","null","LF","learning/Slide106.JPG","This is a wug:","","",""
"html-keyboard-response","325","334686","0.0-7.0-0.26","LF","t5ex7zbfo2","1920","1080","0","1","0","5fd7ee02c0a4610ea7d258b4","","null","","","learningBlock2","","","","This is a bim:","null","","","","","",""
"image-keyboard-response","326","335013","0.0-7.0-1.26","LF","t5ex7zbfo2","1920","1080","0","1","0","5fd7ee02c0a4610ea7d258b4","","null","","","","","","","learning/Slide107.JPG","null","","","","","",""
"html-keyboard-response","327","336017","0.0-7.0-2.26","LF","t5ex7zbfo2","1920","1080","0","1","0","5fd7ee02c0a4610ea7d258b4","","null","","","learningBlock2","","","","<div style=""font-size:60px;""> </div>","null","LF","learning/Slide107.JPG","This is a bim:","","",""
"html-keyboard-response","328","337022","0.0-7.0-0.27","LF","t5ex7zbfo2","1920","1080","0","1","0","5fd7ee02c0a4610ea7d258b4","","null","","","learningBlock2","","","","This is a dep:","null","","","","","",""
"image-keyboard-response","329","337349","0.0-7.0-1.27","LF","t5ex7zbfo2","1920","1080","0","1","0","5fd7ee02c0a4610ea7d258b4","","null","","","","","","","learning/Slide108.JPG","null","","","","","",""
"html-keyboard-response","330","338357","0.0-7.0-2.27","LF","t5ex7zbfo2","1920","1080","0","1","0","5fd7ee02c0a4610ea7d258b4","","null","","","learningBlock2","","","","<div style=""font-size:60px;""> </div>","null","LF","learning/Slide108.JPG","This is a dep:","","",""
"html-keyboard-response","331","339363","0.0-7.0-0.28","LF","t5ex7zbfo2","1920","1080","0","1","0","5fd7ee02c0a4610ea7d258b4","","null","","","learningBlock2","","","","This is a wug:","null","","","","","",""
"image-keyboard-response","332","339697","0.0-7.0-1.28","LF","t5ex7zbfo2","1920","1080","0","1","0","5fd7ee02c0a4610ea7d258b4","","null","","","","","","","learning/Slide109.JPG","null","","","","","",""
"html-keyboard-response","333","340712","0.0-7.0-2.28","LF","t5ex7zbfo2","1920","1080","0","1","0","5fd7ee02c0a4610ea7d258b4","","null","","","learningBlock2","","","","<div style=""font-size:60px;""> </div>","null","LF","learning/Slide109.JPG","This is a wug:","","",""
"html-keyboard-response","334","341714","0.0-7.0-0.29","LF","t5ex7zbfo2","1920","1080","0","1","0","5fd7ee02c0a4610ea7d258b4","","null","","","learningBlock2","","","","This is a bim:","null","","","","","",""
"image-keyboard-response","335","342046","0.0-7.0-1.29","LF","t5ex7zbfo2","1920","1080","0","1","0","5fd7ee02c0a4610ea7d258b4","","null","","","","","","","learning/Slide110.JPG","null","","","","","",""
"html-keyboard-response","336","343061","0.0-7.0-2.29","LF","t5ex7zbfo2","1920","1080","0","1","0","5fd7ee02c0a4610ea7d258b4","","null","","","learningBlock2","","","","<div style=""font-size:60px;""> </div>","null","LF","learning/Slide110.JPG","This is a bim:","","",""
"html-keyboard-response","337","344065","0.0-7.0-0.30","LF","t5ex7zbfo2","1920","1080","0","1","0","5fd7ee02c0a4610ea7d258b4","","null","","","learningBlock2","","","","This is a tob:","null","","","","","",""
"image-keyboard-response","338","344393","0.0-7.0-1.30","LF","t5ex7zbfo2","1920","1080","0","1","0","5fd7ee02c0a4610ea7d258b4","","null","","","","","","","learning/Slide111.JPG","null","","","","","",""
"html-keyboard-response","339","345400","0.0-7.0-2.30","LF","t5ex7zbfo2","1920","1080","0","1","0","5fd7ee02c0a4610ea7d258b4","","null","","","learningBlock2","","","","<div style=""font-size:60px;""> </div>","null","LF","learning/Slide111.JPG","This is a tob:","","",""
"html-keyboard-response","340","346404","0.0-7.0-0.31","LF","t5ex7zbfo2","1920","1080","0","1","0","5fd7ee02c0a4610ea7d258b4","","null","","","learningBlock2","","","","This is a wug:","null","","","","","",""
"image-keyboard-response","341","346737","0.0-7.0-1.31","LF","t5ex7zbfo2","1920","1080","0","1","0","5fd7ee02c0a4610ea7d258b4","","null","","","","","","","learning/Slide112.JPG","null","","","","","",""
"html-keyboard-response","342","347750","0.0-7.0-2.31","LF","t5ex7zbfo2","1920","1080","0","1","0","5fd7ee02c0a4610ea7d258b4","","null","","","learningBlock2","","","","<div style=""font-size:60px;""> </div>","null","LF","learning/Slide112.JPG","This is a wug:","","",""
"html-keyboard-response","343","348767","0.0-7.0-0.32","LF","t5ex7zbfo2","1920","1080","0","1","0","5fd7ee02c0a4610ea7d258b4","","null","","","learningBlock2","","","","This is a tob:","null","","","","","",""
"image-keyboard-response","344","349094","0.0-7.0-1.32","LF","t5ex7zbfo2","1920","1080","0","1","0","5fd7ee02c0a4610ea7d258b4","","null","","","","","","","learning/Slide113.JPG","null","","","","","",""
"html-keyboard-response","345","350108","0.0-7.0-2.32","LF","t5ex7zbfo2","1920","1080","0","1","0","5fd7ee02c0a4610ea7d258b4","","null","","","learningBlock2","","","","<div style=""font-size:60px;""> </div>","null","LF","learning/Slide113.JPG","This is a tob:","","",""
"html-keyboard-response","346","351122","0.0-7.0-0.33","LF","t5ex7zbfo2","1920","1080","0","1","0","5fd7ee02c0a4610ea7d258b4","","null","","","learningBlock2","","","","This is a wug:","null","","","","","",""
"image-keyboard-response","347","351451","0.0-7.0-1.33","LF","t5ex7zbfo2","1920","1080","0","1","0","5fd7ee02c0a4610ea7d258b4","","null","","","","","","","learning/Slide114.JPG","null","","","","","",""
"html-keyboard-response","348","352459","0.0-7.0-2.33","LF","t5ex7zbfo2","1920","1080","0","1","0","5fd7ee02c0a4610ea7d258b4","","null","","","learningBlock2","","","","<div style=""font-size:60px;""> </div>","null","LF","learning/Slide114.JPG","This is a wug:","","",""
"html-keyboard-response","349","353472","0.0-7.0-0.34","LF","t5ex7zbfo2","1920","1080","0","1","0","5fd7ee02c0a4610ea7d258b4","","null","","","learningBlock2","","","","This is a bim:","null","","","","","",""
"image-keyboard-response","350","353814","0.0-7.0-1.34","LF","t5ex7zbfo2","1920","1080","0","1","0","5fd7ee02c0a4610ea7d258b4","","null","","","","","","","learning/Slide115.JPG","null","","","","","",""
"html-keyboard-response","351","354828","0.0-7.0-2.34","LF","t5ex7zbfo2","1920","1080","0","1","0","5fd7ee02c0a4610ea7d258b4","","null","","","learningBlock2","","","","<div style=""font-size:60px;""> </div>","null","LF","learning/Slide115.JPG","This is a bim:","","",""
"html-keyboard-response","352","355843","0.0-7.0-0.35","LF","t5ex7zbfo2","1920","1080","0","1","0","5fd7ee02c0a4610ea7d258b4","","null","","","learningBlock2","","","","This is a dep:","null","","","","","",""
"image-keyboard-response","353","356170","0.0-7.0-1.35","LF","t5ex7zbfo2","1920","1080","0","1","0","5fd7ee02c0a4610ea7d258b4","","null","","","","","","","learning/Slide116.JPG","null","","","","","",""
"html-keyboard-response","354","357186","0.0-7.0-2.35","LF","t5ex7zbfo2","1920","1080","0","1","0","5fd7ee02c0a4610ea7d258b4","","null","","","learningBlock2","","","","<div style=""font-size:60px;""> </div>","null","LF","learning/Slide116.JPG","This is a dep:","","",""
"html-keyboard-response","355","358201","0.0-7.0-0.36","LF","t5ex7zbfo2","1920","1080","0","1","0","5fd7ee02c0a4610ea7d258b4","","null","","","learningBlock2","","","","This is a tob:","null","","","","","",""
"image-keyboard-response","356","358528","0.0-7.0-1.36","LF","t5ex7zbfo2","1920","1080","0","1","0","5fd7ee02c0a4610ea7d258b4","","null","","","","","","","learning/Slide117.JPG","null","","","","","",""
"html-keyboard-response","357","359542","0.0-7.0-2.36","LF","t5ex7zbfo2","1920","1080","0","1","0","5fd7ee02c0a4610ea7d258b4","","null","","","learningBlock2","","","","<div style=""font-size:60px;""> </div>","null","LF","learning/Slide117.JPG","This is a tob:","","",""
"html-keyboard-response","358","360557","0.0-7.0-0.37","LF","t5ex7zbfo2","1920","1080","0","1","0","5fd7ee02c0a4610ea7d258b4","","null","","","learningBlock2","","","","This is a dep:","null","","","","","",""
"image-keyboard-response","359","360902","0.0-7.0-1.37","LF","t5ex7zbfo2","1920","1080","0","1","0","5fd7ee02c0a4610ea7d258b4","","null","","","","","","","learning/Slide118.JPG","null","","","","","",""
"html-keyboard-response","360","361906","0.0-7.0-2.37","LF","t5ex7zbfo2","1920","1080","0","1","0","5fd7ee02c0a4610ea7d258b4","","null","","","learningBlock2","","","","<div style=""font-size:60px;""> </div>","null","LF","learning/Slide118.JPG","This is a dep:","","",""
"html-keyboard-response","361","362913","0.0-7.0-0.38","LF","t5ex7zbfo2","1920","1080","0","1","0","5fd7ee02c0a4610ea7d258b4","","null","","","learningBlock2","","","","This is a wug:","null","","","","","",""
"image-keyboard-response","362","363239","0.0-7.0-1.38","LF","t5ex7zbfo2","1920","1080","0","1","0","5fd7ee02c0a4610ea7d258b4","","null","","","","","","","learning/Slide119.JPG","null","","","","","",""
"html-keyboard-response","363","364256","0.0-7.0-2.38","LF","t5ex7zbfo2","1920","1080","0","1","0","5fd7ee02c0a4610ea7d258b4","","null","","","learningBlock2","","","","<div style=""font-size:60px;""> </div>","null","LF","learning/Slide119.JPG","This is a wug:","","",""
"html-keyboard-response","364","365258","0.0-7.0-0.39","LF","t5ex7zbfo2","1920","1080","0","1","0","5fd7ee02c0a4610ea7d258b4","","null","","","learningBlock2","","","","This is a dep:","null","","","","","",""
"image-keyboard-response","365","365586","0.0-7.0-1.39","LF","t5ex7zbfo2","1920","1080","0","1","0","5fd7ee02c0a4610ea7d258b4","","null","","","","","","","learning/Slide120.JPG","null","","","","","",""
"html-keyboard-response","366","366599","0.0-7.0-2.39","LF","t5ex7zbfo2","1920","1080","0","1","0","5fd7ee02c0a4610ea7d258b4","","null","","","learningBlock2","","","","<div style=""font-size:60px;""> </div>","null","LF","learning/Slide120.JPG","This is a dep:","","",""
"html-keyboard-response","367","367610","0.0-7.0-0.40","LF","t5ex7zbfo2","1920","1080","0","1","0","5fd7ee02c0a4610ea7d258b4","","null","","","learningBlock2","","","","This is a bim:","null","","","","","",""
"image-keyboard-response","368","367941","0.0-7.0-1.40","LF","t5ex7zbfo2","1920","1080","0","1","0","5fd7ee02c0a4610ea7d258b4","","null","","","","","","","learning/Slide121.JPG","null","","","","","",""
"html-keyboard-response","369","368954","0.0-7.0-2.40","LF","t5ex7zbfo2","1920","1080","0","1","0","5fd7ee02c0a4610ea7d258b4","","null","","","learningBlock2","","","","<div style=""font-size:60px;""> </div>","null","LF","learning/Slide121.JPG","This is a bim:","","",""
"html-keyboard-response","370","369959","0.0-7.0-0.41","LF","t5ex7zbfo2","1920","1080","0","1","0","5fd7ee02c0a4610ea7d258b4","","null","","","learningBlock2","","","","This is a wug:","null","","","","","",""
"image-keyboard-response","371","370286","0.0-7.0-1.41","LF","t5ex7zbfo2","1920","1080","0","1","0","5fd7ee02c0a4610ea7d258b4","","null","","","","","","","learning/Slide122.JPG","null","","","","","",""
"html-keyboard-response","372","371288","0.0-7.0-2.41","LF","t5ex7zbfo2","1920","1080","0","1","0","5fd7ee02c0a4610ea7d258b4","","null","","","learningBlock2","","","","<div style=""font-size:60px;""> </div>","null","LF","learning/Slide122.JPG","This is a wug:","","",""
"html-keyboard-response","373","372290","0.0-7.0-0.42","LF","t5ex7zbfo2","1920","1080","0","1","0","5fd7ee02c0a4610ea7d258b4","","null","","","learningBlock2","","","","This is a bim:","null","","","","","",""
"image-keyboard-response","374","372617","0.0-7.0-1.42","LF","t5ex7zbfo2","1920","1080","0","1","0","5fd7ee02c0a4610ea7d258b4","","null","","","","","","","learning/Slide123.JPG","null","","","","","",""
"html-keyboard-response","375","373618","0.0-7.0-2.42","LF","t5ex7zbfo2","1920","1080","0","1","0","5fd7ee02c0a4610ea7d258b4","","null","","","learningBlock2","","","","<div style=""font-size:60px;""> </div>","null","LF","learning/Slide123.JPG","This is a bim:","","",""
"html-keyboard-response","376","374631","0.0-7.0-0.43","LF","t5ex7zbfo2","1920","1080","0","1","0","5fd7ee02c0a4610ea7d258b4","","null","","","learningBlock2","","","","This is a tob:","null","","","","","",""
"image-keyboard-response","377","374964","0.0-7.0-1.43","LF","t5ex7zbfo2","1920","1080","0","1","0","5fd7ee02c0a4610ea7d258b4","","null","","","","","","","learning/Slide124.JPG","null","","","","","",""
"html-keyboard-response","378","375974","0.0-7.0-2.43","LF","t5ex7zbfo2","1920","1080","0","1","0","5fd7ee02c0a4610ea7d258b4","","null","","","learningBlock2","","","","<div style=""font-size:60px;""> </div>","null","LF","learning/Slide124.JPG","This is a tob:","","",""
"html-keyboard-response","379","376978","0.0-7.0-0.44","LF","t5ex7zbfo2","1920","1080","0","1","0","5fd7ee02c0a4610ea7d258b4","","null","","","learningBlock2","","","","This is a bim:","null","","","","","",""
"image-keyboard-response","380","377309","0.0-7.0-1.44","LF","t5ex7zbfo2","1920","1080","0","1","0","5fd7ee02c0a4610ea7d258b4","","null","","","","","","","learning/Slide125.JPG","null","","","","","",""
"html-keyboard-response","381","378313","0.0-7.0-2.44","LF","t5ex7zbfo2","1920","1080","0","1","0","5fd7ee02c0a4610ea7d258b4","","null","","","learningBlock2","","","","<div style=""font-size:60px;""> </div>","null","LF","learning/Slide125.JPG","This is a bim:","","",""
"html-keyboard-response","382","379317","0.0-7.0-0.45","LF","t5ex7zbfo2","1920","1080","0","1","0","5fd7ee02c0a4610ea7d258b4","","null","","","learningBlock2","","","","This is a tob:","null","","","","","",""
"image-keyboard-response","383","379643","0.0-7.0-1.45","LF","t5ex7zbfo2","1920","1080","0","1","0","5fd7ee02c0a4610ea7d258b4","","null","","","","","","","learning/Slide126.JPG","null","","","","","",""
"html-keyboard-response","384","380655","0.0-7.0-2.45","LF","t5ex7zbfo2","1920","1080","0","1","0","5fd7ee02c0a4610ea7d258b4","","null","","","learningBlock2","","","","<div style=""font-size:60px;""> </div>","null","LF","learning/Slide126.JPG","This is a tob:","","",""
"html-keyboard-response","385","381663","0.0-7.0-0.46","LF","t5ex7zbfo2","1920","1080","0","1","0","5fd7ee02c0a4610ea7d258b4","","null","","","learningBlock2","","","","This is a dep:","null","","","","","",""
"image-keyboard-response","386","382006","0.0-7.0-1.46","LF","t5ex7zbfo2","1920","1080","0","1","0","5fd7ee02c0a4610ea7d258b4","","null","","","","","","","learning/Slide127.JPG","null","","","","","",""
"html-keyboard-response","387","383019","0.0-7.0-2.46","LF","t5ex7zbfo2","1920","1080","0","1","0","5fd7ee02c0a4610ea7d258b4","","null","","","learningBlock2","","","","<div style=""font-size:60px;""> </div>","null","LF","learning/Slide127.JPG","This is a dep:","","",""
"html-keyboard-response","388","384030","0.0-7.0-0.47","LF","t5ex7zbfo2","1920","1080","0","1","0","5fd7ee02c0a4610ea7d258b4","","null","","","learningBlock2","","","","This is a wug:","null","","","","","",""
"image-keyboard-response","389","384378","0.0-7.0-1.47","LF","t5ex7zbfo2","1920","1080","0","1","0","5fd7ee02c0a4610ea7d258b4","","null","","","","","","","learning/Slide128.JPG","null","","","","","",""
"html-keyboard-response","390","385394","0.0-7.0-2.47","LF","t5ex7zbfo2","1920","1080","0","1","0","5fd7ee02c0a4610ea7d258b4","","null","","","learningBlock2","","","","<div style=""font-size:60px;""> </div>","null","LF","learning/Slide128.JPG","This is a wug:","","",""
"html-keyboard-response","391","386400","0.0-7.0-0.48","LF","t5ex7zbfo2","1920","1080","0","1","0","5fd7ee02c0a4610ea7d258b4","","null","","","learningBlock2","","","","This is a tob:","null","","","","","",""
"image-keyboard-response","392","386728","0.0-7.0-1.48","LF","t5ex7zbfo2","1920","1080","0","1","0","5fd7ee02c0a4610ea7d258b4","","null","","","","","","","learning/Slide129.JPG","null","","","","","",""
"html-keyboard-response","393","387736","0.0-7.0-2.48","LF","t5ex7zbfo2","1920","1080","0","1","0","5fd7ee02c0a4610ea7d258b4","","null","","","learningBlock2","","","","<div style=""font-size:60px;""> </div>","null","LF","learning/Slide129.JPG","This is a tob:","","",""
"html-keyboard-response","394","388750","0.0-7.0-0.49","LF","t5ex7zbfo2","1920","1080","0","1","0","5fd7ee02c0a4610ea7d258b4","","null","","","learningBlock2","","","","This is a wug:","null","","","","","",""
"image-keyboard-response","395","389084","0.0-7.0-1.49","LF","t5ex7zbfo2","1920","1080","0","1","0","5fd7ee02c0a4610ea7d258b4","","null","","","","","","","learning/Slide130.JPG","null","","","","","",""
"html-keyboard-response","396","390097","0.0-7.0-2.49","LF","t5ex7zbfo2","1920","1080","0","1","0","5fd7ee02c0a4610ea7d258b4","","null","","","learningBlock2","","","","<div style=""font-size:60px;""> </div>","null","LF","learning/Slide130.JPG","This is a wug:","","",""
"html-keyboard-response","397","391102","0.0-7.0-0.50","LF","t5ex7zbfo2","1920","1080","0","1","0","5fd7ee02c0a4610ea7d258b4","","null","","","learningBlock2","","","","This is a bim:","null","","","","","",""
"image-keyboard-response","398","391436","0.0-7.0-1.50","LF","t5ex7zbfo2","1920","1080","0","1","0","5fd7ee02c0a4610ea7d258b4","","null","","","","","","","learning/Slide131.JPG","null","","","","","",""
"html-keyboard-response","399","392443","0.0-7.0-2.50","LF","t5ex7zbfo2","1920","1080","0","1","0","5fd7ee02c0a4610ea7d258b4","","null","","","learningBlock2","","","","<div style=""font-size:60px;""> </div>","null","LF","learning/Slide131.JPG","This is a bim:","","",""
"html-keyboard-response","400","393458","0.0-7.0-0.51","LF","t5ex7zbfo2","1920","1080","0","1","0","5fd7ee02c0a4610ea7d258b4","","null","","","learningBlock2","","","","This is a dep:","null","","","","","",""
"image-keyboard-response","401","393784","0.0-7.0-1.51","LF","t5ex7zbfo2","1920","1080","0","1","0","5fd7ee02c0a4610ea7d258b4","","null","","","","","","","learning/Slide132.JPG","null","","","","","",""
"html-keyboard-response","402","394801","0.0-7.0-2.51","LF","t5ex7zbfo2","1920","1080","0","1","0","5fd7ee02c0a4610ea7d258b4","","null","","","learningBlock2","","","","<div style=""font-size:60px;""> </div>","null","LF","learning/Slide132.JPG","This is a dep:","","",""
"html-keyboard-response","403","395814","0.0-7.0-0.52","LF","t5ex7zbfo2","1920","1080","0","1","0","5fd7ee02c0a4610ea7d258b4","","null","","","learningBlock2","","","","This is a tob:","null","","","","","",""
"image-keyboard-response","404","396150","0.0-7.0-1.52","LF","t5ex7zbfo2","1920","1080","0","1","0","5fd7ee02c0a4610ea7d258b4","","null","","","","","","","learning/Slide133.JPG","null","","","","","",""
"html-keyboard-response","405","397157","0.0-7.0-2.52","LF","t5ex7zbfo2","1920","1080","0","1","0","5fd7ee02c0a4610ea7d258b4","","null","","","learningBlock2","","","","<div style=""font-size:60px;""> </div>","null","LF","learning/Slide133.JPG","This is a tob:","","",""
"html-keyboard-response","406","398172","0.0-7.0-0.53","LF","t5ex7zbfo2","1920","1080","0","1","0","5fd7ee02c0a4610ea7d258b4","","null","","","learningBlock2","","","","This is a dep:","null","","","","","",""
"image-keyboard-response","407","398505","0.0-7.0-1.53","LF","t5ex7zbfo2","1920","1080","0","1","0","5fd7ee02c0a4610ea7d258b4","","null","","","","","","","learning/Slide134.JPG","null","","","","","",""
"html-keyboard-response","408","399520","0.0-7.0-2.53","LF","t5ex7zbfo2","1920","1080","0","1","0","5fd7ee02c0a4610ea7d258b4","","null","","","learningBlock2","","","","<div style=""font-size:60px;""> </div>","null","LF","learning/Slide134.JPG","This is a dep:","","",""
"html-keyboard-response","409","400535","0.0-7.0-0.54","LF","t5ex7zbfo2","1920","1080","0","1","0","5fd7ee02c0a4610ea7d258b4","","null","","","learningBlock2","","","","This is a tob:","null","","","","","",""
"image-keyboard-response","410","400868","0.0-7.0-1.54","LF","t5ex7zbfo2","1920","1080","0","1","0","5fd7ee02c0a4610ea7d258b4","","null","","","","","","","learning/Slide135.JPG","null","","","","","",""
"html-keyboard-response","411","401875","0.0-7.0-2.54","LF","t5ex7zbfo2","1920","1080","0","1","0","5fd7ee02c0a4610ea7d258b4","","null","","","learningBlock2","","","","<div style=""font-size:60px;""> </div>","null","LF","learning/Slide135.JPG","This is a tob:","","",""
"html-keyboard-response","412","402891","0.0-7.0-0.55","LF","t5ex7zbfo2","1920","1080","0","1","0","5fd7ee02c0a4610ea7d258b4","","null","","","learningBlock2","","","","This is a wug:","null","","","","","",""
"image-keyboard-response","413","403235","0.0-7.0-1.55","LF","t5ex7zbfo2","1920","1080","0","1","0","5fd7ee02c0a4610ea7d258b4","","null","","","","","","","learning/Slide136.JPG","null","","","","","",""
"html-keyboard-response","414","404238","0.0-7.0-2.55","LF","t5ex7zbfo2","1920","1080","0","1","0","5fd7ee02c0a4610ea7d258b4","","null","","","learningBlock2","","","","<div style=""font-size:60px;""> </div>","null","LF","learning/Slide136.JPG","This is a wug:","","",""
"html-keyboard-response","415","405243","0.0-7.0-0.56","LF","t5ex7zbfo2","1920","1080","0","1","0","5fd7ee02c0a4610ea7d258b4","","null","","","learningBlock2","","","","This is a tob:","null","","","","","",""
"image-keyboard-response","416","405570","0.0-7.0-1.56","LF","t5ex7zbfo2","1920","1080","0","1","0","5fd7ee02c0a4610ea7d258b4","","null","","","","","","","learning/Slide137.JPG","null","","","","","",""
"html-keyboard-response","417","406580","0.0-7.0-2.56","LF","t5ex7zbfo2","1920","1080","0","1","0","5fd7ee02c0a4610ea7d258b4","","null","","","learningBlock2","","","","<div style=""font-size:60px;""> </div>","null","LF","learning/Slide137.JPG","This is a tob:","","",""
"html-keyboard-response","418","407589","0.0-7.0-0.57","LF","t5ex7zbfo2","1920","1080","0","1","0","5fd7ee02c0a4610ea7d258b4","","null","","","learningBlock2","","","","This is a bim:","null","","","","","",""
"image-keyboard-response","419","407916","0.0-7.0-1.57","LF","t5ex7zbfo2","1920","1080","0","1","0","5fd7ee02c0a4610ea7d258b4","","null","","","","","","","learning/Slide138.JPG","null","","","","","",""
"html-keyboard-response","420","408926","0.0-7.0-2.57","LF","t5ex7zbfo2","1920","1080","0","1","0","5fd7ee02c0a4610ea7d258b4","","null","","","learningBlock2","","","","<div style=""font-size:60px;""> </div>","null","LF","learning/Slide138.JPG","This is a bim:","","",""
"html-keyboard-response","421","409931","0.0-7.0-0.58","LF","t5ex7zbfo2","1920","1080","0","1","0","5fd7ee02c0a4610ea7d258b4","","null","","","learningBlock2","","","","This is a wug:","null","","","","","",""
"image-keyboard-response","422","410282","0.0-7.0-1.58","LF","t5ex7zbfo2","1920","1080","0","1","0","5fd7ee02c0a4610ea7d258b4","","null","","","","","","","learning/Slide139.JPG","null","","","","","",""
"html-keyboard-response","423","411299","0.0-7.0-2.58","LF","t5ex7zbfo2","1920","1080","0","1","0","5fd7ee02c0a4610ea7d258b4","","null","","","learningBlock2","","","","<div style=""font-size:60px;""> </div>","null","LF","learning/Slide139.JPG","This is a wug:","","",""
"html-keyboard-response","424","412303","0.0-7.0-0.59","LF","t5ex7zbfo2","1920","1080","0","1","0","5fd7ee02c0a4610ea7d258b4","","null","","","learningBlock2","","","","This is a dep:","null","","","","","",""
"image-keyboard-response","425","412635","0.0-7.0-1.59","LF","t5ex7zbfo2","1920","1080","0","1","0","5fd7ee02c0a4610ea7d258b4","","null","","","","","","","learning/Slide140.JPG","null","","","","","",""
"html-keyboard-response","426","413642","0.0-7.0-2.59","LF","t5ex7zbfo2","1920","1080","0","1","0","5fd7ee02c0a4610ea7d258b4","","null","","","learningBlock2","","","","<div style=""font-size:60px;""> </div>","null","LF","learning/Slide140.JPG","This is a dep:","","",""
"html-keyboard-response","427","414658","0.0-7.0-0.60","LF","t5ex7zbfo2","1920","1080","0","1","0","5fd7ee02c0a4610ea7d258b4","","null","","","learningBlock2","","","","This is a tob:","null","","","","","",""
"image-keyboard-response","428","414990","0.0-7.0-1.60","LF","t5ex7zbfo2","1920","1080","0","1","0","5fd7ee02c0a4610ea7d258b4","","null","","","","","","","learning/Slide141.JPG","null","","","","","",""
"html-keyboard-response","429","416005","0.0-7.0-2.60","LF","t5ex7zbfo2","1920","1080","0","1","0","5fd7ee02c0a4610ea7d258b4","","null","","","learningBlock2","","","","<div style=""font-size:60px;""> </div>","null","LF","learning/Slide141.JPG","This is a tob:","","",""
"html-keyboard-response","430","417011","0.0-7.0-0.61","LF","t5ex7zbfo2","1920","1080","0","1","0","5fd7ee02c0a4610ea7d258b4","","null","","","learningBlock2","","","","This is a wug:","null","","","","","",""
"image-keyboard-response","431","417359","0.0-7.0-1.61","LF","t5ex7zbfo2","1920","1080","0","1","0","5fd7ee02c0a4610ea7d258b4","","null","","","","","","","learning/Slide142.JPG","null","","","","","",""
"html-keyboard-response","432","418360","0.0-7.0-2.61","LF","t5ex7zbfo2","1920","1080","0","1","0","5fd7ee02c0a4610ea7d258b4","","null","","","learningBlock2","","","","<div style=""font-size:60px;""> </div>","null","LF","learning/Slide142.JPG","This is a wug:","","",""
"html-keyboard-response","433","419362","0.0-7.0-0.62","LF","t5ex7zbfo2","1920","1080","0","1","0","5fd7ee02c0a4610ea7d258b4","","null","","","learningBlock2","","","","This is a bim:","null","","","","","",""
"image-keyboard-response","434","419691","0.0-7.0-1.62","LF","t5ex7zbfo2","1920","1080","0","1","0","5fd7ee02c0a4610ea7d258b4","","null","","","","","","","learning/Slide143.JPG","null","","","","","",""
"html-keyboard-response","435","420703","0.0-7.0-2.62","LF","t5ex7zbfo2","1920","1080","0","1","0","5fd7ee02c0a4610ea7d258b4","","null","","","learningBlock2","","","","<div style=""font-size:60px;""> </div>","null","LF","learning/Slide143.JPG","This is a bim:","","",""
"html-keyboard-response","436","421717","0.0-7.0-0.63","LF","t5ex7zbfo2","1920","1080","0","1","0","5fd7ee02c0a4610ea7d258b4","","null","","","learningBlock2","","","","This is a dep:","null","","","","","",""
