"trial_type","trial_index","time_elapsed","internal_node_id","condition","subject","screen_width","screen_height","attention","distraction","conscientious","prolificID","success","rt","url","view_history","test_part","final_height_px","final_width_px","scale_factor","stimulus","key_press","learningType","presentedImage","presentedLabel","button_pressed","response","responses"
"pavlovia","0","12","0.0-0.0","FL","b00qxzsc7o","1920","1080","0","0","0","5ffc250201d8312c325a16a5","","","","","","","","","","","","","","","",""
"fullscreen","1","6127","0.0-1.0","FL","b00qxzsc7o","1920","1080","0","0","0","5ffc250201d8312c325a16a5","true","","","","","","","","","","","","","","",""
"external-html","2","89215","0.0-2.0-0.0","FL","b00qxzsc7o","1920","1080","0","0","0","5ffc250201d8312c325a16a5","","82953.62999999998","text/information_english.html","","","","","","","","","","","","",""
"external-html","3","108028","0.0-2.0-1.0","FL","b00qxzsc7o","1920","1080","0","0","0","5ffc250201d8312c325a16a5","","18272.17500000188","text/consent_english.html","","","","","","","","","","","","",""
"instructions","4","120203","0.0-3.0","FL","b00qxzsc7o","1920","1080","0","0","0","5ffc250201d8312c325a16a5","","NA","","[{""page_index"":0,""viewing_time"":2121.2999999988824},{""page_index"":1,""viewing_time"":10052.719999999681}]","instructions","","","","","","","","","","",""
"resize","5","206038","0.0-4.0","FL","b00qxzsc7o","1920","1080","0","0","0","5ffc250201d8312c325a16a5","","","","","","","308","1.9555555555555555","","","","","","","",""
"image-keyboard-response","6","206215","0.0-5.0-0.0","FL","b00qxzsc7o","1920","1080","0","0","0","5ffc250201d8312c325a16a5","","null","","","","","","","learning/Slide1.JPG","null","","","","","",""
"html-keyboard-response","7","207368","0.0-5.0-1.0","FL","b00qxzsc7o","1920","1080","0","0","0","5ffc250201d8312c325a16a5","","null","","","learningBlock1","","","","That was a tob.","null","","","","","",""
"html-keyboard-response","8","208370","0.0-5.0-2.0","FL","b00qxzsc7o","1920","1080","0","0","0","5ffc250201d8312c325a16a5","","null","","","learningBlock1","","","","<div style=""font-size:60px;""> </div>","null","FL","learning/Slide1.JPG","That was a tob.","","",""
"image-keyboard-response","9","208546","0.0-5.0-0.1","FL","b00qxzsc7o","1920","1080","0","0","0","5ffc250201d8312c325a16a5","","null","","","","","","","learning/Slide2.JPG","null","","","","","",""
"html-keyboard-response","10","209699","0.0-5.0-1.1","FL","b00qxzsc7o","1920","1080","0","0","0","5ffc250201d8312c325a16a5","","null","","","learningBlock1","","","","That was a wug.","null","","","","","",""
"html-keyboard-response","11","210701","0.0-5.0-2.1","FL","b00qxzsc7o","1920","1080","0","0","0","5ffc250201d8312c325a16a5","","null","","","learningBlock1","","","","<div style=""font-size:60px;""> </div>","null","FL","learning/Slide2.JPG","That was a wug.","","",""
"image-keyboard-response","12","210878","0.0-5.0-0.2","FL","b00qxzsc7o","1920","1080","0","0","0","5ffc250201d8312c325a16a5","","null","","","","","","","learning/Slide3.JPG","null","","","","","",""
"html-keyboard-response","13","212030","0.0-5.0-1.2","FL","b00qxzsc7o","1920","1080","0","0","0","5ffc250201d8312c325a16a5","","null","","","learningBlock1","","","","That was a bim.","null","","","","","",""
"html-keyboard-response","14","213031","0.0-5.0-2.2","FL","b00qxzsc7o","1920","1080","0","0","0","5ffc250201d8312c325a16a5","","null","","","learningBlock1","","","","<div style=""font-size:60px;""> </div>","null","FL","learning/Slide3.JPG","That was a bim.","","",""
"image-keyboard-response","15","213207","0.0-5.0-0.3","FL","b00qxzsc7o","1920","1080","0","0","0","5ffc250201d8312c325a16a5","","null","","","","","","","learning/Slide4.JPG","null","","","","","",""
"html-keyboard-response","16","214360","0.0-5.0-1.3","FL","b00qxzsc7o","1920","1080","0","0","0","5ffc250201d8312c325a16a5","","null","","","learningBlock1","","","","That was a dep.","null","","","","","",""
"html-keyboard-response","17","215361","0.0-5.0-2.3","FL","b00qxzsc7o","1920","1080","0","0","0","5ffc250201d8312c325a16a5","","null","","","learningBlock1","","","","<div style=""font-size:60px;""> </div>","null","FL","learning/Slide4.JPG","That was a dep.","","",""
"image-keyboard-response","18","215538","0.0-5.0-0.4","FL","b00qxzsc7o","1920","1080","0","0","0","5ffc250201d8312c325a16a5","","null","","","","","","","learning/Slide5.JPG","null","","","","","",""
"html-keyboard-response","19","216690","0.0-5.0-1.4","FL","b00qxzsc7o","1920","1080","0","0","0","5ffc250201d8312c325a16a5","","null","","","learningBlock1","","","","That was a wug.","null","","","","","",""
"html-keyboard-response","20","217691","0.0-5.0-2.4","FL","b00qxzsc7o","1920","1080","0","0","0","5ffc250201d8312c325a16a5","","null","","","learningBlock1","","","","<div style=""font-size:60px;""> </div>","null","FL","learning/Slide5.JPG","That was a wug.","","",""
"image-keyboard-response","21","217867","0.0-5.0-0.5","FL","b00qxzsc7o","1920","1080","0","0","0","5ffc250201d8312c325a16a5","","null","","","","","","","learning/Slide6.JPG","null","","","","","",""
"html-keyboard-response","22","219020","0.0-5.0-1.5","FL","b00qxzsc7o","1920","1080","0","0","0","5ffc250201d8312c325a16a5","","null","","","learningBlock1","","","","That was a dep.","null","","","","","",""
"html-keyboard-response","23","220021","0.0-5.0-2.5","FL","b00qxzsc7o","1920","1080","0","0","0","5ffc250201d8312c325a16a5","","null","","","learningBlock1","","","","<div style=""font-size:60px;""> </div>","null","FL","learning/Slide6.JPG","That was a dep.","","",""
"image-keyboard-response","24","220197","0.0-5.0-0.6","FL","b00qxzsc7o","1920","1080","0","0","0","5ffc250201d8312c325a16a5","","null","","","","","","","learning/Slide7.JPG","null","","","","","",""
"html-keyboard-response","25","221350","0.0-5.0-1.6","FL","b00qxzsc7o","1920","1080","0","0","0","5ffc250201d8312c325a16a5","","null","","","learningBlock1","","","","That was a wug.","null","","","","","",""
"html-keyboard-response","26","222351","0.0-5.0-2.6","FL","b00qxzsc7o","1920","1080","0","0","0","5ffc250201d8312c325a16a5","","null","","","learningBlock1","","","","<div style=""font-size:60px;""> </div>","null","FL","learning/Slide7.JPG","That was a wug.","","",""
"image-keyboard-response","27","222528","0.0-5.0-0.7","FL","b00qxzsc7o","1920","1080","0","0","0","5ffc250201d8312c325a16a5","","null","","","","","","","learning/Slide8.JPG","null","","","","","",""
"html-keyboard-response","28","223681","0.0-5.0-1.7","FL","b00qxzsc7o","1920","1080","0","0","0","5ffc250201d8312c325a16a5","","null","","","learningBlock1","","","","That was a bim.","null","","","","","",""
"html-keyboard-response","29","224681","0.0-5.0-2.7","FL","b00qxzsc7o","1920","1080","0","0","0","5ffc250201d8312c325a16a5","","null","","","learningBlock1","","","","<div style=""font-size:60px;""> </div>","null","FL","learning/Slide8.JPG","That was a bim.","","",""
"image-keyboard-response","30","224858","0.0-5.0-0.8","FL","b00qxzsc7o","1920","1080","0","0","0","5ffc250201d8312c325a16a5","","null","","","","","","","learning/Slide9.JPG","null","","","","","",""
"html-keyboard-response","31","226010","0.0-5.0-1.8","FL","b00qxzsc7o","1920","1080","0","0","0","5ffc250201d8312c325a16a5","","null","","","learningBlock1","","","","That was a wug.","null","","","","","",""
"html-keyboard-response","32","227011","0.0-5.0-2.8","FL","b00qxzsc7o","1920","1080","0","0","0","5ffc250201d8312c325a16a5","","null","","","learningBlock1","","","","<div style=""font-size:60px;""> </div>","null","FL","learning/Slide9.JPG","That was a wug.","","",""
"image-keyboard-response","33","227187","0.0-5.0-0.9","FL","b00qxzsc7o","1920","1080","0","0","0","5ffc250201d8312c325a16a5","","null","","","","","","","learning/Slide10.JPG","null","","","","","",""
"html-keyboard-response","34","228340","0.0-5.0-1.9","FL","b00qxzsc7o","1920","1080","0","0","0","5ffc250201d8312c325a16a5","","null","","","learningBlock1","","","","That was a dep.","null","","","","","",""
"html-keyboard-response","35","229342","0.0-5.0-2.9","FL","b00qxzsc7o","1920","1080","0","0","0","5ffc250201d8312c325a16a5","","null","","","learningBlock1","","","","<div style=""font-size:60px;""> </div>","null","FL","learning/Slide10.JPG","That was a dep.","","",""
"image-keyboard-response","36","229518","0.0-5.0-0.10","FL","b00qxzsc7o","1920","1080","0","0","0","5ffc250201d8312c325a16a5","","null","","","","","","","learning/Slide11.JPG","null","","","","","",""
"html-keyboard-response","37","230670","0.0-5.0-1.10","FL","b00qxzsc7o","1920","1080","0","0","0","5ffc250201d8312c325a16a5","","null","","","learningBlock1","","","","That was a tob.","null","","","","","",""
"html-keyboard-response","38","231671","0.0-5.0-2.10","FL","b00qxzsc7o","1920","1080","0","0","0","5ffc250201d8312c325a16a5","","null","","","learningBlock1","","","","<div style=""font-size:60px;""> </div>","null","FL","learning/Slide11.JPG","That was a tob.","","",""
"image-keyboard-response","39","231848","0.0-5.0-0.11","FL","b00qxzsc7o","1920","1080","0","0","0","5ffc250201d8312c325a16a5","","null","","","","","","","learning/Slide12.JPG","null","","","","","",""
"html-keyboard-response","40","232999","0.0-5.0-1.11","FL","b00qxzsc7o","1920","1080","0","0","0","5ffc250201d8312c325a16a5","","null","","","learningBlock1","","","","That was a dep.","null","","","","","",""
"html-keyboard-response","41","234001","0.0-5.0-2.11","FL","b00qxzsc7o","1920","1080","0","0","0","5ffc250201d8312c325a16a5","","null","","","learningBlock1","","","","<div style=""font-size:60px;""> </div>","null","FL","learning/Slide12.JPG","That was a dep.","","",""
"image-keyboard-response","42","234178","0.0-5.0-0.12","FL","b00qxzsc7o","1920","1080","0","0","0","5ffc250201d8312c325a16a5","","null","","","","","","","learning/Slide13.JPG","null","","","","","",""
"html-keyboard-response","43","235328","0.0-5.0-1.12","FL","b00qxzsc7o","1920","1080","0","0","0","5ffc250201d8312c325a16a5","","null","","","learningBlock1","","","","That was a bim.","null","","","","","",""
"html-keyboard-response","44","236330","0.0-5.0-2.12","FL","b00qxzsc7o","1920","1080","0","0","0","5ffc250201d8312c325a16a5","","null","","","learningBlock1","","","","<div style=""font-size:60px;""> </div>","null","FL","learning/Slide13.JPG","That was a bim.","","",""
"image-keyboard-response","45","236507","0.0-5.0-0.13","FL","b00qxzsc7o","1920","1080","0","0","0","5ffc250201d8312c325a16a5","","null","","","","","","","learning/Slide14.JPG","null","","","","","",""
"html-keyboard-response","46","237661","0.0-5.0-1.13","FL","b00qxzsc7o","1920","1080","0","0","0","5ffc250201d8312c325a16a5","","null","","","learningBlock1","","","","That was a wug.","null","","","","","",""
"html-keyboard-response","47","238663","0.0-5.0-2.13","FL","b00qxzsc7o","1920","1080","0","0","0","5ffc250201d8312c325a16a5","","null","","","learningBlock1","","","","<div style=""font-size:60px;""> </div>","null","FL","learning/Slide14.JPG","That was a wug.","","",""
"image-keyboard-response","48","238840","0.0-5.0-0.14","FL","b00qxzsc7o","1920","1080","0","0","0","5ffc250201d8312c325a16a5","","null","","","","","","","learning/Slide15.JPG","null","","","","","",""
"html-keyboard-response","49","239993","0.0-5.0-1.14","FL","b00qxzsc7o","1920","1080","0","0","0","5ffc250201d8312c325a16a5","","null","","","learningBlock1","","","","That was a tob.","null","","","","","",""
"html-keyboard-response","50","240995","0.0-5.0-2.14","FL","b00qxzsc7o","1920","1080","0","0","0","5ffc250201d8312c325a16a5","","null","","","learningBlock1","","","","<div style=""font-size:60px;""> </div>","null","FL","learning/Slide15.JPG","That was a tob.","","",""
"image-keyboard-response","51","241171","0.0-5.0-0.15","FL","b00qxzsc7o","1920","1080","0","0","0","5ffc250201d8312c325a16a5","","null","","","","","","","learning/Slide16.JPG","null","","","","","",""
"html-keyboard-response","52","242323","0.0-5.0-1.15","FL","b00qxzsc7o","1920","1080","0","0","0","5ffc250201d8312c325a16a5","","null","","","learningBlock1","","","","That was a dep.","null","","","","","",""
"html-keyboard-response","53","243325","0.0-5.0-2.15","FL","b00qxzsc7o","1920","1080","0","0","0","5ffc250201d8312c325a16a5","","null","","","learningBlock1","","","","<div style=""font-size:60px;""> </div>","null","FL","learning/Slide16.JPG","That was a dep.","","",""
"image-keyboard-response","54","243501","0.0-5.0-0.16","FL","b00qxzsc7o","1920","1080","0","0","0","5ffc250201d8312c325a16a5","","null","","","","","","","learning/Slide17.JPG","null","","","","","",""
"html-keyboard-response","55","244654","0.0-5.0-1.16","FL","b00qxzsc7o","1920","1080","0","0","0","5ffc250201d8312c325a16a5","","null","","","learningBlock1","","","","That was a bim.","null","","","","","",""
"html-keyboard-response","56","245656","0.0-5.0-2.16","FL","b00qxzsc7o","1920","1080","0","0","0","5ffc250201d8312c325a16a5","","null","","","learningBlock1","","","","<div style=""font-size:60px;""> </div>","null","FL","learning/Slide17.JPG","That was a bim.","","",""
"image-keyboard-response","57","245833","0.0-5.0-0.17","FL","b00qxzsc7o","1920","1080","0","0","0","5ffc250201d8312c325a16a5","","null","","","","","","","learning/Slide18.JPG","null","","","","","",""
"html-keyboard-response","58","246984","0.0-5.0-1.17","FL","b00qxzsc7o","1920","1080","0","0","0","5ffc250201d8312c325a16a5","","null","","","learningBlock1","","","","That was a tob.","null","","","","","",""
"html-keyboard-response","59","247986","0.0-5.0-2.17","FL","b00qxzsc7o","1920","1080","0","0","0","5ffc250201d8312c325a16a5","","null","","","learningBlock1","","","","<div style=""font-size:60px;""> </div>","null","FL","learning/Slide18.JPG","That was a tob.","","",""
"image-keyboard-response","60","248162","0.0-5.0-0.18","FL","b00qxzsc7o","1920","1080","0","0","0","5ffc250201d8312c325a16a5","","null","","","","","","","learning/Slide19.JPG","null","","","","","",""
"html-keyboard-response","61","249314","0.0-5.0-1.18","FL","b00qxzsc7o","1920","1080","0","0","0","5ffc250201d8312c325a16a5","","null","","","learningBlock1","","","","That was a wug.","null","","","","","",""
"html-keyboard-response","62","250315","0.0-5.0-2.18","FL","b00qxzsc7o","1920","1080","0","0","0","5ffc250201d8312c325a16a5","","null","","","learningBlock1","","","","<div style=""font-size:60px;""> </div>","null","FL","learning/Slide19.JPG","That was a wug.","","",""
"image-keyboard-response","63","250492","0.0-5.0-0.19","FL","b00qxzsc7o","1920","1080","0","0","0","5ffc250201d8312c325a16a5","","null","","","","","","","learning/Slide20.JPG","null","","","","","",""
"html-keyboard-response","64","251645","0.0-5.0-1.19","FL","b00qxzsc7o","1920","1080","0","0","0","5ffc250201d8312c325a16a5","","null","","","learningBlock1","","","","That was a bim.","null","","","","","",""
"html-keyboard-response","65","252646","0.0-5.0-2.19","FL","b00qxzsc7o","1920","1080","0","0","0","5ffc250201d8312c325a16a5","","null","","","learningBlock1","","","","<div style=""font-size:60px;""> </div>","null","FL","learning/Slide20.JPG","That was a bim.","","",""
"image-keyboard-response","66","252822","0.0-5.0-0.20","FL","b00qxzsc7o","1920","1080","0","0","0","5ffc250201d8312c325a16a5","","null","","","","","","","learning/Slide21.JPG","null","","","","","",""
"html-keyboard-response","67","253976","0.0-5.0-1.20","FL","b00qxzsc7o","1920","1080","0","0","0","5ffc250201d8312c325a16a5","","null","","","learningBlock1","","","","That was a dep.","null","","","","","",""
"html-keyboard-response","68","254976","0.0-5.0-2.20","FL","b00qxzsc7o","1920","1080","0","0","0","5ffc250201d8312c325a16a5","","null","","","learningBlock1","","","","<div style=""font-size:60px;""> </div>","null","FL","learning/Slide21.JPG","That was a dep.","","",""
"image-keyboard-response","69","255157","0.0-5.0-0.21","FL","b00qxzsc7o","1920","1080","0","0","0","5ffc250201d8312c325a16a5","","null","","","","","","","learning/Slide22.JPG","null","","","","","",""
"html-keyboard-response","70","256309","0.0-5.0-1.21","FL","b00qxzsc7o","1920","1080","0","0","0","5ffc250201d8312c325a16a5","","null","","","learningBlock1","","","","That was a bim.","null","","","","","",""
"html-keyboard-response","71","257311","0.0-5.0-2.21","FL","b00qxzsc7o","1920","1080","0","0","0","5ffc250201d8312c325a16a5","","null","","","learningBlock1","","","","<div style=""font-size:60px;""> </div>","null","FL","learning/Slide22.JPG","That was a bim.","","",""
"image-keyboard-response","72","257489","0.0-5.0-0.22","FL","b00qxzsc7o","1920","1080","0","0","0","5ffc250201d8312c325a16a5","","null","","","","","","","learning/Slide23.JPG","null","","","","","",""
"html-keyboard-response","73","258641","0.0-5.0-1.22","FL","b00qxzsc7o","1920","1080","0","0","0","5ffc250201d8312c325a16a5","","null","","","learningBlock1","","","","That was a tob.","null","","","","","",""
"html-keyboard-response","74","259643","0.0-5.0-2.22","FL","b00qxzsc7o","1920","1080","0","0","0","5ffc250201d8312c325a16a5","","null","","","learningBlock1","","","","<div style=""font-size:60px;""> </div>","null","FL","learning/Slide23.JPG","That was a tob.","","",""
"image-keyboard-response","75","259819","0.0-5.0-0.23","FL","b00qxzsc7o","1920","1080","0","0","0","5ffc250201d8312c325a16a5","","null","","","","","","","learning/Slide24.JPG","null","","","","","",""
"html-keyboard-response","76","260970","0.0-5.0-1.23","FL","b00qxzsc7o","1920","1080","0","0","0","5ffc250201d8312c325a16a5","","null","","","learningBlock1","","","","That was a wug.","null","","","","","",""
"html-keyboard-response","77","261971","0.0-5.0-2.23","FL","b00qxzsc7o","1920","1080","0","0","0","5ffc250201d8312c325a16a5","","null","","","learningBlock1","","","","<div style=""font-size:60px;""> </div>","null","FL","learning/Slide24.JPG","That was a wug.","","",""
"image-keyboard-response","78","262148","0.0-5.0-0.24","FL","b00qxzsc7o","1920","1080","0","0","0","5ffc250201d8312c325a16a5","","null","","","","","","","learning/Slide25.JPG","null","","","","","",""
"html-keyboard-response","79","263301","0.0-5.0-1.24","FL","b00qxzsc7o","1920","1080","0","0","0","5ffc250201d8312c325a16a5","","null","","","learningBlock1","","","","That was a dep.","null","","","","","",""
"html-keyboard-response","80","264302","0.0-5.0-2.24","FL","b00qxzsc7o","1920","1080","0","0","0","5ffc250201d8312c325a16a5","","null","","","learningBlock1","","","","<div style=""font-size:60px;""> </div>","null","FL","learning/Slide25.JPG","That was a dep.","","",""
"image-keyboard-response","81","264479","0.0-5.0-0.25","FL","b00qxzsc7o","1920","1080","0","0","0","5ffc250201d8312c325a16a5","","null","","","","","","","learning/Slide26.JPG","null","","","","","",""
"html-keyboard-response","82","265632","0.0-5.0-1.25","FL","b00qxzsc7o","1920","1080","0","0","0","5ffc250201d8312c325a16a5","","null","","","learningBlock1","","","","That was a wug.","null","","","","","",""
"html-keyboard-response","83","266633","0.0-5.0-2.25","FL","b00qxzsc7o","1920","1080","0","0","0","5ffc250201d8312c325a16a5","","null","","","learningBlock1","","","","<div style=""font-size:60px;""> </div>","null","FL","learning/Slide26.JPG","That was a wug.","","",""
"image-keyboard-response","84","266810","0.0-5.0-0.26","FL","b00qxzsc7o","1920","1080","0","0","0","5ffc250201d8312c325a16a5","","null","","","","","","","learning/Slide27.JPG","null","","","","","",""
"html-keyboard-response","85","267962","0.0-5.0-1.26","FL","b00qxzsc7o","1920","1080","0","0","0","5ffc250201d8312c325a16a5","","null","","","learningBlock1","","","","That was a bim.","null","","","","","",""
"html-keyboard-response","86","268964","0.0-5.0-2.26","FL","b00qxzsc7o","1920","1080","0","0","0","5ffc250201d8312c325a16a5","","null","","","learningBlock1","","","","<div style=""font-size:60px;""> </div>","null","FL","learning/Slide27.JPG","That was a bim.","","",""
"image-keyboard-response","87","269139","0.0-5.0-0.27","FL","b00qxzsc7o","1920","1080","0","0","0","5ffc250201d8312c325a16a5","","null","","","","","","","learning/Slide28.JPG","null","","","","","",""
"html-keyboard-response","88","270292","0.0-5.0-1.27","FL","b00qxzsc7o","1920","1080","0","0","0","5ffc250201d8312c325a16a5","","null","","","learningBlock1","","","","That was a dep.","null","","","","","",""
"html-keyboard-response","89","271293","0.0-5.0-2.27","FL","b00qxzsc7o","1920","1080","0","0","0","5ffc250201d8312c325a16a5","","null","","","learningBlock1","","","","<div style=""font-size:60px;""> </div>","null","FL","learning/Slide28.JPG","That was a dep.","","",""
"image-keyboard-response","90","271469","0.0-5.0-0.28","FL","b00qxzsc7o","1920","1080","0","0","0","5ffc250201d8312c325a16a5","","null","","","","","","","learning/Slide29.JPG","null","","","","","",""
"html-keyboard-response","91","272621","0.0-5.0-1.28","FL","b00qxzsc7o","1920","1080","0","0","0","5ffc250201d8312c325a16a5","","null","","","learningBlock1","","","","That was a tob.","null","","","","","",""
"html-keyboard-response","92","273623","0.0-5.0-2.28","FL","b00qxzsc7o","1920","1080","0","0","0","5ffc250201d8312c325a16a5","","null","","","learningBlock1","","","","<div style=""font-size:60px;""> </div>","null","FL","learning/Slide29.JPG","That was a tob.","","",""
"image-keyboard-response","93","273800","0.0-5.0-0.29","FL","b00qxzsc7o","1920","1080","0","0","0","5ffc250201d8312c325a16a5","","null","","","","","","","learning/Slide30.JPG","null","","","","","",""
"html-keyboard-response","94","274952","0.0-5.0-1.29","FL","b00qxzsc7o","1920","1080","0","0","0","5ffc250201d8312c325a16a5","","null","","","learningBlock1","","","","That was a dep.","null","","","","","",""
"html-keyboard-response","95","275953","0.0-5.0-2.29","FL","b00qxzsc7o","1920","1080","0","0","0","5ffc250201d8312c325a16a5","","null","","","learningBlock1","","","","<div style=""font-size:60px;""> </div>","null","FL","learning/Slide30.JPG","That was a dep.","","",""
"image-keyboard-response","96","276130","0.0-5.0-0.30","FL","b00qxzsc7o","1920","1080","0","0","0","5ffc250201d8312c325a16a5","","null","","","","","","","learning/Slide31.JPG","null","","","","","",""
"html-keyboard-response","97","277282","0.0-5.0-1.30","FL","b00qxzsc7o","1920","1080","0","0","0","5ffc250201d8312c325a16a5","","null","","","learningBlock1","","","","That was a wug.","null","","","","","",""
"html-keyboard-response","98","278283","0.0-5.0-2.30","FL","b00qxzsc7o","1920","1080","0","0","0","5ffc250201d8312c325a16a5","","null","","","learningBlock1","","","","<div style=""font-size:60px;""> </div>","null","FL","learning/Slide31.JPG","That was a wug.","","",""
"image-keyboard-response","99","278461","0.0-5.0-0.31","FL","b00qxzsc7o","1920","1080","0","0","0","5ffc250201d8312c325a16a5","","null","","","","","","","learning/Slide32.JPG","null","","","","","",""
"html-keyboard-response","100","279613","0.0-5.0-1.31","FL","b00qxzsc7o","1920","1080","0","0","0","5ffc250201d8312c325a16a5","","null","","","learningBlock1","","","","That was a tob.","null","","","","","",""
"html-keyboard-response","101","280614","0.0-5.0-2.31","FL","b00qxzsc7o","1920","1080","0","0","0","5ffc250201d8312c325a16a5","","null","","","learningBlock1","","","","<div style=""font-size:60px;""> </div>","null","FL","learning/Slide32.JPG","That was a tob.","","",""
"image-keyboard-response","102","280792","0.0-5.0-0.32","FL","b00qxzsc7o","1920","1080","0","0","0","5ffc250201d8312c325a16a5","","null","","","","","","","learning/Slide33.JPG","null","","","","","",""
"html-keyboard-response","103","281945","0.0-5.0-1.32","FL","b00qxzsc7o","1920","1080","0","0","0","5ffc250201d8312c325a16a5","","null","","","learningBlock1","","","","That was a bim.","null","","","","","",""
"html-keyboard-response","104","282946","0.0-5.0-2.32","FL","b00qxzsc7o","1920","1080","0","0","0","5ffc250201d8312c325a16a5","","null","","","learningBlock1","","","","<div style=""font-size:60px;""> </div>","null","FL","learning/Slide33.JPG","That was a bim.","","",""
"image-keyboard-response","105","283122","0.0-5.0-0.33","FL","b00qxzsc7o","1920","1080","0","0","0","5ffc250201d8312c325a16a5","","null","","","","","","","learning/Slide34.JPG","null","","","","","",""
"html-keyboard-response","106","284275","0.0-5.0-1.33","FL","b00qxzsc7o","1920","1080","0","0","0","5ffc250201d8312c325a16a5","","null","","","learningBlock1","","","","That was a tob.","null","","","","","",""
"html-keyboard-response","107","285275","0.0-5.0-2.33","FL","b00qxzsc7o","1920","1080","0","0","0","5ffc250201d8312c325a16a5","","null","","","learningBlock1","","","","<div style=""font-size:60px;""> </div>","null","FL","learning/Slide34.JPG","That was a tob.","","",""
"image-keyboard-response","108","285452","0.0-5.0-0.34","FL","b00qxzsc7o","1920","1080","0","0","0","5ffc250201d8312c325a16a5","","null","","","","","","","learning/Slide35.JPG","null","","","","","",""
"html-keyboard-response","109","286605","0.0-5.0-1.34","FL","b00qxzsc7o","1920","1080","0","0","0","5ffc250201d8312c325a16a5","","null","","","learningBlock1","","","","That was a bim.","null","","","","","",""
"html-keyboard-response","110","287606","0.0-5.0-2.34","FL","b00qxzsc7o","1920","1080","0","0","0","5ffc250201d8312c325a16a5","","null","","","learningBlock1","","","","<div style=""font-size:60px;""> </div>","null","FL","learning/Slide35.JPG","That was a bim.","","",""
"image-keyboard-response","111","287782","0.0-5.0-0.35","FL","b00qxzsc7o","1920","1080","0","0","0","5ffc250201d8312c325a16a5","","null","","","","","","","learning/Slide36.JPG","null","","","","","",""
"html-keyboard-response","112","288936","0.0-5.0-1.35","FL","b00qxzsc7o","1920","1080","0","0","0","5ffc250201d8312c325a16a5","","null","","","learningBlock1","","","","That was a dep.","null","","","","","",""
"html-keyboard-response","113","289937","0.0-5.0-2.35","FL","b00qxzsc7o","1920","1080","0","0","0","5ffc250201d8312c325a16a5","","null","","","learningBlock1","","","","<div style=""font-size:60px;""> </div>","null","FL","learning/Slide36.JPG","That was a dep.","","",""
"image-keyboard-response","114","290114","0.0-5.0-0.36","FL","b00qxzsc7o","1920","1080","0","0","0","5ffc250201d8312c325a16a5","","null","","","","","","","learning/Slide37.JPG","null","","","","","",""
"html-keyboard-response","115","291268","0.0-5.0-1.36","FL","b00qxzsc7o","1920","1080","0","0","0","5ffc250201d8312c325a16a5","","null","","","learningBlock1","","","","That was a tob.","null","","","","","",""
"html-keyboard-response","116","292270","0.0-5.0-2.36","FL","b00qxzsc7o","1920","1080","0","0","0","5ffc250201d8312c325a16a5","","null","","","learningBlock1","","","","<div style=""font-size:60px;""> </div>","null","FL","learning/Slide37.JPG","That was a tob.","","",""
"image-keyboard-response","117","292448","0.0-5.0-0.37","FL","b00qxzsc7o","1920","1080","0","0","0","5ffc250201d8312c325a16a5","","null","","","","","","","learning/Slide38.JPG","null","","","","","",""
"html-keyboard-response","118","293599","0.0-5.0-1.37","FL","b00qxzsc7o","1920","1080","0","0","0","5ffc250201d8312c325a16a5","","null","","","learningBlock1","","","","That was a wug.","null","","","","","",""
"html-keyboard-response","119","294600","0.0-5.0-2.37","FL","b00qxzsc7o","1920","1080","0","0","0","5ffc250201d8312c325a16a5","","null","","","learningBlock1","","","","<div style=""font-size:60px;""> </div>","null","FL","learning/Slide38.JPG","That was a wug.","","",""
"image-keyboard-response","120","294777","0.0-5.0-0.38","FL","b00qxzsc7o","1920","1080","0","0","0","5ffc250201d8312c325a16a5","","null","","","","","","","learning/Slide39.JPG","null","","","","","",""
"html-keyboard-response","121","295930","0.0-5.0-1.38","FL","b00qxzsc7o","1920","1080","0","0","0","5ffc250201d8312c325a16a5","","null","","","learningBlock1","","","","That was a bim.","null","","","","","",""
"html-keyboard-response","122","296931","0.0-5.0-2.38","FL","b00qxzsc7o","1920","1080","0","0","0","5ffc250201d8312c325a16a5","","null","","","learningBlock1","","","","<div style=""font-size:60px;""> </div>","null","FL","learning/Slide39.JPG","That was a bim.","","",""
"image-keyboard-response","123","297109","0.0-5.0-0.39","FL","b00qxzsc7o","1920","1080","0","0","0","5ffc250201d8312c325a16a5","","null","","","","","","","learning/Slide40.JPG","null","","","","","",""
"html-keyboard-response","124","298261","0.0-5.0-1.39","FL","b00qxzsc7o","1920","1080","0","0","0","5ffc250201d8312c325a16a5","","null","","","learningBlock1","","","","That was a tob.","null","","","","","",""
"html-keyboard-response","125","299262","0.0-5.0-2.39","FL","b00qxzsc7o","1920","1080","0","0","0","5ffc250201d8312c325a16a5","","null","","","learningBlock1","","","","<div style=""font-size:60px;""> </div>","null","FL","learning/Slide40.JPG","That was a tob.","","",""
"image-keyboard-response","126","299439","0.0-5.0-0.40","FL","b00qxzsc7o","1920","1080","0","0","0","5ffc250201d8312c325a16a5","","null","","","","","","","learning/Slide41.JPG","null","","","","","",""
"html-keyboard-response","127","300593","0.0-5.0-1.40","FL","b00qxzsc7o","1920","1080","0","0","0","5ffc250201d8312c325a16a5","","null","","","learningBlock1","","","","That was a bim.","null","","","","","",""
"html-keyboard-response","128","301595","0.0-5.0-2.40","FL","b00qxzsc7o","1920","1080","0","0","0","5ffc250201d8312c325a16a5","","null","","","learningBlock1","","","","<div style=""font-size:60px;""> </div>","null","FL","learning/Slide41.JPG","That was a bim.","","",""
"image-keyboard-response","129","301771","0.0-5.0-0.41","FL","b00qxzsc7o","1920","1080","0","0","0","5ffc250201d8312c325a16a5","","null","","","","","","","learning/Slide42.JPG","null","","","","","",""
"html-keyboard-response","130","302924","0.0-5.0-1.41","FL","b00qxzsc7o","1920","1080","0","0","0","5ffc250201d8312c325a16a5","","null","","","learningBlock1","","","","That was a dep.","null","","","","","",""
"html-keyboard-response","131","303925","0.0-5.0-2.41","FL","b00qxzsc7o","1920","1080","0","0","0","5ffc250201d8312c325a16a5","","null","","","learningBlock1","","","","<div style=""font-size:60px;""> </div>","null","FL","learning/Slide42.JPG","That was a dep.","","",""
"image-keyboard-response","132","304101","0.0-5.0-0.42","FL","b00qxzsc7o","1920","1080","0","0","0","5ffc250201d8312c325a16a5","","null","","","","","","","learning/Slide43.JPG","null","","","","","",""
"html-keyboard-response","133","305254","0.0-5.0-1.42","FL","b00qxzsc7o","1920","1080","0","0","0","5ffc250201d8312c325a16a5","","null","","","learningBlock1","","","","That was a wug.","null","","","","","",""
"html-keyboard-response","134","306256","0.0-5.0-2.42","FL","b00qxzsc7o","1920","1080","0","0","0","5ffc250201d8312c325a16a5","","null","","","learningBlock1","","","","<div style=""font-size:60px;""> </div>","null","FL","learning/Slide43.JPG","That was a wug.","","",""
"image-keyboard-response","135","306434","0.0-5.0-0.43","FL","b00qxzsc7o","1920","1080","0","0","0","5ffc250201d8312c325a16a5","","null","","","","","","","learning/Slide44.JPG","null","","","","","",""
"html-keyboard-response","136","307586","0.0-5.0-1.43","FL","b00qxzsc7o","1920","1080","0","0","0","5ffc250201d8312c325a16a5","","null","","","learningBlock1","","","","That was a bim.","null","","","","","",""
"html-keyboard-response","137","308587","0.0-5.0-2.43","FL","b00qxzsc7o","1920","1080","0","0","0","5ffc250201d8312c325a16a5","","null","","","learningBlock1","","","","<div style=""font-size:60px;""> </div>","null","FL","learning/Slide44.JPG","That was a bim.","","",""
"image-keyboard-response","138","308765","0.0-5.0-0.44","FL","b00qxzsc7o","1920","1080","0","0","0","5ffc250201d8312c325a16a5","","null","","","","","","","learning/Slide45.JPG","null","","","","","",""
"html-keyboard-response","139","309918","0.0-5.0-1.44","FL","b00qxzsc7o","1920","1080","0","0","0","5ffc250201d8312c325a16a5","","null","","","learningBlock1","","","","That was a wug.","null","","","","","",""
"html-keyboard-response","140","310919","0.0-5.0-2.44","FL","b00qxzsc7o","1920","1080","0","0","0","5ffc250201d8312c325a16a5","","null","","","learningBlock1","","","","<div style=""font-size:60px;""> </div>","null","FL","learning/Slide45.JPG","That was a wug.","","",""
"image-keyboard-response","141","311095","0.0-5.0-0.45","FL","b00qxzsc7o","1920","1080","0","0","0","5ffc250201d8312c325a16a5","","null","","","","","","","learning/Slide46.JPG","null","","","","","",""
"html-keyboard-response","142","312247","0.0-5.0-1.45","FL","b00qxzsc7o","1920","1080","0","0","0","5ffc250201d8312c325a16a5","","null","","","learningBlock1","","","","That was a dep.","null","","","","","",""
"html-keyboard-response","143","313248","0.0-5.0-2.45","FL","b00qxzsc7o","1920","1080","0","0","0","5ffc250201d8312c325a16a5","","null","","","learningBlock1","","","","<div style=""font-size:60px;""> </div>","null","FL","learning/Slide46.JPG","That was a dep.","","",""
"image-keyboard-response","144","313424","0.0-5.0-0.46","FL","b00qxzsc7o","1920","1080","0","0","0","5ffc250201d8312c325a16a5","","null","","","","","","","learning/Slide47.JPG","null","","","","","",""
"html-keyboard-response","145","314575","0.0-5.0-1.46","FL","b00qxzsc7o","1920","1080","0","0","0","5ffc250201d8312c325a16a5","","null","","","learningBlock1","","","","That was a tob.","null","","","","","",""
"html-keyboard-response","146","315577","0.0-5.0-2.46","FL","b00qxzsc7o","1920","1080","0","0","0","5ffc250201d8312c325a16a5","","null","","","learningBlock1","","","","<div style=""font-size:60px;""> </div>","null","FL","learning/Slide47.JPG","That was a tob.","","",""
"image-keyboard-response","147","315754","0.0-5.0-0.47","FL","b00qxzsc7o","1920","1080","0","0","0","5ffc250201d8312c325a16a5","","null","","","","","","","learning/Slide48.JPG","null","","","","","",""
"html-keyboard-response","148","316908","0.0-5.0-1.47","FL","b00qxzsc7o","1920","1080","0","0","0","5ffc250201d8312c325a16a5","","null","","","learningBlock1","","","","That was a bim.","null","","","","","",""
"html-keyboard-response","149","317910","0.0-5.0-2.47","FL","b00qxzsc7o","1920","1080","0","0","0","5ffc250201d8312c325a16a5","","null","","","learningBlock1","","","","<div style=""font-size:60px;""> </div>","null","FL","learning/Slide48.JPG","That was a bim.","","",""
"image-keyboard-response","150","318086","0.0-5.0-0.48","FL","b00qxzsc7o","1920","1080","0","0","0","5ffc250201d8312c325a16a5","","null","","","","","","","learning/Slide49.JPG","null","","","","","",""
"html-keyboard-response","151","319239","0.0-5.0-1.48","FL","b00qxzsc7o","1920","1080","0","0","0","5ffc250201d8312c325a16a5","","null","","","learningBlock1","","","","That was a dep.","null","","","","","",""
"html-keyboard-response","152","320240","0.0-5.0-2.48","FL","b00qxzsc7o","1920","1080","0","0","0","5ffc250201d8312c325a16a5","","null","","","learningBlock1","","","","<div style=""font-size:60px;""> </div>","null","FL","learning/Slide49.JPG","That was a dep.","","",""
"image-keyboard-response","153","320417","0.0-5.0-0.49","FL","b00qxzsc7o","1920","1080","0","0","0","5ffc250201d8312c325a16a5","","null","","","","","","","learning/Slide50.JPG","null","","","","","",""
"html-keyboard-response","154","321569","0.0-5.0-1.49","FL","b00qxzsc7o","1920","1080","0","0","0","5ffc250201d8312c325a16a5","","null","","","learningBlock1","","","","That was a tob.","null","","","","","",""
"html-keyboard-response","155","322570","0.0-5.0-2.49","FL","b00qxzsc7o","1920","1080","0","0","0","5ffc250201d8312c325a16a5","","null","","","learningBlock1","","","","<div style=""font-size:60px;""> </div>","null","FL","learning/Slide50.JPG","That was a tob.","","",""
"image-keyboard-response","156","322747","0.0-5.0-0.50","FL","b00qxzsc7o","1920","1080","0","0","0","5ffc250201d8312c325a16a5","","null","","","","","","","learning/Slide51.JPG","null","","","","","",""
"html-keyboard-response","157","323900","0.0-5.0-1.50","FL","b00qxzsc7o","1920","1080","0","0","0","5ffc250201d8312c325a16a5","","null","","","learningBlock1","","","","That was a bim.","null","","","","","",""
"html-keyboard-response","158","324902","0.0-5.0-2.50","FL","b00qxzsc7o","1920","1080","0","0","0","5ffc250201d8312c325a16a5","","null","","","learningBlock1","","","","<div style=""font-size:60px;""> </div>","null","FL","learning/Slide51.JPG","That was a bim.","","",""
"image-keyboard-response","159","325078","0.0-5.0-0.51","FL","b00qxzsc7o","1920","1080","0","0","0","5ffc250201d8312c325a16a5","","null","","","","","","","learning/Slide52.JPG","null","","","","","",""
"html-keyboard-response","160","326230","0.0-5.0-1.51","FL","b00qxzsc7o","1920","1080","0","0","0","5ffc250201d8312c325a16a5","","null","","","learningBlock1","","","","That was a wug.","null","","","","","",""
"html-keyboard-response","161","327231","0.0-5.0-2.51","FL","b00qxzsc7o","1920","1080","0","0","0","5ffc250201d8312c325a16a5","","null","","","learningBlock1","","","","<div style=""font-size:60px;""> </div>","null","FL","learning/Slide52.JPG","That was a wug.","","",""
"image-keyboard-response","162","327409","0.0-5.0-0.52","FL","b00qxzsc7o","1920","1080","0","0","0","5ffc250201d8312c325a16a5","","null","","","","","","","learning/Slide53.JPG","null","","","","","",""
"html-keyboard-response","163","328560","0.0-5.0-1.52","FL","b00qxzsc7o","1920","1080","0","0","0","5ffc250201d8312c325a16a5","","null","","","learningBlock1","","","","That was a tob.","null","","","","","",""
"html-keyboard-response","164","329562","0.0-5.0-2.52","FL","b00qxzsc7o","1920","1080","0","0","0","5ffc250201d8312c325a16a5","","null","","","learningBlock1","","","","<div style=""font-size:60px;""> </div>","null","FL","learning/Slide53.JPG","That was a tob.","","",""
"image-keyboard-response","165","329738","0.0-5.0-0.53","FL","b00qxzsc7o","1920","1080","0","0","0","5ffc250201d8312c325a16a5","","null","","","","","","","learning/Slide54.JPG","null","","","","","",""
"html-keyboard-response","166","330890","0.0-5.0-1.53","FL","b00qxzsc7o","1920","1080","0","0","0","5ffc250201d8312c325a16a5","","null","","","learningBlock1","","","","That was a dep.","null","","","","","",""
"html-keyboard-response","167","331892","0.0-5.0-2.53","FL","b00qxzsc7o","1920","1080","0","0","0","5ffc250201d8312c325a16a5","","null","","","learningBlock1","","","","<div style=""font-size:60px;""> </div>","null","FL","learning/Slide54.JPG","That was a dep.","","",""
"image-keyboard-response","168","332069","0.0-5.0-0.54","FL","b00qxzsc7o","1920","1080","0","0","0","5ffc250201d8312c325a16a5","","null","","","","","","","learning/Slide55.JPG","null","","","","","",""
"html-keyboard-response","169","333222","0.0-5.0-1.54","FL","b00qxzsc7o","1920","1080","0","0","0","5ffc250201d8312c325a16a5","","null","","","learningBlock1","","","","That was a bim.","null","","","","","",""
"html-keyboard-response","170","334223","0.0-5.0-2.54","FL","b00qxzsc7o","1920","1080","0","0","0","5ffc250201d8312c325a16a5","","null","","","learningBlock1","","","","<div style=""font-size:60px;""> </div>","null","FL","learning/Slide55.JPG","That was a bim.","","",""
"image-keyboard-response","171","334400","0.0-5.0-0.55","FL","b00qxzsc7o","1920","1080","0","0","0","5ffc250201d8312c325a16a5","","null","","","","","","","learning/Slide56.JPG","null","","","","","",""
"html-keyboard-response","172","335552","0.0-5.0-1.55","FL","b00qxzsc7o","1920","1080","0","0","0","5ffc250201d8312c325a16a5","","null","","","learningBlock1","","","","That was a tob.","null","","","","","",""
"html-keyboard-response","173","336553","0.0-5.0-2.55","FL","b00qxzsc7o","1920","1080","0","0","0","5ffc250201d8312c325a16a5","","null","","","learningBlock1","","","","<div style=""font-size:60px;""> </div>","null","FL","learning/Slide56.JPG","That was a tob.","","",""
"image-keyboard-response","174","336729","0.0-5.0-0.56","FL","b00qxzsc7o","1920","1080","0","0","0","5ffc250201d8312c325a16a5","","null","","","","","","","learning/Slide57.JPG","null","","","","","",""
"html-keyboard-response","175","337882","0.0-5.0-1.56","FL","b00qxzsc7o","1920","1080","0","0","0","5ffc250201d8312c325a16a5","","null","","","learningBlock1","","","","That was a dep.","null","","","","","",""
"html-keyboard-response","176","338884","0.0-5.0-2.56","FL","b00qxzsc7o","1920","1080","0","0","0","5ffc250201d8312c325a16a5","","null","","","learningBlock1","","","","<div style=""font-size:60px;""> </div>","null","FL","learning/Slide57.JPG","That was a dep.","","",""
"image-keyboard-response","177","339064","0.0-5.0-0.57","FL","b00qxzsc7o","1920","1080","0","0","0","5ffc250201d8312c325a16a5","","null","","","","","","","learning/Slide58.JPG","null","","","","","",""
"html-keyboard-response","178","340216","0.0-5.0-1.57","FL","b00qxzsc7o","1920","1080","0","0","0","5ffc250201d8312c325a16a5","","null","","","learningBlock1","","","","That was a wug.","null","","","","","",""
"html-keyboard-response","179","341217","0.0-5.0-2.57","FL","b00qxzsc7o","1920","1080","0","0","0","5ffc250201d8312c325a16a5","","null","","","learningBlock1","","","","<div style=""font-size:60px;""> </div>","null","FL","learning/Slide58.JPG","That was a wug.","","",""
"image-keyboard-response","180","341394","0.0-5.0-0.58","FL","b00qxzsc7o","1920","1080","0","0","0","5ffc250201d8312c325a16a5","","null","","","","","","","learning/Slide59.JPG","null","","","","","",""
"html-keyboard-response","181","342548","0.0-5.0-1.58","FL","b00qxzsc7o","1920","1080","0","0","0","5ffc250201d8312c325a16a5","","null","","","learningBlock1","","","","That was a dep.","null","","","","","",""
"html-keyboard-response","182","343549","0.0-5.0-2.58","FL","b00qxzsc7o","1920","1080","0","0","0","5ffc250201d8312c325a16a5","","null","","","learningBlock1","","","","<div style=""font-size:60px;""> </div>","null","FL","learning/Slide59.JPG","That was a dep.","","",""
"image-keyboard-response","183","343725","0.0-5.0-0.59","FL","b00qxzsc7o","1920","1080","0","0","0","5ffc250201d8312c325a16a5","","null","","","","","","","learning/Slide60.JPG","null","","","","","",""
"html-keyboard-response","184","344878","0.0-5.0-1.59","FL","b00qxzsc7o","1920","1080","0","0","0","5ffc250201d8312c325a16a5","","null","","","learningBlock1","","","","That was a wug.","null","","","","","",""
"html-keyboard-response","185","345880","0.0-5.0-2.59","FL","b00qxzsc7o","1920","1080","0","0","0","5ffc250201d8312c325a16a5","","null","","","learningBlock1","","","","<div style=""font-size:60px;""> </div>","null","FL","learning/Slide60.JPG","That was a wug.","","",""
"image-keyboard-response","186","346058","0.0-5.0-0.60","FL","b00qxzsc7o","1920","1080","0","0","0","5ffc250201d8312c325a16a5","","null","","","","","","","learning/Slide61.JPG","null","","","","","",""
"html-keyboard-response","187","347210","0.0-5.0-1.60","FL","b00qxzsc7o","1920","1080","0","0","0","5ffc250201d8312c325a16a5","","null","","","learningBlock1","","","","That was a bim.","null","","","","","",""
"html-keyboard-response","188","348211","0.0-5.0-2.60","FL","b00qxzsc7o","1920","1080","0","0","0","5ffc250201d8312c325a16a5","","null","","","learningBlock1","","","","<div style=""font-size:60px;""> </div>","null","FL","learning/Slide61.JPG","That was a bim.","","",""
"image-keyboard-response","189","348388","0.0-5.0-0.61","FL","b00qxzsc7o","1920","1080","0","0","0","5ffc250201d8312c325a16a5","","null","","","","","","","learning/Slide62.JPG","null","","","","","",""
"html-keyboard-response","190","349539","0.0-5.0-1.61","FL","b00qxzsc7o","1920","1080","0","0","0","5ffc250201d8312c325a16a5","","null","","","learningBlock1","","","","That was a dep.","null","","","","","",""
"html-keyboard-response","191","350541","0.0-5.0-2.61","FL","b00qxzsc7o","1920","1080","0","0","0","5ffc250201d8312c325a16a5","","null","","","learningBlock1","","","","<div style=""font-size:60px;""> </div>","null","FL","learning/Slide62.JPG","That was a dep.","","",""
"image-keyboard-response","192","350718","0.0-5.0-0.62","FL","b00qxzsc7o","1920","1080","0","0","0","5ffc250201d8312c325a16a5","","null","","","","","","","learning/Slide63.JPG","null","","","","","",""
"html-keyboard-response","193","351871","0.0-5.0-1.62","FL","b00qxzsc7o","1920","1080","0","0","0","5ffc250201d8312c325a16a5","","null","","","learningBlock1","","","","That was a bim.","null","","","","","",""
"html-keyboard-response","194","352873","0.0-5.0-2.62","FL","b00qxzsc7o","1920","1080","0","0","0","5ffc250201d8312c325a16a5","","null","","","learningBlock1","","","","<div style=""font-size:60px;""> </div>","null","FL","learning/Slide63.JPG","That was a bim.","","",""
"image-keyboard-response","195","353051","0.0-5.0-0.63","FL","b00qxzsc7o","1920","1080","0","0","0","5ffc250201d8312c325a16a5","","null","","","","","","","learning/Slide64.JPG","null","","","","","",""
"html-keyboard-response","196","354204","0.0-5.0-1.63","FL","b00qxzsc7o","1920","1080","0","0","0","5ffc250201d8312c325a16a5","","null","","","learningBlock1","","","","That was a tob.","null","","","","","",""
"html-keyboard-response","197","355205","0.0-5.0-2.63","FL","b00qxzsc7o","1920","1080","0","0","0","5ffc250201d8312c325a16a5","","null","","","learningBlock1","","","","<div style=""font-size:60px;""> </div>","null","FL","learning/Slide64.JPG","That was a tob.","","",""
"image-keyboard-response","198","355383","0.0-5.0-0.64","FL","b00qxzsc7o","1920","1080","0","0","0","5ffc250201d8312c325a16a5","","null","","","","","","","learning/Slide65.JPG","null","","","","","",""
"html-keyboard-response","199","356537","0.0-5.0-1.64","FL","b00qxzsc7o","1920","1080","0","0","0","5ffc250201d8312c325a16a5","","null","","","learningBlock1","","","","That was a wug.","null","","","","","",""
"html-keyboard-response","200","357538","0.0-5.0-2.64","FL","b00qxzsc7o","1920","1080","0","0","0","5ffc250201d8312c325a16a5","","null","","","learningBlock1","","","","<div style=""font-size:60px;""> </div>","null","FL","learning/Slide65.JPG","That was a wug.","","",""
"image-keyboard-response","201","357715","0.0-5.0-0.65","FL","b00qxzsc7o","1920","1080","0","0","0","5ffc250201d8312c325a16a5","","null","","","","","","","learning/Slide66.JPG","null","","","","","",""
"html-keyboard-response","202","358868","0.0-5.0-1.65","FL","b00qxzsc7o","1920","1080","0","0","0","5ffc250201d8312c325a16a5","","null","","","learningBlock1","","","","That was a dep.","null","","","","","",""
"html-keyboard-response","203","359869","0.0-5.0-2.65","FL","b00qxzsc7o","1920","1080","0","0","0","5ffc250201d8312c325a16a5","","null","","","learningBlock1","","","","<div style=""font-size:60px;""> </div>","null","FL","learning/Slide66.JPG","That was a dep.","","",""
"image-keyboard-response","204","360046","0.0-5.0-0.66","FL","b00qxzsc7o","1920","1080","0","0","0","5ffc250201d8312c325a16a5","","null","","","","","","","learning/Slide67.JPG","null","","","","","",""
"html-keyboard-response","205","361199","0.0-5.0-1.66","FL","b00qxzsc7o","1920","1080","0","0","0","5ffc250201d8312c325a16a5","","null","","","learningBlock1","","","","That was a tob.","null","","","","","",""
"html-keyboard-response","206","362201","0.0-5.0-2.66","FL","b00qxzsc7o","1920","1080","0","0","0","5ffc250201d8312c325a16a5","","null","","","learningBlock1","","","","<div style=""font-size:60px;""> </div>","null","FL","learning/Slide67.JPG","That was a tob.","","",""
"image-keyboard-response","207","362378","0.0-5.0-0.67","FL","b00qxzsc7o","1920","1080","0","0","0","5ffc250201d8312c325a16a5","","null","","","","","","","learning/Slide68.JPG","null","","","","","",""
"html-keyboard-response","208","363532","0.0-5.0-1.67","FL","b00qxzsc7o","1920","1080","0","0","0","5ffc250201d8312c325a16a5","","null","","","learningBlock1","","","","That was a wug.","null","","","","","",""
"html-keyboard-response","209","364535","0.0-5.0-2.67","FL","b00qxzsc7o","1920","1080","0","0","0","5ffc250201d8312c325a16a5","","null","","","learningBlock1","","","","<div style=""font-size:60px;""> </div>","null","FL","learning/Slide68.JPG","That was a wug.","","",""
"image-keyboard-response","210","364711","0.0-5.0-0.68","FL","b00qxzsc7o","1920","1080","0","0","0","5ffc250201d8312c325a16a5","","null","","","","","","","learning/Slide69.JPG","null","","","","","",""
"html-keyboard-response","211","365863","0.0-5.0-1.68","FL","b00qxzsc7o","1920","1080","0","0","0","5ffc250201d8312c325a16a5","","null","","","learningBlock1","","","","That was a tob.","null","","","","","",""
"html-keyboard-response","212","366864","0.0-5.0-2.68","FL","b00qxzsc7o","1920","1080","0","0","0","5ffc250201d8312c325a16a5","","null","","","learningBlock1","","","","<div style=""font-size:60px;""> </div>","null","FL","learning/Slide69.JPG","That was a tob.","","",""
"image-keyboard-response","213","367040","0.0-5.0-0.69","FL","b00qxzsc7o","1920","1080","0","0","0","5ffc250201d8312c325a16a5","","null","","","","","","","learning/Slide70.JPG","null","","","","","",""
"html-keyboard-response","214","368193","0.0-5.0-1.69","FL","b00qxzsc7o","1920","1080","0","0","0","5ffc250201d8312c325a16a5","","null","","","learningBlock1","","","","That was a dep.","null","","","","","",""
"html-keyboard-response","215","369194","0.0-5.0-2.69","FL","b00qxzsc7o","1920","1080","0","0","0","5ffc250201d8312c325a16a5","","null","","","learningBlock1","","","","<div style=""font-size:60px;""> </div>","null","FL","learning/Slide70.JPG","That was a dep.","","",""
"image-keyboard-response","216","369371","0.0-5.0-0.70","FL","b00qxzsc7o","1920","1080","0","0","0","5ffc250201d8312c325a16a5","","null","","","","","","","learning/Slide71.JPG","null","","","","","",""
"html-keyboard-response","217","370523","0.0-5.0-1.70","FL","b00qxzsc7o","1920","1080","0","0","0","5ffc250201d8312c325a16a5","","null","","","learningBlock1","","","","That was a wug.","null","","","","","",""
"html-keyboard-response","218","371524","0.0-5.0-2.70","FL","b00qxzsc7o","1920","1080","0","0","0","5ffc250201d8312c325a16a5","","null","","","learningBlock1","","","","<div style=""font-size:60px;""> </div>","null","FL","learning/Slide71.JPG","That was a wug.","","",""
"image-keyboard-response","219","371700","0.0-5.0-0.71","FL","b00qxzsc7o","1920","1080","0","0","0","5ffc250201d8312c325a16a5","","null","","","","","","","learning/Slide72.JPG","null","","","","","",""
"html-keyboard-response","220","372851","0.0-5.0-1.71","FL","b00qxzsc7o","1920","1080","0","0","0","5ffc250201d8312c325a16a5","","null","","","learningBlock1","","","","That was a bim.","null","","","","","",""
"html-keyboard-response","221","373852","0.0-5.0-2.71","FL","b00qxzsc7o","1920","1080","0","0","0","5ffc250201d8312c325a16a5","","null","","","learningBlock1","","","","<div style=""font-size:60px;""> </div>","null","FL","learning/Slide72.JPG","That was a bim.","","",""
"image-keyboard-response","222","374030","0.0-5.0-0.72","FL","b00qxzsc7o","1920","1080","0","0","0","5ffc250201d8312c325a16a5","","null","","","","","","","learning/Slide73.JPG","null","","","","","",""
"html-keyboard-response","223","375182","0.0-5.0-1.72","FL","b00qxzsc7o","1920","1080","0","0","0","5ffc250201d8312c325a16a5","","null","","","learningBlock1","","","","That was a wug.","null","","","","","",""
"html-keyboard-response","224","376184","0.0-5.0-2.72","FL","b00qxzsc7o","1920","1080","0","0","0","5ffc250201d8312c325a16a5","","null","","","learningBlock1","","","","<div style=""font-size:60px;""> </div>","null","FL","learning/Slide73.JPG","That was a wug.","","",""
"image-keyboard-response","225","376360","0.0-5.0-0.73","FL","b00qxzsc7o","1920","1080","0","0","0","5ffc250201d8312c325a16a5","","null","","","","","","","learning/Slide74.JPG","null","","","","","",""
"html-keyboard-response","226","377511","0.0-5.0-1.73","FL","b00qxzsc7o","1920","1080","0","0","0","5ffc250201d8312c325a16a5","","null","","","learningBlock1","","","","That was a dep.","null","","","","","",""
"html-keyboard-response","227","378512","0.0-5.0-2.73","FL","b00qxzsc7o","1920","1080","0","0","0","5ffc250201d8312c325a16a5","","null","","","learningBlock1","","","","<div style=""font-size:60px;""> </div>","null","FL","learning/Slide74.JPG","That was a dep.","","",""
"image-keyboard-response","228","378690","0.0-5.0-0.74","FL","b00qxzsc7o","1920","1080","0","0","0","5ffc250201d8312c325a16a5","","null","","","","","","","learning/Slide75.JPG","null","","","","","",""
"html-keyboard-response","229","379842","0.0-5.0-1.74","FL","b00qxzsc7o","1920","1080","0","0","0","5ffc250201d8312c325a16a5","","null","","","learningBlock1","","","","That was a tob.","null","","","","","",""
"html-keyboard-response","230","380844","0.0-5.0-2.74","FL","b00qxzsc7o","1920","1080","0","0","0","5ffc250201d8312c325a16a5","","null","","","learningBlock1","","","","<div style=""font-size:60px;""> </div>","null","FL","learning/Slide75.JPG","That was a tob.","","",""
"image-keyboard-response","231","381019","0.0-5.0-0.75","FL","b00qxzsc7o","1920","1080","0","0","0","5ffc250201d8312c325a16a5","","null","","","","","","","learning/Slide76.JPG","null","","","","","",""
"html-keyboard-response","232","382171","0.0-5.0-1.75","FL","b00qxzsc7o","1920","1080","0","0","0","5ffc250201d8312c325a16a5","","null","","","learningBlock1","","","","That was a bim.","null","","","","","",""
"html-keyboard-response","233","383173","0.0-5.0-2.75","FL","b00qxzsc7o","1920","1080","0","0","0","5ffc250201d8312c325a16a5","","null","","","learningBlock1","","","","<div style=""font-size:60px;""> </div>","null","FL","learning/Slide76.JPG","That was a bim.","","",""
"image-keyboard-response","234","383350","0.0-5.0-0.76","FL","b00qxzsc7o","1920","1080","0","0","0","5ffc250201d8312c325a16a5","","null","","","","","","","learning/Slide77.JPG","null","","","","","",""
"html-keyboard-response","235","384503","0.0-5.0-1.76","FL","b00qxzsc7o","1920","1080","0","0","0","5ffc250201d8312c325a16a5","","null","","","learningBlock1","","","","That was a tob.","null","","","","","",""
"html-keyboard-response","236","385504","0.0-5.0-2.76","FL","b00qxzsc7o","1920","1080","0","0","0","5ffc250201d8312c325a16a5","","null","","","learningBlock1","","","","<div style=""font-size:60px;""> </div>","null","FL","learning/Slide77.JPG","That was a tob.","","",""
"image-keyboard-response","237","385681","0.0-5.0-0.77","FL","b00qxzsc7o","1920","1080","0","0","0","5ffc250201d8312c325a16a5","","null","","","","","","","learning/Slide78.JPG","null","","","","","",""
"html-keyboard-response","238","386833","0.0-5.0-1.77","FL","b00qxzsc7o","1920","1080","0","0","0","5ffc250201d8312c325a16a5","","null","","","learningBlock1","","","","That was a wug.","null","","","","","",""
"html-keyboard-response","239","387835","0.0-5.0-2.77","FL","b00qxzsc7o","1920","1080","0","0","0","5ffc250201d8312c325a16a5","","null","","","learningBlock1","","","","<div style=""font-size:60px;""> </div>","null","FL","learning/Slide78.JPG","That was a wug.","","",""
"image-keyboard-response","240","388011","0.0-5.0-0.78","FL","b00qxzsc7o","1920","1080","0","0","0","5ffc250201d8312c325a16a5","","null","","","","","","","learning/Slide79.JPG","null","","","","","",""
"html-keyboard-response","241","389163","0.0-5.0-1.78","FL","b00qxzsc7o","1920","1080","0","0","0","5ffc250201d8312c325a16a5","","null","","","learningBlock1","","","","That was a bim.","null","","","","","",""
"html-keyboard-response","242","390164","0.0-5.0-2.78","FL","b00qxzsc7o","1920","1080","0","0","0","5ffc250201d8312c325a16a5","","null","","","learningBlock1","","","","<div style=""font-size:60px;""> </div>","null","FL","learning/Slide79.JPG","That was a bim.","","",""
"image-keyboard-response","243","390340","0.0-5.0-0.79","FL","b00qxzsc7o","1920","1080","0","0","0","5ffc250201d8312c325a16a5","","null","","","","","","","learning/Slide80.JPG","null","","","","","",""
"html-keyboard-response","244","391492","0.0-5.0-1.79","FL","b00qxzsc7o","1920","1080","0","0","0","5ffc250201d8312c325a16a5","","null","","","learningBlock1","","","","That was a tob.","null","","","","","",""
"html-keyboard-response","245","392493","0.0-5.0-2.79","FL","b00qxzsc7o","1920","1080","0","0","0","5ffc250201d8312c325a16a5","","null","","","learningBlock1","","","","<div style=""font-size:60px;""> </div>","null","FL","learning/Slide80.JPG","That was a tob.","","",""
"instructions","246","398816","0.0-6.0","FL","b00qxzsc7o","1920","1080","0","0","0","5ffc250201d8312c325a16a5","","NA","","[{""page_index"":0,""viewing_time"":6323.249999997672}]","instructions","","","","","","","","","","",""
"image-keyboard-response","247","398993","0.0-7.0-0.0","FL","b00qxzsc7o","1920","1080","0","0","0","5ffc250201d8312c325a16a5","","null","","","","","","","learning/Slide81.JPG","null","","","","","",""
"html-keyboard-response","248","400145","0.0-7.0-1.0","FL","b00qxzsc7o","1920","1080","0","0","0","5ffc250201d8312c325a16a5","","null","","","learningBlock2","","","","That was a wug.","null","","","","","",""
"html-keyboard-response","249","401146","0.0-7.0-2.0","FL","b00qxzsc7o","1920","1080","0","0","0","5ffc250201d8312c325a16a5","","null","","","learningBlock2","","","","<div style=""font-size:60px;""> </div>","null","FL","learning/Slide81.JPG","That was a wug.","","",""
"image-keyboard-response","250","401322","0.0-7.0-0.1","FL","b00qxzsc7o","1920","1080","0","0","0","5ffc250201d8312c325a16a5","","null","","","","","","","learning/Slide82.JPG","null","","","","","",""
"html-keyboard-response","251","402475","0.0-7.0-1.1","FL","b00qxzsc7o","1920","1080","0","0","0","5ffc250201d8312c325a16a5","","null","","","learningBlock2","","","","That was a bim.","null","","","","","",""
"html-keyboard-response","252","403477","0.0-7.0-2.1","FL","b00qxzsc7o","1920","1080","0","0","0","5ffc250201d8312c325a16a5","","null","","","learningBlock2","","","","<div style=""font-size:60px;""> </div>","null","FL","learning/Slide82.JPG","That was a bim.","","",""
"image-keyboard-response","253","403654","0.0-7.0-0.2","FL","b00qxzsc7o","1920","1080","0","0","0","5ffc250201d8312c325a16a5","","null","","","","","","","learning/Slide83.JPG","null","","","","","",""
"html-keyboard-response","254","404805","0.0-7.0-1.2","FL","b00qxzsc7o","1920","1080","0","0","0","5ffc250201d8312c325a16a5","","null","","","learningBlock2","","","","That was a wug.","null","","","","","",""
"html-keyboard-response","255","405807","0.0-7.0-2.2","FL","b00qxzsc7o","1920","1080","0","0","0","5ffc250201d8312c325a16a5","","null","","","learningBlock2","","","","<div style=""font-size:60px;""> </div>","null","FL","learning/Slide83.JPG","That was a wug.","","",""
"image-keyboard-response","256","405983","0.0-7.0-0.3","FL","b00qxzsc7o","1920","1080","0","0","0","5ffc250201d8312c325a16a5","","null","","","","","","","learning/Slide84.JPG","null","","","","","",""
"html-keyboard-response","257","407135","0.0-7.0-1.3","FL","b00qxzsc7o","1920","1080","0","0","0","5ffc250201d8312c325a16a5","","null","","","learningBlock2","","","","That was a dep.","null","","","","","",""
"html-keyboard-response","258","408136","0.0-7.0-2.3","FL","b00qxzsc7o","1920","1080","0","0","0","5ffc250201d8312c325a16a5","","null","","","learningBlock2","","","","<div style=""font-size:60px;""> </div>","null","FL","learning/Slide84.JPG","That was a dep.","","",""
"image-keyboard-response","259","408313","0.0-7.0-0.4","FL","b00qxzsc7o","1920","1080","0","0","0","5ffc250201d8312c325a16a5","","null","","","","","","","learning/Slide85.JPG","null","","","","","",""
"html-keyboard-response","260","409465","0.0-7.0-1.4","FL","b00qxzsc7o","1920","1080","0","0","0","5ffc250201d8312c325a16a5","","null","","","learningBlock2","","","","That was a bim.","null","","","","","",""
"html-keyboard-response","261","410467","0.0-7.0-2.4","FL","b00qxzsc7o","1920","1080","0","0","0","5ffc250201d8312c325a16a5","","null","","","learningBlock2","","","","<div style=""font-size:60px;""> </div>","null","FL","learning/Slide85.JPG","That was a bim.","","",""
"image-keyboard-response","262","410643","0.0-7.0-0.5","FL","b00qxzsc7o","1920","1080","0","0","0","5ffc250201d8312c325a16a5","","null","","","","","","","learning/Slide86.JPG","null","","","","","",""
"html-keyboard-response","263","411796","0.0-7.0-1.5","FL","b00qxzsc7o","1920","1080","0","0","0","5ffc250201d8312c325a16a5","","null","","","learningBlock2","","","","That was a tob.","null","","","","","",""
"html-keyboard-response","264","412798","0.0-7.0-2.5","FL","b00qxzsc7o","1920","1080","0","0","0","5ffc250201d8312c325a16a5","","null","","","learningBlock2","","","","<div style=""font-size:60px;""> </div>","null","FL","learning/Slide86.JPG","That was a tob.","","",""
"image-keyboard-response","265","412974","0.0-7.0-0.6","FL","b00qxzsc7o","1920","1080","0","0","0","5ffc250201d8312c325a16a5","","null","","","","","","","learning/Slide87.JPG","null","","","","","",""
"html-keyboard-response","266","414127","0.0-7.0-1.6","FL","b00qxzsc7o","1920","1080","0","0","0","5ffc250201d8312c325a16a5","","null","","","learningBlock2","","","","That was a wug.","null","","","","","",""
"html-keyboard-response","267","415128","0.0-7.0-2.6","FL","b00qxzsc7o","1920","1080","0","0","0","5ffc250201d8312c325a16a5","","null","","","learningBlock2","","","","<div style=""font-size:60px;""> </div>","null","FL","learning/Slide87.JPG","That was a wug.","","",""
"image-keyboard-response","268","415305","0.0-7.0-0.7","FL","b00qxzsc7o","1920","1080","0","0","0","5ffc250201d8312c325a16a5","","null","","","","","","","learning/Slide88.JPG","null","","","","","",""
"html-keyboard-response","269","416457","0.0-7.0-1.7","FL","b00qxzsc7o","1920","1080","0","0","0","5ffc250201d8312c325a16a5","","null","","","learningBlock2","","","","That was a tob.","null","","","","","",""
"html-keyboard-response","270","417458","0.0-7.0-2.7","FL","b00qxzsc7o","1920","1080","0","0","0","5ffc250201d8312c325a16a5","","null","","","learningBlock2","","","","<div style=""font-size:60px;""> </div>","null","FL","learning/Slide88.JPG","That was a tob.","","",""
"image-keyboard-response","271","417636","0.0-7.0-0.8","FL","b00qxzsc7o","1920","1080","0","0","0","5ffc250201d8312c325a16a5","","null","","","","","","","learning/Slide89.JPG","null","","","","","",""
"html-keyboard-response","272","418789","0.0-7.0-1.8","FL","b00qxzsc7o","1920","1080","0","0","0","5ffc250201d8312c325a16a5","","null","","","learningBlock2","","","","That was a bim.","null","","","","","",""
"html-keyboard-response","273","419790","0.0-7.0-2.8","FL","b00qxzsc7o","1920","1080","0","0","0","5ffc250201d8312c325a16a5","","null","","","learningBlock2","","","","<div style=""font-size:60px;""> </div>","null","FL","learning/Slide89.JPG","That was a bim.","","",""
"image-keyboard-response","274","419967","0.0-7.0-0.9","FL","b00qxzsc7o","1920","1080","0","0","0","5ffc250201d8312c325a16a5","","null","","","","","","","learning/Slide90.JPG","null","","","","","",""
"html-keyboard-response","275","421121","0.0-7.0-1.9","FL","b00qxzsc7o","1920","1080","0","0","0","5ffc250201d8312c325a16a5","","null","","","learningBlock2","","","","That was a dep.","null","","","","","",""
"html-keyboard-response","276","422122","0.0-7.0-2.9","FL","b00qxzsc7o","1920","1080","0","0","0","5ffc250201d8312c325a16a5","","null","","","learningBlock2","","","","<div style=""font-size:60px;""> </div>","null","FL","learning/Slide90.JPG","That was a dep.","","",""
"image-keyboard-response","277","422300","0.0-7.0-0.10","FL","b00qxzsc7o","1920","1080","0","0","0","5ffc250201d8312c325a16a5","","null","","","","","","","learning/Slide91.JPG","null","","","","","",""
"html-keyboard-response","278","423452","0.0-7.0-1.10","FL","b00qxzsc7o","1920","1080","0","0","0","5ffc250201d8312c325a16a5","","null","","","learningBlock2","","","","That was a wug.","null","","","","","",""
"html-keyboard-response","279","424453","0.0-7.0-2.10","FL","b00qxzsc7o","1920","1080","0","0","0","5ffc250201d8312c325a16a5","","null","","","learningBlock2","","","","<div style=""font-size:60px;""> </div>","null","FL","learning/Slide91.JPG","That was a wug.","","",""
"image-keyboard-response","280","424629","0.0-7.0-0.11","FL","b00qxzsc7o","1920","1080","0","0","0","5ffc250201d8312c325a16a5","","null","","","","","","","learning/Slide92.JPG","null","","","","","",""
"html-keyboard-response","281","425781","0.0-7.0-1.11","FL","b00qxzsc7o","1920","1080","0","0","0","5ffc250201d8312c325a16a5","","null","","","learningBlock2","","","","That was a tob.","null","","","","","",""
"html-keyboard-response","282","426782","0.0-7.0-2.11","FL","b00qxzsc7o","1920","1080","0","0","0","5ffc250201d8312c325a16a5","","null","","","learningBlock2","","","","<div style=""font-size:60px;""> </div>","null","FL","learning/Slide92.JPG","That was a tob.","","",""
"image-keyboard-response","283","426959","0.0-7.0-0.12","FL","b00qxzsc7o","1920","1080","0","0","0","5ffc250201d8312c325a16a5","","null","","","","","","","learning/Slide93.JPG","null","","","","","",""
"html-keyboard-response","284","428112","0.0-7.0-1.12","FL","b00qxzsc7o","1920","1080","0","0","0","5ffc250201d8312c325a16a5","","null","","","learningBlock2","","","","That was a bim.","null","","","","","",""
"html-keyboard-response","285","429114","0.0-7.0-2.12","FL","b00qxzsc7o","1920","1080","0","0","0","5ffc250201d8312c325a16a5","","null","","","learningBlock2","","","","<div style=""font-size:60px;""> </div>","null","FL","learning/Slide93.JPG","That was a bim.","","",""
"image-keyboard-response","286","429292","0.0-7.0-0.13","FL","b00qxzsc7o","1920","1080","0","0","0","5ffc250201d8312c325a16a5","","null","","","","","","","learning/Slide94.JPG","null","","","","","",""
"html-keyboard-response","287","430444","0.0-7.0-1.13","FL","b00qxzsc7o","1920","1080","0","0","0","5ffc250201d8312c325a16a5","","null","","","learningBlock2","","","","That was a tob.","null","","","","","",""
"html-keyboard-response","288","431445","0.0-7.0-2.13","FL","b00qxzsc7o","1920","1080","0","0","0","5ffc250201d8312c325a16a5","","null","","","learningBlock2","","","","<div style=""font-size:60px;""> </div>","null","FL","learning/Slide94.JPG","That was a tob.","","",""
"image-keyboard-response","289","431624","0.0-7.0-0.14","FL","b00qxzsc7o","1920","1080","0","0","0","5ffc250201d8312c325a16a5","","null","","","","","","","learning/Slide95.JPG","null","","","","","",""
"html-keyboard-response","290","432775","0.0-7.0-1.14","FL","b00qxzsc7o","1920","1080","0","0","0","5ffc250201d8312c325a16a5","","null","","","learningBlock2","","","","That was a wug.","null","","","","","",""
"html-keyboard-response","291","433776","0.0-7.0-2.14","FL","b00qxzsc7o","1920","1080","0","0","0","5ffc250201d8312c325a16a5","","null","","","learningBlock2","","","","<div style=""font-size:60px;""> </div>","null","FL","learning/Slide95.JPG","That was a wug.","","",""
"image-keyboard-response","292","433953","0.0-7.0-0.15","FL","b00qxzsc7o","1920","1080","0","0","0","5ffc250201d8312c325a16a5","","null","","","","","","","learning/Slide96.JPG","null","","","","","",""
"html-keyboard-response","293","435105","0.0-7.0-1.15","FL","b00qxzsc7o","1920","1080","0","0","0","5ffc250201d8312c325a16a5","","null","","","learningBlock2","","","","That was a tob.","null","","","","","",""
"html-keyboard-response","294","436106","0.0-7.0-2.15","FL","b00qxzsc7o","1920","1080","0","0","0","5ffc250201d8312c325a16a5","","null","","","learningBlock2","","","","<div style=""font-size:60px;""> </div>","null","FL","learning/Slide96.JPG","That was a tob.","","",""
"image-keyboard-response","295","436282","0.0-7.0-0.16","FL","b00qxzsc7o","1920","1080","0","0","0","5ffc250201d8312c325a16a5","","null","","","","","","","learning/Slide97.JPG","null","","","","","",""
"html-keyboard-response","296","437435","0.0-7.0-1.16","FL","b00qxzsc7o","1920","1080","0","0","0","5ffc250201d8312c325a16a5","","null","","","learningBlock2","","","","That was a dep.","null","","","","","",""
"html-keyboard-response","297","438436","0.0-7.0-2.16","FL","b00qxzsc7o","1920","1080","0","0","0","5ffc250201d8312c325a16a5","","null","","","learningBlock2","","","","<div style=""font-size:60px;""> </div>","null","FL","learning/Slide97.JPG","That was a dep.","","",""
"image-keyboard-response","298","438613","0.0-7.0-0.17","FL","b00qxzsc7o","1920","1080","0","0","0","5ffc250201d8312c325a16a5","","null","","","","","","","learning/Slide98.JPG","null","","","","","",""
"html-keyboard-response","299","439765","0.0-7.0-1.17","FL","b00qxzsc7o","1920","1080","0","0","0","5ffc250201d8312c325a16a5","","null","","","learningBlock2","","","","That was a bim.","null","","","","","",""
"html-keyboard-response","300","440766","0.0-7.0-2.17","FL","b00qxzsc7o","1920","1080","0","0","0","5ffc250201d8312c325a16a5","","null","","","learningBlock2","","","","<div style=""font-size:60px;""> </div>","null","FL","learning/Slide98.JPG","That was a bim.","","",""
"image-keyboard-response","301","440943","0.0-7.0-0.18","FL","b00qxzsc7o","1920","1080","0","0","0","5ffc250201d8312c325a16a5","","null","","","","","","","learning/Slide99.JPG","null","","","","","",""
"html-keyboard-response","302","442096","0.0-7.0-1.18","FL","b00qxzsc7o","1920","1080","0","0","0","5ffc250201d8312c325a16a5","","null","","","learningBlock2","","","","That was a dep.","null","","","","","",""
"html-keyboard-response","303","443097","0.0-7.0-2.18","FL","b00qxzsc7o","1920","1080","0","0","0","5ffc250201d8312c325a16a5","","null","","","learningBlock2","","","","<div style=""font-size:60px;""> </div>","null","FL","learning/Slide99.JPG","That was a dep.","","",""
"image-keyboard-response","304","443273","0.0-7.0-0.19","FL","b00qxzsc7o","1920","1080","0","0","0","5ffc250201d8312c325a16a5","","null","","","","","","","learning/Slide100.JPG","null","","","","","",""
"html-keyboard-response","305","444425","0.0-7.0-1.19","FL","b00qxzsc7o","1920","1080","0","0","0","5ffc250201d8312c325a16a5","","null","","","learningBlock2","","","","That was a bim.","null","","","","","",""
"html-keyboard-response","306","445426","0.0-7.0-2.19","FL","b00qxzsc7o","1920","1080","0","0","0","5ffc250201d8312c325a16a5","","null","","","learningBlock2","","","","<div style=""font-size:60px;""> </div>","null","FL","learning/Slide100.JPG","That was a bim.","","",""
"image-keyboard-response","307","445602","0.0-7.0-0.20","FL","b00qxzsc7o","1920","1080","0","0","0","5ffc250201d8312c325a16a5","","null","","","","","","","learning/Slide101.JPG","null","","","","","",""
"html-keyboard-response","308","446754","0.0-7.0-1.20","FL","b00qxzsc7o","1920","1080","0","0","0","5ffc250201d8312c325a16a5","","null","","","learningBlock2","","","","That was a tob.","null","","","","","",""
"html-keyboard-response","309","447755","0.0-7.0-2.20","FL","b00qxzsc7o","1920","1080","0","0","0","5ffc250201d8312c325a16a5","","null","","","learningBlock2","","","","<div style=""font-size:60px;""> </div>","null","FL","learning/Slide101.JPG","That was a tob.","","",""
"image-keyboard-response","310","447933","0.0-7.0-0.21","FL","b00qxzsc7o","1920","1080","0","0","0","5ffc250201d8312c325a16a5","","null","","","","","","","learning/Slide102.JPG","null","","","","","",""
"html-keyboard-response","311","449085","0.0-7.0-1.21","FL","b00qxzsc7o","1920","1080","0","0","0","5ffc250201d8312c325a16a5","","null","","","learningBlock2","","","","That was a bim.","null","","","","","",""
"html-keyboard-response","312","450086","0.0-7.0-2.21","FL","b00qxzsc7o","1920","1080","0","0","0","5ffc250201d8312c325a16a5","","null","","","learningBlock2","","","","<div style=""font-size:60px;""> </div>","null","FL","learning/Slide102.JPG","That was a bim.","","",""
"image-keyboard-response","313","450262","0.0-7.0-0.22","FL","b00qxzsc7o","1920","1080","0","0","0","5ffc250201d8312c325a16a5","","null","","","","","","","learning/Slide103.JPG","null","","","","","",""
"html-keyboard-response","314","451414","0.0-7.0-1.22","FL","b00qxzsc7o","1920","1080","0","0","0","5ffc250201d8312c325a16a5","","null","","","learningBlock2","","","","That was a dep.","null","","","","","",""
"html-keyboard-response","315","452415","0.0-7.0-2.22","FL","b00qxzsc7o","1920","1080","0","0","0","5ffc250201d8312c325a16a5","","null","","","learningBlock2","","","","<div style=""font-size:60px;""> </div>","null","FL","learning/Slide103.JPG","That was a dep.","","",""
"image-keyboard-response","316","452592","0.0-7.0-0.23","FL","b00qxzsc7o","1920","1080","0","0","0","5ffc250201d8312c325a16a5","","null","","","","","","","learning/Slide104.JPG","null","","","","","",""
"html-keyboard-response","317","453745","0.0-7.0-1.23","FL","b00qxzsc7o","1920","1080","0","0","0","5ffc250201d8312c325a16a5","","null","","","learningBlock2","","","","That was a tob.","null","","","","","",""
"html-keyboard-response","318","454746","0.0-7.0-2.23","FL","b00qxzsc7o","1920","1080","0","0","0","5ffc250201d8312c325a16a5","","null","","","learningBlock2","","","","<div style=""font-size:60px;""> </div>","null","FL","learning/Slide104.JPG","That was a tob.","","",""
"image-keyboard-response","319","454922","0.0-7.0-0.24","FL","b00qxzsc7o","1920","1080","0","0","0","5ffc250201d8312c325a16a5","","null","","","","","","","learning/Slide105.JPG","null","","","","","",""
"html-keyboard-response","320","456074","0.0-7.0-1.24","FL","b00qxzsc7o","1920","1080","0","0","0","5ffc250201d8312c325a16a5","","null","","","learningBlock2","","","","That was a dep.","null","","","","","",""
"html-keyboard-response","321","457076","0.0-7.0-2.24","FL","b00qxzsc7o","1920","1080","0","0","0","5ffc250201d8312c325a16a5","","null","","","learningBlock2","","","","<div style=""font-size:60px;""> </div>","null","FL","learning/Slide105.JPG","That was a dep.","","",""
"image-keyboard-response","322","457254","0.0-7.0-0.25","FL","b00qxzsc7o","1920","1080","0","0","0","5ffc250201d8312c325a16a5","","null","","","","","","","learning/Slide106.JPG","null","","","","","",""
"html-keyboard-response","323","458406","0.0-7.0-1.25","FL","b00qxzsc7o","1920","1080","0","0","0","5ffc250201d8312c325a16a5","","null","","","learningBlock2","","","","That was a wug.","null","","","","","",""
"html-keyboard-response","324","459408","0.0-7.0-2.25","FL","b00qxzsc7o","1920","1080","0","0","0","5ffc250201d8312c325a16a5","","null","","","learningBlock2","","","","<div style=""font-size:60px;""> </div>","null","FL","learning/Slide106.JPG","That was a wug.","","",""
"image-keyboard-response","325","459585","0.0-7.0-0.26","FL","b00qxzsc7o","1920","1080","0","0","0","5ffc250201d8312c325a16a5","","null","","","","","","","learning/Slide107.JPG","null","","","","","",""
"html-keyboard-response","326","460738","0.0-7.0-1.26","FL","b00qxzsc7o","1920","1080","0","0","0","5ffc250201d8312c325a16a5","","null","","","learningBlock2","","","","That was a bim.","null","","","","","",""
"html-keyboard-response","327","461739","0.0-7.0-2.26","FL","b00qxzsc7o","1920","1080","0","0","0","5ffc250201d8312c325a16a5","","null","","","learningBlock2","","","","<div style=""font-size:60px;""> </div>","null","FL","learning/Slide107.JPG","That was a bim.","","",""
"image-keyboard-response","328","461918","0.0-7.0-0.27","FL","b00qxzsc7o","1920","1080","0","0","0","5ffc250201d8312c325a16a5","","null","","","","","","","learning/Slide108.JPG","null","","","","","",""
"html-keyboard-response","329","463069","0.0-7.0-1.27","FL","b00qxzsc7o","1920","1080","0","0","0","5ffc250201d8312c325a16a5","","null","","","learningBlock2","","","","That was a dep.","null","","","","","",""
"html-keyboard-response","330","464070","0.0-7.0-2.27","FL","b00qxzsc7o","1920","1080","0","0","0","5ffc250201d8312c325a16a5","","null","","","learningBlock2","","","","<div style=""font-size:60px;""> </div>","null","FL","learning/Slide108.JPG","That was a dep.","","",""
"image-keyboard-response","331","464246","0.0-7.0-0.28","FL","b00qxzsc7o","1920","1080","0","0","0","5ffc250201d8312c325a16a5","","null","","","","","","","learning/Slide109.JPG","null","","","","","",""
"html-keyboard-response","332","465398","0.0-7.0-1.28","FL","b00qxzsc7o","1920","1080","0","0","0","5ffc250201d8312c325a16a5","","null","","","learningBlock2","","","","That was a wug.","null","","","","","",""
"html-keyboard-response","333","466400","0.0-7.0-2.28","FL","b00qxzsc7o","1920","1080","0","0","0","5ffc250201d8312c325a16a5","","null","","","learningBlock2","","","","<div style=""font-size:60px;""> </div>","null","FL","learning/Slide109.JPG","That was a wug.","","",""
"image-keyboard-response","334","466577","0.0-7.0-0.29","FL","b00qxzsc7o","1920","1080","0","0","0","5ffc250201d8312c325a16a5","","null","","","","","","","learning/Slide110.JPG","null","","","","","",""
"html-keyboard-response","335","467730","0.0-7.0-1.29","FL","b00qxzsc7o","1920","1080","0","0","0","5ffc250201d8312c325a16a5","","null","","","learningBlock2","","","","That was a bim.","null","","","","","",""
"html-keyboard-response","336","468731","0.0-7.0-2.29","FL","b00qxzsc7o","1920","1080","0","0","0","5ffc250201d8312c325a16a5","","null","","","learningBlock2","","","","<div style=""font-size:60px;""> </div>","null","FL","learning/Slide110.JPG","That was a bim.","","",""
"image-keyboard-response","337","468907","0.0-7.0-0.30","FL","b00qxzsc7o","1920","1080","0","0","0","5ffc250201d8312c325a16a5","","null","","","","","","","learning/Slide111.JPG","null","","","","","",""
"html-keyboard-response","338","470059","0.0-7.0-1.30","FL","b00qxzsc7o","1920","1080","0","0","0","5ffc250201d8312c325a16a5","","null","","","learningBlock2","","","","That was a tob.","null","","","","","",""
"html-keyboard-response","339","471060","0.0-7.0-2.30","FL","b00qxzsc7o","1920","1080","0","0","0","5ffc250201d8312c325a16a5","","null","","","learningBlock2","","","","<div style=""font-size:60px;""> </div>","null","FL","learning/Slide111.JPG","That was a tob.","","",""
"image-keyboard-response","340","471237","0.0-7.0-0.31","FL","b00qxzsc7o","1920","1080","0","0","0","5ffc250201d8312c325a16a5","","null","","","","","","","learning/Slide112.JPG","null","","","","","",""
"html-keyboard-response","341","472389","0.0-7.0-1.31","FL","b00qxzsc7o","1920","1080","0","0","0","5ffc250201d8312c325a16a5","","null","","","learningBlock2","","","","That was a wug.","null","","","","","",""
"html-keyboard-response","342","473391","0.0-7.0-2.31","FL","b00qxzsc7o","1920","1080","0","0","0","5ffc250201d8312c325a16a5","","null","","","learningBlock2","","","","<div style=""font-size:60px;""> </div>","null","FL","learning/Slide112.JPG","That was a wug.","","",""
"image-keyboard-response","343","473566","0.0-7.0-0.32","FL","b00qxzsc7o","1920","1080","0","0","0","5ffc250201d8312c325a16a5","","null","","","","","","","learning/Slide113.JPG","null","","","","","",""
"html-keyboard-response","344","474718","0.0-7.0-1.32","FL","b00qxzsc7o","1920","1080","0","0","0","5ffc250201d8312c325a16a5","","null","","","learningBlock2","","","","That was a tob.","null","","","","","",""
"html-keyboard-response","345","475719","0.0-7.0-2.32","FL","b00qxzsc7o","1920","1080","0","0","0","5ffc250201d8312c325a16a5","","null","","","learningBlock2","","","","<div style=""font-size:60px;""> </div>","null","FL","learning/Slide113.JPG","That was a tob.","","",""
"image-keyboard-response","346","475895","0.0-7.0-0.33","FL","b00qxzsc7o","1920","1080","0","0","0","5ffc250201d8312c325a16a5","","null","","","","","","","learning/Slide114.JPG","null","","","","","",""
"html-keyboard-response","347","477047","0.0-7.0-1.33","FL","b00qxzsc7o","1920","1080","0","0","0","5ffc250201d8312c325a16a5","","null","","","learningBlock2","","","","That was a wug.","null","","","","","",""
"html-keyboard-response","348","478049","0.0-7.0-2.33","FL","b00qxzsc7o","1920","1080","0","0","0","5ffc250201d8312c325a16a5","","null","","","learningBlock2","","","","<div style=""font-size:60px;""> </div>","null","FL","learning/Slide114.JPG","That was a wug.","","",""
"image-keyboard-response","349","478225","0.0-7.0-0.34","FL","b00qxzsc7o","1920","1080","0","0","0","5ffc250201d8312c325a16a5","","null","","","","","","","learning/Slide115.JPG","null","","","","","",""
"html-keyboard-response","350","479378","0.0-7.0-1.34","FL","b00qxzsc7o","1920","1080","0","0","0","5ffc250201d8312c325a16a5","","null","","","learningBlock2","","","","That was a bim.","null","","","","","",""
"html-keyboard-response","351","480380","0.0-7.0-2.34","FL","b00qxzsc7o","1920","1080","0","0","0","5ffc250201d8312c325a16a5","","null","","","learningBlock2","","","","<div style=""font-size:60px;""> </div>","null","FL","learning/Slide115.JPG","That was a bim.","","",""
"image-keyboard-response","352","480557","0.0-7.0-0.35","FL","b00qxzsc7o","1920","1080","0","0","0","5ffc250201d8312c325a16a5","","null","","","","","","","learning/Slide116.JPG","null","","","","","",""
"html-keyboard-response","353","481710","0.0-7.0-1.35","FL","b00qxzsc7o","1920","1080","0","0","0","5ffc250201d8312c325a16a5","","null","","","learningBlock2","","","","That was a dep.","null","","","","","",""
"html-keyboard-response","354","482711","0.0-7.0-2.35","FL","b00qxzsc7o","1920","1080","0","0","0","5ffc250201d8312c325a16a5","","null","","","learningBlock2","","","","<div style=""font-size:60px;""> </div>","null","FL","learning/Slide116.JPG","That was a dep.","","",""
"image-keyboard-response","355","482888","0.0-7.0-0.36","FL","b00qxzsc7o","1920","1080","0","0","0","5ffc250201d8312c325a16a5","","null","","","","","","","learning/Slide117.JPG","null","","","","","",""
"html-keyboard-response","356","484040","0.0-7.0-1.36","FL","b00qxzsc7o","1920","1080","0","0","0","5ffc250201d8312c325a16a5","","null","","","learningBlock2","","","","That was a tob.","null","","","","","",""
"html-keyboard-response","357","485041","0.0-7.0-2.36","FL","b00qxzsc7o","1920","1080","0","0","0","5ffc250201d8312c325a16a5","","null","","","learningBlock2","","","","<div style=""font-size:60px;""> </div>","null","FL","learning/Slide117.JPG","That was a tob.","","",""
"image-keyboard-response","358","485217","0.0-7.0-0.37","FL","b00qxzsc7o","1920","1080","0","0","0","5ffc250201d8312c325a16a5","","null","","","","","","","learning/Slide118.JPG","null","","","","","",""
"html-keyboard-response","359","486369","0.0-7.0-1.37","FL","b00qxzsc7o","1920","1080","0","0","0","5ffc250201d8312c325a16a5","","null","","","learningBlock2","","","","That was a dep.","null","","","","","",""
"html-keyboard-response","360","487369","0.0-7.0-2.37","FL","b00qxzsc7o","1920","1080","0","0","0","5ffc250201d8312c325a16a5","","null","","","learningBlock2","","","","<div style=""font-size:60px;""> </div>","null","FL","learning/Slide118.JPG","That was a dep.","","",""
"image-keyboard-response","361","487546","0.0-7.0-0.38","FL","b00qxzsc7o","1920","1080","0","0","0","5ffc250201d8312c325a16a5","","null","","","","","","","learning/Slide119.JPG","null","","","","","",""
"html-keyboard-response","362","488698","0.0-7.0-1.38","FL","b00qxzsc7o","1920","1080","0","0","0","5ffc250201d8312c325a16a5","","null","","","learningBlock2","","","","That was a wug.","null","","","","","",""
"html-keyboard-response","363","489700","0.0-7.0-2.38","FL","b00qxzsc7o","1920","1080","0","0","0","5ffc250201d8312c325a16a5","","null","","","learningBlock2","","","","<div style=""font-size:60px;""> </div>","null","FL","learning/Slide119.JPG","That was a wug.","","",""
"image-keyboard-response","364","489876","0.0-7.0-0.39","FL","b00qxzsc7o","1920","1080","0","0","0","5ffc250201d8312c325a16a5","","null","","","","","","","learning/Slide120.JPG","null","","","","","",""
"html-keyboard-response","365","491027","0.0-7.0-1.39","FL","b00qxzsc7o","1920","1080","0","0","0","5ffc250201d8312c325a16a5","","null","","","learningBlock2","","","","That was a dep.","null","","","","","",""
"html-keyboard-response","366","492029","0.0-7.0-2.39","FL","b00qxzsc7o","1920","1080","0","0","0","5ffc250201d8312c325a16a5","","null","","","learningBlock2","","","","<div style=""font-size:60px;""> </div>","null","FL","learning/Slide120.JPG","That was a dep.","","",""
"image-keyboard-response","367","492205","0.0-7.0-0.40","FL","b00qxzsc7o","1920","1080","0","0","0","5ffc250201d8312c325a16a5","","null","","","","","","","learning/Slide121.JPG","null","","","","","",""
"html-keyboard-response","368","493357","0.0-7.0-1.40","FL","b00qxzsc7o","1920","1080","0","0","0","5ffc250201d8312c325a16a5","","null","","","learningBlock2","","","","That was a bim.","null","","","","","",""
"html-keyboard-response","369","494358","0.0-7.0-2.40","FL","b00qxzsc7o","1920","1080","0","0","0","5ffc250201d8312c325a16a5","","null","","","learningBlock2","","","","<div style=""font-size:60px;""> </div>","null","FL","learning/Slide121.JPG","That was a bim.","","",""
"image-keyboard-response","370","494535","0.0-7.0-0.41","FL","b00qxzsc7o","1920","1080","0","0","0","5ffc250201d8312c325a16a5","","null","","","","","","","learning/Slide122.JPG","null","","","","","",""
"html-keyboard-response","371","495687","0.0-7.0-1.41","FL","b00qxzsc7o","1920","1080","0","0","0","5ffc250201d8312c325a16a5","","null","","","learningBlock2","","","","That was a wug.","null","","","","","",""
"html-keyboard-response","372","496689","0.0-7.0-2.41","FL","b00qxzsc7o","1920","1080","0","0","0","5ffc250201d8312c325a16a5","","null","","","learningBlock2","","","","<div style=""font-size:60px;""> </div>","null","FL","learning/Slide122.JPG","That was a wug.","","",""
"image-keyboard-response","373","496865","0.0-7.0-0.42","FL","b00qxzsc7o","1920","1080","0","0","0","5ffc250201d8312c325a16a5","","null","","","","","","","learning/Slide123.JPG","null","","","","","",""
"html-keyboard-response","374","498016","0.0-7.0-1.42","FL","b00qxzsc7o","1920","1080","0","0","0","5ffc250201d8312c325a16a5","","null","","","learningBlock2","","","","That was a bim.","null","","","","","",""
"html-keyboard-response","375","499018","0.0-7.0-2.42","FL","b00qxzsc7o","1920","1080","0","0","0","5ffc250201d8312c325a16a5","","null","","","learningBlock2","","","","<div style=""font-size:60px;""> </div>","null","FL","learning/Slide123.JPG","That was a bim.","","",""
"image-keyboard-response","376","499194","0.0-7.0-0.43","FL","b00qxzsc7o","1920","1080","0","0","0","5ffc250201d8312c325a16a5","","null","","","","","","","learning/Slide124.JPG","null","","","","","",""
"html-keyboard-response","377","500347","0.0-7.0-1.43","FL","b00qxzsc7o","1920","1080","0","0","0","5ffc250201d8312c325a16a5","","null","","","learningBlock2","","","","That was a tob.","null","","","","","",""
"html-keyboard-response","378","501349","0.0-7.0-2.43","FL","b00qxzsc7o","1920","1080","0","0","0","5ffc250201d8312c325a16a5","","null","","","learningBlock2","","","","<div style=""font-size:60px;""> </div>","null","FL","learning/Slide124.JPG","That was a tob.","","",""
"image-keyboard-response","379","501525","0.0-7.0-0.44","FL","b00qxzsc7o","1920","1080","0","0","0","5ffc250201d8312c325a16a5","","null","","","","","","","learning/Slide125.JPG","null","","","","","",""
"html-keyboard-response","380","502678","0.0-7.0-1.44","FL","b00qxzsc7o","1920","1080","0","0","0","5ffc250201d8312c325a16a5","","null","","","learningBlock2","","","","That was a bim.","null","","","","","",""
"html-keyboard-response","381","503679","0.0-7.0-2.44","FL","b00qxzsc7o","1920","1080","0","0","0","5ffc250201d8312c325a16a5","","null","","","learningBlock2","","","","<div style=""font-size:60px;""> </div>","null","FL","learning/Slide125.JPG","That was a bim.","","",""
"image-keyboard-response","382","503856","0.0-7.0-0.45","FL","b00qxzsc7o","1920","1080","0","0","0","5ffc250201d8312c325a16a5","","null","","","","","","","learning/Slide126.JPG","null","","","","","",""
"html-keyboard-response","383","505008","0.0-7.0-1.45","FL","b00qxzsc7o","1920","1080","0","0","0","5ffc250201d8312c325a16a5","","null","","","learningBlock2","","","","That was a tob.","null","","","","","",""
"html-keyboard-response","384","506010","0.0-7.0-2.45","FL","b00qxzsc7o","1920","1080","0","0","0","5ffc250201d8312c325a16a5","","null","","","learningBlock2","","","","<div style=""font-size:60px;""> </div>","null","FL","learning/Slide126.JPG","That was a tob.","","",""
"image-keyboard-response","385","506187","0.0-7.0-0.46","FL","b00qxzsc7o","1920","1080","0","0","0","5ffc250201d8312c325a16a5","","null","","","","","","","learning/Slide127.JPG","null","","","","","",""
"html-keyboard-response","386","507339","0.0-7.0-1.46","FL","b00qxzsc7o","1920","1080","0","0","0","5ffc250201d8312c325a16a5","","null","","","learningBlock2","","","","That was a dep.","null","","","","","",""
"html-keyboard-response","387","508341","0.0-7.0-2.46","FL","b00qxzsc7o","1920","1080","0","0","0","5ffc250201d8312c325a16a5","","null","","","learningBlock2","","","","<div style=""font-size:60px;""> </div>","null","FL","learning/Slide127.JPG","That was a dep.","","",""
"image-keyboard-response","388","508518","0.0-7.0-0.47","FL","b00qxzsc7o","1920","1080","0","0","0","5ffc250201d8312c325a16a5","","null","","","","","","","learning/Slide128.JPG","null","","","","","",""
"html-keyboard-response","389","509670","0.0-7.0-1.47","FL","b00qxzsc7o","1920","1080","0","0","0","5ffc250201d8312c325a16a5","","null","","","learningBlock2","","","","That was a wug.","null","","","","","",""
"html-keyboard-response","390","510671","0.0-7.0-2.47","FL","b00qxzsc7o","1920","1080","0","0","0","5ffc250201d8312c325a16a5","","null","","","learningBlock2","","","","<div style=""font-size:60px;""> </div>","null","FL","learning/Slide128.JPG","That was a wug.","","",""
"image-keyboard-response","391","510849","0.0-7.0-0.48","FL","b00qxzsc7o","1920","1080","0","0","0","5ffc250201d8312c325a16a5","","null","","","","","","","learning/Slide129.JPG","null","","","","","",""
"html-keyboard-response","392","512001","0.0-7.0-1.48","FL","b00qxzsc7o","1920","1080","0","0","0","5ffc250201d8312c325a16a5","","null","","","learningBlock2","","","","That was a tob.","null","","","","","",""
"html-keyboard-response","393","513002","0.0-7.0-2.48","FL","b00qxzsc7o","1920","1080","0","0","0","5ffc250201d8312c325a16a5","","null","","","learningBlock2","","","","<div style=""font-size:60px;""> </div>","null","FL","learning/Slide129.JPG","That was a tob.","","",""
"image-keyboard-response","394","513178","0.0-7.0-0.49","FL","b00qxzsc7o","1920","1080","0","0","0","5ffc250201d8312c325a16a5","","null","","","","","","","learning/Slide130.JPG","null","","","","","",""
"html-keyboard-response","395","514330","0.0-7.0-1.49","FL","b00qxzsc7o","1920","1080","0","0","0","5ffc250201d8312c325a16a5","","null","","","learningBlock2","","","","That was a wug.","null","","","","","",""
"html-keyboard-response","396","515331","0.0-7.0-2.49","FL","b00qxzsc7o","1920","1080","0","0","0","5ffc250201d8312c325a16a5","","null","","","learningBlock2","","","","<div style=""font-size:60px;""> </div>","null","FL","learning/Slide130.JPG","That was a wug.","","",""
"image-keyboard-response","397","515509","0.0-7.0-0.50","FL","b00qxzsc7o","1920","1080","0","0","0","5ffc250201d8312c325a16a5","","null","","","","","","","learning/Slide131.JPG","null","","","","","",""
"html-keyboard-response","398","516661","0.0-7.0-1.50","FL","b00qxzsc7o","1920","1080","0","0","0","5ffc250201d8312c325a16a5","","null","","","learningBlock2","","","","That was a bim.","null","","","","","",""
"html-keyboard-response","399","517663","0.0-7.0-2.50","FL","b00qxzsc7o","1920","1080","0","0","0","5ffc250201d8312c325a16a5","","null","","","learningBlock2","","","","<div style=""font-size:60px;""> </div>","null","FL","learning/Slide131.JPG","That was a bim.","","",""
"image-keyboard-response","400","517841","0.0-7.0-0.51","FL","b00qxzsc7o","1920","1080","0","0","0","5ffc250201d8312c325a16a5","","null","","","","","","","learning/Slide132.JPG","null","","","","","",""
"html-keyboard-response","401","518993","0.0-7.0-1.51","FL","b00qxzsc7o","1920","1080","0","0","0","5ffc250201d8312c325a16a5","","null","","","learningBlock2","","","","That was a dep.","null","","","","","",""
"html-keyboard-response","402","519994","0.0-7.0-2.51","FL","b00qxzsc7o","1920","1080","0","0","0","5ffc250201d8312c325a16a5","","null","","","learningBlock2","","","","<div style=""font-size:60px;""> </div>","null","FL","learning/Slide132.JPG","That was a dep.","","",""
"image-keyboard-response","403","520172","0.0-7.0-0.52","FL","b00qxzsc7o","1920","1080","0","0","0","5ffc250201d8312c325a16a5","","null","","","","","","","learning/Slide133.JPG","null","","","","","",""
"html-keyboard-response","404","521326","0.0-7.0-1.52","FL","b00qxzsc7o","1920","1080","0","0","0","5ffc250201d8312c325a16a5","","null","","","learningBlock2","","","","That was a tob.","null","","","","","",""
"html-keyboard-response","405","522328","0.0-7.0-2.52","FL","b00qxzsc7o","1920","1080","0","0","0","5ffc250201d8312c325a16a5","","null","","","learningBlock2","","","","<div style=""font-size:60px;""> </div>","null","FL","learning/Slide133.JPG","That was a tob.","","",""
"image-keyboard-response","406","522504","0.0-7.0-0.53","FL","b00qxzsc7o","1920","1080","0","0","0","5ffc250201d8312c325a16a5","","null","","","","","","","learning/Slide134.JPG","null","","","","","",""
"html-keyboard-response","407","523656","0.0-7.0-1.53","FL","b00qxzsc7o","1920","1080","0","0","0","5ffc250201d8312c325a16a5","","null","","","learningBlock2","","","","That was a dep.","null","","","","","",""
"html-keyboard-response","408","524657","0.0-7.0-2.53","FL","b00qxzsc7o","1920","1080","0","0","0","5ffc250201d8312c325a16a5","","null","","","learningBlock2","","","","<div style=""font-size:60px;""> </div>","null","FL","learning/Slide134.JPG","That was a dep.","","",""
"image-keyboard-response","409","524834","0.0-7.0-0.54","FL","b00qxzsc7o","1920","1080","0","0","0","5ffc250201d8312c325a16a5","","null","","","","","","","learning/Slide135.JPG","null","","","","","",""
"html-keyboard-response","410","525986","0.0-7.0-1.54","FL","b00qxzsc7o","1920","1080","0","0","0","5ffc250201d8312c325a16a5","","null","","","learningBlock2","","","","That was a tob.","null","","","","","",""
"html-keyboard-response","411","526987","0.0-7.0-2.54","FL","b00qxzsc7o","1920","1080","0","0","0","5ffc250201d8312c325a16a5","","null","","","learningBlock2","","","","<div style=""font-size:60px;""> </div>","null","FL","learning/Slide135.JPG","That was a tob.","","",""
"image-keyboard-response","412","527164","0.0-7.0-0.55","FL","b00qxzsc7o","1920","1080","0","0","0","5ffc250201d8312c325a16a5","","null","","","","","","","learning/Slide136.JPG","null","","","","","",""
"html-keyboard-response","413","528317","0.0-7.0-1.55","FL","b00qxzsc7o","1920","1080","0","0","0","5ffc250201d8312c325a16a5","","null","","","learningBlock2","","","","That was a wug.","null","","","","","",""
"html-keyboard-response","414","529318","0.0-7.0-2.55","FL","b00qxzsc7o","1920","1080","0","0","0","5ffc250201d8312c325a16a5","","null","","","learningBlock2","","","","<div style=""font-size:60px;""> </div>","null","FL","learning/Slide136.JPG","That was a wug.","","",""
"image-keyboard-response","415","529494","0.0-7.0-0.56","FL","b00qxzsc7o","1920","1080","0","0","0","5ffc250201d8312c325a16a5","","null","","","","","","","learning/Slide137.JPG","null","","","","","",""
"html-keyboard-response","416","530646","0.0-7.0-1.56","FL","b00qxzsc7o","1920","1080","0","0","0","5ffc250201d8312c325a16a5","","null","","","learningBlock2","","","","That was a tob.","null","","","","","",""
"html-keyboard-response","417","531648","0.0-7.0-2.56","FL","b00qxzsc7o","1920","1080","0","0","0","5ffc250201d8312c325a16a5","","null","","","learningBlock2","","","","<div style=""font-size:60px;""> </div>","null","FL","learning/Slide137.JPG","That was a tob.","","",""
"image-keyboard-response","418","531825","0.0-7.0-0.57","FL","b00qxzsc7o","1920","1080","0","0","0","5ffc250201d8312c325a16a5","","null","","","","","","","learning/Slide138.JPG","null","","","","","",""
"html-keyboard-response","419","532978","0.0-7.0-1.57","FL","b00qxzsc7o","1920","1080","0","0","0","5ffc250201d8312c325a16a5","","null","","","learningBlock2","","","","That was a bim.","null","","","","","",""
"html-keyboard-response","420","533980","0.0-7.0-2.57","FL","b00qxzsc7o","1920","1080","0","0","0","5ffc250201d8312c325a16a5","","null","","","learningBlock2","","","","<div style=""font-size:60px;""> </div>","null","FL","learning/Slide138.JPG","That was a bim.","","",""
"image-keyboard-response","421","534156","0.0-7.0-0.58","FL","b00qxzsc7o","1920","1080","0","0","0","5ffc250201d8312c325a16a5","","null","","","","","","","learning/Slide139.JPG","null","","","","","",""
"html-keyboard-response","422","535308","0.0-7.0-1.58","FL","b00qxzsc7o","1920","1080","0","0","0","5ffc250201d8312c325a16a5","","null","","","learningBlock2","","","","That was a wug.","null","","","","","",""
"html-keyboard-response","423","536309","0.0-7.0-2.58","FL","b00qxzsc7o","1920","1080","0","0","0","5ffc250201d8312c325a16a5","","null","","","learningBlock2","","","","<div style=""font-size:60px;""> </div>","null","FL","learning/Slide139.JPG","That was a wug.","","",""
"image-keyboard-response","424","536485","0.0-7.0-0.59","FL","b00qxzsc7o","1920","1080","0","0","0","5ffc250201d8312c325a16a5","","null","","","","","","","learning/Slide140.JPG","null","","","","","",""
"html-keyboard-response","425","537636","0.0-7.0-1.59","FL","b00qxzsc7o","1920","1080","0","0","0","5ffc250201d8312c325a16a5","","null","","","learningBlock2","","","","That was a dep.","null","","","","","",""
"html-keyboard-response","426","538638","0.0-7.0-2.59","FL","b00qxzsc7o","1920","1080","0","0","0","5ffc250201d8312c325a16a5","","null","","","learningBlock2","","","","<div style=""font-size:60px;""> </div>","null","FL","learning/Slide140.JPG","That was a dep.","","",""
"image-keyboard-response","427","538817","0.0-7.0-0.60","FL","b00qxzsc7o","1920","1080","0","0","0","5ffc250201d8312c325a16a5","","null","","","","","","","learning/Slide141.JPG","null","","","","","",""
"html-keyboard-response","428","539969","0.0-7.0-1.60","FL","b00qxzsc7o","1920","1080","0","0","0","5ffc250201d8312c325a16a5","","null","","","learningBlock2","","","","That was a tob.","null","","","","","",""
"html-keyboard-response","429","540970","0.0-7.0-2.60","FL","b00qxzsc7o","1920","1080","0","0","0","5ffc250201d8312c325a16a5","","null","","","learningBlock2","","","","<div style=""font-size:60px;""> </div>","null","FL","learning/Slide141.JPG","That was a tob.","","",""
"image-keyboard-response","430","541146","0.0-7.0-0.61","FL","b00qxzsc7o","1920","1080","0","0","0","5ffc250201d8312c325a16a5","","null","","","","","","","learning/Slide142.JPG","null","","","","","",""
"html-keyboard-response","431","542300","0.0-7.0-1.61","FL","b00qxzsc7o","1920","1080","0","0","0","5ffc250201d8312c325a16a5","","null","","","learningBlock2","","","","That was a wug.","null","","","","","",""
"html-keyboard-response","432","543302","0.0-7.0-2.61","FL","b00qxzsc7o","1920","1080","0","0","0","5ffc250201d8312c325a16a5","","null","","","learningBlock2","","","","<div style=""font-size:60px;""> </div>","null","FL","learning/Slide142.JPG","That was a wug.","","",""
"image-keyboard-response","433","543479","0.0-7.0-0.62","FL","b00qxzsc7o","1920","1080","0","0","0","5ffc250201d8312c325a16a5","","null","","","","","","","learning/Slide143.JPG","null","","","","","",""
"html-keyboard-response","434","544632","0.0-7.0-1.62","FL","b00qxzsc7o","1920","1080","0","0","0","5ffc250201d8312c325a16a5","","null","","","learningBlock2","","","","That was a bim.","null","","","","","",""
