"trial_type","trial_index","time_elapsed","internal_node_id","condition","subject","screen_width","screen_height","attention","distraction","conscientious","prolificID","success","rt","url","view_history","test_part","final_height_px","final_width_px","scale_factor","stimulus","key_press","learningType","presentedImage","presentedLabel","button_pressed","response","responses"
"pavlovia","0","27","0.0-0.0","LF","lpb8r8jcs5","1920","1080","0","1","0","5dc1e79c880a2915309a8ee3","","","","","","","","","","","","","","","",""
"fullscreen","1","2688","0.0-1.0","LF","lpb8r8jcs5","1920","1080","0","1","0","5dc1e79c880a2915309a8ee3","true","","","","","","","","","","","","","","",""
"external-html","2","5345","0.0-2.0-0.0","LF","lpb8r8jcs5","1920","1080","0","1","0","5dc1e79c880a2915309a8ee3","","2327.614999987418","text/information_english.html","","","","","","","","","","","","",""
"external-html","3","15989","0.0-2.0-1.0","LF","lpb8r8jcs5","1920","1080","0","1","0","5dc1e79c880a2915309a8ee3","","10402.51499999431","text/consent_english.html","","","","","","","","","","","","",""
"instructions","4","32200","0.0-3.0","LF","lpb8r8jcs5","1920","1080","0","1","0","5dc1e79c880a2915309a8ee3","","NA","","[{""page_index"":0,""viewing_time"":4305.889999988722},{""page_index"":1,""viewing_time"":11904.060000000754}]","instructions","","","","","","","","","","",""
"resize","5","126226","0.0-4.0","LF","lpb8r8jcs5","1920","1080","0","1","0","5dc1e79c880a2915309a8ee3","","","","","","","392","2.488888888888889","","","","","","","",""
"html-keyboard-response","6","127228","0.0-5.0-0.0","LF","lpb8r8jcs5","1920","1080","0","1","0","5dc1e79c880a2915309a8ee3","","null","","","learningBlock1","","","","This is a tob:","null","","","","","",""
"image-keyboard-response","7","127557","0.0-5.0-1.0","LF","lpb8r8jcs5","1920","1080","0","1","0","5dc1e79c880a2915309a8ee3","","null","","","","","","","learning/Slide1.JPG","null","","","","","",""
"html-keyboard-response","8","128559","0.0-5.0-2.0","LF","lpb8r8jcs5","1920","1080","0","1","0","5dc1e79c880a2915309a8ee3","","null","","","learningBlock1","","","","<div style=""font-size:60px;""> </div>","null","LF","learning/Slide1.JPG","This is a tob:","","",""
"html-keyboard-response","9","129561","0.0-5.0-0.1","LF","lpb8r8jcs5","1920","1080","0","1","0","5dc1e79c880a2915309a8ee3","","null","","","learningBlock1","","","","This is a wug:","null","","","","","",""
"image-keyboard-response","10","129889","0.0-5.0-1.1","LF","lpb8r8jcs5","1920","1080","0","1","0","5dc1e79c880a2915309a8ee3","","null","","","","","","","learning/Slide2.JPG","null","","","","","",""
"html-keyboard-response","11","130891","0.0-5.0-2.1","LF","lpb8r8jcs5","1920","1080","0","1","0","5dc1e79c880a2915309a8ee3","","null","","","learningBlock1","","","","<div style=""font-size:60px;""> </div>","null","LF","learning/Slide2.JPG","This is a wug:","","",""
"html-keyboard-response","12","131892","0.0-5.0-0.2","LF","lpb8r8jcs5","1920","1080","0","1","0","5dc1e79c880a2915309a8ee3","","null","","","learningBlock1","","","","This is a bim:","null","","","","","",""
"image-keyboard-response","13","132221","0.0-5.0-1.2","LF","lpb8r8jcs5","1920","1080","0","1","0","5dc1e79c880a2915309a8ee3","","null","","","","","","","learning/Slide3.JPG","null","","","","","",""
"html-keyboard-response","14","133223","0.0-5.0-2.2","LF","lpb8r8jcs5","1920","1080","0","1","0","5dc1e79c880a2915309a8ee3","","null","","","learningBlock1","","","","<div style=""font-size:60px;""> </div>","null","LF","learning/Slide3.JPG","This is a bim:","","",""
"html-keyboard-response","15","134225","0.0-5.0-0.3","LF","lpb8r8jcs5","1920","1080","0","1","0","5dc1e79c880a2915309a8ee3","","null","","","learningBlock1","","","","This is a dep:","null","","","","","",""
"image-keyboard-response","16","134553","0.0-5.0-1.3","LF","lpb8r8jcs5","1920","1080","0","1","0","5dc1e79c880a2915309a8ee3","","null","","","","","","","learning/Slide4.JPG","null","","","","","",""
"html-keyboard-response","17","135555","0.0-5.0-2.3","LF","lpb8r8jcs5","1920","1080","0","1","0","5dc1e79c880a2915309a8ee3","","null","","","learningBlock1","","","","<div style=""font-size:60px;""> </div>","null","LF","learning/Slide4.JPG","This is a dep:","","",""
"html-keyboard-response","18","136558","0.0-5.0-0.4","LF","lpb8r8jcs5","1920","1080","0","1","0","5dc1e79c880a2915309a8ee3","","null","","","learningBlock1","","","","This is a wug:","null","","","","","",""
"image-keyboard-response","19","136884","0.0-5.0-1.4","LF","lpb8r8jcs5","1920","1080","0","1","0","5dc1e79c880a2915309a8ee3","","null","","","","","","","learning/Slide5.JPG","null","","","","","",""
"html-keyboard-response","20","137886","0.0-5.0-2.4","LF","lpb8r8jcs5","1920","1080","0","1","0","5dc1e79c880a2915309a8ee3","","null","","","learningBlock1","","","","<div style=""font-size:60px;""> </div>","null","LF","learning/Slide5.JPG","This is a wug:","","",""
"html-keyboard-response","21","138888","0.0-5.0-0.5","LF","lpb8r8jcs5","1920","1080","0","1","0","5dc1e79c880a2915309a8ee3","","null","","","learningBlock1","","","","This is a dep:","null","","","","","",""
"image-keyboard-response","22","139217","0.0-5.0-1.5","LF","lpb8r8jcs5","1920","1080","0","1","0","5dc1e79c880a2915309a8ee3","","null","","","","","","","learning/Slide6.JPG","null","","","","","",""
"html-keyboard-response","23","140219","0.0-5.0-2.5","LF","lpb8r8jcs5","1920","1080","0","1","0","5dc1e79c880a2915309a8ee3","","null","","","learningBlock1","","","","<div style=""font-size:60px;""> </div>","null","LF","learning/Slide6.JPG","This is a dep:","","",""
"html-keyboard-response","24","141221","0.0-5.0-0.6","LF","lpb8r8jcs5","1920","1080","0","1","0","5dc1e79c880a2915309a8ee3","","null","","","learningBlock1","","","","This is a wug:","null","","","","","",""
"image-keyboard-response","25","141548","0.0-5.0-1.6","LF","lpb8r8jcs5","1920","1080","0","1","0","5dc1e79c880a2915309a8ee3","","null","","","","","","","learning/Slide7.JPG","null","","","","","",""
"html-keyboard-response","26","142550","0.0-5.0-2.6","LF","lpb8r8jcs5","1920","1080","0","1","0","5dc1e79c880a2915309a8ee3","","null","","","learningBlock1","","","","<div style=""font-size:60px;""> </div>","null","LF","learning/Slide7.JPG","This is a wug:","","",""
"html-keyboard-response","27","143552","0.0-5.0-0.7","LF","lpb8r8jcs5","1920","1080","0","1","0","5dc1e79c880a2915309a8ee3","","null","","","learningBlock1","","","","This is a bim:","null","","","","","",""
"image-keyboard-response","28","143880","0.0-5.0-1.7","LF","lpb8r8jcs5","1920","1080","0","1","0","5dc1e79c880a2915309a8ee3","","null","","","","","","","learning/Slide8.JPG","null","","","","","",""
"html-keyboard-response","29","144882","0.0-5.0-2.7","LF","lpb8r8jcs5","1920","1080","0","1","0","5dc1e79c880a2915309a8ee3","","null","","","learningBlock1","","","","<div style=""font-size:60px;""> </div>","null","LF","learning/Slide8.JPG","This is a bim:","","",""
"html-keyboard-response","30","145883","0.0-5.0-0.8","LF","lpb8r8jcs5","1920","1080","0","1","0","5dc1e79c880a2915309a8ee3","","null","","","learningBlock1","","","","This is a wug:","null","","","","","",""
"image-keyboard-response","31","146211","0.0-5.0-1.8","LF","lpb8r8jcs5","1920","1080","0","1","0","5dc1e79c880a2915309a8ee3","","null","","","","","","","learning/Slide9.JPG","null","","","","","",""
"html-keyboard-response","32","147213","0.0-5.0-2.8","LF","lpb8r8jcs5","1920","1080","0","1","0","5dc1e79c880a2915309a8ee3","","null","","","learningBlock1","","","","<div style=""font-size:60px;""> </div>","null","LF","learning/Slide9.JPG","This is a wug:","","",""
"html-keyboard-response","33","148214","0.0-5.0-0.9","LF","lpb8r8jcs5","1920","1080","0","1","0","5dc1e79c880a2915309a8ee3","","null","","","learningBlock1","","","","This is a dep:","null","","","","","",""
"image-keyboard-response","34","148543","0.0-5.0-1.9","LF","lpb8r8jcs5","1920","1080","0","1","0","5dc1e79c880a2915309a8ee3","","null","","","","","","","learning/Slide10.JPG","null","","","","","",""
"html-keyboard-response","35","149544","0.0-5.0-2.9","LF","lpb8r8jcs5","1920","1080","0","1","0","5dc1e79c880a2915309a8ee3","","null","","","learningBlock1","","","","<div style=""font-size:60px;""> </div>","null","LF","learning/Slide10.JPG","This is a dep:","","",""
"html-keyboard-response","36","150546","0.0-5.0-0.10","LF","lpb8r8jcs5","1920","1080","0","1","0","5dc1e79c880a2915309a8ee3","","null","","","learningBlock1","","","","This is a tob:","null","","","","","",""
"image-keyboard-response","37","150875","0.0-5.0-1.10","LF","lpb8r8jcs5","1920","1080","0","1","0","5dc1e79c880a2915309a8ee3","","null","","","","","","","learning/Slide11.JPG","null","","","","","",""
"html-keyboard-response","38","151877","0.0-5.0-2.10","LF","lpb8r8jcs5","1920","1080","0","1","0","5dc1e79c880a2915309a8ee3","","null","","","learningBlock1","","","","<div style=""font-size:60px;""> </div>","null","LF","learning/Slide11.JPG","This is a tob:","","",""
"html-keyboard-response","39","152879","0.0-5.0-0.11","LF","lpb8r8jcs5","1920","1080","0","1","0","5dc1e79c880a2915309a8ee3","","null","","","learningBlock1","","","","This is a dep:","null","","","","","",""
"image-keyboard-response","40","153207","0.0-5.0-1.11","LF","lpb8r8jcs5","1920","1080","0","1","0","5dc1e79c880a2915309a8ee3","","null","","","","","","","learning/Slide12.JPG","null","","","","","",""
"html-keyboard-response","41","154208","0.0-5.0-2.11","LF","lpb8r8jcs5","1920","1080","0","1","0","5dc1e79c880a2915309a8ee3","","null","","","learningBlock1","","","","<div style=""font-size:60px;""> </div>","null","LF","learning/Slide12.JPG","This is a dep:","","",""
"html-keyboard-response","42","155209","0.0-5.0-0.12","LF","lpb8r8jcs5","1920","1080","0","1","0","5dc1e79c880a2915309a8ee3","","null","","","learningBlock1","","","","This is a bim:","null","","","","","",""
"image-keyboard-response","43","155537","0.0-5.0-1.12","LF","lpb8r8jcs5","1920","1080","0","1","0","5dc1e79c880a2915309a8ee3","","null","","","","","","","learning/Slide13.JPG","null","","","","","",""
"html-keyboard-response","44","156539","0.0-5.0-2.12","LF","lpb8r8jcs5","1920","1080","0","1","0","5dc1e79c880a2915309a8ee3","","null","","","learningBlock1","","","","<div style=""font-size:60px;""> </div>","null","LF","learning/Slide13.JPG","This is a bim:","","",""
"html-keyboard-response","45","157541","0.0-5.0-0.13","LF","lpb8r8jcs5","1920","1080","0","1","0","5dc1e79c880a2915309a8ee3","","null","","","learningBlock1","","","","This is a wug:","null","","","","","",""
"image-keyboard-response","46","157868","0.0-5.0-1.13","LF","lpb8r8jcs5","1920","1080","0","1","0","5dc1e79c880a2915309a8ee3","","null","","","","","","","learning/Slide14.JPG","null","","","","","",""
"html-keyboard-response","47","158869","0.0-5.0-2.13","LF","lpb8r8jcs5","1920","1080","0","1","0","5dc1e79c880a2915309a8ee3","","null","","","learningBlock1","","","","<div style=""font-size:60px;""> </div>","null","LF","learning/Slide14.JPG","This is a wug:","","",""
"html-keyboard-response","48","159870","0.0-5.0-0.14","LF","lpb8r8jcs5","1920","1080","0","1","0","5dc1e79c880a2915309a8ee3","","null","","","learningBlock1","","","","This is a tob:","null","","","","","",""
"image-keyboard-response","49","160198","0.0-5.0-1.14","LF","lpb8r8jcs5","1920","1080","0","1","0","5dc1e79c880a2915309a8ee3","","null","","","","","","","learning/Slide15.JPG","null","","","","","",""
"html-keyboard-response","50","161200","0.0-5.0-2.14","LF","lpb8r8jcs5","1920","1080","0","1","0","5dc1e79c880a2915309a8ee3","","null","","","learningBlock1","","","","<div style=""font-size:60px;""> </div>","null","LF","learning/Slide15.JPG","This is a tob:","","",""
"html-keyboard-response","51","162201","0.0-5.0-0.15","LF","lpb8r8jcs5","1920","1080","0","1","0","5dc1e79c880a2915309a8ee3","","null","","","learningBlock1","","","","This is a dep:","null","","","","","",""
"image-keyboard-response","52","162530","0.0-5.0-1.15","LF","lpb8r8jcs5","1920","1080","0","1","0","5dc1e79c880a2915309a8ee3","","null","","","","","","","learning/Slide16.JPG","null","","","","","",""
"html-keyboard-response","53","163532","0.0-5.0-2.15","LF","lpb8r8jcs5","1920","1080","0","1","0","5dc1e79c880a2915309a8ee3","","null","","","learningBlock1","","","","<div style=""font-size:60px;""> </div>","null","LF","learning/Slide16.JPG","This is a dep:","","",""
"html-keyboard-response","54","164534","0.0-5.0-0.16","LF","lpb8r8jcs5","1920","1080","0","1","0","5dc1e79c880a2915309a8ee3","","null","","","learningBlock1","","","","This is a bim:","null","","","","","",""
"image-keyboard-response","55","164861","0.0-5.0-1.16","LF","lpb8r8jcs5","1920","1080","0","1","0","5dc1e79c880a2915309a8ee3","","null","","","","","","","learning/Slide17.JPG","null","","","","","",""
"html-keyboard-response","56","165863","0.0-5.0-2.16","LF","lpb8r8jcs5","1920","1080","0","1","0","5dc1e79c880a2915309a8ee3","","null","","","learningBlock1","","","","<div style=""font-size:60px;""> </div>","null","LF","learning/Slide17.JPG","This is a bim:","","",""
"html-keyboard-response","57","166865","0.0-5.0-0.17","LF","lpb8r8jcs5","1920","1080","0","1","0","5dc1e79c880a2915309a8ee3","","null","","","learningBlock1","","","","This is a tob:","null","","","","","",""
"image-keyboard-response","58","167194","0.0-5.0-1.17","LF","lpb8r8jcs5","1920","1080","0","1","0","5dc1e79c880a2915309a8ee3","","null","","","","","","","learning/Slide18.JPG","null","","","","","",""
"html-keyboard-response","59","168196","0.0-5.0-2.17","LF","lpb8r8jcs5","1920","1080","0","1","0","5dc1e79c880a2915309a8ee3","","null","","","learningBlock1","","","","<div style=""font-size:60px;""> </div>","null","LF","learning/Slide18.JPG","This is a tob:","","",""
"html-keyboard-response","60","169198","0.0-5.0-0.18","LF","lpb8r8jcs5","1920","1080","0","1","0","5dc1e79c880a2915309a8ee3","","null","","","learningBlock1","","","","This is a wug:","null","","","","","",""
"image-keyboard-response","61","169526","0.0-5.0-1.18","LF","lpb8r8jcs5","1920","1080","0","1","0","5dc1e79c880a2915309a8ee3","","null","","","","","","","learning/Slide19.JPG","null","","","","","",""
"html-keyboard-response","62","170528","0.0-5.0-2.18","LF","lpb8r8jcs5","1920","1080","0","1","0","5dc1e79c880a2915309a8ee3","","null","","","learningBlock1","","","","<div style=""font-size:60px;""> </div>","null","LF","learning/Slide19.JPG","This is a wug:","","",""
"html-keyboard-response","63","171530","0.0-5.0-0.19","LF","lpb8r8jcs5","1920","1080","0","1","0","5dc1e79c880a2915309a8ee3","","null","","","learningBlock1","","","","This is a bim:","null","","","","","",""
"image-keyboard-response","64","171857","0.0-5.0-1.19","LF","lpb8r8jcs5","1920","1080","0","1","0","5dc1e79c880a2915309a8ee3","","null","","","","","","","learning/Slide20.JPG","null","","","","","",""
"html-keyboard-response","65","172858","0.0-5.0-2.19","LF","lpb8r8jcs5","1920","1080","0","1","0","5dc1e79c880a2915309a8ee3","","null","","","learningBlock1","","","","<div style=""font-size:60px;""> </div>","null","LF","learning/Slide20.JPG","This is a bim:","","",""
"html-keyboard-response","66","173860","0.0-5.0-0.20","LF","lpb8r8jcs5","1920","1080","0","1","0","5dc1e79c880a2915309a8ee3","","null","","","learningBlock1","","","","This is a dep:","null","","","","","",""
"image-keyboard-response","67","174186","0.0-5.0-1.20","LF","lpb8r8jcs5","1920","1080","0","1","0","5dc1e79c880a2915309a8ee3","","null","","","","","","","learning/Slide21.JPG","null","","","","","",""
"html-keyboard-response","68","175189","0.0-5.0-2.20","LF","lpb8r8jcs5","1920","1080","0","1","0","5dc1e79c880a2915309a8ee3","","null","","","learningBlock1","","","","<div style=""font-size:60px;""> </div>","null","LF","learning/Slide21.JPG","This is a dep:","","",""
"html-keyboard-response","69","176193","0.0-5.0-0.21","LF","lpb8r8jcs5","1920","1080","0","1","0","5dc1e79c880a2915309a8ee3","","null","","","learningBlock1","","","","This is a bim:","null","","","","","",""
"image-keyboard-response","70","176521","0.0-5.0-1.21","LF","lpb8r8jcs5","1920","1080","0","1","0","5dc1e79c880a2915309a8ee3","","null","","","","","","","learning/Slide22.JPG","null","","","","","",""
"html-keyboard-response","71","177523","0.0-5.0-2.21","LF","lpb8r8jcs5","1920","1080","0","1","0","5dc1e79c880a2915309a8ee3","","null","","","learningBlock1","","","","<div style=""font-size:60px;""> </div>","null","LF","learning/Slide22.JPG","This is a bim:","","",""
"html-keyboard-response","72","178525","0.0-5.0-0.22","LF","lpb8r8jcs5","1920","1080","0","1","0","5dc1e79c880a2915309a8ee3","","null","","","learningBlock1","","","","This is a tob:","null","","","","","",""
"image-keyboard-response","73","178853","0.0-5.0-1.22","LF","lpb8r8jcs5","1920","1080","0","1","0","5dc1e79c880a2915309a8ee3","","null","","","","","","","learning/Slide23.JPG","null","","","","","",""
"html-keyboard-response","74","179855","0.0-5.0-2.22","LF","lpb8r8jcs5","1920","1080","0","1","0","5dc1e79c880a2915309a8ee3","","null","","","learningBlock1","","","","<div style=""font-size:60px;""> </div>","null","LF","learning/Slide23.JPG","This is a tob:","","",""
"html-keyboard-response","75","180856","0.0-5.0-0.23","LF","lpb8r8jcs5","1920","1080","0","1","0","5dc1e79c880a2915309a8ee3","","null","","","learningBlock1","","","","This is a wug:","null","","","","","",""
"image-keyboard-response","76","181184","0.0-5.0-1.23","LF","lpb8r8jcs5","1920","1080","0","1","0","5dc1e79c880a2915309a8ee3","","null","","","","","","","learning/Slide24.JPG","null","","","","","",""
"html-keyboard-response","77","182185","0.0-5.0-2.23","LF","lpb8r8jcs5","1920","1080","0","1","0","5dc1e79c880a2915309a8ee3","","null","","","learningBlock1","","","","<div style=""font-size:60px;""> </div>","null","LF","learning/Slide24.JPG","This is a wug:","","",""
"html-keyboard-response","78","183187","0.0-5.0-0.24","LF","lpb8r8jcs5","1920","1080","0","1","0","5dc1e79c880a2915309a8ee3","","null","","","learningBlock1","","","","This is a dep:","null","","","","","",""
"image-keyboard-response","79","183515","0.0-5.0-1.24","LF","lpb8r8jcs5","1920","1080","0","1","0","5dc1e79c880a2915309a8ee3","","null","","","","","","","learning/Slide25.JPG","null","","","","","",""
"html-keyboard-response","80","184517","0.0-5.0-2.24","LF","lpb8r8jcs5","1920","1080","0","1","0","5dc1e79c880a2915309a8ee3","","null","","","learningBlock1","","","","<div style=""font-size:60px;""> </div>","null","LF","learning/Slide25.JPG","This is a dep:","","",""
"html-keyboard-response","81","185519","0.0-5.0-0.25","LF","lpb8r8jcs5","1920","1080","0","1","0","5dc1e79c880a2915309a8ee3","","null","","","learningBlock1","","","","This is a wug:","null","","","","","",""
"image-keyboard-response","82","185845","0.0-5.0-1.25","LF","lpb8r8jcs5","1920","1080","0","1","0","5dc1e79c880a2915309a8ee3","","null","","","","","","","learning/Slide26.JPG","null","","","","","",""
"html-keyboard-response","83","186847","0.0-5.0-2.25","LF","lpb8r8jcs5","1920","1080","0","1","0","5dc1e79c880a2915309a8ee3","","null","","","learningBlock1","","","","<div style=""font-size:60px;""> </div>","null","LF","learning/Slide26.JPG","This is a wug:","","",""
"html-keyboard-response","84","187849","0.0-5.0-0.26","LF","lpb8r8jcs5","1920","1080","0","1","0","5dc1e79c880a2915309a8ee3","","null","","","learningBlock1","","","","This is a bim:","null","","","","","",""
"image-keyboard-response","85","188177","0.0-5.0-1.26","LF","lpb8r8jcs5","1920","1080","0","1","0","5dc1e79c880a2915309a8ee3","","null","","","","","","","learning/Slide27.JPG","null","","","","","",""
"html-keyboard-response","86","189179","0.0-5.0-2.26","LF","lpb8r8jcs5","1920","1080","0","1","0","5dc1e79c880a2915309a8ee3","","null","","","learningBlock1","","","","<div style=""font-size:60px;""> </div>","null","LF","learning/Slide27.JPG","This is a bim:","","",""
"html-keyboard-response","87","190180","0.0-5.0-0.27","LF","lpb8r8jcs5","1920","1080","0","1","0","5dc1e79c880a2915309a8ee3","","null","","","learningBlock1","","","","This is a dep:","null","","","","","",""
"image-keyboard-response","88","190509","0.0-5.0-1.27","LF","lpb8r8jcs5","1920","1080","0","1","0","5dc1e79c880a2915309a8ee3","","null","","","","","","","learning/Slide28.JPG","null","","","","","",""
"html-keyboard-response","89","191511","0.0-5.0-2.27","LF","lpb8r8jcs5","1920","1080","0","1","0","5dc1e79c880a2915309a8ee3","","null","","","learningBlock1","","","","<div style=""font-size:60px;""> </div>","null","LF","learning/Slide28.JPG","This is a dep:","","",""
"html-keyboard-response","90","192513","0.0-5.0-0.28","LF","lpb8r8jcs5","1920","1080","0","1","0","5dc1e79c880a2915309a8ee3","","null","","","learningBlock1","","","","This is a tob:","null","","","","","",""
"image-keyboard-response","91","192842","0.0-5.0-1.28","LF","lpb8r8jcs5","1920","1080","0","1","0","5dc1e79c880a2915309a8ee3","","null","","","","","","","learning/Slide29.JPG","null","","","","","",""
"html-keyboard-response","92","193844","0.0-5.0-2.28","LF","lpb8r8jcs5","1920","1080","0","1","0","5dc1e79c880a2915309a8ee3","","null","","","learningBlock1","","","","<div style=""font-size:60px;""> </div>","null","LF","learning/Slide29.JPG","This is a tob:","","",""
"html-keyboard-response","93","194845","0.0-5.0-0.29","LF","lpb8r8jcs5","1920","1080","0","1","0","5dc1e79c880a2915309a8ee3","","null","","","learningBlock1","","","","This is a dep:","null","","","","","",""
"image-keyboard-response","94","195174","0.0-5.0-1.29","LF","lpb8r8jcs5","1920","1080","0","1","0","5dc1e79c880a2915309a8ee3","","null","","","","","","","learning/Slide30.JPG","null","","","","","",""
"html-keyboard-response","95","196176","0.0-5.0-2.29","LF","lpb8r8jcs5","1920","1080","0","1","0","5dc1e79c880a2915309a8ee3","","null","","","learningBlock1","","","","<div style=""font-size:60px;""> </div>","null","LF","learning/Slide30.JPG","This is a dep:","","",""
"html-keyboard-response","96","197177","0.0-5.0-0.30","LF","lpb8r8jcs5","1920","1080","0","1","0","5dc1e79c880a2915309a8ee3","","null","","","learningBlock1","","","","This is a wug:","null","","","","","",""
"image-keyboard-response","97","197506","0.0-5.0-1.30","LF","lpb8r8jcs5","1920","1080","0","1","0","5dc1e79c880a2915309a8ee3","","null","","","","","","","learning/Slide31.JPG","null","","","","","",""
"html-keyboard-response","98","198508","0.0-5.0-2.30","LF","lpb8r8jcs5","1920","1080","0","1","0","5dc1e79c880a2915309a8ee3","","null","","","learningBlock1","","","","<div style=""font-size:60px;""> </div>","null","LF","learning/Slide31.JPG","This is a wug:","","",""
"html-keyboard-response","99","199510","0.0-5.0-0.31","LF","lpb8r8jcs5","1920","1080","0","1","0","5dc1e79c880a2915309a8ee3","","null","","","learningBlock1","","","","This is a tob:","null","","","","","",""
"image-keyboard-response","100","199837","0.0-5.0-1.31","LF","lpb8r8jcs5","1920","1080","0","1","0","5dc1e79c880a2915309a8ee3","","null","","","","","","","learning/Slide32.JPG","null","","","","","",""
"html-keyboard-response","101","200840","0.0-5.0-2.31","LF","lpb8r8jcs5","1920","1080","0","1","0","5dc1e79c880a2915309a8ee3","","null","","","learningBlock1","","","","<div style=""font-size:60px;""> </div>","null","LF","learning/Slide32.JPG","This is a tob:","","",""
"html-keyboard-response","102","201842","0.0-5.0-0.32","LF","lpb8r8jcs5","1920","1080","0","1","0","5dc1e79c880a2915309a8ee3","","null","","","learningBlock1","","","","This is a bim:","null","","","","","",""
"image-keyboard-response","103","202170","0.0-5.0-1.32","LF","lpb8r8jcs5","1920","1080","0","1","0","5dc1e79c880a2915309a8ee3","","null","","","","","","","learning/Slide33.JPG","null","","","","","",""
"html-keyboard-response","104","203172","0.0-5.0-2.32","LF","lpb8r8jcs5","1920","1080","0","1","0","5dc1e79c880a2915309a8ee3","","null","","","learningBlock1","","","","<div style=""font-size:60px;""> </div>","null","LF","learning/Slide33.JPG","This is a bim:","","",""
"html-keyboard-response","105","204174","0.0-5.0-0.33","LF","lpb8r8jcs5","1920","1080","0","1","0","5dc1e79c880a2915309a8ee3","","null","","","learningBlock1","","","","This is a tob:","null","","","","","",""
"image-keyboard-response","106","204502","0.0-5.0-1.33","LF","lpb8r8jcs5","1920","1080","0","1","0","5dc1e79c880a2915309a8ee3","","null","","","","","","","learning/Slide34.JPG","null","","","","","",""
"html-keyboard-response","107","205504","0.0-5.0-2.33","LF","lpb8r8jcs5","1920","1080","0","1","0","5dc1e79c880a2915309a8ee3","","null","","","learningBlock1","","","","<div style=""font-size:60px;""> </div>","null","LF","learning/Slide34.JPG","This is a tob:","","",""
"html-keyboard-response","108","206506","0.0-5.0-0.34","LF","lpb8r8jcs5","1920","1080","0","1","0","5dc1e79c880a2915309a8ee3","","null","","","learningBlock1","","","","This is a bim:","null","","","","","",""
"image-keyboard-response","109","206834","0.0-5.0-1.34","LF","lpb8r8jcs5","1920","1080","0","1","0","5dc1e79c880a2915309a8ee3","","null","","","","","","","learning/Slide35.JPG","null","","","","","",""
"html-keyboard-response","110","207836","0.0-5.0-2.34","LF","lpb8r8jcs5","1920","1080","0","1","0","5dc1e79c880a2915309a8ee3","","null","","","learningBlock1","","","","<div style=""font-size:60px;""> </div>","null","LF","learning/Slide35.JPG","This is a bim:","","",""
"html-keyboard-response","111","208838","0.0-5.0-0.35","LF","lpb8r8jcs5","1920","1080","0","1","0","5dc1e79c880a2915309a8ee3","","null","","","learningBlock1","","","","This is a dep:","null","","","","","",""
"image-keyboard-response","112","209167","0.0-5.0-1.35","LF","lpb8r8jcs5","1920","1080","0","1","0","5dc1e79c880a2915309a8ee3","","null","","","","","","","learning/Slide36.JPG","null","","","","","",""
"html-keyboard-response","113","210169","0.0-5.0-2.35","LF","lpb8r8jcs5","1920","1080","0","1","0","5dc1e79c880a2915309a8ee3","","null","","","learningBlock1","","","","<div style=""font-size:60px;""> </div>","null","LF","learning/Slide36.JPG","This is a dep:","","",""
"html-keyboard-response","114","211170","0.0-5.0-0.36","LF","lpb8r8jcs5","1920","1080","0","1","0","5dc1e79c880a2915309a8ee3","","null","","","learningBlock1","","","","This is a tob:","null","","","","","",""
"image-keyboard-response","115","211498","0.0-5.0-1.36","LF","lpb8r8jcs5","1920","1080","0","1","0","5dc1e79c880a2915309a8ee3","","null","","","","","","","learning/Slide37.JPG","null","","","","","",""
"html-keyboard-response","116","212500","0.0-5.0-2.36","LF","lpb8r8jcs5","1920","1080","0","1","0","5dc1e79c880a2915309a8ee3","","null","","","learningBlock1","","","","<div style=""font-size:60px;""> </div>","null","LF","learning/Slide37.JPG","This is a tob:","","",""
"html-keyboard-response","117","213502","0.0-5.0-0.37","LF","lpb8r8jcs5","1920","1080","0","1","0","5dc1e79c880a2915309a8ee3","","null","","","learningBlock1","","","","This is a wug:","null","","","","","",""
"image-keyboard-response","118","213828","0.0-5.0-1.37","LF","lpb8r8jcs5","1920","1080","0","1","0","5dc1e79c880a2915309a8ee3","","null","","","","","","","learning/Slide38.JPG","null","","","","","",""
"html-keyboard-response","119","214830","0.0-5.0-2.37","LF","lpb8r8jcs5","1920","1080","0","1","0","5dc1e79c880a2915309a8ee3","","null","","","learningBlock1","","","","<div style=""font-size:60px;""> </div>","null","LF","learning/Slide38.JPG","This is a wug:","","",""
"html-keyboard-response","120","215831","0.0-5.0-0.38","LF","lpb8r8jcs5","1920","1080","0","1","0","5dc1e79c880a2915309a8ee3","","null","","","learningBlock1","","","","This is a bim:","null","","","","","",""
"image-keyboard-response","121","216159","0.0-5.0-1.38","LF","lpb8r8jcs5","1920","1080","0","1","0","5dc1e79c880a2915309a8ee3","","null","","","","","","","learning/Slide39.JPG","null","","","","","",""
"html-keyboard-response","122","217161","0.0-5.0-2.38","LF","lpb8r8jcs5","1920","1080","0","1","0","5dc1e79c880a2915309a8ee3","","null","","","learningBlock1","","","","<div style=""font-size:60px;""> </div>","null","LF","learning/Slide39.JPG","This is a bim:","","",""
"html-keyboard-response","123","218163","0.0-5.0-0.39","LF","lpb8r8jcs5","1920","1080","0","1","0","5dc1e79c880a2915309a8ee3","","null","","","learningBlock1","","","","This is a tob:","null","","","","","",""
"image-keyboard-response","124","218491","0.0-5.0-1.39","LF","lpb8r8jcs5","1920","1080","0","1","0","5dc1e79c880a2915309a8ee3","","null","","","","","","","learning/Slide40.JPG","null","","","","","",""
"html-keyboard-response","125","219494","0.0-5.0-2.39","LF","lpb8r8jcs5","1920","1080","0","1","0","5dc1e79c880a2915309a8ee3","","null","","","learningBlock1","","","","<div style=""font-size:60px;""> </div>","null","LF","learning/Slide40.JPG","This is a tob:","","",""
"html-keyboard-response","126","220496","0.0-5.0-0.40","LF","lpb8r8jcs5","1920","1080","0","1","0","5dc1e79c880a2915309a8ee3","","null","","","learningBlock1","","","","This is a bim:","null","","","","","",""
"image-keyboard-response","127","220824","0.0-5.0-1.40","LF","lpb8r8jcs5","1920","1080","0","1","0","5dc1e79c880a2915309a8ee3","","null","","","","","","","learning/Slide41.JPG","null","","","","","",""
"html-keyboard-response","128","221825","0.0-5.0-2.40","LF","lpb8r8jcs5","1920","1080","0","1","0","5dc1e79c880a2915309a8ee3","","null","","","learningBlock1","","","","<div style=""font-size:60px;""> </div>","null","LF","learning/Slide41.JPG","This is a bim:","","",""
"html-keyboard-response","129","222827","0.0-5.0-0.41","LF","lpb8r8jcs5","1920","1080","0","1","0","5dc1e79c880a2915309a8ee3","","null","","","learningBlock1","","","","This is a dep:","null","","","","","",""
"image-keyboard-response","130","223154","0.0-5.0-1.41","LF","lpb8r8jcs5","1920","1080","0","1","0","5dc1e79c880a2915309a8ee3","","null","","","","","","","learning/Slide42.JPG","null","","","","","",""
"html-keyboard-response","131","224155","0.0-5.0-2.41","LF","lpb8r8jcs5","1920","1080","0","1","0","5dc1e79c880a2915309a8ee3","","null","","","learningBlock1","","","","<div style=""font-size:60px;""> </div>","null","LF","learning/Slide42.JPG","This is a dep:","","",""
"html-keyboard-response","132","225156","0.0-5.0-0.42","LF","lpb8r8jcs5","1920","1080","0","1","0","5dc1e79c880a2915309a8ee3","","null","","","learningBlock1","","","","This is a wug:","null","","","","","",""
"image-keyboard-response","133","225483","0.0-5.0-1.42","LF","lpb8r8jcs5","1920","1080","0","1","0","5dc1e79c880a2915309a8ee3","","null","","","","","","","learning/Slide43.JPG","null","","","","","",""
"html-keyboard-response","134","226485","0.0-5.0-2.42","LF","lpb8r8jcs5","1920","1080","0","1","0","5dc1e79c880a2915309a8ee3","","null","","","learningBlock1","","","","<div style=""font-size:60px;""> </div>","null","LF","learning/Slide43.JPG","This is a wug:","","",""
"html-keyboard-response","135","227486","0.0-5.0-0.43","LF","lpb8r8jcs5","1920","1080","0","1","0","5dc1e79c880a2915309a8ee3","","null","","","learningBlock1","","","","This is a bim:","null","","","","","",""
"image-keyboard-response","136","227814","0.0-5.0-1.43","LF","lpb8r8jcs5","1920","1080","0","1","0","5dc1e79c880a2915309a8ee3","","null","","","","","","","learning/Slide44.JPG","null","","","","","",""
"html-keyboard-response","137","228816","0.0-5.0-2.43","LF","lpb8r8jcs5","1920","1080","0","1","0","5dc1e79c880a2915309a8ee3","","null","","","learningBlock1","","","","<div style=""font-size:60px;""> </div>","null","LF","learning/Slide44.JPG","This is a bim:","","",""
"html-keyboard-response","138","229818","0.0-5.0-0.44","LF","lpb8r8jcs5","1920","1080","0","1","0","5dc1e79c880a2915309a8ee3","","null","","","learningBlock1","","","","This is a wug:","null","","","","","",""
"image-keyboard-response","139","230146","0.0-5.0-1.44","LF","lpb8r8jcs5","1920","1080","0","1","0","5dc1e79c880a2915309a8ee3","","null","","","","","","","learning/Slide45.JPG","null","","","","","",""
"html-keyboard-response","140","231148","0.0-5.0-2.44","LF","lpb8r8jcs5","1920","1080","0","1","0","5dc1e79c880a2915309a8ee3","","null","","","learningBlock1","","","","<div style=""font-size:60px;""> </div>","null","LF","learning/Slide45.JPG","This is a wug:","","",""
"html-keyboard-response","141","232150","0.0-5.0-0.45","LF","lpb8r8jcs5","1920","1080","0","1","0","5dc1e79c880a2915309a8ee3","","null","","","learningBlock1","","","","This is a dep:","null","","","","","",""
"image-keyboard-response","142","232478","0.0-5.0-1.45","LF","lpb8r8jcs5","1920","1080","0","1","0","5dc1e79c880a2915309a8ee3","","null","","","","","","","learning/Slide46.JPG","null","","","","","",""
"html-keyboard-response","143","233480","0.0-5.0-2.45","LF","lpb8r8jcs5","1920","1080","0","1","0","5dc1e79c880a2915309a8ee3","","null","","","learningBlock1","","","","<div style=""font-size:60px;""> </div>","null","LF","learning/Slide46.JPG","This is a dep:","","",""
"html-keyboard-response","144","234482","0.0-5.0-0.46","LF","lpb8r8jcs5","1920","1080","0","1","0","5dc1e79c880a2915309a8ee3","","null","","","learningBlock1","","","","This is a tob:","null","","","","","",""
"image-keyboard-response","145","234809","0.0-5.0-1.46","LF","lpb8r8jcs5","1920","1080","0","1","0","5dc1e79c880a2915309a8ee3","","null","","","","","","","learning/Slide47.JPG","null","","","","","",""
"html-keyboard-response","146","235811","0.0-5.0-2.46","LF","lpb8r8jcs5","1920","1080","0","1","0","5dc1e79c880a2915309a8ee3","","null","","","learningBlock1","","","","<div style=""font-size:60px;""> </div>","null","LF","learning/Slide47.JPG","This is a tob:","","",""
"html-keyboard-response","147","236813","0.0-5.0-0.47","LF","lpb8r8jcs5","1920","1080","0","1","0","5dc1e79c880a2915309a8ee3","","null","","","learningBlock1","","","","This is a bim:","null","","","","","",""
"image-keyboard-response","148","237140","0.0-5.0-1.47","LF","lpb8r8jcs5","1920","1080","0","1","0","5dc1e79c880a2915309a8ee3","","null","","","","","","","learning/Slide48.JPG","null","","","","","",""
"html-keyboard-response","149","238141","0.0-5.0-2.47","LF","lpb8r8jcs5","1920","1080","0","1","0","5dc1e79c880a2915309a8ee3","","null","","","learningBlock1","","","","<div style=""font-size:60px;""> </div>","null","LF","learning/Slide48.JPG","This is a bim:","","",""
"html-keyboard-response","150","239142","0.0-5.0-0.48","LF","lpb8r8jcs5","1920","1080","0","1","0","5dc1e79c880a2915309a8ee3","","null","","","learningBlock1","","","","This is a dep:","null","","","","","",""
"image-keyboard-response","151","239469","0.0-5.0-1.48","LF","lpb8r8jcs5","1920","1080","0","1","0","5dc1e79c880a2915309a8ee3","","null","","","","","","","learning/Slide49.JPG","null","","","","","",""
"html-keyboard-response","152","240471","0.0-5.0-2.48","LF","lpb8r8jcs5","1920","1080","0","1","0","5dc1e79c880a2915309a8ee3","","null","","","learningBlock1","","","","<div style=""font-size:60px;""> </div>","null","LF","learning/Slide49.JPG","This is a dep:","","",""
"html-keyboard-response","153","241472","0.0-5.0-0.49","LF","lpb8r8jcs5","1920","1080","0","1","0","5dc1e79c880a2915309a8ee3","","null","","","learningBlock1","","","","This is a tob:","null","","","","","",""
"image-keyboard-response","154","241801","0.0-5.0-1.49","LF","lpb8r8jcs5","1920","1080","0","1","0","5dc1e79c880a2915309a8ee3","","null","","","","","","","learning/Slide50.JPG","null","","","","","",""
"html-keyboard-response","155","242802","0.0-5.0-2.49","LF","lpb8r8jcs5","1920","1080","0","1","0","5dc1e79c880a2915309a8ee3","","null","","","learningBlock1","","","","<div style=""font-size:60px;""> </div>","null","LF","learning/Slide50.JPG","This is a tob:","","",""
"html-keyboard-response","156","243804","0.0-5.0-0.50","LF","lpb8r8jcs5","1920","1080","0","1","0","5dc1e79c880a2915309a8ee3","","null","","","learningBlock1","","","","This is a bim:","null","","","","","",""
"image-keyboard-response","157","244132","0.0-5.0-1.50","LF","lpb8r8jcs5","1920","1080","0","1","0","5dc1e79c880a2915309a8ee3","","null","","","","","","","learning/Slide51.JPG","null","","","","","",""
"html-keyboard-response","158","245134","0.0-5.0-2.50","LF","lpb8r8jcs5","1920","1080","0","1","0","5dc1e79c880a2915309a8ee3","","null","","","learningBlock1","","","","<div style=""font-size:60px;""> </div>","null","LF","learning/Slide51.JPG","This is a bim:","","",""
"html-keyboard-response","159","246135","0.0-5.0-0.51","LF","lpb8r8jcs5","1920","1080","0","1","0","5dc1e79c880a2915309a8ee3","","null","","","learningBlock1","","","","This is a wug:","null","","","","","",""
"image-keyboard-response","160","246494","0.0-5.0-1.51","LF","lpb8r8jcs5","1920","1080","0","1","0","5dc1e79c880a2915309a8ee3","","null","","","","","","","learning/Slide52.JPG","null","","","","","",""
"html-keyboard-response","161","247496","0.0-5.0-2.51","LF","lpb8r8jcs5","1920","1080","0","1","0","5dc1e79c880a2915309a8ee3","","null","","","learningBlock1","","","","<div style=""font-size:60px;""> </div>","null","LF","learning/Slide52.JPG","This is a wug:","","",""
"html-keyboard-response","162","248498","0.0-5.0-0.52","LF","lpb8r8jcs5","1920","1080","0","1","0","5dc1e79c880a2915309a8ee3","","null","","","learningBlock1","","","","This is a tob:","null","","","","","",""
"image-keyboard-response","163","248831","0.0-5.0-1.52","LF","lpb8r8jcs5","1920","1080","0","1","0","5dc1e79c880a2915309a8ee3","","null","","","","","","","learning/Slide53.JPG","null","","","","","",""
"html-keyboard-response","164","249833","0.0-5.0-2.52","LF","lpb8r8jcs5","1920","1080","0","1","0","5dc1e79c880a2915309a8ee3","","null","","","learningBlock1","","","","<div style=""font-size:60px;""> </div>","null","LF","learning/Slide53.JPG","This is a tob:","","",""
"html-keyboard-response","165","250834","0.0-5.0-0.53","LF","lpb8r8jcs5","1920","1080","0","1","0","5dc1e79c880a2915309a8ee3","","null","","","learningBlock1","","","","This is a dep:","null","","","","","",""
"image-keyboard-response","166","251161","0.0-5.0-1.53","LF","lpb8r8jcs5","1920","1080","0","1","0","5dc1e79c880a2915309a8ee3","","null","","","","","","","learning/Slide54.JPG","null","","","","","",""
"html-keyboard-response","167","252163","0.0-5.0-2.53","LF","lpb8r8jcs5","1920","1080","0","1","0","5dc1e79c880a2915309a8ee3","","null","","","learningBlock1","","","","<div style=""font-size:60px;""> </div>","null","LF","learning/Slide54.JPG","This is a dep:","","",""
"html-keyboard-response","168","253165","0.0-5.0-0.54","LF","lpb8r8jcs5","1920","1080","0","1","0","5dc1e79c880a2915309a8ee3","","null","","","learningBlock1","","","","This is a bim:","null","","","","","",""
"image-keyboard-response","169","253491","0.0-5.0-1.54","LF","lpb8r8jcs5","1920","1080","0","1","0","5dc1e79c880a2915309a8ee3","","null","","","","","","","learning/Slide55.JPG","null","","","","","",""
"html-keyboard-response","170","254493","0.0-5.0-2.54","LF","lpb8r8jcs5","1920","1080","0","1","0","5dc1e79c880a2915309a8ee3","","null","","","learningBlock1","","","","<div style=""font-size:60px;""> </div>","null","LF","learning/Slide55.JPG","This is a bim:","","",""
"html-keyboard-response","171","255494","0.0-5.0-0.55","LF","lpb8r8jcs5","1920","1080","0","1","0","5dc1e79c880a2915309a8ee3","","null","","","learningBlock1","","","","This is a tob:","null","","","","","",""
"image-keyboard-response","172","255823","0.0-5.0-1.55","LF","lpb8r8jcs5","1920","1080","0","1","0","5dc1e79c880a2915309a8ee3","","null","","","","","","","learning/Slide56.JPG","null","","","","","",""
"html-keyboard-response","173","256824","0.0-5.0-2.55","LF","lpb8r8jcs5","1920","1080","0","1","0","5dc1e79c880a2915309a8ee3","","null","","","learningBlock1","","","","<div style=""font-size:60px;""> </div>","null","LF","learning/Slide56.JPG","This is a tob:","","",""
"html-keyboard-response","174","257826","0.0-5.0-0.56","LF","lpb8r8jcs5","1920","1080","0","1","0","5dc1e79c880a2915309a8ee3","","null","","","learningBlock1","","","","This is a dep:","null","","","","","",""
"image-keyboard-response","175","258153","0.0-5.0-1.56","LF","lpb8r8jcs5","1920","1080","0","1","0","5dc1e79c880a2915309a8ee3","","null","","","","","","","learning/Slide57.JPG","null","","","","","",""
"html-keyboard-response","176","259156","0.0-5.0-2.56","LF","lpb8r8jcs5","1920","1080","0","1","0","5dc1e79c880a2915309a8ee3","","null","","","learningBlock1","","","","<div style=""font-size:60px;""> </div>","null","LF","learning/Slide57.JPG","This is a dep:","","",""
"html-keyboard-response","177","260156","0.0-5.0-0.57","LF","lpb8r8jcs5","1920","1080","0","1","0","5dc1e79c880a2915309a8ee3","","null","","","learningBlock1","","","","This is a wug:","null","","","","","",""
"image-keyboard-response","178","260483","0.0-5.0-1.57","LF","lpb8r8jcs5","1920","1080","0","1","0","5dc1e79c880a2915309a8ee3","","null","","","","","","","learning/Slide58.JPG","null","","","","","",""
"html-keyboard-response","179","261485","0.0-5.0-2.57","LF","lpb8r8jcs5","1920","1080","0","1","0","5dc1e79c880a2915309a8ee3","","null","","","learningBlock1","","","","<div style=""font-size:60px;""> </div>","null","LF","learning/Slide58.JPG","This is a wug:","","",""
"html-keyboard-response","180","262487","0.0-5.0-0.58","LF","lpb8r8jcs5","1920","1080","0","1","0","5dc1e79c880a2915309a8ee3","","null","","","learningBlock1","","","","This is a dep:","null","","","","","",""
"image-keyboard-response","181","262815","0.0-5.0-1.58","LF","lpb8r8jcs5","1920","1080","0","1","0","5dc1e79c880a2915309a8ee3","","null","","","","","","","learning/Slide59.JPG","null","","","","","",""
"html-keyboard-response","182","263817","0.0-5.0-2.58","LF","lpb8r8jcs5","1920","1080","0","1","0","5dc1e79c880a2915309a8ee3","","null","","","learningBlock1","","","","<div style=""font-size:60px;""> </div>","null","LF","learning/Slide59.JPG","This is a dep:","","",""
"html-keyboard-response","183","264819","0.0-5.0-0.59","LF","lpb8r8jcs5","1920","1080","0","1","0","5dc1e79c880a2915309a8ee3","","null","","","learningBlock1","","","","This is a wug:","null","","","","","",""
"image-keyboard-response","184","265147","0.0-5.0-1.59","LF","lpb8r8jcs5","1920","1080","0","1","0","5dc1e79c880a2915309a8ee3","","null","","","","","","","learning/Slide60.JPG","null","","","","","",""
"html-keyboard-response","185","266148","0.0-5.0-2.59","LF","lpb8r8jcs5","1920","1080","0","1","0","5dc1e79c880a2915309a8ee3","","null","","","learningBlock1","","","","<div style=""font-size:60px;""> </div>","null","LF","learning/Slide60.JPG","This is a wug:","","",""
"html-keyboard-response","186","267150","0.0-5.0-0.60","LF","lpb8r8jcs5","1920","1080","0","1","0","5dc1e79c880a2915309a8ee3","","null","","","learningBlock1","","","","This is a bim:","null","","","","","",""
"image-keyboard-response","187","267478","0.0-5.0-1.60","LF","lpb8r8jcs5","1920","1080","0","1","0","5dc1e79c880a2915309a8ee3","","null","","","","","","","learning/Slide61.JPG","null","","","","","",""
"html-keyboard-response","188","268479","0.0-5.0-2.60","LF","lpb8r8jcs5","1920","1080","0","1","0","5dc1e79c880a2915309a8ee3","","null","","","learningBlock1","","","","<div style=""font-size:60px;""> </div>","null","LF","learning/Slide61.JPG","This is a bim:","","",""
"html-keyboard-response","189","269480","0.0-5.0-0.61","LF","lpb8r8jcs5","1920","1080","0","1","0","5dc1e79c880a2915309a8ee3","","null","","","learningBlock1","","","","This is a dep:","null","","","","","",""
"image-keyboard-response","190","269809","0.0-5.0-1.61","LF","lpb8r8jcs5","1920","1080","0","1","0","5dc1e79c880a2915309a8ee3","","null","","","","","","","learning/Slide62.JPG","null","","","","","",""
"html-keyboard-response","191","270810","0.0-5.0-2.61","LF","lpb8r8jcs5","1920","1080","0","1","0","5dc1e79c880a2915309a8ee3","","null","","","learningBlock1","","","","<div style=""font-size:60px;""> </div>","null","LF","learning/Slide62.JPG","This is a dep:","","",""
"html-keyboard-response","192","271812","0.0-5.0-0.62","LF","lpb8r8jcs5","1920","1080","0","1","0","5dc1e79c880a2915309a8ee3","","null","","","learningBlock1","","","","This is a bim:","null","","","","","",""
"image-keyboard-response","193","272139","0.0-5.0-1.62","LF","lpb8r8jcs5","1920","1080","0","1","0","5dc1e79c880a2915309a8ee3","","null","","","","","","","learning/Slide63.JPG","null","","","","","",""
"html-keyboard-response","194","273140","0.0-5.0-2.62","LF","lpb8r8jcs5","1920","1080","0","1","0","5dc1e79c880a2915309a8ee3","","null","","","learningBlock1","","","","<div style=""font-size:60px;""> </div>","null","LF","learning/Slide63.JPG","This is a bim:","","",""
"html-keyboard-response","195","274141","0.0-5.0-0.63","LF","lpb8r8jcs5","1920","1080","0","1","0","5dc1e79c880a2915309a8ee3","","null","","","learningBlock1","","","","This is a tob:","null","","","","","",""
"image-keyboard-response","196","274468","0.0-5.0-1.63","LF","lpb8r8jcs5","1920","1080","0","1","0","5dc1e79c880a2915309a8ee3","","null","","","","","","","learning/Slide64.JPG","null","","","","","",""
"html-keyboard-response","197","275470","0.0-5.0-2.63","LF","lpb8r8jcs5","1920","1080","0","1","0","5dc1e79c880a2915309a8ee3","","null","","","learningBlock1","","","","<div style=""font-size:60px;""> </div>","null","LF","learning/Slide64.JPG","This is a tob:","","",""
"html-keyboard-response","198","276472","0.0-5.0-0.64","LF","lpb8r8jcs5","1920","1080","0","1","0","5dc1e79c880a2915309a8ee3","","null","","","learningBlock1","","","","This is a wug:","null","","","","","",""
"image-keyboard-response","199","276800","0.0-5.0-1.64","LF","lpb8r8jcs5","1920","1080","0","1","0","5dc1e79c880a2915309a8ee3","","null","","","","","","","learning/Slide65.JPG","null","","","","","",""
"html-keyboard-response","200","277801","0.0-5.0-2.64","LF","lpb8r8jcs5","1920","1080","0","1","0","5dc1e79c880a2915309a8ee3","","null","","","learningBlock1","","","","<div style=""font-size:60px;""> </div>","null","LF","learning/Slide65.JPG","This is a wug:","","",""
"html-keyboard-response","201","278803","0.0-5.0-0.65","LF","lpb8r8jcs5","1920","1080","0","1","0","5dc1e79c880a2915309a8ee3","","null","","","learningBlock1","","","","This is a dep:","null","","","","","",""
"image-keyboard-response","202","279130","0.0-5.0-1.65","LF","lpb8r8jcs5","1920","1080","0","1","0","5dc1e79c880a2915309a8ee3","","null","","","","","","","learning/Slide66.JPG","null","","","","","",""
"html-keyboard-response","203","280132","0.0-5.0-2.65","LF","lpb8r8jcs5","1920","1080","0","1","0","5dc1e79c880a2915309a8ee3","","null","","","learningBlock1","","","","<div style=""font-size:60px;""> </div>","null","LF","learning/Slide66.JPG","This is a dep:","","",""
"html-keyboard-response","204","281134","0.0-5.0-0.66","LF","lpb8r8jcs5","1920","1080","0","1","0","5dc1e79c880a2915309a8ee3","","null","","","learningBlock1","","","","This is a tob:","null","","","","","",""
"image-keyboard-response","205","281462","0.0-5.0-1.66","LF","lpb8r8jcs5","1920","1080","0","1","0","5dc1e79c880a2915309a8ee3","","null","","","","","","","learning/Slide67.JPG","null","","","","","",""
"html-keyboard-response","206","282464","0.0-5.0-2.66","LF","lpb8r8jcs5","1920","1080","0","1","0","5dc1e79c880a2915309a8ee3","","null","","","learningBlock1","","","","<div style=""font-size:60px;""> </div>","null","LF","learning/Slide67.JPG","This is a tob:","","",""
"html-keyboard-response","207","283465","0.0-5.0-0.67","LF","lpb8r8jcs5","1920","1080","0","1","0","5dc1e79c880a2915309a8ee3","","null","","","learningBlock1","","","","This is a wug:","null","","","","","",""
"image-keyboard-response","208","283794","0.0-5.0-1.67","LF","lpb8r8jcs5","1920","1080","0","1","0","5dc1e79c880a2915309a8ee3","","null","","","","","","","learning/Slide68.JPG","null","","","","","",""
"html-keyboard-response","209","284795","0.0-5.0-2.67","LF","lpb8r8jcs5","1920","1080","0","1","0","5dc1e79c880a2915309a8ee3","","null","","","learningBlock1","","","","<div style=""font-size:60px;""> </div>","null","LF","learning/Slide68.JPG","This is a wug:","","",""
"html-keyboard-response","210","285797","0.0-5.0-0.68","LF","lpb8r8jcs5","1920","1080","0","1","0","5dc1e79c880a2915309a8ee3","","null","","","learningBlock1","","","","This is a tob:","null","","","","","",""
"image-keyboard-response","211","286124","0.0-5.0-1.68","LF","lpb8r8jcs5","1920","1080","0","1","0","5dc1e79c880a2915309a8ee3","","null","","","","","","","learning/Slide69.JPG","null","","","","","",""
"html-keyboard-response","212","287126","0.0-5.0-2.68","LF","lpb8r8jcs5","1920","1080","0","1","0","5dc1e79c880a2915309a8ee3","","null","","","learningBlock1","","","","<div style=""font-size:60px;""> </div>","null","LF","learning/Slide69.JPG","This is a tob:","","",""
"html-keyboard-response","213","288128","0.0-5.0-0.69","LF","lpb8r8jcs5","1920","1080","0","1","0","5dc1e79c880a2915309a8ee3","","null","","","learningBlock1","","","","This is a dep:","null","","","","","",""
"image-keyboard-response","214","288456","0.0-5.0-1.69","LF","lpb8r8jcs5","1920","1080","0","1","0","5dc1e79c880a2915309a8ee3","","null","","","","","","","learning/Slide70.JPG","null","","","","","",""
"html-keyboard-response","215","289458","0.0-5.0-2.69","LF","lpb8r8jcs5","1920","1080","0","1","0","5dc1e79c880a2915309a8ee3","","null","","","learningBlock1","","","","<div style=""font-size:60px;""> </div>","null","LF","learning/Slide70.JPG","This is a dep:","","",""
"html-keyboard-response","216","290460","0.0-5.0-0.70","LF","lpb8r8jcs5","1920","1080","0","1","0","5dc1e79c880a2915309a8ee3","","null","","","learningBlock1","","","","This is a wug:","null","","","","","",""
"image-keyboard-response","217","290788","0.0-5.0-1.70","LF","lpb8r8jcs5","1920","1080","0","1","0","5dc1e79c880a2915309a8ee3","","null","","","","","","","learning/Slide71.JPG","null","","","","","",""
"html-keyboard-response","218","291790","0.0-5.0-2.70","LF","lpb8r8jcs5","1920","1080","0","1","0","5dc1e79c880a2915309a8ee3","","null","","","learningBlock1","","","","<div style=""font-size:60px;""> </div>","null","LF","learning/Slide71.JPG","This is a wug:","","",""
"html-keyboard-response","219","292792","0.0-5.0-0.71","LF","lpb8r8jcs5","1920","1080","0","1","0","5dc1e79c880a2915309a8ee3","","null","","","learningBlock1","","","","This is a bim:","null","","","","","",""
"image-keyboard-response","220","293119","0.0-5.0-1.71","LF","lpb8r8jcs5","1920","1080","0","1","0","5dc1e79c880a2915309a8ee3","","null","","","","","","","learning/Slide72.JPG","null","","","","","",""
"html-keyboard-response","221","294121","0.0-5.0-2.71","LF","lpb8r8jcs5","1920","1080","0","1","0","5dc1e79c880a2915309a8ee3","","null","","","learningBlock1","","","","<div style=""font-size:60px;""> </div>","null","LF","learning/Slide72.JPG","This is a bim:","","",""
"html-keyboard-response","222","295123","0.0-5.0-0.72","LF","lpb8r8jcs5","1920","1080","0","1","0","5dc1e79c880a2915309a8ee3","","null","","","learningBlock1","","","","This is a wug:","null","","","","","",""
"image-keyboard-response","223","295451","0.0-5.0-1.72","LF","lpb8r8jcs5","1920","1080","0","1","0","5dc1e79c880a2915309a8ee3","","null","","","","","","","learning/Slide73.JPG","null","","","","","",""
"html-keyboard-response","224","296453","0.0-5.0-2.72","LF","lpb8r8jcs5","1920","1080","0","1","0","5dc1e79c880a2915309a8ee3","","null","","","learningBlock1","","","","<div style=""font-size:60px;""> </div>","null","LF","learning/Slide73.JPG","This is a wug:","","",""
"html-keyboard-response","225","297455","0.0-5.0-0.73","LF","lpb8r8jcs5","1920","1080","0","1","0","5dc1e79c880a2915309a8ee3","","null","","","learningBlock1","","","","This is a dep:","null","","","","","",""
"image-keyboard-response","226","297783","0.0-5.0-1.73","LF","lpb8r8jcs5","1920","1080","0","1","0","5dc1e79c880a2915309a8ee3","","null","","","","","","","learning/Slide74.JPG","null","","","","","",""
"html-keyboard-response","227","298785","0.0-5.0-2.73","LF","lpb8r8jcs5","1920","1080","0","1","0","5dc1e79c880a2915309a8ee3","","null","","","learningBlock1","","","","<div style=""font-size:60px;""> </div>","null","LF","learning/Slide74.JPG","This is a dep:","","",""
"html-keyboard-response","228","299787","0.0-5.0-0.74","LF","lpb8r8jcs5","1920","1080","0","1","0","5dc1e79c880a2915309a8ee3","","null","","","learningBlock1","","","","This is a tob:","null","","","","","",""
"image-keyboard-response","229","300115","0.0-5.0-1.74","LF","lpb8r8jcs5","1920","1080","0","1","0","5dc1e79c880a2915309a8ee3","","null","","","","","","","learning/Slide75.JPG","null","","","","","",""
"html-keyboard-response","230","301117","0.0-5.0-2.74","LF","lpb8r8jcs5","1920","1080","0","1","0","5dc1e79c880a2915309a8ee3","","null","","","learningBlock1","","","","<div style=""font-size:60px;""> </div>","null","LF","learning/Slide75.JPG","This is a tob:","","",""
"html-keyboard-response","231","302118","0.0-5.0-0.75","LF","lpb8r8jcs5","1920","1080","0","1","0","5dc1e79c880a2915309a8ee3","","null","","","learningBlock1","","","","This is a bim:","null","","","","","",""
"image-keyboard-response","232","302447","0.0-5.0-1.75","LF","lpb8r8jcs5","1920","1080","0","1","0","5dc1e79c880a2915309a8ee3","","null","","","","","","","learning/Slide76.JPG","null","","","","","",""
"html-keyboard-response","233","303449","0.0-5.0-2.75","LF","lpb8r8jcs5","1920","1080","0","1","0","5dc1e79c880a2915309a8ee3","","null","","","learningBlock1","","","","<div style=""font-size:60px;""> </div>","null","LF","learning/Slide76.JPG","This is a bim:","","",""
"html-keyboard-response","234","304452","0.0-5.0-0.76","LF","lpb8r8jcs5","1920","1080","0","1","0","5dc1e79c880a2915309a8ee3","","null","","","learningBlock1","","","","This is a tob:","null","","","","","",""
"image-keyboard-response","235","304780","0.0-5.0-1.76","LF","lpb8r8jcs5","1920","1080","0","1","0","5dc1e79c880a2915309a8ee3","","null","","","","","","","learning/Slide77.JPG","null","","","","","",""
"html-keyboard-response","236","305783","0.0-5.0-2.76","LF","lpb8r8jcs5","1920","1080","0","1","0","5dc1e79c880a2915309a8ee3","","null","","","learningBlock1","","","","<div style=""font-size:60px;""> </div>","null","LF","learning/Slide77.JPG","This is a tob:","","",""
"html-keyboard-response","237","306784","0.0-5.0-0.77","LF","lpb8r8jcs5","1920","1080","0","1","0","5dc1e79c880a2915309a8ee3","","null","","","learningBlock1","","","","This is a wug:","null","","","","","",""
"image-keyboard-response","238","307111","0.0-5.0-1.77","LF","lpb8r8jcs5","1920","1080","0","1","0","5dc1e79c880a2915309a8ee3","","null","","","","","","","learning/Slide78.JPG","null","","","","","",""
"html-keyboard-response","239","308113","0.0-5.0-2.77","LF","lpb8r8jcs5","1920","1080","0","1","0","5dc1e79c880a2915309a8ee3","","null","","","learningBlock1","","","","<div style=""font-size:60px;""> </div>","null","LF","learning/Slide78.JPG","This is a wug:","","",""
"html-keyboard-response","240","309116","0.0-5.0-0.78","LF","lpb8r8jcs5","1920","1080","0","1","0","5dc1e79c880a2915309a8ee3","","null","","","learningBlock1","","","","This is a bim:","null","","","","","",""
"image-keyboard-response","241","309442","0.0-5.0-1.78","LF","lpb8r8jcs5","1920","1080","0","1","0","5dc1e79c880a2915309a8ee3","","null","","","","","","","learning/Slide79.JPG","null","","","","","",""
"html-keyboard-response","242","310445","0.0-5.0-2.78","LF","lpb8r8jcs5","1920","1080","0","1","0","5dc1e79c880a2915309a8ee3","","null","","","learningBlock1","","","","<div style=""font-size:60px;""> </div>","null","LF","learning/Slide79.JPG","This is a bim:","","",""
"html-keyboard-response","243","311446","0.0-5.0-0.79","LF","lpb8r8jcs5","1920","1080","0","1","0","5dc1e79c880a2915309a8ee3","","null","","","learningBlock1","","","","This is a tob:","null","","","","","",""
"image-keyboard-response","244","311774","0.0-5.0-1.79","LF","lpb8r8jcs5","1920","1080","0","1","0","5dc1e79c880a2915309a8ee3","","null","","","","","","","learning/Slide80.JPG","null","","","","","",""
"html-keyboard-response","245","312776","0.0-5.0-2.79","LF","lpb8r8jcs5","1920","1080","0","1","0","5dc1e79c880a2915309a8ee3","","null","","","learningBlock1","","","","<div style=""font-size:60px;""> </div>","null","LF","learning/Slide80.JPG","This is a tob:","","",""
"instructions","246","458557","0.0-6.0","LF","lpb8r8jcs5","1920","1080","0","1","0","5dc1e79c880a2915309a8ee3","","NA","","[{""page_index"":0,""viewing_time"":145780.67000000738}]","instructions","","","","","","","","","","",""
"html-keyboard-response","247","459560","0.0-7.0-0.0","LF","lpb8r8jcs5","1920","1080","0","1","0","5dc1e79c880a2915309a8ee3","","null","","","learningBlock2","","","","This is a wug:","null","","","","","",""
"image-keyboard-response","248","459888","0.0-7.0-1.0","LF","lpb8r8jcs5","1920","1080","0","1","0","5dc1e79c880a2915309a8ee3","","null","","","","","","","learning/Slide81.JPG","null","","","","","",""
"html-keyboard-response","249","460890","0.0-7.0-2.0","LF","lpb8r8jcs5","1920","1080","0","1","0","5dc1e79c880a2915309a8ee3","","null","","","learningBlock2","","","","<div style=""font-size:60px;""> </div>","null","LF","learning/Slide81.JPG","This is a wug:","","",""
"html-keyboard-response","250","461891","0.0-7.0-0.1","LF","lpb8r8jcs5","1920","1080","0","1","0","5dc1e79c880a2915309a8ee3","","null","","","learningBlock2","","","","This is a bim:","null","","","","","",""
"image-keyboard-response","251","462220","0.0-7.0-1.1","LF","lpb8r8jcs5","1920","1080","0","1","0","5dc1e79c880a2915309a8ee3","","null","","","","","","","learning/Slide82.JPG","null","","","","","",""
"html-keyboard-response","252","463221","0.0-7.0-2.1","LF","lpb8r8jcs5","1920","1080","0","1","0","5dc1e79c880a2915309a8ee3","","null","","","learningBlock2","","","","<div style=""font-size:60px;""> </div>","null","LF","learning/Slide82.JPG","This is a bim:","","",""
"html-keyboard-response","253","464223","0.0-7.0-0.2","LF","lpb8r8jcs5","1920","1080","0","1","0","5dc1e79c880a2915309a8ee3","","null","","","learningBlock2","","","","This is a wug:","null","","","","","",""
"image-keyboard-response","254","464552","0.0-7.0-1.2","LF","lpb8r8jcs5","1920","1080","0","1","0","5dc1e79c880a2915309a8ee3","","null","","","","","","","learning/Slide83.JPG","null","","","","","",""
"html-keyboard-response","255","465554","0.0-7.0-2.2","LF","lpb8r8jcs5","1920","1080","0","1","0","5dc1e79c880a2915309a8ee3","","null","","","learningBlock2","","","","<div style=""font-size:60px;""> </div>","null","LF","learning/Slide83.JPG","This is a wug:","","",""
"html-keyboard-response","256","466556","0.0-7.0-0.3","LF","lpb8r8jcs5","1920","1080","0","1","0","5dc1e79c880a2915309a8ee3","","null","","","learningBlock2","","","","This is a dep:","null","","","","","",""
"image-keyboard-response","257","466884","0.0-7.0-1.3","LF","lpb8r8jcs5","1920","1080","0","1","0","5dc1e79c880a2915309a8ee3","","null","","","","","","","learning/Slide84.JPG","null","","","","","",""
"html-keyboard-response","258","467885","0.0-7.0-2.3","LF","lpb8r8jcs5","1920","1080","0","1","0","5dc1e79c880a2915309a8ee3","","null","","","learningBlock2","","","","<div style=""font-size:60px;""> </div>","null","LF","learning/Slide84.JPG","This is a dep:","","",""
"html-keyboard-response","259","468887","0.0-7.0-0.4","LF","lpb8r8jcs5","1920","1080","0","1","0","5dc1e79c880a2915309a8ee3","","null","","","learningBlock2","","","","This is a bim:","null","","","","","",""
"image-keyboard-response","260","469214","0.0-7.0-1.4","LF","lpb8r8jcs5","1920","1080","0","1","0","5dc1e79c880a2915309a8ee3","","null","","","","","","","learning/Slide85.JPG","null","","","","","",""
"html-keyboard-response","261","470216","0.0-7.0-2.4","LF","lpb8r8jcs5","1920","1080","0","1","0","5dc1e79c880a2915309a8ee3","","null","","","learningBlock2","","","","<div style=""font-size:60px;""> </div>","null","LF","learning/Slide85.JPG","This is a bim:","","",""
"html-keyboard-response","262","471217","0.0-7.0-0.5","LF","lpb8r8jcs5","1920","1080","0","1","0","5dc1e79c880a2915309a8ee3","","null","","","learningBlock2","","","","This is a tob:","null","","","","","",""
"image-keyboard-response","263","471545","0.0-7.0-1.5","LF","lpb8r8jcs5","1920","1080","0","1","0","5dc1e79c880a2915309a8ee3","","null","","","","","","","learning/Slide86.JPG","null","","","","","",""
"html-keyboard-response","264","472546","0.0-7.0-2.5","LF","lpb8r8jcs5","1920","1080","0","1","0","5dc1e79c880a2915309a8ee3","","null","","","learningBlock2","","","","<div style=""font-size:60px;""> </div>","null","LF","learning/Slide86.JPG","This is a tob:","","",""
"html-keyboard-response","265","473548","0.0-7.0-0.6","LF","lpb8r8jcs5","1920","1080","0","1","0","5dc1e79c880a2915309a8ee3","","null","","","learningBlock2","","","","This is a wug:","null","","","","","",""
"image-keyboard-response","266","473875","0.0-7.0-1.6","LF","lpb8r8jcs5","1920","1080","0","1","0","5dc1e79c880a2915309a8ee3","","null","","","","","","","learning/Slide87.JPG","null","","","","","",""
"html-keyboard-response","267","474877","0.0-7.0-2.6","LF","lpb8r8jcs5","1920","1080","0","1","0","5dc1e79c880a2915309a8ee3","","null","","","learningBlock2","","","","<div style=""font-size:60px;""> </div>","null","LF","learning/Slide87.JPG","This is a wug:","","",""
"html-keyboard-response","268","475878","0.0-7.0-0.7","LF","lpb8r8jcs5","1920","1080","0","1","0","5dc1e79c880a2915309a8ee3","","null","","","learningBlock2","","","","This is a tob:","null","","","","","",""
"image-keyboard-response","269","476206","0.0-7.0-1.7","LF","lpb8r8jcs5","1920","1080","0","1","0","5dc1e79c880a2915309a8ee3","","null","","","","","","","learning/Slide88.JPG","null","","","","","",""
"html-keyboard-response","270","477208","0.0-7.0-2.7","LF","lpb8r8jcs5","1920","1080","0","1","0","5dc1e79c880a2915309a8ee3","","null","","","learningBlock2","","","","<div style=""font-size:60px;""> </div>","null","LF","learning/Slide88.JPG","This is a tob:","","",""
"html-keyboard-response","271","478209","0.0-7.0-0.8","LF","lpb8r8jcs5","1920","1080","0","1","0","5dc1e79c880a2915309a8ee3","","null","","","learningBlock2","","","","This is a bim:","null","","","","","",""
"image-keyboard-response","272","478538","0.0-7.0-1.8","LF","lpb8r8jcs5","1920","1080","0","1","0","5dc1e79c880a2915309a8ee3","","null","","","","","","","learning/Slide89.JPG","null","","","","","",""
"html-keyboard-response","273","479540","0.0-7.0-2.8","LF","lpb8r8jcs5","1920","1080","0","1","0","5dc1e79c880a2915309a8ee3","","null","","","learningBlock2","","","","<div style=""font-size:60px;""> </div>","null","LF","learning/Slide89.JPG","This is a bim:","","",""
"html-keyboard-response","274","480542","0.0-7.0-0.9","LF","lpb8r8jcs5","1920","1080","0","1","0","5dc1e79c880a2915309a8ee3","","null","","","learningBlock2","","","","This is a dep:","null","","","","","",""
"image-keyboard-response","275","480870","0.0-7.0-1.9","LF","lpb8r8jcs5","1920","1080","0","1","0","5dc1e79c880a2915309a8ee3","","null","","","","","","","learning/Slide90.JPG","null","","","","","",""
"html-keyboard-response","276","481872","0.0-7.0-2.9","LF","lpb8r8jcs5","1920","1080","0","1","0","5dc1e79c880a2915309a8ee3","","null","","","learningBlock2","","","","<div style=""font-size:60px;""> </div>","null","LF","learning/Slide90.JPG","This is a dep:","","",""
"html-keyboard-response","277","482874","0.0-7.0-0.10","LF","lpb8r8jcs5","1920","1080","0","1","0","5dc1e79c880a2915309a8ee3","","null","","","learningBlock2","","","","This is a wug:","null","","","","","",""
"image-keyboard-response","278","483202","0.0-7.0-1.10","LF","lpb8r8jcs5","1920","1080","0","1","0","5dc1e79c880a2915309a8ee3","","null","","","","","","","learning/Slide91.JPG","null","","","","","",""
"html-keyboard-response","279","484204","0.0-7.0-2.10","LF","lpb8r8jcs5","1920","1080","0","1","0","5dc1e79c880a2915309a8ee3","","null","","","learningBlock2","","","","<div style=""font-size:60px;""> </div>","null","LF","learning/Slide91.JPG","This is a wug:","","",""
"html-keyboard-response","280","485206","0.0-7.0-0.11","LF","lpb8r8jcs5","1920","1080","0","1","0","5dc1e79c880a2915309a8ee3","","null","","","learningBlock2","","","","This is a tob:","null","","","","","",""
"image-keyboard-response","281","485535","0.0-7.0-1.11","LF","lpb8r8jcs5","1920","1080","0","1","0","5dc1e79c880a2915309a8ee3","","null","","","","","","","learning/Slide92.JPG","null","","","","","",""
"html-keyboard-response","282","486536","0.0-7.0-2.11","LF","lpb8r8jcs5","1920","1080","0","1","0","5dc1e79c880a2915309a8ee3","","null","","","learningBlock2","","","","<div style=""font-size:60px;""> </div>","null","LF","learning/Slide92.JPG","This is a tob:","","",""
"html-keyboard-response","283","487538","0.0-7.0-0.12","LF","lpb8r8jcs5","1920","1080","0","1","0","5dc1e79c880a2915309a8ee3","","null","","","learningBlock2","","","","This is a bim:","null","","","","","",""
"image-keyboard-response","284","487866","0.0-7.0-1.12","LF","lpb8r8jcs5","1920","1080","0","1","0","5dc1e79c880a2915309a8ee3","","null","","","","","","","learning/Slide93.JPG","null","","","","","",""
"html-keyboard-response","285","488868","0.0-7.0-2.12","LF","lpb8r8jcs5","1920","1080","0","1","0","5dc1e79c880a2915309a8ee3","","null","","","learningBlock2","","","","<div style=""font-size:60px;""> </div>","null","LF","learning/Slide93.JPG","This is a bim:","","",""
"html-keyboard-response","286","489870","0.0-7.0-0.13","LF","lpb8r8jcs5","1920","1080","0","1","0","5dc1e79c880a2915309a8ee3","","null","","","learningBlock2","","","","This is a tob:","null","","","","","",""
"image-keyboard-response","287","490196","0.0-7.0-1.13","LF","lpb8r8jcs5","1920","1080","0","1","0","5dc1e79c880a2915309a8ee3","","null","","","","","","","learning/Slide94.JPG","null","","","","","",""
"html-keyboard-response","288","491198","0.0-7.0-2.13","LF","lpb8r8jcs5","1920","1080","0","1","0","5dc1e79c880a2915309a8ee3","","null","","","learningBlock2","","","","<div style=""font-size:60px;""> </div>","null","LF","learning/Slide94.JPG","This is a tob:","","",""
"html-keyboard-response","289","492199","0.0-7.0-0.14","LF","lpb8r8jcs5","1920","1080","0","1","0","5dc1e79c880a2915309a8ee3","","null","","","learningBlock2","","","","This is a wug:","null","","","","","",""
"image-keyboard-response","290","492527","0.0-7.0-1.14","LF","lpb8r8jcs5","1920","1080","0","1","0","5dc1e79c880a2915309a8ee3","","null","","","","","","","learning/Slide95.JPG","null","","","","","",""
"html-keyboard-response","291","493529","0.0-7.0-2.14","LF","lpb8r8jcs5","1920","1080","0","1","0","5dc1e79c880a2915309a8ee3","","null","","","learningBlock2","","","","<div style=""font-size:60px;""> </div>","null","LF","learning/Slide95.JPG","This is a wug:","","",""
"html-keyboard-response","292","494531","0.0-7.0-0.15","LF","lpb8r8jcs5","1920","1080","0","1","0","5dc1e79c880a2915309a8ee3","","null","","","learningBlock2","","","","This is a tob:","null","","","","","",""
"image-keyboard-response","293","494860","0.0-7.0-1.15","LF","lpb8r8jcs5","1920","1080","0","1","0","5dc1e79c880a2915309a8ee3","","null","","","","","","","learning/Slide96.JPG","null","","","","","",""
"html-keyboard-response","294","495862","0.0-7.0-2.15","LF","lpb8r8jcs5","1920","1080","0","1","0","5dc1e79c880a2915309a8ee3","","null","","","learningBlock2","","","","<div style=""font-size:60px;""> </div>","null","LF","learning/Slide96.JPG","This is a tob:","","",""
"html-keyboard-response","295","496864","0.0-7.0-0.16","LF","lpb8r8jcs5","1920","1080","0","1","0","5dc1e79c880a2915309a8ee3","","null","","","learningBlock2","","","","This is a dep:","null","","","","","",""
"image-keyboard-response","296","497192","0.0-7.0-1.16","LF","lpb8r8jcs5","1920","1080","0","1","0","5dc1e79c880a2915309a8ee3","","null","","","","","","","learning/Slide97.JPG","null","","","","","",""
"html-keyboard-response","297","498194","0.0-7.0-2.16","LF","lpb8r8jcs5","1920","1080","0","1","0","5dc1e79c880a2915309a8ee3","","null","","","learningBlock2","","","","<div style=""font-size:60px;""> </div>","null","LF","learning/Slide97.JPG","This is a dep:","","",""
"html-keyboard-response","298","499195","0.0-7.0-0.17","LF","lpb8r8jcs5","1920","1080","0","1","0","5dc1e79c880a2915309a8ee3","","null","","","learningBlock2","","","","This is a bim:","null","","","","","",""
"image-keyboard-response","299","499524","0.0-7.0-1.17","LF","lpb8r8jcs5","1920","1080","0","1","0","5dc1e79c880a2915309a8ee3","","null","","","","","","","learning/Slide98.JPG","null","","","","","",""
"html-keyboard-response","300","500526","0.0-7.0-2.17","LF","lpb8r8jcs5","1920","1080","0","1","0","5dc1e79c880a2915309a8ee3","","null","","","learningBlock2","","","","<div style=""font-size:60px;""> </div>","null","LF","learning/Slide98.JPG","This is a bim:","","",""
"html-keyboard-response","301","501528","0.0-7.0-0.18","LF","lpb8r8jcs5","1920","1080","0","1","0","5dc1e79c880a2915309a8ee3","","null","","","learningBlock2","","","","This is a dep:","null","","","","","",""
"image-keyboard-response","302","501854","0.0-7.0-1.18","LF","lpb8r8jcs5","1920","1080","0","1","0","5dc1e79c880a2915309a8ee3","","null","","","","","","","learning/Slide99.JPG","null","","","","","",""
"html-keyboard-response","303","502856","0.0-7.0-2.18","LF","lpb8r8jcs5","1920","1080","0","1","0","5dc1e79c880a2915309a8ee3","","null","","","learningBlock2","","","","<div style=""font-size:60px;""> </div>","null","LF","learning/Slide99.JPG","This is a dep:","","",""
"html-keyboard-response","304","503857","0.0-7.0-0.19","LF","lpb8r8jcs5","1920","1080","0","1","0","5dc1e79c880a2915309a8ee3","","null","","","learningBlock2","","","","This is a bim:","null","","","","","",""
"image-keyboard-response","305","504184","0.0-7.0-1.19","LF","lpb8r8jcs5","1920","1080","0","1","0","5dc1e79c880a2915309a8ee3","","null","","","","","","","learning/Slide100.JPG","null","","","","","",""
"html-keyboard-response","306","505185","0.0-7.0-2.19","LF","lpb8r8jcs5","1920","1080","0","1","0","5dc1e79c880a2915309a8ee3","","null","","","learningBlock2","","","","<div style=""font-size:60px;""> </div>","null","LF","learning/Slide100.JPG","This is a bim:","","",""
"html-keyboard-response","307","506187","0.0-7.0-0.20","LF","lpb8r8jcs5","1920","1080","0","1","0","5dc1e79c880a2915309a8ee3","","null","","","learningBlock2","","","","This is a tob:","null","","","","","",""
"image-keyboard-response","308","506515","0.0-7.0-1.20","LF","lpb8r8jcs5","1920","1080","0","1","0","5dc1e79c880a2915309a8ee3","","null","","","","","","","learning/Slide101.JPG","null","","","","","",""
"html-keyboard-response","309","507517","0.0-7.0-2.20","LF","lpb8r8jcs5","1920","1080","0","1","0","5dc1e79c880a2915309a8ee3","","null","","","learningBlock2","","","","<div style=""font-size:60px;""> </div>","null","LF","learning/Slide101.JPG","This is a tob:","","",""
"html-keyboard-response","310","508519","0.0-7.0-0.21","LF","lpb8r8jcs5","1920","1080","0","1","0","5dc1e79c880a2915309a8ee3","","null","","","learningBlock2","","","","This is a bim:","null","","","","","",""
"image-keyboard-response","311","508848","0.0-7.0-1.21","LF","lpb8r8jcs5","1920","1080","0","1","0","5dc1e79c880a2915309a8ee3","","null","","","","","","","learning/Slide102.JPG","null","","","","","",""
"html-keyboard-response","312","509849","0.0-7.0-2.21","LF","lpb8r8jcs5","1920","1080","0","1","0","5dc1e79c880a2915309a8ee3","","null","","","learningBlock2","","","","<div style=""font-size:60px;""> </div>","null","LF","learning/Slide102.JPG","This is a bim:","","",""
"html-keyboard-response","313","510850","0.0-7.0-0.22","LF","lpb8r8jcs5","1920","1080","0","1","0","5dc1e79c880a2915309a8ee3","","null","","","learningBlock2","","","","This is a dep:","null","","","","","",""
"image-keyboard-response","314","511178","0.0-7.0-1.22","LF","lpb8r8jcs5","1920","1080","0","1","0","5dc1e79c880a2915309a8ee3","","null","","","","","","","learning/Slide103.JPG","null","","","","","",""
"html-keyboard-response","315","512180","0.0-7.0-2.22","LF","lpb8r8jcs5","1920","1080","0","1","0","5dc1e79c880a2915309a8ee3","","null","","","learningBlock2","","","","<div style=""font-size:60px;""> </div>","null","LF","learning/Slide103.JPG","This is a dep:","","",""
"html-keyboard-response","316","513181","0.0-7.0-0.23","LF","lpb8r8jcs5","1920","1080","0","1","0","5dc1e79c880a2915309a8ee3","","null","","","learningBlock2","","","","This is a tob:","null","","","","","",""
"image-keyboard-response","317","513510","0.0-7.0-1.23","LF","lpb8r8jcs5","1920","1080","0","1","0","5dc1e79c880a2915309a8ee3","","null","","","","","","","learning/Slide104.JPG","null","","","","","",""
"html-keyboard-response","318","514512","0.0-7.0-2.23","LF","lpb8r8jcs5","1920","1080","0","1","0","5dc1e79c880a2915309a8ee3","","null","","","learningBlock2","","","","<div style=""font-size:60px;""> </div>","null","LF","learning/Slide104.JPG","This is a tob:","","",""
"html-keyboard-response","319","515514","0.0-7.0-0.24","LF","lpb8r8jcs5","1920","1080","0","1","0","5dc1e79c880a2915309a8ee3","","null","","","learningBlock2","","","","This is a dep:","null","","","","","",""
"image-keyboard-response","320","515841","0.0-7.0-1.24","LF","lpb8r8jcs5","1920","1080","0","1","0","5dc1e79c880a2915309a8ee3","","null","","","","","","","learning/Slide105.JPG","null","","","","","",""
"html-keyboard-response","321","516843","0.0-7.0-2.24","LF","lpb8r8jcs5","1920","1080","0","1","0","5dc1e79c880a2915309a8ee3","","null","","","learningBlock2","","","","<div style=""font-size:60px;""> </div>","null","LF","learning/Slide105.JPG","This is a dep:","","",""
"html-keyboard-response","322","517846","0.0-7.0-0.25","LF","lpb8r8jcs5","1920","1080","0","1","0","5dc1e79c880a2915309a8ee3","","null","","","learningBlock2","","","","This is a wug:","null","","","","","",""
"image-keyboard-response","323","518172","0.0-7.0-1.25","LF","lpb8r8jcs5","1920","1080","0","1","0","5dc1e79c880a2915309a8ee3","","null","","","","","","","learning/Slide106.JPG","null","","","","","",""
"html-keyboard-response","324","519174","0.0-7.0-2.25","LF","lpb8r8jcs5","1920","1080","0","1","0","5dc1e79c880a2915309a8ee3","","null","","","learningBlock2","","","","<div style=""font-size:60px;""> </div>","null","LF","learning/Slide106.JPG","This is a wug:","","",""
"html-keyboard-response","325","520175","0.0-7.0-0.26","LF","lpb8r8jcs5","1920","1080","0","1","0","5dc1e79c880a2915309a8ee3","","null","","","learningBlock2","","","","This is a bim:","null","","","","","",""
"image-keyboard-response","326","520504","0.0-7.0-1.26","LF","lpb8r8jcs5","1920","1080","0","1","0","5dc1e79c880a2915309a8ee3","","null","","","","","","","learning/Slide107.JPG","null","","","","","",""
"html-keyboard-response","327","521505","0.0-7.0-2.26","LF","lpb8r8jcs5","1920","1080","0","1","0","5dc1e79c880a2915309a8ee3","","null","","","learningBlock2","","","","<div style=""font-size:60px;""> </div>","null","LF","learning/Slide107.JPG","This is a bim:","","",""
"html-keyboard-response","328","522508","0.0-7.0-0.27","LF","lpb8r8jcs5","1920","1080","0","1","0","5dc1e79c880a2915309a8ee3","","null","","","learningBlock2","","","","This is a dep:","null","","","","","",""
"image-keyboard-response","329","522836","0.0-7.0-1.27","LF","lpb8r8jcs5","1920","1080","0","1","0","5dc1e79c880a2915309a8ee3","","null","","","","","","","learning/Slide108.JPG","null","","","","","",""
"html-keyboard-response","330","523838","0.0-7.0-2.27","LF","lpb8r8jcs5","1920","1080","0","1","0","5dc1e79c880a2915309a8ee3","","null","","","learningBlock2","","","","<div style=""font-size:60px;""> </div>","null","LF","learning/Slide108.JPG","This is a dep:","","",""
"html-keyboard-response","331","524840","0.0-7.0-0.28","LF","lpb8r8jcs5","1920","1080","0","1","0","5dc1e79c880a2915309a8ee3","","null","","","learningBlock2","","","","This is a wug:","null","","","","","",""
"image-keyboard-response","332","525169","0.0-7.0-1.28","LF","lpb8r8jcs5","1920","1080","0","1","0","5dc1e79c880a2915309a8ee3","","null","","","","","","","learning/Slide109.JPG","null","","","","","",""
"html-keyboard-response","333","526170","0.0-7.0-2.28","LF","lpb8r8jcs5","1920","1080","0","1","0","5dc1e79c880a2915309a8ee3","","null","","","learningBlock2","","","","<div style=""font-size:60px;""> </div>","null","LF","learning/Slide109.JPG","This is a wug:","","",""
"html-keyboard-response","334","527173","0.0-7.0-0.29","LF","lpb8r8jcs5","1920","1080","0","1","0","5dc1e79c880a2915309a8ee3","","null","","","learningBlock2","","","","This is a bim:","null","","","","","",""
"image-keyboard-response","335","527501","0.0-7.0-1.29","LF","lpb8r8jcs5","1920","1080","0","1","0","5dc1e79c880a2915309a8ee3","","null","","","","","","","learning/Slide110.JPG","null","","","","","",""
"html-keyboard-response","336","528504","0.0-7.0-2.29","LF","lpb8r8jcs5","1920","1080","0","1","0","5dc1e79c880a2915309a8ee3","","null","","","learningBlock2","","","","<div style=""font-size:60px;""> </div>","null","LF","learning/Slide110.JPG","This is a bim:","","",""
"html-keyboard-response","337","529505","0.0-7.0-0.30","LF","lpb8r8jcs5","1920","1080","0","1","0","5dc1e79c880a2915309a8ee3","","null","","","learningBlock2","","","","This is a tob:","null","","","","","",""
"image-keyboard-response","338","529832","0.0-7.0-1.30","LF","lpb8r8jcs5","1920","1080","0","1","0","5dc1e79c880a2915309a8ee3","","null","","","","","","","learning/Slide111.JPG","null","","","","","",""
"html-keyboard-response","339","530834","0.0-7.0-2.30","LF","lpb8r8jcs5","1920","1080","0","1","0","5dc1e79c880a2915309a8ee3","","null","","","learningBlock2","","","","<div style=""font-size:60px;""> </div>","null","LF","learning/Slide111.JPG","This is a tob:","","",""
"html-keyboard-response","340","531837","0.0-7.0-0.31","LF","lpb8r8jcs5","1920","1080","0","1","0","5dc1e79c880a2915309a8ee3","","null","","","learningBlock2","","","","This is a wug:","null","","","","","",""
"image-keyboard-response","341","532163","0.0-7.0-1.31","LF","lpb8r8jcs5","1920","1080","0","1","0","5dc1e79c880a2915309a8ee3","","null","","","","","","","learning/Slide112.JPG","null","","","","","",""
"html-keyboard-response","342","533165","0.0-7.0-2.31","LF","lpb8r8jcs5","1920","1080","0","1","0","5dc1e79c880a2915309a8ee3","","null","","","learningBlock2","","","","<div style=""font-size:60px;""> </div>","null","LF","learning/Slide112.JPG","This is a wug:","","",""
"html-keyboard-response","343","534166","0.0-7.0-0.32","LF","lpb8r8jcs5","1920","1080","0","1","0","5dc1e79c880a2915309a8ee3","","null","","","learningBlock2","","","","This is a tob:","null","","","","","",""
"image-keyboard-response","344","534493","0.0-7.0-1.32","LF","lpb8r8jcs5","1920","1080","0","1","0","5dc1e79c880a2915309a8ee3","","null","","","","","","","learning/Slide113.JPG","null","","","","","",""
"html-keyboard-response","345","535494","0.0-7.0-2.32","LF","lpb8r8jcs5","1920","1080","0","1","0","5dc1e79c880a2915309a8ee3","","null","","","learningBlock2","","","","<div style=""font-size:60px;""> </div>","null","LF","learning/Slide113.JPG","This is a tob:","","",""
"html-keyboard-response","346","536497","0.0-7.0-0.33","LF","lpb8r8jcs5","1920","1080","0","1","0","5dc1e79c880a2915309a8ee3","","null","","","learningBlock2","","","","This is a wug:","null","","","","","",""
"image-keyboard-response","347","536826","0.0-7.0-1.33","LF","lpb8r8jcs5","1920","1080","0","1","0","5dc1e79c880a2915309a8ee3","","null","","","","","","","learning/Slide114.JPG","null","","","","","",""
"html-keyboard-response","348","537827","0.0-7.0-2.33","LF","lpb8r8jcs5","1920","1080","0","1","0","5dc1e79c880a2915309a8ee3","","null","","","learningBlock2","","","","<div style=""font-size:60px;""> </div>","null","LF","learning/Slide114.JPG","This is a wug:","","",""
"html-keyboard-response","349","538829","0.0-7.0-0.34","LF","lpb8r8jcs5","1920","1080","0","1","0","5dc1e79c880a2915309a8ee3","","null","","","learningBlock2","","","","This is a bim:","null","","","","","",""
"image-keyboard-response","350","539156","0.0-7.0-1.34","LF","lpb8r8jcs5","1920","1080","0","1","0","5dc1e79c880a2915309a8ee3","","null","","","","","","","learning/Slide115.JPG","null","","","","","",""
"html-keyboard-response","351","540158","0.0-7.0-2.34","LF","lpb8r8jcs5","1920","1080","0","1","0","5dc1e79c880a2915309a8ee3","","null","","","learningBlock2","","","","<div style=""font-size:60px;""> </div>","null","LF","learning/Slide115.JPG","This is a bim:","","",""
"html-keyboard-response","352","541160","0.0-7.0-0.35","LF","lpb8r8jcs5","1920","1080","0","1","0","5dc1e79c880a2915309a8ee3","","null","","","learningBlock2","","","","This is a dep:","null","","","","","",""
"image-keyboard-response","353","541488","0.0-7.0-1.35","LF","lpb8r8jcs5","1920","1080","0","1","0","5dc1e79c880a2915309a8ee3","","null","","","","","","","learning/Slide116.JPG","null","","","","","",""
"html-keyboard-response","354","542489","0.0-7.0-2.35","LF","lpb8r8jcs5","1920","1080","0","1","0","5dc1e79c880a2915309a8ee3","","null","","","learningBlock2","","","","<div style=""font-size:60px;""> </div>","null","LF","learning/Slide116.JPG","This is a dep:","","",""
"html-keyboard-response","355","543490","0.0-7.0-0.36","LF","lpb8r8jcs5","1920","1080","0","1","0","5dc1e79c880a2915309a8ee3","","null","","","learningBlock2","","","","This is a tob:","null","","","","","",""
"image-keyboard-response","356","543818","0.0-7.0-1.36","LF","lpb8r8jcs5","1920","1080","0","1","0","5dc1e79c880a2915309a8ee3","","null","","","","","","","learning/Slide117.JPG","null","","","","","",""
"html-keyboard-response","357","544819","0.0-7.0-2.36","LF","lpb8r8jcs5","1920","1080","0","1","0","5dc1e79c880a2915309a8ee3","","null","","","learningBlock2","","","","<div style=""font-size:60px;""> </div>","null","LF","learning/Slide117.JPG","This is a tob:","","",""
"html-keyboard-response","358","545821","0.0-7.0-0.37","LF","lpb8r8jcs5","1920","1080","0","1","0","5dc1e79c880a2915309a8ee3","","null","","","learningBlock2","","","","This is a dep:","null","","","","","",""
"image-keyboard-response","359","546148","0.0-7.0-1.37","LF","lpb8r8jcs5","1920","1080","0","1","0","5dc1e79c880a2915309a8ee3","","null","","","","","","","learning/Slide118.JPG","null","","","","","",""
"html-keyboard-response","360","547149","0.0-7.0-2.37","LF","lpb8r8jcs5","1920","1080","0","1","0","5dc1e79c880a2915309a8ee3","","null","","","learningBlock2","","","","<div style=""font-size:60px;""> </div>","null","LF","learning/Slide118.JPG","This is a dep:","","",""
"html-keyboard-response","361","548150","0.0-7.0-0.38","LF","lpb8r8jcs5","1920","1080","0","1","0","5dc1e79c880a2915309a8ee3","","null","","","learningBlock2","","","","This is a wug:","null","","","","","",""
"image-keyboard-response","362","548478","0.0-7.0-1.38","LF","lpb8r8jcs5","1920","1080","0","1","0","5dc1e79c880a2915309a8ee3","","null","","","","","","","learning/Slide119.JPG","null","","","","","",""
"html-keyboard-response","363","549480","0.0-7.0-2.38","LF","lpb8r8jcs5","1920","1080","0","1","0","5dc1e79c880a2915309a8ee3","","null","","","learningBlock2","","","","<div style=""font-size:60px;""> </div>","null","LF","learning/Slide119.JPG","This is a wug:","","",""
"html-keyboard-response","364","550482","0.0-7.0-0.39","LF","lpb8r8jcs5","1920","1080","0","1","0","5dc1e79c880a2915309a8ee3","","null","","","learningBlock2","","","","This is a dep:","null","","","","","",""
"image-keyboard-response","365","550810","0.0-7.0-1.39","LF","lpb8r8jcs5","1920","1080","0","1","0","5dc1e79c880a2915309a8ee3","","null","","","","","","","learning/Slide120.JPG","null","","","","","",""
"html-keyboard-response","366","551812","0.0-7.0-2.39","LF","lpb8r8jcs5","1920","1080","0","1","0","5dc1e79c880a2915309a8ee3","","null","","","learningBlock2","","","","<div style=""font-size:60px;""> </div>","null","LF","learning/Slide120.JPG","This is a dep:","","",""
"html-keyboard-response","367","552813","0.0-7.0-0.40","LF","lpb8r8jcs5","1920","1080","0","1","0","5dc1e79c880a2915309a8ee3","","null","","","learningBlock2","","","","This is a bim:","null","","","","","",""
"image-keyboard-response","368","553141","0.0-7.0-1.40","LF","lpb8r8jcs5","1920","1080","0","1","0","5dc1e79c880a2915309a8ee3","","null","","","","","","","learning/Slide121.JPG","null","","","","","",""
"html-keyboard-response","369","554143","0.0-7.0-2.40","LF","lpb8r8jcs5","1920","1080","0","1","0","5dc1e79c880a2915309a8ee3","","null","","","learningBlock2","","","","<div style=""font-size:60px;""> </div>","null","LF","learning/Slide121.JPG","This is a bim:","","",""
"html-keyboard-response","370","555145","0.0-7.0-0.41","LF","lpb8r8jcs5","1920","1080","0","1","0","5dc1e79c880a2915309a8ee3","","null","","","learningBlock2","","","","This is a wug:","null","","","","","",""
"image-keyboard-response","371","555473","0.0-7.0-1.41","LF","lpb8r8jcs5","1920","1080","0","1","0","5dc1e79c880a2915309a8ee3","","null","","","","","","","learning/Slide122.JPG","null","","","","","",""
"html-keyboard-response","372","556474","0.0-7.0-2.41","LF","lpb8r8jcs5","1920","1080","0","1","0","5dc1e79c880a2915309a8ee3","","null","","","learningBlock2","","","","<div style=""font-size:60px;""> </div>","null","LF","learning/Slide122.JPG","This is a wug:","","",""
"html-keyboard-response","373","557475","0.0-7.0-0.42","LF","lpb8r8jcs5","1920","1080","0","1","0","5dc1e79c880a2915309a8ee3","","null","","","learningBlock2","","","","This is a bim:","null","","","","","",""
"image-keyboard-response","374","557803","0.0-7.0-1.42","LF","lpb8r8jcs5","1920","1080","0","1","0","5dc1e79c880a2915309a8ee3","","null","","","","","","","learning/Slide123.JPG","null","","","","","",""
"html-keyboard-response","375","558806","0.0-7.0-2.42","LF","lpb8r8jcs5","1920","1080","0","1","0","5dc1e79c880a2915309a8ee3","","null","","","learningBlock2","","","","<div style=""font-size:60px;""> </div>","null","LF","learning/Slide123.JPG","This is a bim:","","",""
"html-keyboard-response","376","559807","0.0-7.0-0.43","LF","lpb8r8jcs5","1920","1080","0","1","0","5dc1e79c880a2915309a8ee3","","null","","","learningBlock2","","","","This is a tob:","null","","","","","",""
"image-keyboard-response","377","560134","0.0-7.0-1.43","LF","lpb8r8jcs5","1920","1080","0","1","0","5dc1e79c880a2915309a8ee3","","null","","","","","","","learning/Slide124.JPG","null","","","","","",""
"html-keyboard-response","378","561136","0.0-7.0-2.43","LF","lpb8r8jcs5","1920","1080","0","1","0","5dc1e79c880a2915309a8ee3","","null","","","learningBlock2","","","","<div style=""font-size:60px;""> </div>","null","LF","learning/Slide124.JPG","This is a tob:","","",""
"html-keyboard-response","379","562138","0.0-7.0-0.44","LF","lpb8r8jcs5","1920","1080","0","1","0","5dc1e79c880a2915309a8ee3","","null","","","learningBlock2","","","","This is a bim:","null","","","","","",""
"image-keyboard-response","380","562465","0.0-7.0-1.44","LF","lpb8r8jcs5","1920","1080","0","1","0","5dc1e79c880a2915309a8ee3","","null","","","","","","","learning/Slide125.JPG","null","","","","","",""
"html-keyboard-response","381","563468","0.0-7.0-2.44","LF","lpb8r8jcs5","1920","1080","0","1","0","5dc1e79c880a2915309a8ee3","","null","","","learningBlock2","","","","<div style=""font-size:60px;""> </div>","null","LF","learning/Slide125.JPG","This is a bim:","","",""
"html-keyboard-response","382","564469","0.0-7.0-0.45","LF","lpb8r8jcs5","1920","1080","0","1","0","5dc1e79c880a2915309a8ee3","","null","","","learningBlock2","","","","This is a tob:","null","","","","","",""
"image-keyboard-response","383","564797","0.0-7.0-1.45","LF","lpb8r8jcs5","1920","1080","0","1","0","5dc1e79c880a2915309a8ee3","","null","","","","","","","learning/Slide126.JPG","null","","","","","",""
"html-keyboard-response","384","565799","0.0-7.0-2.45","LF","lpb8r8jcs5","1920","1080","0","1","0","5dc1e79c880a2915309a8ee3","","null","","","learningBlock2","","","","<div style=""font-size:60px;""> </div>","null","LF","learning/Slide126.JPG","This is a tob:","","",""
"html-keyboard-response","385","566802","0.0-7.0-0.46","LF","lpb8r8jcs5","1920","1080","0","1","0","5dc1e79c880a2915309a8ee3","","null","","","learningBlock2","","","","This is a dep:","null","","","","","",""
"image-keyboard-response","386","567129","0.0-7.0-1.46","LF","lpb8r8jcs5","1920","1080","0","1","0","5dc1e79c880a2915309a8ee3","","null","","","","","","","learning/Slide127.JPG","null","","","","","",""
"html-keyboard-response","387","568132","0.0-7.0-2.46","LF","lpb8r8jcs5","1920","1080","0","1","0","5dc1e79c880a2915309a8ee3","","null","","","learningBlock2","","","","<div style=""font-size:60px;""> </div>","null","LF","learning/Slide127.JPG","This is a dep:","","",""
"html-keyboard-response","388","569133","0.0-7.0-0.47","LF","lpb8r8jcs5","1920","1080","0","1","0","5dc1e79c880a2915309a8ee3","","null","","","learningBlock2","","","","This is a wug:","null","","","","","",""
"image-keyboard-response","389","569460","0.0-7.0-1.47","LF","lpb8r8jcs5","1920","1080","0","1","0","5dc1e79c880a2915309a8ee3","","null","","","","","","","learning/Slide128.JPG","null","","","","","",""
"html-keyboard-response","390","570461","0.0-7.0-2.47","LF","lpb8r8jcs5","1920","1080","0","1","0","5dc1e79c880a2915309a8ee3","","null","","","learningBlock2","","","","<div style=""font-size:60px;""> </div>","null","LF","learning/Slide128.JPG","This is a wug:","","",""
"html-keyboard-response","391","571463","0.0-7.0-0.48","LF","lpb8r8jcs5","1920","1080","0","1","0","5dc1e79c880a2915309a8ee3","","null","","","learningBlock2","","","","This is a tob:","null","","","","","",""
"image-keyboard-response","392","571790","0.0-7.0-1.48","LF","lpb8r8jcs5","1920","1080","0","1","0","5dc1e79c880a2915309a8ee3","","null","","","","","","","learning/Slide129.JPG","null","","","","","",""
"html-keyboard-response","393","572793","0.0-7.0-2.48","LF","lpb8r8jcs5","1920","1080","0","1","0","5dc1e79c880a2915309a8ee3","","null","","","learningBlock2","","","","<div style=""font-size:60px;""> </div>","null","LF","learning/Slide129.JPG","This is a tob:","","",""
"html-keyboard-response","394","573794","0.0-7.0-0.49","LF","lpb8r8jcs5","1920","1080","0","1","0","5dc1e79c880a2915309a8ee3","","null","","","learningBlock2","","","","This is a wug:","null","","","","","",""
"image-keyboard-response","395","574122","0.0-7.0-1.49","LF","lpb8r8jcs5","1920","1080","0","1","0","5dc1e79c880a2915309a8ee3","","null","","","","","","","learning/Slide130.JPG","null","","","","","",""
"html-keyboard-response","396","575123","0.0-7.0-2.49","LF","lpb8r8jcs5","1920","1080","0","1","0","5dc1e79c880a2915309a8ee3","","null","","","learningBlock2","","","","<div style=""font-size:60px;""> </div>","null","LF","learning/Slide130.JPG","This is a wug:","","",""
"html-keyboard-response","397","576125","0.0-7.0-0.50","LF","lpb8r8jcs5","1920","1080","0","1","0","5dc1e79c880a2915309a8ee3","","null","","","learningBlock2","","","","This is a bim:","null","","","","","",""
"image-keyboard-response","398","576452","0.0-7.0-1.50","LF","lpb8r8jcs5","1920","1080","0","1","0","5dc1e79c880a2915309a8ee3","","null","","","","","","","learning/Slide131.JPG","null","","","","","",""
"html-keyboard-response","399","577454","0.0-7.0-2.50","LF","lpb8r8jcs5","1920","1080","0","1","0","5dc1e79c880a2915309a8ee3","","null","","","learningBlock2","","","","<div style=""font-size:60px;""> </div>","null","LF","learning/Slide131.JPG","This is a bim:","","",""
"html-keyboard-response","400","578455","0.0-7.0-0.51","LF","lpb8r8jcs5","1920","1080","0","1","0","5dc1e79c880a2915309a8ee3","","null","","","learningBlock2","","","","This is a dep:","null","","","","","",""
"image-keyboard-response","401","578784","0.0-7.0-1.51","LF","lpb8r8jcs5","1920","1080","0","1","0","5dc1e79c880a2915309a8ee3","","null","","","","","","","learning/Slide132.JPG","null","","","","","",""
"html-keyboard-response","402","579785","0.0-7.0-2.51","LF","lpb8r8jcs5","1920","1080","0","1","0","5dc1e79c880a2915309a8ee3","","null","","","learningBlock2","","","","<div style=""font-size:60px;""> </div>","null","LF","learning/Slide132.JPG","This is a dep:","","",""
"html-keyboard-response","403","580788","0.0-7.0-0.52","LF","lpb8r8jcs5","1920","1080","0","1","0","5dc1e79c880a2915309a8ee3","","null","","","learningBlock2","","","","This is a tob:","null","","","","","",""
"image-keyboard-response","404","581117","0.0-7.0-1.52","LF","lpb8r8jcs5","1920","1080","0","1","0","5dc1e79c880a2915309a8ee3","","null","","","","","","","learning/Slide133.JPG","null","","","","","",""
"html-keyboard-response","405","582119","0.0-7.0-2.52","LF","lpb8r8jcs5","1920","1080","0","1","0","5dc1e79c880a2915309a8ee3","","null","","","learningBlock2","","","","<div style=""font-size:60px;""> </div>","null","LF","learning/Slide133.JPG","This is a tob:","","",""
"html-keyboard-response","406","583120","0.0-7.0-0.53","LF","lpb8r8jcs5","1920","1080","0","1","0","5dc1e79c880a2915309a8ee3","","null","","","learningBlock2","","","","This is a dep:","null","","","","","",""
"image-keyboard-response","407","583447","0.0-7.0-1.53","LF","lpb8r8jcs5","1920","1080","0","1","0","5dc1e79c880a2915309a8ee3","","null","","","","","","","learning/Slide134.JPG","null","","","","","",""
"html-keyboard-response","408","584449","0.0-7.0-2.53","LF","lpb8r8jcs5","1920","1080","0","1","0","5dc1e79c880a2915309a8ee3","","null","","","learningBlock2","","","","<div style=""font-size:60px;""> </div>","null","LF","learning/Slide134.JPG","This is a dep:","","",""
"html-keyboard-response","409","585451","0.0-7.0-0.54","LF","lpb8r8jcs5","1920","1080","0","1","0","5dc1e79c880a2915309a8ee3","","null","","","learningBlock2","","","","This is a tob:","null","","","","","",""
"image-keyboard-response","410","585778","0.0-7.0-1.54","LF","lpb8r8jcs5","1920","1080","0","1","0","5dc1e79c880a2915309a8ee3","","null","","","","","","","learning/Slide135.JPG","null","","","","","",""
"html-keyboard-response","411","586780","0.0-7.0-2.54","LF","lpb8r8jcs5","1920","1080","0","1","0","5dc1e79c880a2915309a8ee3","","null","","","learningBlock2","","","","<div style=""font-size:60px;""> </div>","null","LF","learning/Slide135.JPG","This is a tob:","","",""
"html-keyboard-response","412","587782","0.0-7.0-0.55","LF","lpb8r8jcs5","1920","1080","0","1","0","5dc1e79c880a2915309a8ee3","","null","","","learningBlock2","","","","This is a wug:","null","","","","","",""
"image-keyboard-response","413","588111","0.0-7.0-1.55","LF","lpb8r8jcs5","1920","1080","0","1","0","5dc1e79c880a2915309a8ee3","","null","","","","","","","learning/Slide136.JPG","null","","","","","",""
"html-keyboard-response","414","589113","0.0-7.0-2.55","LF","lpb8r8jcs5","1920","1080","0","1","0","5dc1e79c880a2915309a8ee3","","null","","","learningBlock2","","","","<div style=""font-size:60px;""> </div>","null","LF","learning/Slide136.JPG","This is a wug:","","",""
"html-keyboard-response","415","590115","0.0-7.0-0.56","LF","lpb8r8jcs5","1920","1080","0","1","0","5dc1e79c880a2915309a8ee3","","null","","","learningBlock2","","","","This is a tob:","null","","","","","",""
"image-keyboard-response","416","590442","0.0-7.0-1.56","LF","lpb8r8jcs5","1920","1080","0","1","0","5dc1e79c880a2915309a8ee3","","null","","","","","","","learning/Slide137.JPG","null","","","","","",""
"html-keyboard-response","417","591445","0.0-7.0-2.56","LF","lpb8r8jcs5","1920","1080","0","1","0","5dc1e79c880a2915309a8ee3","","null","","","learningBlock2","","","","<div style=""font-size:60px;""> </div>","null","LF","learning/Slide137.JPG","This is a tob:","","",""
"html-keyboard-response","418","592446","0.0-7.0-0.57","LF","lpb8r8jcs5","1920","1080","0","1","0","5dc1e79c880a2915309a8ee3","","null","","","learningBlock2","","","","This is a bim:","null","","","","","",""
"image-keyboard-response","419","592775","0.0-7.0-1.57","LF","lpb8r8jcs5","1920","1080","0","1","0","5dc1e79c880a2915309a8ee3","","null","","","","","","","learning/Slide138.JPG","null","","","","","",""
"html-keyboard-response","420","593777","0.0-7.0-2.57","LF","lpb8r8jcs5","1920","1080","0","1","0","5dc1e79c880a2915309a8ee3","","null","","","learningBlock2","","","","<div style=""font-size:60px;""> </div>","null","LF","learning/Slide138.JPG","This is a bim:","","",""
"html-keyboard-response","421","594779","0.0-7.0-0.58","LF","lpb8r8jcs5","1920","1080","0","1","0","5dc1e79c880a2915309a8ee3","","null","","","learningBlock2","","","","This is a wug:","null","","","","","",""
"image-keyboard-response","422","595107","0.0-7.0-1.58","LF","lpb8r8jcs5","1920","1080","0","1","0","5dc1e79c880a2915309a8ee3","","null","","","","","","","learning/Slide139.JPG","null","","","","","",""
"html-keyboard-response","423","596108","0.0-7.0-2.58","LF","lpb8r8jcs5","1920","1080","0","1","0","5dc1e79c880a2915309a8ee3","","null","","","learningBlock2","","","","<div style=""font-size:60px;""> </div>","null","LF","learning/Slide139.JPG","This is a wug:","","",""
"html-keyboard-response","424","597109","0.0-7.0-0.59","LF","lpb8r8jcs5","1920","1080","0","1","0","5dc1e79c880a2915309a8ee3","","null","","","learningBlock2","","","","This is a dep:","null","","","","","",""
"image-keyboard-response","425","597436","0.0-7.0-1.59","LF","lpb8r8jcs5","1920","1080","0","1","0","5dc1e79c880a2915309a8ee3","","null","","","","","","","learning/Slide140.JPG","null","","","","","",""
"html-keyboard-response","426","598438","0.0-7.0-2.59","LF","lpb8r8jcs5","1920","1080","0","1","0","5dc1e79c880a2915309a8ee3","","null","","","learningBlock2","","","","<div style=""font-size:60px;""> </div>","null","LF","learning/Slide140.JPG","This is a dep:","","",""
"html-keyboard-response","427","599440","0.0-7.0-0.60","LF","lpb8r8jcs5","1920","1080","0","1","0","5dc1e79c880a2915309a8ee3","","null","","","learningBlock2","","","","This is a tob:","null","","","","","",""
"image-keyboard-response","428","599768","0.0-7.0-1.60","LF","lpb8r8jcs5","1920","1080","0","1","0","5dc1e79c880a2915309a8ee3","","null","","","","","","","learning/Slide141.JPG","null","","","","","",""
"html-keyboard-response","429","600769","0.0-7.0-2.60","LF","lpb8r8jcs5","1920","1080","0","1","0","5dc1e79c880a2915309a8ee3","","null","","","learningBlock2","","","","<div style=""font-size:60px;""> </div>","null","LF","learning/Slide141.JPG","This is a tob:","","",""
"html-keyboard-response","430","601771","0.0-7.0-0.61","LF","lpb8r8jcs5","1920","1080","0","1","0","5dc1e79c880a2915309a8ee3","","null","","","learningBlock2","","","","This is a wug:","null","","","","","",""
"image-keyboard-response","431","602098","0.0-7.0-1.61","LF","lpb8r8jcs5","1920","1080","0","1","0","5dc1e79c880a2915309a8ee3","","null","","","","","","","learning/Slide142.JPG","null","","","","","",""
"html-keyboard-response","432","603099","0.0-7.0-2.61","LF","lpb8r8jcs5","1920","1080","0","1","0","5dc1e79c880a2915309a8ee3","","null","","","learningBlock2","","","","<div style=""font-size:60px;""> </div>","null","LF","learning/Slide142.JPG","This is a wug:","","",""
"html-keyboard-response","433","604101","0.0-7.0-0.62","LF","lpb8r8jcs5","1920","1080","0","1","0","5dc1e79c880a2915309a8ee3","","null","","","learningBlock2","","","","This is a bim:","null","","","","","",""
"image-keyboard-response","434","604430","0.0-7.0-1.62","LF","lpb8r8jcs5","1920","1080","0","1","0","5dc1e79c880a2915309a8ee3","","null","","","","","","","learning/Slide143.JPG","null","","","","","",""
"html-keyboard-response","435","605431","0.0-7.0-2.62","LF","lpb8r8jcs5","1920","1080","0","1","0","5dc1e79c880a2915309a8ee3","","null","","","learningBlock2","","","","<div style=""font-size:60px;""> </div>","null","LF","learning/Slide143.JPG","This is a bim:","","",""
