"trial_type","trial_index","time_elapsed","internal_node_id","condition","subject","screen_width","screen_height","attention","distraction","conscientious","prolificID","success","rt","url","view_history","test_part","final_height_px","final_width_px","scale_factor","stimulus","key_press","learningType","presentedImage","presentedLabel","button_pressed","response","responses"
"pavlovia","0","17","0.0-0.0","LF","f208my9c1t","1536","864","0","1","0","5d920df12b679a00182bbc73","","","","","","","","","","","","","","","",""
"fullscreen","1","5484","0.0-1.0","LF","f208my9c1t","1536","864","0","1","0","5d920df12b679a00182bbc73","true","","","","","","","","","","","","","","",""
"external-html","2","21214","0.0-2.0-0.0","LF","f208my9c1t","1536","864","0","1","0","5d920df12b679a00182bbc73","","15684","text/information_english.html","","","","","","","","","","","","",""
"external-html","3","31886","0.0-2.0-1.0","LF","f208my9c1t","1536","864","0","1","0","5d920df12b679a00182bbc73","","10636","text/consent_english.html","","","","","","","","","","","","",""
"instructions","4","40994","0.0-3.0","LF","f208my9c1t","1536","864","0","1","0","5d920df12b679a00182bbc73","","NA","","[{""page_index"":0,""viewing_time"":2047},{""page_index"":1,""viewing_time"":7058}]","instructions","","","","","","","","","","",""
"resize","5","67443","0.0-4.0","LF","f208my9c1t","1536","864","0","1","0","5d920df12b679a00182bbc73","","","","","","","386","2.450793650793651","","","","","","","",""
"html-keyboard-response","6","68458","0.0-5.0-0.0","LF","f208my9c1t","1536","864","0","1","0","5d920df12b679a00182bbc73","","null","","","learningBlock1","","","","This is a tob:","null","","","","","",""
"image-keyboard-response","7","68804","0.0-5.0-1.0","LF","f208my9c1t","1536","864","0","1","0","5d920df12b679a00182bbc73","","null","","","","","","","learning/Slide1.JPG","null","","","","","",""
"html-keyboard-response","8","69824","0.0-5.0-2.0","LF","f208my9c1t","1536","864","0","1","0","5d920df12b679a00182bbc73","","null","","","learningBlock1","","","","<div style=""font-size:60px;""> </div>","null","LF","learning/Slide1.JPG","This is a tob:","","",""
"html-keyboard-response","9","70842","0.0-5.0-0.1","LF","f208my9c1t","1536","864","0","1","0","5d920df12b679a00182bbc73","","null","","","learningBlock1","","","","This is a wug:","null","","","","","",""
"image-keyboard-response","10","71184","0.0-5.0-1.1","LF","f208my9c1t","1536","864","0","1","0","5d920df12b679a00182bbc73","","null","","","","","","","learning/Slide2.JPG","null","","","","","",""
"html-keyboard-response","11","72202","0.0-5.0-2.1","LF","f208my9c1t","1536","864","0","1","0","5d920df12b679a00182bbc73","","null","","","learningBlock1","","","","<div style=""font-size:60px;""> </div>","null","LF","learning/Slide2.JPG","This is a wug:","","",""
"html-keyboard-response","12","73222","0.0-5.0-0.2","LF","f208my9c1t","1536","864","0","1","0","5d920df12b679a00182bbc73","","null","","","learningBlock1","","","","This is a bim:","null","","","","","",""
"image-keyboard-response","13","73563","0.0-5.0-1.2","LF","f208my9c1t","1536","864","0","1","0","5d920df12b679a00182bbc73","","null","","","","","","","learning/Slide3.JPG","null","","","","","",""
"html-keyboard-response","14","74583","0.0-5.0-2.2","LF","f208my9c1t","1536","864","0","1","0","5d920df12b679a00182bbc73","","null","","","learningBlock1","","","","<div style=""font-size:60px;""> </div>","null","LF","learning/Slide3.JPG","This is a bim:","","",""
"html-keyboard-response","15","75602","0.0-5.0-0.3","LF","f208my9c1t","1536","864","0","1","0","5d920df12b679a00182bbc73","","null","","","learningBlock1","","","","This is a dep:","null","","","","","",""
"image-keyboard-response","16","75943","0.0-5.0-1.3","LF","f208my9c1t","1536","864","0","1","0","5d920df12b679a00182bbc73","","null","","","","","","","learning/Slide4.JPG","null","","","","","",""
"html-keyboard-response","17","76952","0.0-5.0-2.3","LF","f208my9c1t","1536","864","0","1","0","5d920df12b679a00182bbc73","","null","","","learningBlock1","","","","<div style=""font-size:60px;""> </div>","null","LF","learning/Slide4.JPG","This is a dep:","","",""
"html-keyboard-response","18","77972","0.0-5.0-0.4","LF","f208my9c1t","1536","864","0","1","0","5d920df12b679a00182bbc73","","null","","","learningBlock1","","","","This is a wug:","null","","","","","",""
"image-keyboard-response","19","78313","0.0-5.0-1.4","LF","f208my9c1t","1536","864","0","1","0","5d920df12b679a00182bbc73","","null","","","","","","","learning/Slide5.JPG","null","","","","","",""
"html-keyboard-response","20","79332","0.0-5.0-2.4","LF","f208my9c1t","1536","864","0","1","0","5d920df12b679a00182bbc73","","null","","","learningBlock1","","","","<div style=""font-size:60px;""> </div>","null","LF","learning/Slide5.JPG","This is a wug:","","",""
"html-keyboard-response","21","80352","0.0-5.0-0.5","LF","f208my9c1t","1536","864","0","1","0","5d920df12b679a00182bbc73","","null","","","learningBlock1","","","","This is a dep:","null","","","","","",""
"image-keyboard-response","22","80693","0.0-5.0-1.5","LF","f208my9c1t","1536","864","0","1","0","5d920df12b679a00182bbc73","","null","","","","","","","learning/Slide6.JPG","null","","","","","",""
"html-keyboard-response","23","81713","0.0-5.0-2.5","LF","f208my9c1t","1536","864","0","1","0","5d920df12b679a00182bbc73","","null","","","learningBlock1","","","","<div style=""font-size:60px;""> </div>","null","LF","learning/Slide6.JPG","This is a dep:","","",""
"html-keyboard-response","24","82733","0.0-5.0-0.6","LF","f208my9c1t","1536","864","0","1","0","5d920df12b679a00182bbc73","","null","","","learningBlock1","","","","This is a wug:","null","","","","","",""
"image-keyboard-response","25","83072","0.0-5.0-1.6","LF","f208my9c1t","1536","864","0","1","0","5d920df12b679a00182bbc73","","null","","","","","","","learning/Slide7.JPG","null","","","","","",""
"html-keyboard-response","26","84093","0.0-5.0-2.6","LF","f208my9c1t","1536","864","0","1","0","5d920df12b679a00182bbc73","","null","","","learningBlock1","","","","<div style=""font-size:60px;""> </div>","null","LF","learning/Slide7.JPG","This is a wug:","","",""
"html-keyboard-response","27","85102","0.0-5.0-0.7","LF","f208my9c1t","1536","864","0","1","0","5d920df12b679a00182bbc73","","null","","","learningBlock1","","","","This is a bim:","null","","","","","",""
"image-keyboard-response","28","85443","0.0-5.0-1.7","LF","f208my9c1t","1536","864","0","1","0","5d920df12b679a00182bbc73","","null","","","","","","","learning/Slide8.JPG","null","","","","","",""
"html-keyboard-response","29","86462","0.0-5.0-2.7","LF","f208my9c1t","1536","864","0","1","0","5d920df12b679a00182bbc73","","null","","","learningBlock1","","","","<div style=""font-size:60px;""> </div>","null","LF","learning/Slide8.JPG","This is a bim:","","",""
"html-keyboard-response","30","87473","0.0-5.0-0.8","LF","f208my9c1t","1536","864","0","1","0","5d920df12b679a00182bbc73","","null","","","learningBlock1","","","","This is a wug:","null","","","","","",""
"image-keyboard-response","31","87813","0.0-5.0-1.8","LF","f208my9c1t","1536","864","0","1","0","5d920df12b679a00182bbc73","","null","","","","","","","learning/Slide9.JPG","null","","","","","",""
"html-keyboard-response","32","88832","0.0-5.0-2.8","LF","f208my9c1t","1536","864","0","1","0","5d920df12b679a00182bbc73","","null","","","learningBlock1","","","","<div style=""font-size:60px;""> </div>","null","LF","learning/Slide9.JPG","This is a wug:","","",""
"html-keyboard-response","33","89852","0.0-5.0-0.9","LF","f208my9c1t","1536","864","0","1","0","5d920df12b679a00182bbc73","","null","","","learningBlock1","","","","This is a dep:","null","","","","","",""
"image-keyboard-response","34","90193","0.0-5.0-1.9","LF","f208my9c1t","1536","864","0","1","0","5d920df12b679a00182bbc73","","null","","","","","","","learning/Slide10.JPG","null","","","","","",""
"html-keyboard-response","35","91213","0.0-5.0-2.9","LF","f208my9c1t","1536","864","0","1","0","5d920df12b679a00182bbc73","","null","","","learningBlock1","","","","<div style=""font-size:60px;""> </div>","null","LF","learning/Slide10.JPG","This is a dep:","","",""
"html-keyboard-response","36","92233","0.0-5.0-0.10","LF","f208my9c1t","1536","864","0","1","0","5d920df12b679a00182bbc73","","null","","","learningBlock1","","","","This is a tob:","null","","","","","",""
"image-keyboard-response","37","92573","0.0-5.0-1.10","LF","f208my9c1t","1536","864","0","1","0","5d920df12b679a00182bbc73","","null","","","","","","","learning/Slide11.JPG","null","","","","","",""
"html-keyboard-response","38","93593","0.0-5.0-2.10","LF","f208my9c1t","1536","864","0","1","0","5d920df12b679a00182bbc73","","null","","","learningBlock1","","","","<div style=""font-size:60px;""> </div>","null","LF","learning/Slide11.JPG","This is a tob:","","",""
"html-keyboard-response","39","94607","0.0-5.0-0.11","LF","f208my9c1t","1536","864","0","1","0","5d920df12b679a00182bbc73","","null","","","learningBlock1","","","","This is a dep:","null","","","","","",""
"image-keyboard-response","40","94953","0.0-5.0-1.11","LF","f208my9c1t","1536","864","0","1","0","5d920df12b679a00182bbc73","","null","","","","","","","learning/Slide12.JPG","null","","","","","",""
"html-keyboard-response","41","95972","0.0-5.0-2.11","LF","f208my9c1t","1536","864","0","1","0","5d920df12b679a00182bbc73","","null","","","learningBlock1","","","","<div style=""font-size:60px;""> </div>","null","LF","learning/Slide12.JPG","This is a dep:","","",""
"html-keyboard-response","42","96992","0.0-5.0-0.12","LF","f208my9c1t","1536","864","0","1","0","5d920df12b679a00182bbc73","","null","","","learningBlock1","","","","This is a bim:","null","","","","","",""
"image-keyboard-response","43","97333","0.0-5.0-1.12","LF","f208my9c1t","1536","864","0","1","0","5d920df12b679a00182bbc73","","null","","","","","","","learning/Slide13.JPG","null","","","","","",""
"html-keyboard-response","44","98353","0.0-5.0-2.12","LF","f208my9c1t","1536","864","0","1","0","5d920df12b679a00182bbc73","","null","","","learningBlock1","","","","<div style=""font-size:60px;""> </div>","null","LF","learning/Slide13.JPG","This is a bim:","","",""
"html-keyboard-response","45","99372","0.0-5.0-0.13","LF","f208my9c1t","1536","864","0","1","0","5d920df12b679a00182bbc73","","null","","","learningBlock1","","","","This is a wug:","null","","","","","",""
"image-keyboard-response","46","99713","0.0-5.0-1.13","LF","f208my9c1t","1536","864","0","1","0","5d920df12b679a00182bbc73","","null","","","","","","","learning/Slide14.JPG","null","","","","","",""
"html-keyboard-response","47","100733","0.0-5.0-2.13","LF","f208my9c1t","1536","864","0","1","0","5d920df12b679a00182bbc73","","null","","","learningBlock1","","","","<div style=""font-size:60px;""> </div>","null","LF","learning/Slide14.JPG","This is a wug:","","",""
"html-keyboard-response","48","101753","0.0-5.0-0.14","LF","f208my9c1t","1536","864","0","1","0","5d920df12b679a00182bbc73","","null","","","learningBlock1","","","","This is a tob:","null","","","","","",""
"image-keyboard-response","49","102093","0.0-5.0-1.14","LF","f208my9c1t","1536","864","0","1","0","5d920df12b679a00182bbc73","","null","","","","","","","learning/Slide15.JPG","null","","","","","",""
"html-keyboard-response","50","103112","0.0-5.0-2.14","LF","f208my9c1t","1536","864","0","1","0","5d920df12b679a00182bbc73","","null","","","learningBlock1","","","","<div style=""font-size:60px;""> </div>","null","LF","learning/Slide15.JPG","This is a tob:","","",""
"html-keyboard-response","51","104133","0.0-5.0-0.15","LF","f208my9c1t","1536","864","0","1","0","5d920df12b679a00182bbc73","","null","","","learningBlock1","","","","This is a dep:","null","","","","","",""
"image-keyboard-response","52","104472","0.0-5.0-1.15","LF","f208my9c1t","1536","864","0","1","0","5d920df12b679a00182bbc73","","null","","","","","","","learning/Slide16.JPG","null","","","","","",""
"html-keyboard-response","53","105493","0.0-5.0-2.15","LF","f208my9c1t","1536","864","0","1","0","5d920df12b679a00182bbc73","","null","","","learningBlock1","","","","<div style=""font-size:60px;""> </div>","null","LF","learning/Slide16.JPG","This is a dep:","","",""
"html-keyboard-response","54","106512","0.0-5.0-0.16","LF","f208my9c1t","1536","864","0","1","0","5d920df12b679a00182bbc73","","null","","","learningBlock1","","","","This is a bim:","null","","","","","",""
"image-keyboard-response","55","106850","0.0-5.0-1.16","LF","f208my9c1t","1536","864","0","1","0","5d920df12b679a00182bbc73","","null","","","","","","","learning/Slide17.JPG","null","","","","","",""
"html-keyboard-response","56","107873","0.0-5.0-2.16","LF","f208my9c1t","1536","864","0","1","0","5d920df12b679a00182bbc73","","null","","","learningBlock1","","","","<div style=""font-size:60px;""> </div>","null","LF","learning/Slide17.JPG","This is a bim:","","",""
"html-keyboard-response","57","108893","0.0-5.0-0.17","LF","f208my9c1t","1536","864","0","1","0","5d920df12b679a00182bbc73","","null","","","learningBlock1","","","","This is a tob:","null","","","","","",""
"image-keyboard-response","58","109233","0.0-5.0-1.17","LF","f208my9c1t","1536","864","0","1","0","5d920df12b679a00182bbc73","","null","","","","","","","learning/Slide18.JPG","null","","","","","",""
"html-keyboard-response","59","110252","0.0-5.0-2.17","LF","f208my9c1t","1536","864","0","1","0","5d920df12b679a00182bbc73","","null","","","learningBlock1","","","","<div style=""font-size:60px;""> </div>","null","LF","learning/Slide18.JPG","This is a tob:","","",""
"html-keyboard-response","60","111272","0.0-5.0-0.18","LF","f208my9c1t","1536","864","0","1","0","5d920df12b679a00182bbc73","","null","","","learningBlock1","","","","This is a wug:","null","","","","","",""
"image-keyboard-response","61","111612","0.0-5.0-1.18","LF","f208my9c1t","1536","864","0","1","0","5d920df12b679a00182bbc73","","null","","","","","","","learning/Slide19.JPG","null","","","","","",""
"html-keyboard-response","62","112632","0.0-5.0-2.18","LF","f208my9c1t","1536","864","0","1","0","5d920df12b679a00182bbc73","","null","","","learningBlock1","","","","<div style=""font-size:60px;""> </div>","null","LF","learning/Slide19.JPG","This is a wug:","","",""
"html-keyboard-response","63","113653","0.0-5.0-0.19","LF","f208my9c1t","1536","864","0","1","0","5d920df12b679a00182bbc73","","null","","","learningBlock1","","","","This is a bim:","null","","","","","",""
"image-keyboard-response","64","113992","0.0-5.0-1.19","LF","f208my9c1t","1536","864","0","1","0","5d920df12b679a00182bbc73","","null","","","","","","","learning/Slide20.JPG","null","","","","","",""
"html-keyboard-response","65","115013","0.0-5.0-2.19","LF","f208my9c1t","1536","864","0","1","0","5d920df12b679a00182bbc73","","null","","","learningBlock1","","","","<div style=""font-size:60px;""> </div>","null","LF","learning/Slide20.JPG","This is a bim:","","",""
"html-keyboard-response","66","116023","0.0-5.0-0.20","LF","f208my9c1t","1536","864","0","1","0","5d920df12b679a00182bbc73","","null","","","learningBlock1","","","","This is a dep:","null","","","","","",""
"image-keyboard-response","67","116363","0.0-5.0-1.20","LF","f208my9c1t","1536","864","0","1","0","5d920df12b679a00182bbc73","","null","","","","","","","learning/Slide21.JPG","null","","","","","",""
"html-keyboard-response","68","117383","0.0-5.0-2.20","LF","f208my9c1t","1536","864","0","1","0","5d920df12b679a00182bbc73","","null","","","learningBlock1","","","","<div style=""font-size:60px;""> </div>","null","LF","learning/Slide21.JPG","This is a dep:","","",""
"html-keyboard-response","69","118402","0.0-5.0-0.21","LF","f208my9c1t","1536","864","0","1","0","5d920df12b679a00182bbc73","","null","","","learningBlock1","","","","This is a bim:","null","","","","","",""
"image-keyboard-response","70","118742","0.0-5.0-1.21","LF","f208my9c1t","1536","864","0","1","0","5d920df12b679a00182bbc73","","null","","","","","","","learning/Slide22.JPG","null","","","","","",""
"html-keyboard-response","71","119762","0.0-5.0-2.21","LF","f208my9c1t","1536","864","0","1","0","5d920df12b679a00182bbc73","","null","","","learningBlock1","","","","<div style=""font-size:60px;""> </div>","null","LF","learning/Slide22.JPG","This is a bim:","","",""
"html-keyboard-response","72","120782","0.0-5.0-0.22","LF","f208my9c1t","1536","864","0","1","0","5d920df12b679a00182bbc73","","null","","","learningBlock1","","","","This is a tob:","null","","","","","",""
"image-keyboard-response","73","121123","0.0-5.0-1.22","LF","f208my9c1t","1536","864","0","1","0","5d920df12b679a00182bbc73","","null","","","","","","","learning/Slide23.JPG","null","","","","","",""
"html-keyboard-response","74","122136","0.0-5.0-2.22","LF","f208my9c1t","1536","864","0","1","0","5d920df12b679a00182bbc73","","null","","","learningBlock1","","","","<div style=""font-size:60px;""> </div>","null","LF","learning/Slide23.JPG","This is a tob:","","",""
"html-keyboard-response","75","123152","0.0-5.0-0.23","LF","f208my9c1t","1536","864","0","1","0","5d920df12b679a00182bbc73","","null","","","learningBlock1","","","","This is a wug:","null","","","","","",""
"image-keyboard-response","76","123482","0.0-5.0-1.23","LF","f208my9c1t","1536","864","0","1","0","5d920df12b679a00182bbc73","","null","","","","","","","learning/Slide24.JPG","null","","","","","",""
"html-keyboard-response","77","124488","0.0-5.0-2.23","LF","f208my9c1t","1536","864","0","1","0","5d920df12b679a00182bbc73","","null","","","learningBlock1","","","","<div style=""font-size:60px;""> </div>","null","LF","learning/Slide24.JPG","This is a wug:","","",""
"html-keyboard-response","78","125501","0.0-5.0-0.24","LF","f208my9c1t","1536","864","0","1","0","5d920df12b679a00182bbc73","","null","","","learningBlock1","","","","This is a dep:","null","","","","","",""
"image-keyboard-response","79","125852","0.0-5.0-1.24","LF","f208my9c1t","1536","864","0","1","0","5d920df12b679a00182bbc73","","null","","","","","","","learning/Slide25.JPG","null","","","","","",""
"html-keyboard-response","80","126871","0.0-5.0-2.24","LF","f208my9c1t","1536","864","0","1","0","5d920df12b679a00182bbc73","","null","","","learningBlock1","","","","<div style=""font-size:60px;""> </div>","null","LF","learning/Slide25.JPG","This is a dep:","","",""
"html-keyboard-response","81","127873","0.0-5.0-0.25","LF","f208my9c1t","1536","864","0","1","0","5d920df12b679a00182bbc73","","null","","","learningBlock1","","","","This is a wug:","null","","","","","",""
"image-keyboard-response","82","128213","0.0-5.0-1.25","LF","f208my9c1t","1536","864","0","1","0","5d920df12b679a00182bbc73","","null","","","","","","","learning/Slide26.JPG","null","","","","","",""
"html-keyboard-response","83","129232","0.0-5.0-2.25","LF","f208my9c1t","1536","864","0","1","0","5d920df12b679a00182bbc73","","null","","","learningBlock1","","","","<div style=""font-size:60px;""> </div>","null","LF","learning/Slide26.JPG","This is a wug:","","",""
"html-keyboard-response","84","130253","0.0-5.0-0.26","LF","f208my9c1t","1536","864","0","1","0","5d920df12b679a00182bbc73","","null","","","learningBlock1","","","","This is a bim:","null","","","","","",""
"image-keyboard-response","85","130603","0.0-5.0-1.26","LF","f208my9c1t","1536","864","0","1","0","5d920df12b679a00182bbc73","","null","","","","","","","learning/Slide27.JPG","null","","","","","",""
"html-keyboard-response","86","131623","0.0-5.0-2.26","LF","f208my9c1t","1536","864","0","1","0","5d920df12b679a00182bbc73","","null","","","learningBlock1","","","","<div style=""font-size:60px;""> </div>","null","LF","learning/Slide27.JPG","This is a bim:","","",""
"html-keyboard-response","87","132633","0.0-5.0-0.27","LF","f208my9c1t","1536","864","0","1","0","5d920df12b679a00182bbc73","","null","","","learningBlock1","","","","This is a dep:","null","","","","","",""
"image-keyboard-response","88","132983","0.0-5.0-1.27","LF","f208my9c1t","1536","864","0","1","0","5d920df12b679a00182bbc73","","null","","","","","","","learning/Slide28.JPG","null","","","","","",""
"html-keyboard-response","89","134003","0.0-5.0-2.27","LF","f208my9c1t","1536","864","0","1","0","5d920df12b679a00182bbc73","","null","","","learningBlock1","","","","<div style=""font-size:60px;""> </div>","null","LF","learning/Slide28.JPG","This is a dep:","","",""
"html-keyboard-response","90","135013","0.0-5.0-0.28","LF","f208my9c1t","1536","864","0","1","0","5d920df12b679a00182bbc73","","null","","","learningBlock1","","","","This is a tob:","null","","","","","",""
"image-keyboard-response","91","135362","0.0-5.0-1.28","LF","f208my9c1t","1536","864","0","1","0","5d920df12b679a00182bbc73","","null","","","","","","","learning/Slide29.JPG","null","","","","","",""
"html-keyboard-response","92","136382","0.0-5.0-2.28","LF","f208my9c1t","1536","864","0","1","0","5d920df12b679a00182bbc73","","null","","","learningBlock1","","","","<div style=""font-size:60px;""> </div>","null","LF","learning/Slide29.JPG","This is a tob:","","",""
"html-keyboard-response","93","137402","0.0-5.0-0.29","LF","f208my9c1t","1536","864","0","1","0","5d920df12b679a00182bbc73","","null","","","learningBlock1","","","","This is a dep:","null","","","","","",""
"image-keyboard-response","94","137743","0.0-5.0-1.29","LF","f208my9c1t","1536","864","0","1","0","5d920df12b679a00182bbc73","","null","","","","","","","learning/Slide30.JPG","null","","","","","",""
"html-keyboard-response","95","138763","0.0-5.0-2.29","LF","f208my9c1t","1536","864","0","1","0","5d920df12b679a00182bbc73","","null","","","learningBlock1","","","","<div style=""font-size:60px;""> </div>","null","LF","learning/Slide30.JPG","This is a dep:","","",""
"html-keyboard-response","96","139783","0.0-5.0-0.30","LF","f208my9c1t","1536","864","0","1","0","5d920df12b679a00182bbc73","","null","","","learningBlock1","","","","This is a wug:","null","","","","","",""
"image-keyboard-response","97","140122","0.0-5.0-1.30","LF","f208my9c1t","1536","864","0","1","0","5d920df12b679a00182bbc73","","null","","","","","","","learning/Slide31.JPG","null","","","","","",""
"html-keyboard-response","98","141143","0.0-5.0-2.30","LF","f208my9c1t","1536","864","0","1","0","5d920df12b679a00182bbc73","","null","","","learningBlock1","","","","<div style=""font-size:60px;""> </div>","null","LF","learning/Slide31.JPG","This is a wug:","","",""
"html-keyboard-response","99","142163","0.0-5.0-0.31","LF","f208my9c1t","1536","864","0","1","0","5d920df12b679a00182bbc73","","null","","","learningBlock1","","","","This is a tob:","null","","","","","",""
"image-keyboard-response","100","142503","0.0-5.0-1.31","LF","f208my9c1t","1536","864","0","1","0","5d920df12b679a00182bbc73","","null","","","","","","","learning/Slide32.JPG","null","","","","","",""
"html-keyboard-response","101","143522","0.0-5.0-2.31","LF","f208my9c1t","1536","864","0","1","0","5d920df12b679a00182bbc73","","null","","","learningBlock1","","","","<div style=""font-size:60px;""> </div>","null","LF","learning/Slide32.JPG","This is a tob:","","",""
"html-keyboard-response","102","144543","0.0-5.0-0.32","LF","f208my9c1t","1536","864","0","1","0","5d920df12b679a00182bbc73","","null","","","learningBlock1","","","","This is a bim:","null","","","","","",""
"image-keyboard-response","103","144883","0.0-5.0-1.32","LF","f208my9c1t","1536","864","0","1","0","5d920df12b679a00182bbc73","","null","","","","","","","learning/Slide33.JPG","null","","","","","",""
"html-keyboard-response","104","145902","0.0-5.0-2.32","LF","f208my9c1t","1536","864","0","1","0","5d920df12b679a00182bbc73","","null","","","learningBlock1","","","","<div style=""font-size:60px;""> </div>","null","LF","learning/Slide33.JPG","This is a bim:","","",""
"html-keyboard-response","105","146922","0.0-5.0-0.33","LF","f208my9c1t","1536","864","0","1","0","5d920df12b679a00182bbc73","","null","","","learningBlock1","","","","This is a tob:","null","","","","","",""
"image-keyboard-response","106","147262","0.0-5.0-1.33","LF","f208my9c1t","1536","864","0","1","0","5d920df12b679a00182bbc73","","null","","","","","","","learning/Slide34.JPG","null","","","","","",""
"html-keyboard-response","107","148283","0.0-5.0-2.33","LF","f208my9c1t","1536","864","0","1","0","5d920df12b679a00182bbc73","","null","","","learningBlock1","","","","<div style=""font-size:60px;""> </div>","null","LF","learning/Slide34.JPG","This is a tob:","","",""
"html-keyboard-response","108","149302","0.0-5.0-0.34","LF","f208my9c1t","1536","864","0","1","0","5d920df12b679a00182bbc73","","null","","","learningBlock1","","","","This is a bim:","null","","","","","",""
"image-keyboard-response","109","149642","0.0-5.0-1.34","LF","f208my9c1t","1536","864","0","1","0","5d920df12b679a00182bbc73","","null","","","","","","","learning/Slide35.JPG","null","","","","","",""
"html-keyboard-response","110","150653","0.0-5.0-2.34","LF","f208my9c1t","1536","864","0","1","0","5d920df12b679a00182bbc73","","null","","","learningBlock1","","","","<div style=""font-size:60px;""> </div>","null","LF","learning/Slide35.JPG","This is a bim:","","",""
"html-keyboard-response","111","151672","0.0-5.0-0.35","LF","f208my9c1t","1536","864","0","1","0","5d920df12b679a00182bbc73","","null","","","learningBlock1","","","","This is a dep:","null","","","","","",""
"image-keyboard-response","112","152013","0.0-5.0-1.35","LF","f208my9c1t","1536","864","0","1","0","5d920df12b679a00182bbc73","","null","","","","","","","learning/Slide36.JPG","null","","","","","",""
"html-keyboard-response","113","153032","0.0-5.0-2.35","LF","f208my9c1t","1536","864","0","1","0","5d920df12b679a00182bbc73","","null","","","learningBlock1","","","","<div style=""font-size:60px;""> </div>","null","LF","learning/Slide36.JPG","This is a dep:","","",""
"html-keyboard-response","114","154053","0.0-5.0-0.36","LF","f208my9c1t","1536","864","0","1","0","5d920df12b679a00182bbc73","","null","","","learningBlock1","","","","This is a tob:","null","","","","","",""
"image-keyboard-response","115","154402","0.0-5.0-1.36","LF","f208my9c1t","1536","864","0","1","0","5d920df12b679a00182bbc73","","null","","","","","","","learning/Slide37.JPG","null","","","","","",""
"html-keyboard-response","116","155412","0.0-5.0-2.36","LF","f208my9c1t","1536","864","0","1","0","5d920df12b679a00182bbc73","","null","","","learningBlock1","","","","<div style=""font-size:60px;""> </div>","null","LF","learning/Slide37.JPG","This is a tob:","","",""
"html-keyboard-response","117","156432","0.0-5.0-0.37","LF","f208my9c1t","1536","864","0","1","0","5d920df12b679a00182bbc73","","null","","","learningBlock1","","","","This is a wug:","null","","","","","",""
"image-keyboard-response","118","156772","0.0-5.0-1.37","LF","f208my9c1t","1536","864","0","1","0","5d920df12b679a00182bbc73","","null","","","","","","","learning/Slide38.JPG","null","","","","","",""
"html-keyboard-response","119","157793","0.0-5.0-2.37","LF","f208my9c1t","1536","864","0","1","0","5d920df12b679a00182bbc73","","null","","","learningBlock1","","","","<div style=""font-size:60px;""> </div>","null","LF","learning/Slide38.JPG","This is a wug:","","",""
"html-keyboard-response","120","158813","0.0-5.0-0.38","LF","f208my9c1t","1536","864","0","1","0","5d920df12b679a00182bbc73","","null","","","learningBlock1","","","","This is a bim:","null","","","","","",""
"image-keyboard-response","121","159152","0.0-5.0-1.38","LF","f208my9c1t","1536","864","0","1","0","5d920df12b679a00182bbc73","","null","","","","","","","learning/Slide39.JPG","null","","","","","",""
"html-keyboard-response","122","160173","0.0-5.0-2.38","LF","f208my9c1t","1536","864","0","1","0","5d920df12b679a00182bbc73","","null","","","learningBlock1","","","","<div style=""font-size:60px;""> </div>","null","LF","learning/Slide39.JPG","This is a bim:","","",""
"html-keyboard-response","123","161192","0.0-5.0-0.39","LF","f208my9c1t","1536","864","0","1","0","5d920df12b679a00182bbc73","","null","","","learningBlock1","","","","This is a tob:","null","","","","","",""
"image-keyboard-response","124","161532","0.0-5.0-1.39","LF","f208my9c1t","1536","864","0","1","0","5d920df12b679a00182bbc73","","null","","","","","","","learning/Slide40.JPG","null","","","","","",""
"html-keyboard-response","125","162542","0.0-5.0-2.39","LF","f208my9c1t","1536","864","0","1","0","5d920df12b679a00182bbc73","","null","","","learningBlock1","","","","<div style=""font-size:60px;""> </div>","null","LF","learning/Slide40.JPG","This is a tob:","","",""
"html-keyboard-response","126","163563","0.0-5.0-0.40","LF","f208my9c1t","1536","864","0","1","0","5d920df12b679a00182bbc73","","null","","","learningBlock1","","","","This is a bim:","null","","","","","",""
"image-keyboard-response","127","163903","0.0-5.0-1.40","LF","f208my9c1t","1536","864","0","1","0","5d920df12b679a00182bbc73","","null","","","","","","","learning/Slide41.JPG","null","","","","","",""
"html-keyboard-response","128","164912","0.0-5.0-2.40","LF","f208my9c1t","1536","864","0","1","0","5d920df12b679a00182bbc73","","null","","","learningBlock1","","","","<div style=""font-size:60px;""> </div>","null","LF","learning/Slide41.JPG","This is a bim:","","",""
"html-keyboard-response","129","165913","0.0-5.0-0.41","LF","f208my9c1t","1536","864","0","1","0","5d920df12b679a00182bbc73","","null","","","learningBlock1","","","","This is a dep:","null","","","","","",""
"image-keyboard-response","130","166253","0.0-5.0-1.41","LF","f208my9c1t","1536","864","0","1","0","5d920df12b679a00182bbc73","","null","","","","","","","learning/Slide42.JPG","null","","","","","",""
"html-keyboard-response","131","167273","0.0-5.0-2.41","LF","f208my9c1t","1536","864","0","1","0","5d920df12b679a00182bbc73","","null","","","learningBlock1","","","","<div style=""font-size:60px;""> </div>","null","LF","learning/Slide42.JPG","This is a dep:","","",""
"html-keyboard-response","132","168282","0.0-5.0-0.42","LF","f208my9c1t","1536","864","0","1","0","5d920df12b679a00182bbc73","","null","","","learningBlock1","","","","This is a wug:","null","","","","","",""
"image-keyboard-response","133","168623","0.0-5.0-1.42","LF","f208my9c1t","1536","864","0","1","0","5d920df12b679a00182bbc73","","null","","","","","","","learning/Slide43.JPG","null","","","","","",""
"html-keyboard-response","134","169643","0.0-5.0-2.42","LF","f208my9c1t","1536","864","0","1","0","5d920df12b679a00182bbc73","","null","","","learningBlock1","","","","<div style=""font-size:60px;""> </div>","null","LF","learning/Slide43.JPG","This is a wug:","","",""
"html-keyboard-response","135","170653","0.0-5.0-0.43","LF","f208my9c1t","1536","864","0","1","0","5d920df12b679a00182bbc73","","null","","","learningBlock1","","","","This is a bim:","null","","","","","",""
"image-keyboard-response","136","170989","0.0-5.0-1.43","LF","f208my9c1t","1536","864","0","1","0","5d920df12b679a00182bbc73","","null","","","","","","","learning/Slide44.JPG","null","","","","","",""
"html-keyboard-response","137","171992","0.0-5.0-2.43","LF","f208my9c1t","1536","864","0","1","0","5d920df12b679a00182bbc73","","null","","","learningBlock1","","","","<div style=""font-size:60px;""> </div>","null","LF","learning/Slide44.JPG","This is a bim:","","",""
"html-keyboard-response","138","172992","0.0-5.0-0.44","LF","f208my9c1t","1536","864","0","1","0","5d920df12b679a00182bbc73","","null","","","learningBlock1","","","","This is a wug:","null","","","","","",""
"image-keyboard-response","139","173332","0.0-5.0-1.44","LF","f208my9c1t","1536","864","0","1","0","5d920df12b679a00182bbc73","","null","","","","","","","learning/Slide45.JPG","null","","","","","",""
"html-keyboard-response","140","174352","0.0-5.0-2.44","LF","f208my9c1t","1536","864","0","1","0","5d920df12b679a00182bbc73","","null","","","learningBlock1","","","","<div style=""font-size:60px;""> </div>","null","LF","learning/Slide45.JPG","This is a wug:","","",""
"html-keyboard-response","141","175372","0.0-5.0-0.45","LF","f208my9c1t","1536","864","0","1","0","5d920df12b679a00182bbc73","","null","","","learningBlock1","","","","This is a dep:","null","","","","","",""
"image-keyboard-response","142","175713","0.0-5.0-1.45","LF","f208my9c1t","1536","864","0","1","0","5d920df12b679a00182bbc73","","null","","","","","","","learning/Slide46.JPG","null","","","","","",""
"html-keyboard-response","143","176732","0.0-5.0-2.45","LF","f208my9c1t","1536","864","0","1","0","5d920df12b679a00182bbc73","","null","","","learningBlock1","","","","<div style=""font-size:60px;""> </div>","null","LF","learning/Slide46.JPG","This is a dep:","","",""
"html-keyboard-response","144","177753","0.0-5.0-0.46","LF","f208my9c1t","1536","864","0","1","0","5d920df12b679a00182bbc73","","null","","","learningBlock1","","","","This is a tob:","null","","","","","",""
"image-keyboard-response","145","178093","0.0-5.0-1.46","LF","f208my9c1t","1536","864","0","1","0","5d920df12b679a00182bbc73","","null","","","","","","","learning/Slide47.JPG","null","","","","","",""
"html-keyboard-response","146","179112","0.0-5.0-2.46","LF","f208my9c1t","1536","864","0","1","0","5d920df12b679a00182bbc73","","null","","","learningBlock1","","","","<div style=""font-size:60px;""> </div>","null","LF","learning/Slide47.JPG","This is a tob:","","",""
"html-keyboard-response","147","180132","0.0-5.0-0.47","LF","f208my9c1t","1536","864","0","1","0","5d920df12b679a00182bbc73","","null","","","learningBlock1","","","","This is a bim:","null","","","","","",""
"image-keyboard-response","148","180473","0.0-5.0-1.47","LF","f208my9c1t","1536","864","0","1","0","5d920df12b679a00182bbc73","","null","","","","","","","learning/Slide48.JPG","null","","","","","",""
"html-keyboard-response","149","181493","0.0-5.0-2.47","LF","f208my9c1t","1536","864","0","1","0","5d920df12b679a00182bbc73","","null","","","learningBlock1","","","","<div style=""font-size:60px;""> </div>","null","LF","learning/Slide48.JPG","This is a bim:","","",""
"html-keyboard-response","150","182510","0.0-5.0-0.48","LF","f208my9c1t","1536","864","0","1","0","5d920df12b679a00182bbc73","","null","","","learningBlock1","","","","This is a dep:","null","","","","","",""
"image-keyboard-response","151","182852","0.0-5.0-1.48","LF","f208my9c1t","1536","864","0","1","0","5d920df12b679a00182bbc73","","null","","","","","","","learning/Slide49.JPG","null","","","","","",""
"html-keyboard-response","152","183872","0.0-5.0-2.48","LF","f208my9c1t","1536","864","0","1","0","5d920df12b679a00182bbc73","","null","","","learningBlock1","","","","<div style=""font-size:60px;""> </div>","null","LF","learning/Slide49.JPG","This is a dep:","","",""
"html-keyboard-response","153","184892","0.0-5.0-0.49","LF","f208my9c1t","1536","864","0","1","0","5d920df12b679a00182bbc73","","null","","","learningBlock1","","","","This is a tob:","null","","","","","",""
"image-keyboard-response","154","185232","0.0-5.0-1.49","LF","f208my9c1t","1536","864","0","1","0","5d920df12b679a00182bbc73","","null","","","","","","","learning/Slide50.JPG","null","","","","","",""
"html-keyboard-response","155","186233","0.0-5.0-2.49","LF","f208my9c1t","1536","864","0","1","0","5d920df12b679a00182bbc73","","null","","","learningBlock1","","","","<div style=""font-size:60px;""> </div>","null","LF","learning/Slide50.JPG","This is a tob:","","",""
"html-keyboard-response","156","187252","0.0-5.0-0.50","LF","f208my9c1t","1536","864","0","1","0","5d920df12b679a00182bbc73","","null","","","learningBlock1","","","","This is a bim:","null","","","","","",""
"image-keyboard-response","157","187592","0.0-5.0-1.50","LF","f208my9c1t","1536","864","0","1","0","5d920df12b679a00182bbc73","","null","","","","","","","learning/Slide51.JPG","null","","","","","",""
"html-keyboard-response","158","188613","0.0-5.0-2.50","LF","f208my9c1t","1536","864","0","1","0","5d920df12b679a00182bbc73","","null","","","learningBlock1","","","","<div style=""font-size:60px;""> </div>","null","LF","learning/Slide51.JPG","This is a bim:","","",""
"html-keyboard-response","159","189622","0.0-5.0-0.51","LF","f208my9c1t","1536","864","0","1","0","5d920df12b679a00182bbc73","","null","","","learningBlock1","","","","This is a wug:","null","","","","","",""
"image-keyboard-response","160","189963","0.0-5.0-1.51","LF","f208my9c1t","1536","864","0","1","0","5d920df12b679a00182bbc73","","null","","","","","","","learning/Slide52.JPG","null","","","","","",""
"html-keyboard-response","161","190983","0.0-5.0-2.51","LF","f208my9c1t","1536","864","0","1","0","5d920df12b679a00182bbc73","","null","","","learningBlock1","","","","<div style=""font-size:60px;""> </div>","null","LF","learning/Slide52.JPG","This is a wug:","","",""
"html-keyboard-response","162","191993","0.0-5.0-0.52","LF","f208my9c1t","1536","864","0","1","0","5d920df12b679a00182bbc73","","null","","","learningBlock1","","","","This is a tob:","null","","","","","",""
"image-keyboard-response","163","192332","0.0-5.0-1.52","LF","f208my9c1t","1536","864","0","1","0","5d920df12b679a00182bbc73","","null","","","","","","","learning/Slide53.JPG","null","","","","","",""
"html-keyboard-response","164","193342","0.0-5.0-2.52","LF","f208my9c1t","1536","864","0","1","0","5d920df12b679a00182bbc73","","null","","","learningBlock1","","","","<div style=""font-size:60px;""> </div>","null","LF","learning/Slide53.JPG","This is a tob:","","",""
"html-keyboard-response","165","194362","0.0-5.0-0.53","LF","f208my9c1t","1536","864","0","1","0","5d920df12b679a00182bbc73","","null","","","learningBlock1","","","","This is a dep:","null","","","","","",""
"image-keyboard-response","166","194702","0.0-5.0-1.53","LF","f208my9c1t","1536","864","0","1","0","5d920df12b679a00182bbc73","","null","","","","","","","learning/Slide54.JPG","null","","","","","",""
"html-keyboard-response","167","195723","0.0-5.0-2.53","LF","f208my9c1t","1536","864","0","1","0","5d920df12b679a00182bbc73","","null","","","learningBlock1","","","","<div style=""font-size:60px;""> </div>","null","LF","learning/Slide54.JPG","This is a dep:","","",""
"html-keyboard-response","168","196742","0.0-5.0-0.54","LF","f208my9c1t","1536","864","0","1","0","5d920df12b679a00182bbc73","","null","","","learningBlock1","","","","This is a bim:","null","","","","","",""
"image-keyboard-response","169","197083","0.0-5.0-1.54","LF","f208my9c1t","1536","864","0","1","0","5d920df12b679a00182bbc73","","null","","","","","","","learning/Slide55.JPG","null","","","","","",""
"html-keyboard-response","170","198103","0.0-5.0-2.54","LF","f208my9c1t","1536","864","0","1","0","5d920df12b679a00182bbc73","","null","","","learningBlock1","","","","<div style=""font-size:60px;""> </div>","null","LF","learning/Slide55.JPG","This is a bim:","","",""
"html-keyboard-response","171","199122","0.0-5.0-0.55","LF","f208my9c1t","1536","864","0","1","0","5d920df12b679a00182bbc73","","null","","","learningBlock1","","","","This is a tob:","null","","","","","",""
"image-keyboard-response","172","199462","0.0-5.0-1.55","LF","f208my9c1t","1536","864","0","1","0","5d920df12b679a00182bbc73","","null","","","","","","","learning/Slide56.JPG","null","","","","","",""
"html-keyboard-response","173","200482","0.0-5.0-2.55","LF","f208my9c1t","1536","864","0","1","0","5d920df12b679a00182bbc73","","null","","","learningBlock1","","","","<div style=""font-size:60px;""> </div>","null","LF","learning/Slide56.JPG","This is a tob:","","",""
"html-keyboard-response","174","201503","0.0-5.0-0.56","LF","f208my9c1t","1536","864","0","1","0","5d920df12b679a00182bbc73","","null","","","learningBlock1","","","","This is a dep:","null","","","","","",""
"image-keyboard-response","175","201841","0.0-5.0-1.56","LF","f208my9c1t","1536","864","0","1","0","5d920df12b679a00182bbc73","","null","","","","","","","learning/Slide57.JPG","null","","","","","",""
"html-keyboard-response","176","202843","0.0-5.0-2.56","LF","f208my9c1t","1536","864","0","1","0","5d920df12b679a00182bbc73","","null","","","learningBlock1","","","","<div style=""font-size:60px;""> </div>","null","LF","learning/Slide57.JPG","This is a dep:","","",""
"html-keyboard-response","177","203863","0.0-5.0-0.57","LF","f208my9c1t","1536","864","0","1","0","5d920df12b679a00182bbc73","","null","","","learningBlock1","","","","This is a wug:","null","","","","","",""
"image-keyboard-response","178","204203","0.0-5.0-1.57","LF","f208my9c1t","1536","864","0","1","0","5d920df12b679a00182bbc73","","null","","","","","","","learning/Slide58.JPG","null","","","","","",""
"html-keyboard-response","179","205223","0.0-5.0-2.57","LF","f208my9c1t","1536","864","0","1","0","5d920df12b679a00182bbc73","","null","","","learningBlock1","","","","<div style=""font-size:60px;""> </div>","null","LF","learning/Slide58.JPG","This is a wug:","","",""
"html-keyboard-response","180","206242","0.0-5.0-0.58","LF","f208my9c1t","1536","864","0","1","0","5d920df12b679a00182bbc73","","null","","","learningBlock1","","","","This is a dep:","null","","","","","",""
"image-keyboard-response","181","206582","0.0-5.0-1.58","LF","f208my9c1t","1536","864","0","1","0","5d920df12b679a00182bbc73","","null","","","","","","","learning/Slide59.JPG","null","","","","","",""
"html-keyboard-response","182","207602","0.0-5.0-2.58","LF","f208my9c1t","1536","864","0","1","0","5d920df12b679a00182bbc73","","null","","","learningBlock1","","","","<div style=""font-size:60px;""> </div>","null","LF","learning/Slide59.JPG","This is a dep:","","",""
"html-keyboard-response","183","208623","0.0-5.0-0.59","LF","f208my9c1t","1536","864","0","1","0","5d920df12b679a00182bbc73","","null","","","learningBlock1","","","","This is a wug:","null","","","","","",""
"image-keyboard-response","184","208963","0.0-5.0-1.59","LF","f208my9c1t","1536","864","0","1","0","5d920df12b679a00182bbc73","","null","","","","","","","learning/Slide60.JPG","null","","","","","",""
"html-keyboard-response","185","209982","0.0-5.0-2.59","LF","f208my9c1t","1536","864","0","1","0","5d920df12b679a00182bbc73","","null","","","learningBlock1","","","","<div style=""font-size:60px;""> </div>","null","LF","learning/Slide60.JPG","This is a wug:","","",""
"html-keyboard-response","186","211003","0.0-5.0-0.60","LF","f208my9c1t","1536","864","0","1","0","5d920df12b679a00182bbc73","","null","","","learningBlock1","","","","This is a bim:","null","","","","","",""
"image-keyboard-response","187","211343","0.0-5.0-1.60","LF","f208my9c1t","1536","864","0","1","0","5d920df12b679a00182bbc73","","null","","","","","","","learning/Slide61.JPG","null","","","","","",""
"html-keyboard-response","188","212363","0.0-5.0-2.60","LF","f208my9c1t","1536","864","0","1","0","5d920df12b679a00182bbc73","","null","","","learningBlock1","","","","<div style=""font-size:60px;""> </div>","null","LF","learning/Slide61.JPG","This is a bim:","","",""
"html-keyboard-response","189","213382","0.0-5.0-0.61","LF","f208my9c1t","1536","864","0","1","0","5d920df12b679a00182bbc73","","null","","","learningBlock1","","","","This is a dep:","null","","","","","",""
"image-keyboard-response","190","213722","0.0-5.0-1.61","LF","f208my9c1t","1536","864","0","1","0","5d920df12b679a00182bbc73","","null","","","","","","","learning/Slide62.JPG","null","","","","","",""
"html-keyboard-response","191","214743","0.0-5.0-2.61","LF","f208my9c1t","1536","864","0","1","0","5d920df12b679a00182bbc73","","null","","","learningBlock1","","","","<div style=""font-size:60px;""> </div>","null","LF","learning/Slide62.JPG","This is a dep:","","",""
"html-keyboard-response","192","215753","0.0-5.0-0.62","LF","f208my9c1t","1536","864","0","1","0","5d920df12b679a00182bbc73","","null","","","learningBlock1","","","","This is a bim:","null","","","","","",""
"image-keyboard-response","193","216093","0.0-5.0-1.62","LF","f208my9c1t","1536","864","0","1","0","5d920df12b679a00182bbc73","","null","","","","","","","learning/Slide63.JPG","null","","","","","",""
"html-keyboard-response","194","217112","0.0-5.0-2.62","LF","f208my9c1t","1536","864","0","1","0","5d920df12b679a00182bbc73","","null","","","learningBlock1","","","","<div style=""font-size:60px;""> </div>","null","LF","learning/Slide63.JPG","This is a bim:","","",""
"html-keyboard-response","195","218133","0.0-5.0-0.63","LF","f208my9c1t","1536","864","0","1","0","5d920df12b679a00182bbc73","","null","","","learningBlock1","","","","This is a tob:","null","","","","","",""
"image-keyboard-response","196","218482","0.0-5.0-1.63","LF","f208my9c1t","1536","864","0","1","0","5d920df12b679a00182bbc73","","null","","","","","","","learning/Slide64.JPG","null","","","","","",""
"html-keyboard-response","197","219493","0.0-5.0-2.63","LF","f208my9c1t","1536","864","0","1","0","5d920df12b679a00182bbc73","","null","","","learningBlock1","","","","<div style=""font-size:60px;""> </div>","null","LF","learning/Slide64.JPG","This is a tob:","","",""
"html-keyboard-response","198","220512","0.0-5.0-0.64","LF","f208my9c1t","1536","864","0","1","0","5d920df12b679a00182bbc73","","null","","","learningBlock1","","","","This is a wug:","null","","","","","",""
"image-keyboard-response","199","220853","0.0-5.0-1.64","LF","f208my9c1t","1536","864","0","1","0","5d920df12b679a00182bbc73","","null","","","","","","","learning/Slide65.JPG","null","","","","","",""
"html-keyboard-response","200","221872","0.0-5.0-2.64","LF","f208my9c1t","1536","864","0","1","0","5d920df12b679a00182bbc73","","null","","","learningBlock1","","","","<div style=""font-size:60px;""> </div>","null","LF","learning/Slide65.JPG","This is a wug:","","",""
"html-keyboard-response","201","222893","0.0-5.0-0.65","LF","f208my9c1t","1536","864","0","1","0","5d920df12b679a00182bbc73","","null","","","learningBlock1","","","","This is a dep:","null","","","","","",""
"image-keyboard-response","202","223233","0.0-5.0-1.65","LF","f208my9c1t","1536","864","0","1","0","5d920df12b679a00182bbc73","","null","","","","","","","learning/Slide66.JPG","null","","","","","",""
"html-keyboard-response","203","224253","0.0-5.0-2.65","LF","f208my9c1t","1536","864","0","1","0","5d920df12b679a00182bbc73","","null","","","learningBlock1","","","","<div style=""font-size:60px;""> </div>","null","LF","learning/Slide66.JPG","This is a dep:","","",""
"html-keyboard-response","204","225270","0.0-5.0-0.66","LF","f208my9c1t","1536","864","0","1","0","5d920df12b679a00182bbc73","","null","","","learningBlock1","","","","This is a tob:","null","","","","","",""
"image-keyboard-response","205","225612","0.0-5.0-1.66","LF","f208my9c1t","1536","864","0","1","0","5d920df12b679a00182bbc73","","null","","","","","","","learning/Slide67.JPG","null","","","","","",""
"html-keyboard-response","206","226632","0.0-5.0-2.66","LF","f208my9c1t","1536","864","0","1","0","5d920df12b679a00182bbc73","","null","","","learningBlock1","","","","<div style=""font-size:60px;""> </div>","null","LF","learning/Slide67.JPG","This is a tob:","","",""
"html-keyboard-response","207","227652","0.0-5.0-0.67","LF","f208my9c1t","1536","864","0","1","0","5d920df12b679a00182bbc73","","null","","","learningBlock1","","","","This is a wug:","null","","","","","",""
"image-keyboard-response","208","227993","0.0-5.0-1.67","LF","f208my9c1t","1536","864","0","1","0","5d920df12b679a00182bbc73","","null","","","","","","","learning/Slide68.JPG","null","","","","","",""
"html-keyboard-response","209","229013","0.0-5.0-2.67","LF","f208my9c1t","1536","864","0","1","0","5d920df12b679a00182bbc73","","null","","","learningBlock1","","","","<div style=""font-size:60px;""> </div>","null","LF","learning/Slide68.JPG","This is a wug:","","",""
"html-keyboard-response","210","230032","0.0-5.0-0.68","LF","f208my9c1t","1536","864","0","1","0","5d920df12b679a00182bbc73","","null","","","learningBlock1","","","","This is a tob:","null","","","","","",""
"image-keyboard-response","211","230372","0.0-5.0-1.68","LF","f208my9c1t","1536","864","0","1","0","5d920df12b679a00182bbc73","","null","","","","","","","learning/Slide69.JPG","null","","","","","",""
"html-keyboard-response","212","231392","0.0-5.0-2.68","LF","f208my9c1t","1536","864","0","1","0","5d920df12b679a00182bbc73","","null","","","learningBlock1","","","","<div style=""font-size:60px;""> </div>","null","LF","learning/Slide69.JPG","This is a tob:","","",""
"html-keyboard-response","213","232412","0.0-5.0-0.69","LF","f208my9c1t","1536","864","0","1","0","5d920df12b679a00182bbc73","","null","","","learningBlock1","","","","This is a dep:","null","","","","","",""
"image-keyboard-response","214","232753","0.0-5.0-1.69","LF","f208my9c1t","1536","864","0","1","0","5d920df12b679a00182bbc73","","null","","","","","","","learning/Slide70.JPG","null","","","","","",""
"html-keyboard-response","215","233773","0.0-5.0-2.69","LF","f208my9c1t","1536","864","0","1","0","5d920df12b679a00182bbc73","","null","","","learningBlock1","","","","<div style=""font-size:60px;""> </div>","null","LF","learning/Slide70.JPG","This is a dep:","","",""
"html-keyboard-response","216","234783","0.0-5.0-0.70","LF","f208my9c1t","1536","864","0","1","0","5d920df12b679a00182bbc73","","null","","","learningBlock1","","","","This is a wug:","null","","","","","",""
"image-keyboard-response","217","235122","0.0-5.0-1.70","LF","f208my9c1t","1536","864","0","1","0","5d920df12b679a00182bbc73","","null","","","","","","","learning/Slide71.JPG","null","","","","","",""
"html-keyboard-response","218","236143","0.0-5.0-2.70","LF","f208my9c1t","1536","864","0","1","0","5d920df12b679a00182bbc73","","null","","","learningBlock1","","","","<div style=""font-size:60px;""> </div>","null","LF","learning/Slide71.JPG","This is a wug:","","",""
"html-keyboard-response","219","237153","0.0-5.0-0.71","LF","f208my9c1t","1536","864","0","1","0","5d920df12b679a00182bbc73","","null","","","learningBlock1","","","","This is a bim:","null","","","","","",""
"image-keyboard-response","220","237493","0.0-5.0-1.71","LF","f208my9c1t","1536","864","0","1","0","5d920df12b679a00182bbc73","","null","","","","","","","learning/Slide72.JPG","null","","","","","",""
"html-keyboard-response","221","238511","0.0-5.0-2.71","LF","f208my9c1t","1536","864","0","1","0","5d920df12b679a00182bbc73","","null","","","learningBlock1","","","","<div style=""font-size:60px;""> </div>","null","LF","learning/Slide72.JPG","This is a bim:","","",""
"html-keyboard-response","222","239512","0.0-5.0-0.72","LF","f208my9c1t","1536","864","0","1","0","5d920df12b679a00182bbc73","","null","","","learningBlock1","","","","This is a wug:","null","","","","","",""
"image-keyboard-response","223","239853","0.0-5.0-1.72","LF","f208my9c1t","1536","864","0","1","0","5d920df12b679a00182bbc73","","null","","","","","","","learning/Slide73.JPG","null","","","","","",""
"html-keyboard-response","224","240873","0.0-5.0-2.72","LF","f208my9c1t","1536","864","0","1","0","5d920df12b679a00182bbc73","","null","","","learningBlock1","","","","<div style=""font-size:60px;""> </div>","null","LF","learning/Slide73.JPG","This is a wug:","","",""
"html-keyboard-response","225","241892","0.0-5.0-0.73","LF","f208my9c1t","1536","864","0","1","0","5d920df12b679a00182bbc73","","null","","","learningBlock1","","","","This is a dep:","null","","","","","",""
"image-keyboard-response","226","242232","0.0-5.0-1.73","LF","f208my9c1t","1536","864","0","1","0","5d920df12b679a00182bbc73","","null","","","","","","","learning/Slide74.JPG","null","","","","","",""
"html-keyboard-response","227","243253","0.0-5.0-2.73","LF","f208my9c1t","1536","864","0","1","0","5d920df12b679a00182bbc73","","null","","","learningBlock1","","","","<div style=""font-size:60px;""> </div>","null","LF","learning/Slide74.JPG","This is a dep:","","",""
"html-keyboard-response","228","244272","0.0-5.0-0.74","LF","f208my9c1t","1536","864","0","1","0","5d920df12b679a00182bbc73","","null","","","learningBlock1","","","","This is a tob:","null","","","","","",""
"image-keyboard-response","229","244612","0.0-5.0-1.74","LF","f208my9c1t","1536","864","0","1","0","5d920df12b679a00182bbc73","","null","","","","","","","learning/Slide75.JPG","null","","","","","",""
"html-keyboard-response","230","245632","0.0-5.0-2.74","LF","f208my9c1t","1536","864","0","1","0","5d920df12b679a00182bbc73","","null","","","learningBlock1","","","","<div style=""font-size:60px;""> </div>","null","LF","learning/Slide75.JPG","This is a tob:","","",""
"html-keyboard-response","231","246653","0.0-5.0-0.75","LF","f208my9c1t","1536","864","0","1","0","5d920df12b679a00182bbc73","","null","","","learningBlock1","","","","This is a bim:","null","","","","","",""
"image-keyboard-response","232","246993","0.0-5.0-1.75","LF","f208my9c1t","1536","864","0","1","0","5d920df12b679a00182bbc73","","null","","","","","","","learning/Slide76.JPG","null","","","","","",""
"html-keyboard-response","233","248013","0.0-5.0-2.75","LF","f208my9c1t","1536","864","0","1","0","5d920df12b679a00182bbc73","","null","","","learningBlock1","","","","<div style=""font-size:60px;""> </div>","null","LF","learning/Slide76.JPG","This is a bim:","","",""
"html-keyboard-response","234","249032","0.0-5.0-0.76","LF","f208my9c1t","1536","864","0","1","0","5d920df12b679a00182bbc73","","null","","","learningBlock1","","","","This is a tob:","null","","","","","",""
"image-keyboard-response","235","249372","0.0-5.0-1.76","LF","f208my9c1t","1536","864","0","1","0","5d920df12b679a00182bbc73","","null","","","","","","","learning/Slide77.JPG","null","","","","","",""
"html-keyboard-response","236","250392","0.0-5.0-2.76","LF","f208my9c1t","1536","864","0","1","0","5d920df12b679a00182bbc73","","null","","","learningBlock1","","","","<div style=""font-size:60px;""> </div>","null","LF","learning/Slide77.JPG","This is a tob:","","",""
"html-keyboard-response","237","251403","0.0-5.0-0.77","LF","f208my9c1t","1536","864","0","1","0","5d920df12b679a00182bbc73","","null","","","learningBlock1","","","","This is a wug:","null","","","","","",""
"image-keyboard-response","238","251753","0.0-5.0-1.77","LF","f208my9c1t","1536","864","0","1","0","5d920df12b679a00182bbc73","","null","","","","","","","learning/Slide78.JPG","null","","","","","",""
"html-keyboard-response","239","252773","0.0-5.0-2.77","LF","f208my9c1t","1536","864","0","1","0","5d920df12b679a00182bbc73","","null","","","learningBlock1","","","","<div style=""font-size:60px;""> </div>","null","LF","learning/Slide78.JPG","This is a wug:","","",""
"html-keyboard-response","240","253792","0.0-5.0-0.78","LF","f208my9c1t","1536","864","0","1","0","5d920df12b679a00182bbc73","","null","","","learningBlock1","","","","This is a bim:","null","","","","","",""
"image-keyboard-response","241","254131","0.0-5.0-1.78","LF","f208my9c1t","1536","864","0","1","0","5d920df12b679a00182bbc73","","null","","","","","","","learning/Slide79.JPG","null","","","","","",""
"html-keyboard-response","242","255132","0.0-5.0-2.78","LF","f208my9c1t","1536","864","0","1","0","5d920df12b679a00182bbc73","","null","","","learningBlock1","","","","<div style=""font-size:60px;""> </div>","null","LF","learning/Slide79.JPG","This is a bim:","","",""
"html-keyboard-response","243","256143","0.0-5.0-0.79","LF","f208my9c1t","1536","864","0","1","0","5d920df12b679a00182bbc73","","null","","","learningBlock1","","","","This is a tob:","null","","","","","",""
"image-keyboard-response","244","256482","0.0-5.0-1.79","LF","f208my9c1t","1536","864","0","1","0","5d920df12b679a00182bbc73","","null","","","","","","","learning/Slide80.JPG","null","","","","","",""
"html-keyboard-response","245","257502","0.0-5.0-2.79","LF","f208my9c1t","1536","864","0","1","0","5d920df12b679a00182bbc73","","null","","","learningBlock1","","","","<div style=""font-size:60px;""> </div>","null","LF","learning/Slide80.JPG","This is a tob:","","",""
"instructions","246","272734","0.0-6.0","LF","f208my9c1t","1536","864","0","1","0","5d920df12b679a00182bbc73","","NA","","[{""page_index"":0,""viewing_time"":15231}]","instructions","","","","","","","","","","",""
"html-keyboard-response","247","273753","0.0-7.0-0.0","LF","f208my9c1t","1536","864","0","1","0","5d920df12b679a00182bbc73","","null","","","learningBlock2","","","","This is a wug:","null","","","","","",""
"image-keyboard-response","248","274093","0.0-7.0-1.0","LF","f208my9c1t","1536","864","0","1","0","5d920df12b679a00182bbc73","","null","","","","","","","learning/Slide81.JPG","null","","","","","",""
"html-keyboard-response","249","275102","0.0-7.0-2.0","LF","f208my9c1t","1536","864","0","1","0","5d920df12b679a00182bbc73","","null","","","learningBlock2","","","","<div style=""font-size:60px;""> </div>","null","LF","learning/Slide81.JPG","This is a wug:","","",""
"html-keyboard-response","250","276112","0.0-7.0-0.1","LF","f208my9c1t","1536","864","0","1","0","5d920df12b679a00182bbc73","","null","","","learningBlock2","","","","This is a bim:","null","","","","","",""
"image-keyboard-response","251","276453","0.0-7.0-1.1","LF","f208my9c1t","1536","864","0","1","0","5d920df12b679a00182bbc73","","null","","","","","","","learning/Slide82.JPG","null","","","","","",""
"html-keyboard-response","252","277463","0.0-7.0-2.1","LF","f208my9c1t","1536","864","0","1","0","5d920df12b679a00182bbc73","","null","","","learningBlock2","","","","<div style=""font-size:60px;""> </div>","null","LF","learning/Slide82.JPG","This is a bim:","","",""
"html-keyboard-response","253","278473","0.0-7.0-0.2","LF","f208my9c1t","1536","864","0","1","0","5d920df12b679a00182bbc73","","null","","","learningBlock2","","","","This is a wug:","null","","","","","",""
"image-keyboard-response","254","278812","0.0-7.0-1.2","LF","f208my9c1t","1536","864","0","1","0","5d920df12b679a00182bbc73","","null","","","","","","","learning/Slide83.JPG","null","","","","","",""
"html-keyboard-response","255","279832","0.0-7.0-2.2","LF","f208my9c1t","1536","864","0","1","0","5d920df12b679a00182bbc73","","null","","","learningBlock2","","","","<div style=""font-size:60px;""> </div>","null","LF","learning/Slide83.JPG","This is a wug:","","",""
"html-keyboard-response","256","280853","0.0-7.0-0.3","LF","f208my9c1t","1536","864","0","1","0","5d920df12b679a00182bbc73","","null","","","learningBlock2","","","","This is a dep:","null","","","","","",""
"image-keyboard-response","257","281193","0.0-7.0-1.3","LF","f208my9c1t","1536","864","0","1","0","5d920df12b679a00182bbc73","","null","","","","","","","learning/Slide84.JPG","null","","","","","",""
"html-keyboard-response","258","282214","0.0-7.0-2.3","LF","f208my9c1t","1536","864","0","1","0","5d920df12b679a00182bbc73","","null","","","learningBlock2","","","","<div style=""font-size:60px;""> </div>","null","LF","learning/Slide84.JPG","This is a dep:","","",""
"html-keyboard-response","259","283233","0.0-7.0-0.4","LF","f208my9c1t","1536","864","0","1","0","5d920df12b679a00182bbc73","","null","","","learningBlock2","","","","This is a bim:","null","","","","","",""
"image-keyboard-response","260","283572","0.0-7.0-1.4","LF","f208my9c1t","1536","864","0","1","0","5d920df12b679a00182bbc73","","null","","","","","","","learning/Slide85.JPG","null","","","","","",""
"html-keyboard-response","261","284593","0.0-7.0-2.4","LF","f208my9c1t","1536","864","0","1","0","5d920df12b679a00182bbc73","","null","","","learningBlock2","","","","<div style=""font-size:60px;""> </div>","null","LF","learning/Slide85.JPG","This is a bim:","","",""
"html-keyboard-response","262","285613","0.0-7.0-0.5","LF","f208my9c1t","1536","864","0","1","0","5d920df12b679a00182bbc73","","null","","","learningBlock2","","","","This is a tob:","null","","","","","",""
"image-keyboard-response","263","285952","0.0-7.0-1.5","LF","f208my9c1t","1536","864","0","1","0","5d920df12b679a00182bbc73","","null","","","","","","","learning/Slide86.JPG","null","","","","","",""
"html-keyboard-response","264","286972","0.0-7.0-2.5","LF","f208my9c1t","1536","864","0","1","0","5d920df12b679a00182bbc73","","null","","","learningBlock2","","","","<div style=""font-size:60px;""> </div>","null","LF","learning/Slide86.JPG","This is a tob:","","",""
"html-keyboard-response","265","287993","0.0-7.0-0.6","LF","f208my9c1t","1536","864","0","1","0","5d920df12b679a00182bbc73","","null","","","learningBlock2","","","","This is a wug:","null","","","","","",""
"image-keyboard-response","266","288333","0.0-7.0-1.6","LF","f208my9c1t","1536","864","0","1","0","5d920df12b679a00182bbc73","","null","","","","","","","learning/Slide87.JPG","null","","","","","",""
"html-keyboard-response","267","289353","0.0-7.0-2.6","LF","f208my9c1t","1536","864","0","1","0","5d920df12b679a00182bbc73","","null","","","learningBlock2","","","","<div style=""font-size:60px;""> </div>","null","LF","learning/Slide87.JPG","This is a wug:","","",""
"html-keyboard-response","268","290372","0.0-7.0-0.7","LF","f208my9c1t","1536","864","0","1","0","5d920df12b679a00182bbc73","","null","","","learningBlock2","","","","This is a tob:","null","","","","","",""
"image-keyboard-response","269","290713","0.0-7.0-1.7","LF","f208my9c1t","1536","864","0","1","0","5d920df12b679a00182bbc73","","null","","","","","","","learning/Slide88.JPG","null","","","","","",""
"html-keyboard-response","270","291733","0.0-7.0-2.7","LF","f208my9c1t","1536","864","0","1","0","5d920df12b679a00182bbc73","","null","","","learningBlock2","","","","<div style=""font-size:60px;""> </div>","null","LF","learning/Slide88.JPG","This is a tob:","","",""
"html-keyboard-response","271","292753","0.0-7.0-0.8","LF","f208my9c1t","1536","864","0","1","0","5d920df12b679a00182bbc73","","null","","","learningBlock2","","","","This is a bim:","null","","","","","",""
"image-keyboard-response","272","293093","0.0-7.0-1.8","LF","f208my9c1t","1536","864","0","1","0","5d920df12b679a00182bbc73","","null","","","","","","","learning/Slide89.JPG","null","","","","","",""
"html-keyboard-response","273","294103","0.0-7.0-2.8","LF","f208my9c1t","1536","864","0","1","0","5d920df12b679a00182bbc73","","null","","","learningBlock2","","","","<div style=""font-size:60px;""> </div>","null","LF","learning/Slide89.JPG","This is a bim:","","",""
"html-keyboard-response","274","295122","0.0-7.0-0.9","LF","f208my9c1t","1536","864","0","1","0","5d920df12b679a00182bbc73","","null","","","learningBlock2","","","","This is a dep:","null","","","","","",""
"image-keyboard-response","275","295462","0.0-7.0-1.9","LF","f208my9c1t","1536","864","0","1","0","5d920df12b679a00182bbc73","","null","","","","","","","learning/Slide90.JPG","null","","","","","",""
"html-keyboard-response","276","296473","0.0-7.0-2.9","LF","f208my9c1t","1536","864","0","1","0","5d920df12b679a00182bbc73","","null","","","learningBlock2","","","","<div style=""font-size:60px;""> </div>","null","LF","learning/Slide90.JPG","This is a dep:","","",""
"html-keyboard-response","277","297493","0.0-7.0-0.10","LF","f208my9c1t","1536","864","0","1","0","5d920df12b679a00182bbc73","","null","","","learningBlock2","","","","This is a wug:","null","","","","","",""
"image-keyboard-response","278","297832","0.0-7.0-1.10","LF","f208my9c1t","1536","864","0","1","0","5d920df12b679a00182bbc73","","null","","","","","","","learning/Slide91.JPG","null","","","","","",""
"html-keyboard-response","279","298853","0.0-7.0-2.10","LF","f208my9c1t","1536","864","0","1","0","5d920df12b679a00182bbc73","","null","","","learningBlock2","","","","<div style=""font-size:60px;""> </div>","null","LF","learning/Slide91.JPG","This is a wug:","","",""
"html-keyboard-response","280","299872","0.0-7.0-0.11","LF","f208my9c1t","1536","864","0","1","0","5d920df12b679a00182bbc73","","null","","","learningBlock2","","","","This is a tob:","null","","","","","",""
"image-keyboard-response","281","300213","0.0-7.0-1.11","LF","f208my9c1t","1536","864","0","1","0","5d920df12b679a00182bbc73","","null","","","","","","","learning/Slide92.JPG","null","","","","","",""
"html-keyboard-response","282","301222","0.0-7.0-2.11","LF","f208my9c1t","1536","864","0","1","0","5d920df12b679a00182bbc73","","null","","","learningBlock2","","","","<div style=""font-size:60px;""> </div>","null","LF","learning/Slide92.JPG","This is a tob:","","",""
"html-keyboard-response","283","302233","0.0-7.0-0.12","LF","f208my9c1t","1536","864","0","1","0","5d920df12b679a00182bbc73","","null","","","learningBlock2","","","","This is a bim:","null","","","","","",""
"image-keyboard-response","284","302573","0.0-7.0-1.12","LF","f208my9c1t","1536","864","0","1","0","5d920df12b679a00182bbc73","","null","","","","","","","learning/Slide93.JPG","null","","","","","",""
"html-keyboard-response","285","303592","0.0-7.0-2.12","LF","f208my9c1t","1536","864","0","1","0","5d920df12b679a00182bbc73","","null","","","learningBlock2","","","","<div style=""font-size:60px;""> </div>","null","LF","learning/Slide93.JPG","This is a bim:","","",""
"html-keyboard-response","286","304613","0.0-7.0-0.13","LF","f208my9c1t","1536","864","0","1","0","5d920df12b679a00182bbc73","","null","","","learningBlock2","","","","This is a tob:","null","","","","","",""
"image-keyboard-response","287","304952","0.0-7.0-1.13","LF","f208my9c1t","1536","864","0","1","0","5d920df12b679a00182bbc73","","null","","","","","","","learning/Slide94.JPG","null","","","","","",""
"html-keyboard-response","288","305973","0.0-7.0-2.13","LF","f208my9c1t","1536","864","0","1","0","5d920df12b679a00182bbc73","","null","","","learningBlock2","","","","<div style=""font-size:60px;""> </div>","null","LF","learning/Slide94.JPG","This is a tob:","","",""
"html-keyboard-response","289","306993","0.0-7.0-0.14","LF","f208my9c1t","1536","864","0","1","0","5d920df12b679a00182bbc73","","null","","","learningBlock2","","","","This is a wug:","null","","","","","",""
"image-keyboard-response","290","307333","0.0-7.0-1.14","LF","f208my9c1t","1536","864","0","1","0","5d920df12b679a00182bbc73","","null","","","","","","","learning/Slide95.JPG","null","","","","","",""
"html-keyboard-response","291","308342","0.0-7.0-2.14","LF","f208my9c1t","1536","864","0","1","0","5d920df12b679a00182bbc73","","null","","","learningBlock2","","","","<div style=""font-size:60px;""> </div>","null","LF","learning/Slide95.JPG","This is a wug:","","",""
"html-keyboard-response","292","309353","0.0-7.0-0.15","LF","f208my9c1t","1536","864","0","1","0","5d920df12b679a00182bbc73","","null","","","learningBlock2","","","","This is a tob:","null","","","","","",""
"image-keyboard-response","293","309693","0.0-7.0-1.15","LF","f208my9c1t","1536","864","0","1","0","5d920df12b679a00182bbc73","","null","","","","","","","learning/Slide96.JPG","null","","","","","",""
"html-keyboard-response","294","310703","0.0-7.0-2.15","LF","f208my9c1t","1536","864","0","1","0","5d920df12b679a00182bbc73","","null","","","learningBlock2","","","","<div style=""font-size:60px;""> </div>","null","LF","learning/Slide96.JPG","This is a tob:","","",""
"html-keyboard-response","295","311722","0.0-7.0-0.16","LF","f208my9c1t","1536","864","0","1","0","5d920df12b679a00182bbc73","","null","","","learningBlock2","","","","This is a dep:","null","","","","","",""
"image-keyboard-response","296","312063","0.0-7.0-1.16","LF","f208my9c1t","1536","864","0","1","0","5d920df12b679a00182bbc73","","null","","","","","","","learning/Slide97.JPG","null","","","","","",""
"html-keyboard-response","297","313083","0.0-7.0-2.16","LF","f208my9c1t","1536","864","0","1","0","5d920df12b679a00182bbc73","","null","","","learningBlock2","","","","<div style=""font-size:60px;""> </div>","null","LF","learning/Slide97.JPG","This is a dep:","","",""
"html-keyboard-response","298","314103","0.0-7.0-0.17","LF","f208my9c1t","1536","864","0","1","0","5d920df12b679a00182bbc73","","null","","","learningBlock2","","","","This is a bim:","null","","","","","",""
"image-keyboard-response","299","314443","0.0-7.0-1.17","LF","f208my9c1t","1536","864","0","1","0","5d920df12b679a00182bbc73","","null","","","","","","","learning/Slide98.JPG","null","","","","","",""
"html-keyboard-response","300","315453","0.0-7.0-2.17","LF","f208my9c1t","1536","864","0","1","0","5d920df12b679a00182bbc73","","null","","","learningBlock2","","","","<div style=""font-size:60px;""> </div>","null","LF","learning/Slide98.JPG","This is a bim:","","",""
"html-keyboard-response","301","316472","0.0-7.0-0.18","LF","f208my9c1t","1536","864","0","1","0","5d920df12b679a00182bbc73","","null","","","learningBlock2","","","","This is a dep:","null","","","","","",""
"image-keyboard-response","302","316813","0.0-7.0-1.18","LF","f208my9c1t","1536","864","0","1","0","5d920df12b679a00182bbc73","","null","","","","","","","learning/Slide99.JPG","null","","","","","",""
"html-keyboard-response","303","317823","0.0-7.0-2.18","LF","f208my9c1t","1536","864","0","1","0","5d920df12b679a00182bbc73","","null","","","learningBlock2","","","","<div style=""font-size:60px;""> </div>","null","LF","learning/Slide99.JPG","This is a dep:","","",""
"html-keyboard-response","304","318843","0.0-7.0-0.19","LF","f208my9c1t","1536","864","0","1","0","5d920df12b679a00182bbc73","","null","","","learningBlock2","","","","This is a bim:","null","","","","","",""
"image-keyboard-response","305","319181","0.0-7.0-1.19","LF","f208my9c1t","1536","864","0","1","0","5d920df12b679a00182bbc73","","null","","","","","","","learning/Slide100.JPG","null","","","","","",""
"html-keyboard-response","306","320203","0.0-7.0-2.19","LF","f208my9c1t","1536","864","0","1","0","5d920df12b679a00182bbc73","","null","","","learningBlock2","","","","<div style=""font-size:60px;""> </div>","null","LF","learning/Slide100.JPG","This is a bim:","","",""
"html-keyboard-response","307","321213","0.0-7.0-0.20","LF","f208my9c1t","1536","864","0","1","0","5d920df12b679a00182bbc73","","null","","","learningBlock2","","","","This is a tob:","null","","","","","",""
"image-keyboard-response","308","321552","0.0-7.0-1.20","LF","f208my9c1t","1536","864","0","1","0","5d920df12b679a00182bbc73","","null","","","","","","","learning/Slide101.JPG","null","","","","","",""
"html-keyboard-response","309","322573","0.0-7.0-2.20","LF","f208my9c1t","1536","864","0","1","0","5d920df12b679a00182bbc73","","null","","","learningBlock2","","","","<div style=""font-size:60px;""> </div>","null","LF","learning/Slide101.JPG","This is a tob:","","",""
"html-keyboard-response","310","323589","0.0-7.0-0.21","LF","f208my9c1t","1536","864","0","1","0","5d920df12b679a00182bbc73","","null","","","learningBlock2","","","","This is a bim:","null","","","","","",""
"image-keyboard-response","311","323932","0.0-7.0-1.21","LF","f208my9c1t","1536","864","0","1","0","5d920df12b679a00182bbc73","","null","","","","","","","learning/Slide102.JPG","null","","","","","",""
"html-keyboard-response","312","324953","0.0-7.0-2.21","LF","f208my9c1t","1536","864","0","1","0","5d920df12b679a00182bbc73","","null","","","learningBlock2","","","","<div style=""font-size:60px;""> </div>","null","LF","learning/Slide102.JPG","This is a bim:","","",""
"html-keyboard-response","313","325963","0.0-7.0-0.22","LF","f208my9c1t","1536","864","0","1","0","5d920df12b679a00182bbc73","","null","","","learningBlock2","","","","This is a dep:","null","","","","","",""
"image-keyboard-response","314","326303","0.0-7.0-1.22","LF","f208my9c1t","1536","864","0","1","0","5d920df12b679a00182bbc73","","null","","","","","","","learning/Slide103.JPG","null","","","","","",""
"html-keyboard-response","315","327323","0.0-7.0-2.22","LF","f208my9c1t","1536","864","0","1","0","5d920df12b679a00182bbc73","","null","","","learningBlock2","","","","<div style=""font-size:60px;""> </div>","null","LF","learning/Slide103.JPG","This is a dep:","","",""
"html-keyboard-response","316","328343","0.0-7.0-0.23","LF","f208my9c1t","1536","864","0","1","0","5d920df12b679a00182bbc73","","null","","","learningBlock2","","","","This is a tob:","null","","","","","",""
"image-keyboard-response","317","328683","0.0-7.0-1.23","LF","f208my9c1t","1536","864","0","1","0","5d920df12b679a00182bbc73","","null","","","","","","","learning/Slide104.JPG","null","","","","","",""
"html-keyboard-response","318","329703","0.0-7.0-2.23","LF","f208my9c1t","1536","864","0","1","0","5d920df12b679a00182bbc73","","null","","","learningBlock2","","","","<div style=""font-size:60px;""> </div>","null","LF","learning/Slide104.JPG","This is a tob:","","",""
"html-keyboard-response","319","330723","0.0-7.0-0.24","LF","f208my9c1t","1536","864","0","1","0","5d920df12b679a00182bbc73","","null","","","learningBlock2","","","","This is a dep:","null","","","","","",""
"image-keyboard-response","320","331063","0.0-7.0-1.24","LF","f208my9c1t","1536","864","0","1","0","5d920df12b679a00182bbc73","","null","","","","","","","learning/Slide105.JPG","null","","","","","",""
"html-keyboard-response","321","332083","0.0-7.0-2.24","LF","f208my9c1t","1536","864","0","1","0","5d920df12b679a00182bbc73","","null","","","learningBlock2","","","","<div style=""font-size:60px;""> </div>","null","LF","learning/Slide105.JPG","This is a dep:","","",""
"html-keyboard-response","322","333103","0.0-7.0-0.25","LF","f208my9c1t","1536","864","0","1","0","5d920df12b679a00182bbc73","","null","","","learningBlock2","","","","This is a wug:","null","","","","","",""
"image-keyboard-response","323","333443","0.0-7.0-1.25","LF","f208my9c1t","1536","864","0","1","0","5d920df12b679a00182bbc73","","null","","","","","","","learning/Slide106.JPG","null","","","","","",""
"html-keyboard-response","324","334463","0.0-7.0-2.25","LF","f208my9c1t","1536","864","0","1","0","5d920df12b679a00182bbc73","","null","","","learningBlock2","","","","<div style=""font-size:60px;""> </div>","null","LF","learning/Slide106.JPG","This is a wug:","","",""
"html-keyboard-response","325","335482","0.0-7.0-0.26","LF","f208my9c1t","1536","864","0","1","0","5d920df12b679a00182bbc73","","null","","","learningBlock2","","","","This is a bim:","null","","","","","",""
"image-keyboard-response","326","335822","0.0-7.0-1.26","LF","f208my9c1t","1536","864","0","1","0","5d920df12b679a00182bbc73","","null","","","","","","","learning/Slide107.JPG","null","","","","","",""
"html-keyboard-response","327","336842","0.0-7.0-2.26","LF","f208my9c1t","1536","864","0","1","0","5d920df12b679a00182bbc73","","null","","","learningBlock2","","","","<div style=""font-size:60px;""> </div>","null","LF","learning/Slide107.JPG","This is a bim:","","",""
"html-keyboard-response","328","337863","0.0-7.0-0.27","LF","f208my9c1t","1536","864","0","1","0","5d920df12b679a00182bbc73","","null","","","learningBlock2","","","","This is a dep:","null","","","","","",""
"image-keyboard-response","329","338202","0.0-7.0-1.27","LF","f208my9c1t","1536","864","0","1","0","5d920df12b679a00182bbc73","","null","","","","","","","learning/Slide108.JPG","null","","","","","",""
"html-keyboard-response","330","339222","0.0-7.0-2.27","LF","f208my9c1t","1536","864","0","1","0","5d920df12b679a00182bbc73","","null","","","learningBlock2","","","","<div style=""font-size:60px;""> </div>","null","LF","learning/Slide108.JPG","This is a dep:","","",""
"html-keyboard-response","331","340243","0.0-7.0-0.28","LF","f208my9c1t","1536","864","0","1","0","5d920df12b679a00182bbc73","","null","","","learningBlock2","","","","This is a wug:","null","","","","","",""
"image-keyboard-response","332","340583","0.0-7.0-1.28","LF","f208my9c1t","1536","864","0","1","0","5d920df12b679a00182bbc73","","null","","","","","","","learning/Slide109.JPG","null","","","","","",""
"html-keyboard-response","333","341602","0.0-7.0-2.28","LF","f208my9c1t","1536","864","0","1","0","5d920df12b679a00182bbc73","","null","","","learningBlock2","","","","<div style=""font-size:60px;""> </div>","null","LF","learning/Slide109.JPG","This is a wug:","","",""
"html-keyboard-response","334","342622","0.0-7.0-0.29","LF","f208my9c1t","1536","864","0","1","0","5d920df12b679a00182bbc73","","null","","","learningBlock2","","","","This is a bim:","null","","","","","",""
"image-keyboard-response","335","342962","0.0-7.0-1.29","LF","f208my9c1t","1536","864","0","1","0","5d920df12b679a00182bbc73","","null","","","","","","","learning/Slide110.JPG","null","","","","","",""
"html-keyboard-response","336","343984","0.0-7.0-2.29","LF","f208my9c1t","1536","864","0","1","0","5d920df12b679a00182bbc73","","null","","","learningBlock2","","","","<div style=""font-size:60px;""> </div>","null","LF","learning/Slide110.JPG","This is a bim:","","",""
"html-keyboard-response","337","345003","0.0-7.0-0.30","LF","f208my9c1t","1536","864","0","1","0","5d920df12b679a00182bbc73","","null","","","learningBlock2","","","","This is a tob:","null","","","","","",""
"image-keyboard-response","338","345343","0.0-7.0-1.30","LF","f208my9c1t","1536","864","0","1","0","5d920df12b679a00182bbc73","","null","","","","","","","learning/Slide111.JPG","null","","","","","",""
"html-keyboard-response","339","346361","0.0-7.0-2.30","LF","f208my9c1t","1536","864","0","1","0","5d920df12b679a00182bbc73","","null","","","learningBlock2","","","","<div style=""font-size:60px;""> </div>","null","LF","learning/Slide111.JPG","This is a tob:","","",""
"html-keyboard-response","340","347363","0.0-7.0-0.31","LF","f208my9c1t","1536","864","0","1","0","5d920df12b679a00182bbc73","","null","","","learningBlock2","","","","This is a wug:","null","","","","","",""
"image-keyboard-response","341","347703","0.0-7.0-1.31","LF","f208my9c1t","1536","864","0","1","0","5d920df12b679a00182bbc73","","null","","","","","","","learning/Slide112.JPG","null","","","","","",""
"html-keyboard-response","342","348722","0.0-7.0-2.31","LF","f208my9c1t","1536","864","0","1","0","5d920df12b679a00182bbc73","","null","","","learningBlock2","","","","<div style=""font-size:60px;""> </div>","null","LF","learning/Slide112.JPG","This is a wug:","","",""
"html-keyboard-response","343","349743","0.0-7.0-0.32","LF","f208my9c1t","1536","864","0","1","0","5d920df12b679a00182bbc73","","null","","","learningBlock2","","","","This is a tob:","null","","","","","",""
"image-keyboard-response","344","350083","0.0-7.0-1.32","LF","f208my9c1t","1536","864","0","1","0","5d920df12b679a00182bbc73","","null","","","","","","","learning/Slide113.JPG","null","","","","","",""
"html-keyboard-response","345","351102","0.0-7.0-2.32","LF","f208my9c1t","1536","864","0","1","0","5d920df12b679a00182bbc73","","null","","","learningBlock2","","","","<div style=""font-size:60px;""> </div>","null","LF","learning/Slide113.JPG","This is a tob:","","",""
"html-keyboard-response","346","352122","0.0-7.0-0.33","LF","f208my9c1t","1536","864","0","1","0","5d920df12b679a00182bbc73","","null","","","learningBlock2","","","","This is a wug:","null","","","","","",""
"image-keyboard-response","347","352463","0.0-7.0-1.33","LF","f208my9c1t","1536","864","0","1","0","5d920df12b679a00182bbc73","","null","","","","","","","learning/Slide114.JPG","null","","","","","",""
"html-keyboard-response","348","353482","0.0-7.0-2.33","LF","f208my9c1t","1536","864","0","1","0","5d920df12b679a00182bbc73","","null","","","learningBlock2","","","","<div style=""font-size:60px;""> </div>","null","LF","learning/Slide114.JPG","This is a wug:","","",""
"html-keyboard-response","349","354502","0.0-7.0-0.34","LF","f208my9c1t","1536","864","0","1","0","5d920df12b679a00182bbc73","","null","","","learningBlock2","","","","This is a bim:","null","","","","","",""
"image-keyboard-response","350","354842","0.0-7.0-1.34","LF","f208my9c1t","1536","864","0","1","0","5d920df12b679a00182bbc73","","null","","","","","","","learning/Slide115.JPG","null","","","","","",""
"html-keyboard-response","351","355862","0.0-7.0-2.34","LF","f208my9c1t","1536","864","0","1","0","5d920df12b679a00182bbc73","","null","","","learningBlock2","","","","<div style=""font-size:60px;""> </div>","null","LF","learning/Slide115.JPG","This is a bim:","","",""
"html-keyboard-response","352","356880","0.0-7.0-0.35","LF","f208my9c1t","1536","864","0","1","0","5d920df12b679a00182bbc73","","null","","","learningBlock2","","","","This is a dep:","null","","","","","",""
"image-keyboard-response","353","357222","0.0-7.0-1.35","LF","f208my9c1t","1536","864","0","1","0","5d920df12b679a00182bbc73","","null","","","","","","","learning/Slide116.JPG","null","","","","","",""
"html-keyboard-response","354","358242","0.0-7.0-2.35","LF","f208my9c1t","1536","864","0","1","0","5d920df12b679a00182bbc73","","null","","","learningBlock2","","","","<div style=""font-size:60px;""> </div>","null","LF","learning/Slide116.JPG","This is a dep:","","",""
"html-keyboard-response","355","359263","0.0-7.0-0.36","LF","f208my9c1t","1536","864","0","1","0","5d920df12b679a00182bbc73","","null","","","learningBlock2","","","","This is a tob:","null","","","","","",""
"image-keyboard-response","356","359602","0.0-7.0-1.36","LF","f208my9c1t","1536","864","0","1","0","5d920df12b679a00182bbc73","","null","","","","","","","learning/Slide117.JPG","null","","","","","",""
"html-keyboard-response","357","360622","0.0-7.0-2.36","LF","f208my9c1t","1536","864","0","1","0","5d920df12b679a00182bbc73","","null","","","learningBlock2","","","","<div style=""font-size:60px;""> </div>","null","LF","learning/Slide117.JPG","This is a tob:","","",""
"html-keyboard-response","358","361642","0.0-7.0-0.37","LF","f208my9c1t","1536","864","0","1","0","5d920df12b679a00182bbc73","","null","","","learningBlock2","","","","This is a dep:","null","","","","","",""
"image-keyboard-response","359","361983","0.0-7.0-1.37","LF","f208my9c1t","1536","864","0","1","0","5d920df12b679a00182bbc73","","null","","","","","","","learning/Slide118.JPG","null","","","","","",""
"html-keyboard-response","360","363002","0.0-7.0-2.37","LF","f208my9c1t","1536","864","0","1","0","5d920df12b679a00182bbc73","","null","","","learningBlock2","","","","<div style=""font-size:60px;""> </div>","null","LF","learning/Slide118.JPG","This is a dep:","","",""
"html-keyboard-response","361","364023","0.0-7.0-0.38","LF","f208my9c1t","1536","864","0","1","0","5d920df12b679a00182bbc73","","null","","","learningBlock2","","","","This is a wug:","null","","","","","",""
"image-keyboard-response","362","364362","0.0-7.0-1.38","LF","f208my9c1t","1536","864","0","1","0","5d920df12b679a00182bbc73","","null","","","","","","","learning/Slide119.JPG","null","","","","","",""
"html-keyboard-response","363","365383","0.0-7.0-2.38","LF","f208my9c1t","1536","864","0","1","0","5d920df12b679a00182bbc73","","null","","","learningBlock2","","","","<div style=""font-size:60px;""> </div>","null","LF","learning/Slide119.JPG","This is a wug:","","",""
"html-keyboard-response","364","366393","0.0-7.0-0.39","LF","f208my9c1t","1536","864","0","1","0","5d920df12b679a00182bbc73","","null","","","learningBlock2","","","","This is a dep:","null","","","","","",""
"image-keyboard-response","365","366733","0.0-7.0-1.39","LF","f208my9c1t","1536","864","0","1","0","5d920df12b679a00182bbc73","","null","","","","","","","learning/Slide120.JPG","null","","","","","",""
"html-keyboard-response","366","367752","0.0-7.0-2.39","LF","f208my9c1t","1536","864","0","1","0","5d920df12b679a00182bbc73","","null","","","learningBlock2","","","","<div style=""font-size:60px;""> </div>","null","LF","learning/Slide120.JPG","This is a dep:","","",""
"html-keyboard-response","367","368773","0.0-7.0-0.40","LF","f208my9c1t","1536","864","0","1","0","5d920df12b679a00182bbc73","","null","","","learningBlock2","","","","This is a bim:","null","","","","","",""
"image-keyboard-response","368","369113","0.0-7.0-1.40","LF","f208my9c1t","1536","864","0","1","0","5d920df12b679a00182bbc73","","null","","","","","","","learning/Slide121.JPG","null","","","","","",""
"html-keyboard-response","369","370133","0.0-7.0-2.40","LF","f208my9c1t","1536","864","0","1","0","5d920df12b679a00182bbc73","","null","","","learningBlock2","","","","<div style=""font-size:60px;""> </div>","null","LF","learning/Slide121.JPG","This is a bim:","","",""
"html-keyboard-response","370","371153","0.0-7.0-0.41","LF","f208my9c1t","1536","864","0","1","0","5d920df12b679a00182bbc73","","null","","","learningBlock2","","","","This is a wug:","null","","","","","",""
"image-keyboard-response","371","371492","0.0-7.0-1.41","LF","f208my9c1t","1536","864","0","1","0","5d920df12b679a00182bbc73","","null","","","","","","","learning/Slide122.JPG","null","","","","","",""
"html-keyboard-response","372","372513","0.0-7.0-2.41","LF","f208my9c1t","1536","864","0","1","0","5d920df12b679a00182bbc73","","null","","","learningBlock2","","","","<div style=""font-size:60px;""> </div>","null","LF","learning/Slide122.JPG","This is a wug:","","",""
"html-keyboard-response","373","373533","0.0-7.0-0.42","LF","f208my9c1t","1536","864","0","1","0","5d920df12b679a00182bbc73","","null","","","learningBlock2","","","","This is a bim:","null","","","","","",""
"image-keyboard-response","374","373873","0.0-7.0-1.42","LF","f208my9c1t","1536","864","0","1","0","5d920df12b679a00182bbc73","","null","","","","","","","learning/Slide123.JPG","null","","","","","",""
"html-keyboard-response","375","374882","0.0-7.0-2.42","LF","f208my9c1t","1536","864","0","1","0","5d920df12b679a00182bbc73","","null","","","learningBlock2","","","","<div style=""font-size:60px;""> </div>","null","LF","learning/Slide123.JPG","This is a bim:","","",""
"html-keyboard-response","376","375893","0.0-7.0-0.43","LF","f208my9c1t","1536","864","0","1","0","5d920df12b679a00182bbc73","","null","","","learningBlock2","","","","This is a tob:","null","","","","","",""
"image-keyboard-response","377","376232","0.0-7.0-1.43","LF","f208my9c1t","1536","864","0","1","0","5d920df12b679a00182bbc73","","null","","","","","","","learning/Slide124.JPG","null","","","","","",""
"html-keyboard-response","378","377252","0.0-7.0-2.43","LF","f208my9c1t","1536","864","0","1","0","5d920df12b679a00182bbc73","","null","","","learningBlock2","","","","<div style=""font-size:60px;""> </div>","null","LF","learning/Slide124.JPG","This is a tob:","","",""
"html-keyboard-response","379","378273","0.0-7.0-0.44","LF","f208my9c1t","1536","864","0","1","0","5d920df12b679a00182bbc73","","null","","","learningBlock2","","","","This is a bim:","null","","","","","",""
"image-keyboard-response","380","378612","0.0-7.0-1.44","LF","f208my9c1t","1536","864","0","1","0","5d920df12b679a00182bbc73","","null","","","","","","","learning/Slide125.JPG","null","","","","","",""
"html-keyboard-response","381","379633","0.0-7.0-2.44","LF","f208my9c1t","1536","864","0","1","0","5d920df12b679a00182bbc73","","null","","","learningBlock2","","","","<div style=""font-size:60px;""> </div>","null","LF","learning/Slide125.JPG","This is a bim:","","",""
"html-keyboard-response","382","380653","0.0-7.0-0.45","LF","f208my9c1t","1536","864","0","1","0","5d920df12b679a00182bbc73","","null","","","learningBlock2","","","","This is a tob:","null","","","","","",""
"image-keyboard-response","383","380993","0.0-7.0-1.45","LF","f208my9c1t","1536","864","0","1","0","5d920df12b679a00182bbc73","","null","","","","","","","learning/Slide126.JPG","null","","","","","",""
"html-keyboard-response","384","382012","0.0-7.0-2.45","LF","f208my9c1t","1536","864","0","1","0","5d920df12b679a00182bbc73","","null","","","learningBlock2","","","","<div style=""font-size:60px;""> </div>","null","LF","learning/Slide126.JPG","This is a tob:","","",""
"html-keyboard-response","385","383033","0.0-7.0-0.46","LF","f208my9c1t","1536","864","0","1","0","5d920df12b679a00182bbc73","","null","","","learningBlock2","","","","This is a dep:","null","","","","","",""
"image-keyboard-response","386","383373","0.0-7.0-1.46","LF","f208my9c1t","1536","864","0","1","0","5d920df12b679a00182bbc73","","null","","","","","","","learning/Slide127.JPG","null","","","","","",""
"html-keyboard-response","387","384392","0.0-7.0-2.46","LF","f208my9c1t","1536","864","0","1","0","5d920df12b679a00182bbc73","","null","","","learningBlock2","","","","<div style=""font-size:60px;""> </div>","null","LF","learning/Slide127.JPG","This is a dep:","","",""
"html-keyboard-response","388","385413","0.0-7.0-0.47","LF","f208my9c1t","1536","864","0","1","0","5d920df12b679a00182bbc73","","null","","","learningBlock2","","","","This is a wug:","null","","","","","",""
"image-keyboard-response","389","385752","0.0-7.0-1.47","LF","f208my9c1t","1536","864","0","1","0","5d920df12b679a00182bbc73","","null","","","","","","","learning/Slide128.JPG","null","","","","","",""
"html-keyboard-response","390","386772","0.0-7.0-2.47","LF","f208my9c1t","1536","864","0","1","0","5d920df12b679a00182bbc73","","null","","","learningBlock2","","","","<div style=""font-size:60px;""> </div>","null","LF","learning/Slide128.JPG","This is a wug:","","",""
"html-keyboard-response","391","387793","0.0-7.0-0.48","LF","f208my9c1t","1536","864","0","1","0","5d920df12b679a00182bbc73","","null","","","learningBlock2","","","","This is a tob:","null","","","","","",""
"image-keyboard-response","392","388133","0.0-7.0-1.48","LF","f208my9c1t","1536","864","0","1","0","5d920df12b679a00182bbc73","","null","","","","","","","learning/Slide129.JPG","null","","","","","",""
"html-keyboard-response","393","389148","0.0-7.0-2.48","LF","f208my9c1t","1536","864","0","1","0","5d920df12b679a00182bbc73","","null","","","learningBlock2","","","","<div style=""font-size:60px;""> </div>","null","LF","learning/Slide129.JPG","This is a tob:","","",""
"html-keyboard-response","394","390150","0.0-7.0-0.49","LF","f208my9c1t","1536","864","0","1","0","5d920df12b679a00182bbc73","","null","","","learningBlock2","","","","This is a wug:","null","","","","","",""
"image-keyboard-response","395","390492","0.0-7.0-1.49","LF","f208my9c1t","1536","864","0","1","0","5d920df12b679a00182bbc73","","null","","","","","","","learning/Slide130.JPG","null","","","","","",""
"html-keyboard-response","396","391512","0.0-7.0-2.49","LF","f208my9c1t","1536","864","0","1","0","5d920df12b679a00182bbc73","","null","","","learningBlock2","","","","<div style=""font-size:60px;""> </div>","null","LF","learning/Slide130.JPG","This is a wug:","","",""
"html-keyboard-response","397","392525","0.0-7.0-0.50","LF","f208my9c1t","1536","864","0","1","0","5d920df12b679a00182bbc73","","null","","","learningBlock2","","","","This is a bim:","null","","","","","",""
"image-keyboard-response","398","392863","0.0-7.0-1.50","LF","f208my9c1t","1536","864","0","1","0","5d920df12b679a00182bbc73","","null","","","","","","","learning/Slide131.JPG","null","","","","","",""
"html-keyboard-response","399","393883","0.0-7.0-2.50","LF","f208my9c1t","1536","864","0","1","0","5d920df12b679a00182bbc73","","null","","","learningBlock2","","","","<div style=""font-size:60px;""> </div>","null","LF","learning/Slide131.JPG","This is a bim:","","",""
"html-keyboard-response","400","394903","0.0-7.0-0.51","LF","f208my9c1t","1536","864","0","1","0","5d920df12b679a00182bbc73","","null","","","learningBlock2","","","","This is a dep:","null","","","","","",""
"image-keyboard-response","401","395243","0.0-7.0-1.51","LF","f208my9c1t","1536","864","0","1","0","5d920df12b679a00182bbc73","","null","","","","","","","learning/Slide132.JPG","null","","","","","",""
"html-keyboard-response","402","396253","0.0-7.0-2.51","LF","f208my9c1t","1536","864","0","1","0","5d920df12b679a00182bbc73","","null","","","learningBlock2","","","","<div style=""font-size:60px;""> </div>","null","LF","learning/Slide132.JPG","This is a dep:","","",""
"html-keyboard-response","403","397273","0.0-7.0-0.52","LF","f208my9c1t","1536","864","0","1","0","5d920df12b679a00182bbc73","","null","","","learningBlock2","","","","This is a tob:","null","","","","","",""
"image-keyboard-response","404","397612","0.0-7.0-1.52","LF","f208my9c1t","1536","864","0","1","0","5d920df12b679a00182bbc73","","null","","","","","","","learning/Slide133.JPG","null","","","","","",""
"html-keyboard-response","405","398632","0.0-7.0-2.52","LF","f208my9c1t","1536","864","0","1","0","5d920df12b679a00182bbc73","","null","","","learningBlock2","","","","<div style=""font-size:60px;""> </div>","null","LF","learning/Slide133.JPG","This is a tob:","","",""
"html-keyboard-response","406","399653","0.0-7.0-0.53","LF","f208my9c1t","1536","864","0","1","0","5d920df12b679a00182bbc73","","null","","","learningBlock2","","","","This is a dep:","null","","","","","",""
"image-keyboard-response","407","399992","0.0-7.0-1.53","LF","f208my9c1t","1536","864","0","1","0","5d920df12b679a00182bbc73","","null","","","","","","","learning/Slide134.JPG","null","","","","","",""
"html-keyboard-response","408","401013","0.0-7.0-2.53","LF","f208my9c1t","1536","864","0","1","0","5d920df12b679a00182bbc73","","null","","","learningBlock2","","","","<div style=""font-size:60px;""> </div>","null","LF","learning/Slide134.JPG","This is a dep:","","",""
"html-keyboard-response","409","402032","0.0-7.0-0.54","LF","f208my9c1t","1536","864","0","1","0","5d920df12b679a00182bbc73","","null","","","learningBlock2","","","","This is a tob:","null","","","","","",""
"image-keyboard-response","410","402373","0.0-7.0-1.54","LF","f208my9c1t","1536","864","0","1","0","5d920df12b679a00182bbc73","","null","","","","","","","learning/Slide135.JPG","null","","","","","",""
"html-keyboard-response","411","403393","0.0-7.0-2.54","LF","f208my9c1t","1536","864","0","1","0","5d920df12b679a00182bbc73","","null","","","learningBlock2","","","","<div style=""font-size:60px;""> </div>","null","LF","learning/Slide135.JPG","This is a tob:","","",""
"html-keyboard-response","412","404412","0.0-7.0-0.55","LF","f208my9c1t","1536","864","0","1","0","5d920df12b679a00182bbc73","","null","","","learningBlock2","","","","This is a wug:","null","","","","","",""
"image-keyboard-response","413","404752","0.0-7.0-1.55","LF","f208my9c1t","1536","864","0","1","0","5d920df12b679a00182bbc73","","null","","","","","","","learning/Slide136.JPG","null","","","","","",""
"html-keyboard-response","414","405772","0.0-7.0-2.55","LF","f208my9c1t","1536","864","0","1","0","5d920df12b679a00182bbc73","","null","","","learningBlock2","","","","<div style=""font-size:60px;""> </div>","null","LF","learning/Slide136.JPG","This is a wug:","","",""
"html-keyboard-response","415","406792","0.0-7.0-0.56","LF","f208my9c1t","1536","864","0","1","0","5d920df12b679a00182bbc73","","null","","","learningBlock2","","","","This is a tob:","null","","","","","",""
"image-keyboard-response","416","407133","0.0-7.0-1.56","LF","f208my9c1t","1536","864","0","1","0","5d920df12b679a00182bbc73","","null","","","","","","","learning/Slide137.JPG","null","","","","","",""
"html-keyboard-response","417","408142","0.0-7.0-2.56","LF","f208my9c1t","1536","864","0","1","0","5d920df12b679a00182bbc73","","null","","","learningBlock2","","","","<div style=""font-size:60px;""> </div>","null","LF","learning/Slide137.JPG","This is a tob:","","",""
"html-keyboard-response","418","409153","0.0-7.0-0.57","LF","f208my9c1t","1536","864","0","1","0","5d920df12b679a00182bbc73","","null","","","learningBlock2","","","","This is a bim:","null","","","","","",""
"image-keyboard-response","419","409493","0.0-7.0-1.57","LF","f208my9c1t","1536","864","0","1","0","5d920df12b679a00182bbc73","","null","","","","","","","learning/Slide138.JPG","null","","","","","",""
"html-keyboard-response","420","410503","0.0-7.0-2.57","LF","f208my9c1t","1536","864","0","1","0","5d920df12b679a00182bbc73","","null","","","learningBlock2","","","","<div style=""font-size:60px;""> </div>","null","LF","learning/Slide138.JPG","This is a bim:","","",""
"html-keyboard-response","421","411512","0.0-7.0-0.58","LF","f208my9c1t","1536","864","0","1","0","5d920df12b679a00182bbc73","","null","","","learningBlock2","","","","This is a wug:","null","","","","","",""
"image-keyboard-response","422","411853","0.0-7.0-1.58","LF","f208my9c1t","1536","864","0","1","0","5d920df12b679a00182bbc73","","null","","","","","","","learning/Slide139.JPG","null","","","","","",""
"html-keyboard-response","423","412873","0.0-7.0-2.58","LF","f208my9c1t","1536","864","0","1","0","5d920df12b679a00182bbc73","","null","","","learningBlock2","","","","<div style=""font-size:60px;""> </div>","null","LF","learning/Slide139.JPG","This is a wug:","","",""
"html-keyboard-response","424","413893","0.0-7.0-0.59","LF","f208my9c1t","1536","864","0","1","0","5d920df12b679a00182bbc73","","null","","","learningBlock2","","","","This is a dep:","null","","","","","",""
"image-keyboard-response","425","414232","0.0-7.0-1.59","LF","f208my9c1t","1536","864","0","1","0","5d920df12b679a00182bbc73","","null","","","","","","","learning/Slide140.JPG","null","","","","","",""
"html-keyboard-response","426","415252","0.0-7.0-2.59","LF","f208my9c1t","1536","864","0","1","0","5d920df12b679a00182bbc73","","null","","","learningBlock2","","","","<div style=""font-size:60px;""> </div>","null","LF","learning/Slide140.JPG","This is a dep:","","",""
"html-keyboard-response","427","416263","0.0-7.0-0.60","LF","f208my9c1t","1536","864","0","1","0","5d920df12b679a00182bbc73","","null","","","learningBlock2","","","","This is a tob:","null","","","","","",""
"image-keyboard-response","428","416603","0.0-7.0-1.60","LF","f208my9c1t","1536","864","0","1","0","5d920df12b679a00182bbc73","","null","","","","","","","learning/Slide141.JPG","null","","","","","",""
"html-keyboard-response","429","417613","0.0-7.0-2.60","LF","f208my9c1t","1536","864","0","1","0","5d920df12b679a00182bbc73","","null","","","learningBlock2","","","","<div style=""font-size:60px;""> </div>","null","LF","learning/Slide141.JPG","This is a tob:","","",""
"html-keyboard-response","430","418633","0.0-7.0-0.61","LF","f208my9c1t","1536","864","0","1","0","5d920df12b679a00182bbc73","","null","","","learningBlock2","","","","This is a wug:","null","","","","","",""
"image-keyboard-response","431","418973","0.0-7.0-1.61","LF","f208my9c1t","1536","864","0","1","0","5d920df12b679a00182bbc73","","null","","","","","","","learning/Slide142.JPG","null","","","","","",""
"html-keyboard-response","432","419993","0.0-7.0-2.61","LF","f208my9c1t","1536","864","0","1","0","5d920df12b679a00182bbc73","","null","","","learningBlock2","","","","<div style=""font-size:60px;""> </div>","null","LF","learning/Slide142.JPG","This is a wug:","","",""
"html-keyboard-response","433","421003","0.0-7.0-0.62","LF","f208my9c1t","1536","864","0","1","0","5d920df12b679a00182bbc73","","null","","","learningBlock2","","","","This is a bim:","null","","","","","",""
"image-keyboard-response","434","421343","0.0-7.0-1.62","LF","f208my9c1t","1536","864","0","1","0","5d920df12b679a00182bbc73","","null","","","","","","","learning/Slide143.JPG","null","","","","","",""
"html-keyboard-response","435","422362","0.0-7.0-2.62","LF","f208my9c1t","1536","864","0","1","0","5d920df12b679a00182bbc73","","null","","","learningBlock2","","","","<div style=""font-size:60px;""> </div>","null","LF","learning/Slide143.JPG","This is a bim:","","",""
"html-keyboard-response","436","423373","0.0-7.0-0.63","LF","f208my9c1t","1536","864","0","1","0","5d920df12b679a00182bbc73","","null","","","learningBlock2","","","","This is a dep:","null","","","","","",""
"image-keyboard-response","437","423712","0.0-7.0-1.63","LF","f208my9c1t","1536","864","0","1","0","5d920df12b679a00182bbc73","","null","","","","","","","learning/Slide144.JPG","null","","","","","",""
"html-keyboard-response","438","424731","0.0-7.0-2.63","LF","f208my9c1t","1536","864","0","1","0","5d920df12b679a00182bbc73","","null","","","learningBlock2","","","","<div style=""font-size:60px;""> </div>","null","LF","learning/Slide144.JPG","This is a dep:","","",""
