"trial_type","trial_index","time_elapsed","internal_node_id","condition","subject","screen_width","screen_height","attention","distraction","conscientious","prolificID","success","rt","url","view_history","test_part","final_height_px","final_width_px","scale_factor","stimulus","key_press","learningType","presentedImage","presentedLabel","button_pressed","response","responses"
"pavlovia","0","67","0.0-0.0","FL","hc4uh4u04h","1366","768","0","1","0","5f5d6c3cbacc025bf0a03440","","","","","","","","","","","","","","","",""
"fullscreen","1","7608","0.0-1.0","FL","hc4uh4u04h","1366","768","0","1","0","5f5d6c3cbacc025bf0a03440","true","","","","","","","","","","","","","","",""
"external-html","2","37918","0.0-2.0-0.0","FL","hc4uh4u04h","1366","768","0","1","0","5f5d6c3cbacc025bf0a03440","","30046.360000036657","text/information_english.html","","","","","","","","","","","","",""
"external-html","3","77046","0.0-2.0-1.0","FL","hc4uh4u04h","1366","768","0","1","0","5f5d6c3cbacc025bf0a03440","","38916.484999936074","text/consent_english.html","","","","","","","","","","","","",""
"instructions","4","94006","0.0-3.0","FL","hc4uh4u04h","1366","768","0","1","0","5f5d6c3cbacc025bf0a03440","","NA","","[{""page_index"":0,""viewing_time"":4197.380000026897},{""page_index"":1,""viewing_time"":12759.649999905378}]","instructions","","","","","","","","","","",""
"resize","5","153988","0.0-4.0","FL","hc4uh4u04h","1366","768","0","1","0","5f5d6c3cbacc025bf0a03440","","","","","","","356","2.2603174603174603","","","","","","","",""
"image-keyboard-response","6","154167","0.0-5.0-0.0","FL","hc4uh4u04h","1366","768","0","1","0","5f5d6c3cbacc025bf0a03440","","null","","","","","","","learning/Slide1.JPG","null","","","","","",""
"html-keyboard-response","7","155321","0.0-5.0-1.0","FL","hc4uh4u04h","1366","768","0","1","0","5f5d6c3cbacc025bf0a03440","","null","","","learningBlock1","","","","That was a tob.","null","","","","","",""
"html-keyboard-response","8","156323","0.0-5.0-2.0","FL","hc4uh4u04h","1366","768","0","1","0","5f5d6c3cbacc025bf0a03440","","null","","","learningBlock1","","","","<div style=""font-size:60px;""> </div>","null","FL","learning/Slide1.JPG","That was a tob.","","",""
"image-keyboard-response","9","156501","0.0-5.0-0.1","FL","hc4uh4u04h","1366","768","0","1","0","5f5d6c3cbacc025bf0a03440","","null","","","","","","","learning/Slide2.JPG","null","","","","","",""
"html-keyboard-response","10","157654","0.0-5.0-1.1","FL","hc4uh4u04h","1366","768","0","1","0","5f5d6c3cbacc025bf0a03440","","null","","","learningBlock1","","","","That was a wug.","null","","","","","",""
"html-keyboard-response","11","158657","0.0-5.0-2.1","FL","hc4uh4u04h","1366","768","0","1","0","5f5d6c3cbacc025bf0a03440","","null","","","learningBlock1","","","","<div style=""font-size:60px;""> </div>","null","FL","learning/Slide2.JPG","That was a wug.","","",""
"image-keyboard-response","12","158834","0.0-5.0-0.2","FL","hc4uh4u04h","1366","768","0","1","0","5f5d6c3cbacc025bf0a03440","","null","","","","","","","learning/Slide3.JPG","null","","","","","",""
"html-keyboard-response","13","159987","0.0-5.0-1.2","FL","hc4uh4u04h","1366","768","0","1","0","5f5d6c3cbacc025bf0a03440","","null","","","learningBlock1","","","","That was a bim.","null","","","","","",""
"html-keyboard-response","14","160989","0.0-5.0-2.2","FL","hc4uh4u04h","1366","768","0","1","0","5f5d6c3cbacc025bf0a03440","","null","","","learningBlock1","","","","<div style=""font-size:60px;""> </div>","null","FL","learning/Slide3.JPG","That was a bim.","","",""
"image-keyboard-response","15","161166","0.0-5.0-0.3","FL","hc4uh4u04h","1366","768","0","1","0","5f5d6c3cbacc025bf0a03440","","null","","","","","","","learning/Slide4.JPG","null","","","","","",""
"html-keyboard-response","16","162318","0.0-5.0-1.3","FL","hc4uh4u04h","1366","768","0","1","0","5f5d6c3cbacc025bf0a03440","","null","","","learningBlock1","","","","That was a dep.","null","","","","","",""
"html-keyboard-response","17","163321","0.0-5.0-2.3","FL","hc4uh4u04h","1366","768","0","1","0","5f5d6c3cbacc025bf0a03440","","null","","","learningBlock1","","","","<div style=""font-size:60px;""> </div>","null","FL","learning/Slide4.JPG","That was a dep.","","",""
"image-keyboard-response","18","163498","0.0-5.0-0.4","FL","hc4uh4u04h","1366","768","0","1","0","5f5d6c3cbacc025bf0a03440","","null","","","","","","","learning/Slide5.JPG","null","","","","","",""
"html-keyboard-response","19","164651","0.0-5.0-1.4","FL","hc4uh4u04h","1366","768","0","1","0","5f5d6c3cbacc025bf0a03440","","null","","","learningBlock1","","","","That was a wug.","null","","","","","",""
"html-keyboard-response","20","165653","0.0-5.0-2.4","FL","hc4uh4u04h","1366","768","0","1","0","5f5d6c3cbacc025bf0a03440","","null","","","learningBlock1","","","","<div style=""font-size:60px;""> </div>","null","FL","learning/Slide5.JPG","That was a wug.","","",""
"image-keyboard-response","21","165831","0.0-5.0-0.5","FL","hc4uh4u04h","1366","768","0","1","0","5f5d6c3cbacc025bf0a03440","","null","","","","","","","learning/Slide6.JPG","null","","","","","",""
"html-keyboard-response","22","166983","0.0-5.0-1.5","FL","hc4uh4u04h","1366","768","0","1","0","5f5d6c3cbacc025bf0a03440","","null","","","learningBlock1","","","","That was a dep.","null","","","","","",""
"html-keyboard-response","23","167985","0.0-5.0-2.5","FL","hc4uh4u04h","1366","768","0","1","0","5f5d6c3cbacc025bf0a03440","","null","","","learningBlock1","","","","<div style=""font-size:60px;""> </div>","null","FL","learning/Slide6.JPG","That was a dep.","","",""
"image-keyboard-response","24","168162","0.0-5.0-0.6","FL","hc4uh4u04h","1366","768","0","1","0","5f5d6c3cbacc025bf0a03440","","null","","","","","","","learning/Slide7.JPG","null","","","","","",""
"html-keyboard-response","25","169315","0.0-5.0-1.6","FL","hc4uh4u04h","1366","768","0","1","0","5f5d6c3cbacc025bf0a03440","","null","","","learningBlock1","","","","That was a wug.","null","","","","","",""
"html-keyboard-response","26","170318","0.0-5.0-2.6","FL","hc4uh4u04h","1366","768","0","1","0","5f5d6c3cbacc025bf0a03440","","null","","","learningBlock1","","","","<div style=""font-size:60px;""> </div>","null","FL","learning/Slide7.JPG","That was a wug.","","",""
"image-keyboard-response","27","170495","0.0-5.0-0.7","FL","hc4uh4u04h","1366","768","0","1","0","5f5d6c3cbacc025bf0a03440","","null","","","","","","","learning/Slide8.JPG","null","","","","","",""
"html-keyboard-response","28","171647","0.0-5.0-1.7","FL","hc4uh4u04h","1366","768","0","1","0","5f5d6c3cbacc025bf0a03440","","null","","","learningBlock1","","","","That was a bim.","null","","","","","",""
"html-keyboard-response","29","172649","0.0-5.0-2.7","FL","hc4uh4u04h","1366","768","0","1","0","5f5d6c3cbacc025bf0a03440","","null","","","learningBlock1","","","","<div style=""font-size:60px;""> </div>","null","FL","learning/Slide8.JPG","That was a bim.","","",""
"image-keyboard-response","30","172826","0.0-5.0-0.8","FL","hc4uh4u04h","1366","768","0","1","0","5f5d6c3cbacc025bf0a03440","","null","","","","","","","learning/Slide9.JPG","null","","","","","",""
"html-keyboard-response","31","173978","0.0-5.0-1.8","FL","hc4uh4u04h","1366","768","0","1","0","5f5d6c3cbacc025bf0a03440","","null","","","learningBlock1","","","","That was a wug.","null","","","","","",""
"html-keyboard-response","32","174981","0.0-5.0-2.8","FL","hc4uh4u04h","1366","768","0","1","0","5f5d6c3cbacc025bf0a03440","","null","","","learningBlock1","","","","<div style=""font-size:60px;""> </div>","null","FL","learning/Slide9.JPG","That was a wug.","","",""
"image-keyboard-response","33","175158","0.0-5.0-0.9","FL","hc4uh4u04h","1366","768","0","1","0","5f5d6c3cbacc025bf0a03440","","null","","","","","","","learning/Slide10.JPG","null","","","","","",""
"html-keyboard-response","34","176311","0.0-5.0-1.9","FL","hc4uh4u04h","1366","768","0","1","0","5f5d6c3cbacc025bf0a03440","","null","","","learningBlock1","","","","That was a dep.","null","","","","","",""
"html-keyboard-response","35","177314","0.0-5.0-2.9","FL","hc4uh4u04h","1366","768","0","1","0","5f5d6c3cbacc025bf0a03440","","null","","","learningBlock1","","","","<div style=""font-size:60px;""> </div>","null","FL","learning/Slide10.JPG","That was a dep.","","",""
"image-keyboard-response","36","177491","0.0-5.0-0.10","FL","hc4uh4u04h","1366","768","0","1","0","5f5d6c3cbacc025bf0a03440","","null","","","","","","","learning/Slide11.JPG","null","","","","","",""
"html-keyboard-response","37","178645","0.0-5.0-1.10","FL","hc4uh4u04h","1366","768","0","1","0","5f5d6c3cbacc025bf0a03440","","null","","","learningBlock1","","","","That was a tob.","null","","","","","",""
"html-keyboard-response","38","179647","0.0-5.0-2.10","FL","hc4uh4u04h","1366","768","0","1","0","5f5d6c3cbacc025bf0a03440","","null","","","learningBlock1","","","","<div style=""font-size:60px;""> </div>","null","FL","learning/Slide11.JPG","That was a tob.","","",""
"image-keyboard-response","39","179826","0.0-5.0-0.11","FL","hc4uh4u04h","1366","768","0","1","0","5f5d6c3cbacc025bf0a03440","","null","","","","","","","learning/Slide12.JPG","null","","","","","",""
"html-keyboard-response","40","180979","0.0-5.0-1.11","FL","hc4uh4u04h","1366","768","0","1","0","5f5d6c3cbacc025bf0a03440","","null","","","learningBlock1","","","","That was a dep.","null","","","","","",""
"html-keyboard-response","41","181981","0.0-5.0-2.11","FL","hc4uh4u04h","1366","768","0","1","0","5f5d6c3cbacc025bf0a03440","","null","","","learningBlock1","","","","<div style=""font-size:60px;""> </div>","null","FL","learning/Slide12.JPG","That was a dep.","","",""
"image-keyboard-response","42","182158","0.0-5.0-0.12","FL","hc4uh4u04h","1366","768","0","1","0","5f5d6c3cbacc025bf0a03440","","null","","","","","","","learning/Slide13.JPG","null","","","","","",""
"html-keyboard-response","43","183310","0.0-5.0-1.12","FL","hc4uh4u04h","1366","768","0","1","0","5f5d6c3cbacc025bf0a03440","","null","","","learningBlock1","","","","That was a bim.","null","","","","","",""
"html-keyboard-response","44","184312","0.0-5.0-2.12","FL","hc4uh4u04h","1366","768","0","1","0","5f5d6c3cbacc025bf0a03440","","null","","","learningBlock1","","","","<div style=""font-size:60px;""> </div>","null","FL","learning/Slide13.JPG","That was a bim.","","",""
"image-keyboard-response","45","184490","0.0-5.0-0.13","FL","hc4uh4u04h","1366","768","0","1","0","5f5d6c3cbacc025bf0a03440","","null","","","","","","","learning/Slide14.JPG","null","","","","","",""
"html-keyboard-response","46","185641","0.0-5.0-1.13","FL","hc4uh4u04h","1366","768","0","1","0","5f5d6c3cbacc025bf0a03440","","null","","","learningBlock1","","","","That was a wug.","null","","","","","",""
"html-keyboard-response","47","186643","0.0-5.0-2.13","FL","hc4uh4u04h","1366","768","0","1","0","5f5d6c3cbacc025bf0a03440","","null","","","learningBlock1","","","","<div style=""font-size:60px;""> </div>","null","FL","learning/Slide14.JPG","That was a wug.","","",""
"image-keyboard-response","48","186820","0.0-5.0-0.14","FL","hc4uh4u04h","1366","768","0","1","0","5f5d6c3cbacc025bf0a03440","","null","","","","","","","learning/Slide15.JPG","null","","","","","",""
"html-keyboard-response","49","187973","0.0-5.0-1.14","FL","hc4uh4u04h","1366","768","0","1","0","5f5d6c3cbacc025bf0a03440","","null","","","learningBlock1","","","","That was a tob.","null","","","","","",""
"html-keyboard-response","50","188976","0.0-5.0-2.14","FL","hc4uh4u04h","1366","768","0","1","0","5f5d6c3cbacc025bf0a03440","","null","","","learningBlock1","","","","<div style=""font-size:60px;""> </div>","null","FL","learning/Slide15.JPG","That was a tob.","","",""
"image-keyboard-response","51","189152","0.0-5.0-0.15","FL","hc4uh4u04h","1366","768","0","1","0","5f5d6c3cbacc025bf0a03440","","null","","","","","","","learning/Slide16.JPG","null","","","","","",""
"html-keyboard-response","52","190305","0.0-5.0-1.15","FL","hc4uh4u04h","1366","768","0","1","0","5f5d6c3cbacc025bf0a03440","","null","","","learningBlock1","","","","That was a dep.","null","","","","","",""
"html-keyboard-response","53","191307","0.0-5.0-2.15","FL","hc4uh4u04h","1366","768","0","1","0","5f5d6c3cbacc025bf0a03440","","null","","","learningBlock1","","","","<div style=""font-size:60px;""> </div>","null","FL","learning/Slide16.JPG","That was a dep.","","",""
"image-keyboard-response","54","191484","0.0-5.0-0.16","FL","hc4uh4u04h","1366","768","0","1","0","5f5d6c3cbacc025bf0a03440","","null","","","","","","","learning/Slide17.JPG","null","","","","","",""
"html-keyboard-response","55","192636","0.0-5.0-1.16","FL","hc4uh4u04h","1366","768","0","1","0","5f5d6c3cbacc025bf0a03440","","null","","","learningBlock1","","","","That was a bim.","null","","","","","",""
"html-keyboard-response","56","193639","0.0-5.0-2.16","FL","hc4uh4u04h","1366","768","0","1","0","5f5d6c3cbacc025bf0a03440","","null","","","learningBlock1","","","","<div style=""font-size:60px;""> </div>","null","FL","learning/Slide17.JPG","That was a bim.","","",""
"image-keyboard-response","57","193816","0.0-5.0-0.17","FL","hc4uh4u04h","1366","768","0","1","0","5f5d6c3cbacc025bf0a03440","","null","","","","","","","learning/Slide18.JPG","null","","","","","",""
"html-keyboard-response","58","194969","0.0-5.0-1.17","FL","hc4uh4u04h","1366","768","0","1","0","5f5d6c3cbacc025bf0a03440","","null","","","learningBlock1","","","","That was a tob.","null","","","","","",""
"html-keyboard-response","59","195971","0.0-5.0-2.17","FL","hc4uh4u04h","1366","768","0","1","0","5f5d6c3cbacc025bf0a03440","","null","","","learningBlock1","","","","<div style=""font-size:60px;""> </div>","null","FL","learning/Slide18.JPG","That was a tob.","","",""
"image-keyboard-response","60","196149","0.0-5.0-0.18","FL","hc4uh4u04h","1366","768","0","1","0","5f5d6c3cbacc025bf0a03440","","null","","","","","","","learning/Slide19.JPG","null","","","","","",""
"html-keyboard-response","61","197302","0.0-5.0-1.18","FL","hc4uh4u04h","1366","768","0","1","0","5f5d6c3cbacc025bf0a03440","","null","","","learningBlock1","","","","That was a wug.","null","","","","","",""
"html-keyboard-response","62","198304","0.0-5.0-2.18","FL","hc4uh4u04h","1366","768","0","1","0","5f5d6c3cbacc025bf0a03440","","null","","","learningBlock1","","","","<div style=""font-size:60px;""> </div>","null","FL","learning/Slide19.JPG","That was a wug.","","",""
"image-keyboard-response","63","198480","0.0-5.0-0.19","FL","hc4uh4u04h","1366","768","0","1","0","5f5d6c3cbacc025bf0a03440","","null","","","","","","","learning/Slide20.JPG","null","","","","","",""
"html-keyboard-response","64","199633","0.0-5.0-1.19","FL","hc4uh4u04h","1366","768","0","1","0","5f5d6c3cbacc025bf0a03440","","null","","","learningBlock1","","","","That was a bim.","null","","","","","",""
"html-keyboard-response","65","200635","0.0-5.0-2.19","FL","hc4uh4u04h","1366","768","0","1","0","5f5d6c3cbacc025bf0a03440","","null","","","learningBlock1","","","","<div style=""font-size:60px;""> </div>","null","FL","learning/Slide20.JPG","That was a bim.","","",""
"image-keyboard-response","66","200813","0.0-5.0-0.20","FL","hc4uh4u04h","1366","768","0","1","0","5f5d6c3cbacc025bf0a03440","","null","","","","","","","learning/Slide21.JPG","null","","","","","",""
"html-keyboard-response","67","201966","0.0-5.0-1.20","FL","hc4uh4u04h","1366","768","0","1","0","5f5d6c3cbacc025bf0a03440","","null","","","learningBlock1","","","","That was a dep.","null","","","","","",""
"html-keyboard-response","68","202969","0.0-5.0-2.20","FL","hc4uh4u04h","1366","768","0","1","0","5f5d6c3cbacc025bf0a03440","","null","","","learningBlock1","","","","<div style=""font-size:60px;""> </div>","null","FL","learning/Slide21.JPG","That was a dep.","","",""
"image-keyboard-response","69","203150","0.0-5.0-0.21","FL","hc4uh4u04h","1366","768","0","1","0","5f5d6c3cbacc025bf0a03440","","null","","","","","","","learning/Slide22.JPG","null","","","","","",""
"html-keyboard-response","70","204303","0.0-5.0-1.21","FL","hc4uh4u04h","1366","768","0","1","0","5f5d6c3cbacc025bf0a03440","","null","","","learningBlock1","","","","That was a bim.","null","","","","","",""
"html-keyboard-response","71","205304","0.0-5.0-2.21","FL","hc4uh4u04h","1366","768","0","1","0","5f5d6c3cbacc025bf0a03440","","null","","","learningBlock1","","","","<div style=""font-size:60px;""> </div>","null","FL","learning/Slide22.JPG","That was a bim.","","",""
"image-keyboard-response","72","205481","0.0-5.0-0.22","FL","hc4uh4u04h","1366","768","0","1","0","5f5d6c3cbacc025bf0a03440","","null","","","","","","","learning/Slide23.JPG","null","","","","","",""
"html-keyboard-response","73","206633","0.0-5.0-1.22","FL","hc4uh4u04h","1366","768","0","1","0","5f5d6c3cbacc025bf0a03440","","null","","","learningBlock1","","","","That was a tob.","null","","","","","",""
"html-keyboard-response","74","207635","0.0-5.0-2.22","FL","hc4uh4u04h","1366","768","0","1","0","5f5d6c3cbacc025bf0a03440","","null","","","learningBlock1","","","","<div style=""font-size:60px;""> </div>","null","FL","learning/Slide23.JPG","That was a tob.","","",""
"image-keyboard-response","75","207812","0.0-5.0-0.23","FL","hc4uh4u04h","1366","768","0","1","0","5f5d6c3cbacc025bf0a03440","","null","","","","","","","learning/Slide24.JPG","null","","","","","",""
"html-keyboard-response","76","208965","0.0-5.0-1.23","FL","hc4uh4u04h","1366","768","0","1","0","5f5d6c3cbacc025bf0a03440","","null","","","learningBlock1","","","","That was a wug.","null","","","","","",""
"html-keyboard-response","77","209966","0.0-5.0-2.23","FL","hc4uh4u04h","1366","768","0","1","0","5f5d6c3cbacc025bf0a03440","","null","","","learningBlock1","","","","<div style=""font-size:60px;""> </div>","null","FL","learning/Slide24.JPG","That was a wug.","","",""
"image-keyboard-response","78","210144","0.0-5.0-0.24","FL","hc4uh4u04h","1366","768","0","1","0","5f5d6c3cbacc025bf0a03440","","null","","","","","","","learning/Slide25.JPG","null","","","","","",""
"html-keyboard-response","79","211297","0.0-5.0-1.24","FL","hc4uh4u04h","1366","768","0","1","0","5f5d6c3cbacc025bf0a03440","","null","","","learningBlock1","","","","That was a dep.","null","","","","","",""
"html-keyboard-response","80","212298","0.0-5.0-2.24","FL","hc4uh4u04h","1366","768","0","1","0","5f5d6c3cbacc025bf0a03440","","null","","","learningBlock1","","","","<div style=""font-size:60px;""> </div>","null","FL","learning/Slide25.JPG","That was a dep.","","",""
"image-keyboard-response","81","212475","0.0-5.0-0.25","FL","hc4uh4u04h","1366","768","0","1","0","5f5d6c3cbacc025bf0a03440","","null","","","","","","","learning/Slide26.JPG","null","","","","","",""
"html-keyboard-response","82","213627","0.0-5.0-1.25","FL","hc4uh4u04h","1366","768","0","1","0","5f5d6c3cbacc025bf0a03440","","null","","","learningBlock1","","","","That was a wug.","null","","","","","",""
"html-keyboard-response","83","214629","0.0-5.0-2.25","FL","hc4uh4u04h","1366","768","0","1","0","5f5d6c3cbacc025bf0a03440","","null","","","learningBlock1","","","","<div style=""font-size:60px;""> </div>","null","FL","learning/Slide26.JPG","That was a wug.","","",""
"image-keyboard-response","84","214806","0.0-5.0-0.26","FL","hc4uh4u04h","1366","768","0","1","0","5f5d6c3cbacc025bf0a03440","","null","","","","","","","learning/Slide27.JPG","null","","","","","",""
"html-keyboard-response","85","215960","0.0-5.0-1.26","FL","hc4uh4u04h","1366","768","0","1","0","5f5d6c3cbacc025bf0a03440","","null","","","learningBlock1","","","","That was a bim.","null","","","","","",""
"html-keyboard-response","86","216962","0.0-5.0-2.26","FL","hc4uh4u04h","1366","768","0","1","0","5f5d6c3cbacc025bf0a03440","","null","","","learningBlock1","","","","<div style=""font-size:60px;""> </div>","null","FL","learning/Slide27.JPG","That was a bim.","","",""
"image-keyboard-response","87","217139","0.0-5.0-0.27","FL","hc4uh4u04h","1366","768","0","1","0","5f5d6c3cbacc025bf0a03440","","null","","","","","","","learning/Slide28.JPG","null","","","","","",""
"html-keyboard-response","88","218291","0.0-5.0-1.27","FL","hc4uh4u04h","1366","768","0","1","0","5f5d6c3cbacc025bf0a03440","","null","","","learningBlock1","","","","That was a dep.","null","","","","","",""
"html-keyboard-response","89","219293","0.0-5.0-2.27","FL","hc4uh4u04h","1366","768","0","1","0","5f5d6c3cbacc025bf0a03440","","null","","","learningBlock1","","","","<div style=""font-size:60px;""> </div>","null","FL","learning/Slide28.JPG","That was a dep.","","",""
"image-keyboard-response","90","219470","0.0-5.0-0.28","FL","hc4uh4u04h","1366","768","0","1","0","5f5d6c3cbacc025bf0a03440","","null","","","","","","","learning/Slide29.JPG","null","","","","","",""
"html-keyboard-response","91","220623","0.0-5.0-1.28","FL","hc4uh4u04h","1366","768","0","1","0","5f5d6c3cbacc025bf0a03440","","null","","","learningBlock1","","","","That was a tob.","null","","","","","",""
"html-keyboard-response","92","221625","0.0-5.0-2.28","FL","hc4uh4u04h","1366","768","0","1","0","5f5d6c3cbacc025bf0a03440","","null","","","learningBlock1","","","","<div style=""font-size:60px;""> </div>","null","FL","learning/Slide29.JPG","That was a tob.","","",""
"image-keyboard-response","93","221802","0.0-5.0-0.29","FL","hc4uh4u04h","1366","768","0","1","0","5f5d6c3cbacc025bf0a03440","","null","","","","","","","learning/Slide30.JPG","null","","","","","",""
"html-keyboard-response","94","222955","0.0-5.0-1.29","FL","hc4uh4u04h","1366","768","0","1","0","5f5d6c3cbacc025bf0a03440","","null","","","learningBlock1","","","","That was a dep.","null","","","","","",""
"html-keyboard-response","95","223958","0.0-5.0-2.29","FL","hc4uh4u04h","1366","768","0","1","0","5f5d6c3cbacc025bf0a03440","","null","","","learningBlock1","","","","<div style=""font-size:60px;""> </div>","null","FL","learning/Slide30.JPG","That was a dep.","","",""
"image-keyboard-response","96","224134","0.0-5.0-0.30","FL","hc4uh4u04h","1366","768","0","1","0","5f5d6c3cbacc025bf0a03440","","null","","","","","","","learning/Slide31.JPG","null","","","","","",""
"html-keyboard-response","97","225288","0.0-5.0-1.30","FL","hc4uh4u04h","1366","768","0","1","0","5f5d6c3cbacc025bf0a03440","","null","","","learningBlock1","","","","That was a wug.","null","","","","","",""
"html-keyboard-response","98","226290","0.0-5.0-2.30","FL","hc4uh4u04h","1366","768","0","1","0","5f5d6c3cbacc025bf0a03440","","null","","","learningBlock1","","","","<div style=""font-size:60px;""> </div>","null","FL","learning/Slide31.JPG","That was a wug.","","",""
"image-keyboard-response","99","226466","0.0-5.0-0.31","FL","hc4uh4u04h","1366","768","0","1","0","5f5d6c3cbacc025bf0a03440","","null","","","","","","","learning/Slide32.JPG","null","","","","","",""
"html-keyboard-response","100","227618","0.0-5.0-1.31","FL","hc4uh4u04h","1366","768","0","1","0","5f5d6c3cbacc025bf0a03440","","null","","","learningBlock1","","","","That was a tob.","null","","","","","",""
"html-keyboard-response","101","228622","0.0-5.0-2.31","FL","hc4uh4u04h","1366","768","0","1","0","5f5d6c3cbacc025bf0a03440","","null","","","learningBlock1","","","","<div style=""font-size:60px;""> </div>","null","FL","learning/Slide32.JPG","That was a tob.","","",""
"image-keyboard-response","102","228798","0.0-5.0-0.32","FL","hc4uh4u04h","1366","768","0","1","0","5f5d6c3cbacc025bf0a03440","","null","","","","","","","learning/Slide33.JPG","null","","","","","",""
"html-keyboard-response","103","229951","0.0-5.0-1.32","FL","hc4uh4u04h","1366","768","0","1","0","5f5d6c3cbacc025bf0a03440","","null","","","learningBlock1","","","","That was a bim.","null","","","","","",""
"html-keyboard-response","104","230953","0.0-5.0-2.32","FL","hc4uh4u04h","1366","768","0","1","0","5f5d6c3cbacc025bf0a03440","","null","","","learningBlock1","","","","<div style=""font-size:60px;""> </div>","null","FL","learning/Slide33.JPG","That was a bim.","","",""
"image-keyboard-response","105","231130","0.0-5.0-0.33","FL","hc4uh4u04h","1366","768","0","1","0","5f5d6c3cbacc025bf0a03440","","null","","","","","","","learning/Slide34.JPG","null","","","","","",""
"html-keyboard-response","106","232282","0.0-5.0-1.33","FL","hc4uh4u04h","1366","768","0","1","0","5f5d6c3cbacc025bf0a03440","","null","","","learningBlock1","","","","That was a tob.","null","","","","","",""
"html-keyboard-response","107","233285","0.0-5.0-2.33","FL","hc4uh4u04h","1366","768","0","1","0","5f5d6c3cbacc025bf0a03440","","null","","","learningBlock1","","","","<div style=""font-size:60px;""> </div>","null","FL","learning/Slide34.JPG","That was a tob.","","",""
"image-keyboard-response","108","233462","0.0-5.0-0.34","FL","hc4uh4u04h","1366","768","0","1","0","5f5d6c3cbacc025bf0a03440","","null","","","","","","","learning/Slide35.JPG","null","","","","","",""
"html-keyboard-response","109","234614","0.0-5.0-1.34","FL","hc4uh4u04h","1366","768","0","1","0","5f5d6c3cbacc025bf0a03440","","null","","","learningBlock1","","","","That was a bim.","null","","","","","",""
"html-keyboard-response","110","235616","0.0-5.0-2.34","FL","hc4uh4u04h","1366","768","0","1","0","5f5d6c3cbacc025bf0a03440","","null","","","learningBlock1","","","","<div style=""font-size:60px;""> </div>","null","FL","learning/Slide35.JPG","That was a bim.","","",""
"image-keyboard-response","111","235794","0.0-5.0-0.35","FL","hc4uh4u04h","1366","768","0","1","0","5f5d6c3cbacc025bf0a03440","","null","","","","","","","learning/Slide36.JPG","null","","","","","",""
"html-keyboard-response","112","236946","0.0-5.0-1.35","FL","hc4uh4u04h","1366","768","0","1","0","5f5d6c3cbacc025bf0a03440","","null","","","learningBlock1","","","","That was a dep.","null","","","","","",""
"html-keyboard-response","113","237948","0.0-5.0-2.35","FL","hc4uh4u04h","1366","768","0","1","0","5f5d6c3cbacc025bf0a03440","","null","","","learningBlock1","","","","<div style=""font-size:60px;""> </div>","null","FL","learning/Slide36.JPG","That was a dep.","","",""
"image-keyboard-response","114","238125","0.0-5.0-0.36","FL","hc4uh4u04h","1366","768","0","1","0","5f5d6c3cbacc025bf0a03440","","null","","","","","","","learning/Slide37.JPG","null","","","","","",""
"html-keyboard-response","115","239278","0.0-5.0-1.36","FL","hc4uh4u04h","1366","768","0","1","0","5f5d6c3cbacc025bf0a03440","","null","","","learningBlock1","","","","That was a tob.","null","","","","","",""
"html-keyboard-response","116","240280","0.0-5.0-2.36","FL","hc4uh4u04h","1366","768","0","1","0","5f5d6c3cbacc025bf0a03440","","null","","","learningBlock1","","","","<div style=""font-size:60px;""> </div>","null","FL","learning/Slide37.JPG","That was a tob.","","",""
"image-keyboard-response","117","240457","0.0-5.0-0.37","FL","hc4uh4u04h","1366","768","0","1","0","5f5d6c3cbacc025bf0a03440","","null","","","","","","","learning/Slide38.JPG","null","","","","","",""
"html-keyboard-response","118","241609","0.0-5.0-1.37","FL","hc4uh4u04h","1366","768","0","1","0","5f5d6c3cbacc025bf0a03440","","null","","","learningBlock1","","","","That was a wug.","null","","","","","",""
"html-keyboard-response","119","242611","0.0-5.0-2.37","FL","hc4uh4u04h","1366","768","0","1","0","5f5d6c3cbacc025bf0a03440","","null","","","learningBlock1","","","","<div style=""font-size:60px;""> </div>","null","FL","learning/Slide38.JPG","That was a wug.","","",""
"image-keyboard-response","120","242788","0.0-5.0-0.38","FL","hc4uh4u04h","1366","768","0","1","0","5f5d6c3cbacc025bf0a03440","","null","","","","","","","learning/Slide39.JPG","null","","","","","",""
"html-keyboard-response","121","243940","0.0-5.0-1.38","FL","hc4uh4u04h","1366","768","0","1","0","5f5d6c3cbacc025bf0a03440","","null","","","learningBlock1","","","","That was a bim.","null","","","","","",""
"html-keyboard-response","122","244943","0.0-5.0-2.38","FL","hc4uh4u04h","1366","768","0","1","0","5f5d6c3cbacc025bf0a03440","","null","","","learningBlock1","","","","<div style=""font-size:60px;""> </div>","null","FL","learning/Slide39.JPG","That was a bim.","","",""
"image-keyboard-response","123","245119","0.0-5.0-0.39","FL","hc4uh4u04h","1366","768","0","1","0","5f5d6c3cbacc025bf0a03440","","null","","","","","","","learning/Slide40.JPG","null","","","","","",""
"html-keyboard-response","124","246271","0.0-5.0-1.39","FL","hc4uh4u04h","1366","768","0","1","0","5f5d6c3cbacc025bf0a03440","","null","","","learningBlock1","","","","That was a tob.","null","","","","","",""
"html-keyboard-response","125","247273","0.0-5.0-2.39","FL","hc4uh4u04h","1366","768","0","1","0","5f5d6c3cbacc025bf0a03440","","null","","","learningBlock1","","","","<div style=""font-size:60px;""> </div>","null","FL","learning/Slide40.JPG","That was a tob.","","",""
"image-keyboard-response","126","247450","0.0-5.0-0.40","FL","hc4uh4u04h","1366","768","0","1","0","5f5d6c3cbacc025bf0a03440","","null","","","","","","","learning/Slide41.JPG","null","","","","","",""
"html-keyboard-response","127","248604","0.0-5.0-1.40","FL","hc4uh4u04h","1366","768","0","1","0","5f5d6c3cbacc025bf0a03440","","null","","","learningBlock1","","","","That was a bim.","null","","","","","",""
"html-keyboard-response","128","249606","0.0-5.0-2.40","FL","hc4uh4u04h","1366","768","0","1","0","5f5d6c3cbacc025bf0a03440","","null","","","learningBlock1","","","","<div style=""font-size:60px;""> </div>","null","FL","learning/Slide41.JPG","That was a bim.","","",""
"image-keyboard-response","129","249783","0.0-5.0-0.41","FL","hc4uh4u04h","1366","768","0","1","0","5f5d6c3cbacc025bf0a03440","","null","","","","","","","learning/Slide42.JPG","null","","","","","",""
"html-keyboard-response","130","250935","0.0-5.0-1.41","FL","hc4uh4u04h","1366","768","0","1","0","5f5d6c3cbacc025bf0a03440","","null","","","learningBlock1","","","","That was a dep.","null","","","","","",""
"html-keyboard-response","131","251938","0.0-5.0-2.41","FL","hc4uh4u04h","1366","768","0","1","0","5f5d6c3cbacc025bf0a03440","","null","","","learningBlock1","","","","<div style=""font-size:60px;""> </div>","null","FL","learning/Slide42.JPG","That was a dep.","","",""
"image-keyboard-response","132","252115","0.0-5.0-0.42","FL","hc4uh4u04h","1366","768","0","1","0","5f5d6c3cbacc025bf0a03440","","null","","","","","","","learning/Slide43.JPG","null","","","","","",""
"html-keyboard-response","133","253266","0.0-5.0-1.42","FL","hc4uh4u04h","1366","768","0","1","0","5f5d6c3cbacc025bf0a03440","","null","","","learningBlock1","","","","That was a wug.","null","","","","","",""
"html-keyboard-response","134","254269","0.0-5.0-2.42","FL","hc4uh4u04h","1366","768","0","1","0","5f5d6c3cbacc025bf0a03440","","null","","","learningBlock1","","","","<div style=""font-size:60px;""> </div>","null","FL","learning/Slide43.JPG","That was a wug.","","",""
"image-keyboard-response","135","254446","0.0-5.0-0.43","FL","hc4uh4u04h","1366","768","0","1","0","5f5d6c3cbacc025bf0a03440","","null","","","","","","","learning/Slide44.JPG","null","","","","","",""
"html-keyboard-response","136","255598","0.0-5.0-1.43","FL","hc4uh4u04h","1366","768","0","1","0","5f5d6c3cbacc025bf0a03440","","null","","","learningBlock1","","","","That was a bim.","null","","","","","",""
"html-keyboard-response","137","256600","0.0-5.0-2.43","FL","hc4uh4u04h","1366","768","0","1","0","5f5d6c3cbacc025bf0a03440","","null","","","learningBlock1","","","","<div style=""font-size:60px;""> </div>","null","FL","learning/Slide44.JPG","That was a bim.","","",""
"image-keyboard-response","138","256777","0.0-5.0-0.44","FL","hc4uh4u04h","1366","768","0","1","0","5f5d6c3cbacc025bf0a03440","","null","","","","","","","learning/Slide45.JPG","null","","","","","",""
"html-keyboard-response","139","257930","0.0-5.0-1.44","FL","hc4uh4u04h","1366","768","0","1","0","5f5d6c3cbacc025bf0a03440","","null","","","learningBlock1","","","","That was a wug.","null","","","","","",""
"html-keyboard-response","140","258932","0.0-5.0-2.44","FL","hc4uh4u04h","1366","768","0","1","0","5f5d6c3cbacc025bf0a03440","","null","","","learningBlock1","","","","<div style=""font-size:60px;""> </div>","null","FL","learning/Slide45.JPG","That was a wug.","","",""
"image-keyboard-response","141","259110","0.0-5.0-0.45","FL","hc4uh4u04h","1366","768","0","1","0","5f5d6c3cbacc025bf0a03440","","null","","","","","","","learning/Slide46.JPG","null","","","","","",""
"html-keyboard-response","142","260263","0.0-5.0-1.45","FL","hc4uh4u04h","1366","768","0","1","0","5f5d6c3cbacc025bf0a03440","","null","","","learningBlock1","","","","That was a dep.","null","","","","","",""
"html-keyboard-response","143","261265","0.0-5.0-2.45","FL","hc4uh4u04h","1366","768","0","1","0","5f5d6c3cbacc025bf0a03440","","null","","","learningBlock1","","","","<div style=""font-size:60px;""> </div>","null","FL","learning/Slide46.JPG","That was a dep.","","",""
"image-keyboard-response","144","261442","0.0-5.0-0.46","FL","hc4uh4u04h","1366","768","0","1","0","5f5d6c3cbacc025bf0a03440","","null","","","","","","","learning/Slide47.JPG","null","","","","","",""
"html-keyboard-response","145","262594","0.0-5.0-1.46","FL","hc4uh4u04h","1366","768","0","1","0","5f5d6c3cbacc025bf0a03440","","null","","","learningBlock1","","","","That was a tob.","null","","","","","",""
"html-keyboard-response","146","263596","0.0-5.0-2.46","FL","hc4uh4u04h","1366","768","0","1","0","5f5d6c3cbacc025bf0a03440","","null","","","learningBlock1","","","","<div style=""font-size:60px;""> </div>","null","FL","learning/Slide47.JPG","That was a tob.","","",""
"image-keyboard-response","147","263774","0.0-5.0-0.47","FL","hc4uh4u04h","1366","768","0","1","0","5f5d6c3cbacc025bf0a03440","","null","","","","","","","learning/Slide48.JPG","null","","","","","",""
"html-keyboard-response","148","264927","0.0-5.0-1.47","FL","hc4uh4u04h","1366","768","0","1","0","5f5d6c3cbacc025bf0a03440","","null","","","learningBlock1","","","","That was a bim.","null","","","","","",""
"html-keyboard-response","149","265928","0.0-5.0-2.47","FL","hc4uh4u04h","1366","768","0","1","0","5f5d6c3cbacc025bf0a03440","","null","","","learningBlock1","","","","<div style=""font-size:60px;""> </div>","null","FL","learning/Slide48.JPG","That was a bim.","","",""
"image-keyboard-response","150","266106","0.0-5.0-0.48","FL","hc4uh4u04h","1366","768","0","1","0","5f5d6c3cbacc025bf0a03440","","null","","","","","","","learning/Slide49.JPG","null","","","","","",""
"html-keyboard-response","151","267258","0.0-5.0-1.48","FL","hc4uh4u04h","1366","768","0","1","0","5f5d6c3cbacc025bf0a03440","","null","","","learningBlock1","","","","That was a dep.","null","","","","","",""
"html-keyboard-response","152","268260","0.0-5.0-2.48","FL","hc4uh4u04h","1366","768","0","1","0","5f5d6c3cbacc025bf0a03440","","null","","","learningBlock1","","","","<div style=""font-size:60px;""> </div>","null","FL","learning/Slide49.JPG","That was a dep.","","",""
"image-keyboard-response","153","268437","0.0-5.0-0.49","FL","hc4uh4u04h","1366","768","0","1","0","5f5d6c3cbacc025bf0a03440","","null","","","","","","","learning/Slide50.JPG","null","","","","","",""
"html-keyboard-response","154","269590","0.0-5.0-1.49","FL","hc4uh4u04h","1366","768","0","1","0","5f5d6c3cbacc025bf0a03440","","null","","","learningBlock1","","","","That was a tob.","null","","","","","",""
"html-keyboard-response","155","270591","0.0-5.0-2.49","FL","hc4uh4u04h","1366","768","0","1","0","5f5d6c3cbacc025bf0a03440","","null","","","learningBlock1","","","","<div style=""font-size:60px;""> </div>","null","FL","learning/Slide50.JPG","That was a tob.","","",""
"image-keyboard-response","156","270768","0.0-5.0-0.50","FL","hc4uh4u04h","1366","768","0","1","0","5f5d6c3cbacc025bf0a03440","","null","","","","","","","learning/Slide51.JPG","null","","","","","",""
"html-keyboard-response","157","271921","0.0-5.0-1.50","FL","hc4uh4u04h","1366","768","0","1","0","5f5d6c3cbacc025bf0a03440","","null","","","learningBlock1","","","","That was a bim.","null","","","","","",""
"html-keyboard-response","158","272922","0.0-5.0-2.50","FL","hc4uh4u04h","1366","768","0","1","0","5f5d6c3cbacc025bf0a03440","","null","","","learningBlock1","","","","<div style=""font-size:60px;""> </div>","null","FL","learning/Slide51.JPG","That was a bim.","","",""
"image-keyboard-response","159","273100","0.0-5.0-0.51","FL","hc4uh4u04h","1366","768","0","1","0","5f5d6c3cbacc025bf0a03440","","null","","","","","","","learning/Slide52.JPG","null","","","","","",""
"html-keyboard-response","160","274252","0.0-5.0-1.51","FL","hc4uh4u04h","1366","768","0","1","0","5f5d6c3cbacc025bf0a03440","","null","","","learningBlock1","","","","That was a wug.","null","","","","","",""
"html-keyboard-response","161","275256","0.0-5.0-2.51","FL","hc4uh4u04h","1366","768","0","1","0","5f5d6c3cbacc025bf0a03440","","null","","","learningBlock1","","","","<div style=""font-size:60px;""> </div>","null","FL","learning/Slide52.JPG","That was a wug.","","",""
"image-keyboard-response","162","275432","0.0-5.0-0.52","FL","hc4uh4u04h","1366","768","0","1","0","5f5d6c3cbacc025bf0a03440","","null","","","","","","","learning/Slide53.JPG","null","","","","","",""
"html-keyboard-response","163","276584","0.0-5.0-1.52","FL","hc4uh4u04h","1366","768","0","1","0","5f5d6c3cbacc025bf0a03440","","null","","","learningBlock1","","","","That was a tob.","null","","","","","",""
"html-keyboard-response","164","277586","0.0-5.0-2.52","FL","hc4uh4u04h","1366","768","0","1","0","5f5d6c3cbacc025bf0a03440","","null","","","learningBlock1","","","","<div style=""font-size:60px;""> </div>","null","FL","learning/Slide53.JPG","That was a tob.","","",""
"image-keyboard-response","165","277764","0.0-5.0-0.53","FL","hc4uh4u04h","1366","768","0","1","0","5f5d6c3cbacc025bf0a03440","","null","","","","","","","learning/Slide54.JPG","null","","","","","",""
"html-keyboard-response","166","278916","0.0-5.0-1.53","FL","hc4uh4u04h","1366","768","0","1","0","5f5d6c3cbacc025bf0a03440","","null","","","learningBlock1","","","","That was a dep.","null","","","","","",""
"html-keyboard-response","167","279918","0.0-5.0-2.53","FL","hc4uh4u04h","1366","768","0","1","0","5f5d6c3cbacc025bf0a03440","","null","","","learningBlock1","","","","<div style=""font-size:60px;""> </div>","null","FL","learning/Slide54.JPG","That was a dep.","","",""
"image-keyboard-response","168","280095","0.0-5.0-0.54","FL","hc4uh4u04h","1366","768","0","1","0","5f5d6c3cbacc025bf0a03440","","null","","","","","","","learning/Slide55.JPG","null","","","","","",""
"html-keyboard-response","169","281247","0.0-5.0-1.54","FL","hc4uh4u04h","1366","768","0","1","0","5f5d6c3cbacc025bf0a03440","","null","","","learningBlock1","","","","That was a bim.","null","","","","","",""
"html-keyboard-response","170","282249","0.0-5.0-2.54","FL","hc4uh4u04h","1366","768","0","1","0","5f5d6c3cbacc025bf0a03440","","null","","","learningBlock1","","","","<div style=""font-size:60px;""> </div>","null","FL","learning/Slide55.JPG","That was a bim.","","",""
"image-keyboard-response","171","282426","0.0-5.0-0.55","FL","hc4uh4u04h","1366","768","0","1","0","5f5d6c3cbacc025bf0a03440","","null","","","","","","","learning/Slide56.JPG","null","","","","","",""
"html-keyboard-response","172","283578","0.0-5.0-1.55","FL","hc4uh4u04h","1366","768","0","1","0","5f5d6c3cbacc025bf0a03440","","null","","","learningBlock1","","","","That was a tob.","null","","","","","",""
"html-keyboard-response","173","284580","0.0-5.0-2.55","FL","hc4uh4u04h","1366","768","0","1","0","5f5d6c3cbacc025bf0a03440","","null","","","learningBlock1","","","","<div style=""font-size:60px;""> </div>","null","FL","learning/Slide56.JPG","That was a tob.","","",""
"image-keyboard-response","174","284757","0.0-5.0-0.56","FL","hc4uh4u04h","1366","768","0","1","0","5f5d6c3cbacc025bf0a03440","","null","","","","","","","learning/Slide57.JPG","null","","","","","",""
"html-keyboard-response","175","285909","0.0-5.0-1.56","FL","hc4uh4u04h","1366","768","0","1","0","5f5d6c3cbacc025bf0a03440","","null","","","learningBlock1","","","","That was a dep.","null","","","","","",""
"html-keyboard-response","176","286911","0.0-5.0-2.56","FL","hc4uh4u04h","1366","768","0","1","0","5f5d6c3cbacc025bf0a03440","","null","","","learningBlock1","","","","<div style=""font-size:60px;""> </div>","null","FL","learning/Slide57.JPG","That was a dep.","","",""
"image-keyboard-response","177","287088","0.0-5.0-0.57","FL","hc4uh4u04h","1366","768","0","1","0","5f5d6c3cbacc025bf0a03440","","null","","","","","","","learning/Slide58.JPG","null","","","","","",""
"html-keyboard-response","178","288241","0.0-5.0-1.57","FL","hc4uh4u04h","1366","768","0","1","0","5f5d6c3cbacc025bf0a03440","","null","","","learningBlock1","","","","That was a wug.","null","","","","","",""
"html-keyboard-response","179","289243","0.0-5.0-2.57","FL","hc4uh4u04h","1366","768","0","1","0","5f5d6c3cbacc025bf0a03440","","null","","","learningBlock1","","","","<div style=""font-size:60px;""> </div>","null","FL","learning/Slide58.JPG","That was a wug.","","",""
"image-keyboard-response","180","289420","0.0-5.0-0.58","FL","hc4uh4u04h","1366","768","0","1","0","5f5d6c3cbacc025bf0a03440","","null","","","","","","","learning/Slide59.JPG","null","","","","","",""
"html-keyboard-response","181","290572","0.0-5.0-1.58","FL","hc4uh4u04h","1366","768","0","1","0","5f5d6c3cbacc025bf0a03440","","null","","","learningBlock1","","","","That was a dep.","null","","","","","",""
"html-keyboard-response","182","291574","0.0-5.0-2.58","FL","hc4uh4u04h","1366","768","0","1","0","5f5d6c3cbacc025bf0a03440","","null","","","learningBlock1","","","","<div style=""font-size:60px;""> </div>","null","FL","learning/Slide59.JPG","That was a dep.","","",""
"image-keyboard-response","183","291752","0.0-5.0-0.59","FL","hc4uh4u04h","1366","768","0","1","0","5f5d6c3cbacc025bf0a03440","","null","","","","","","","learning/Slide60.JPG","null","","","","","",""
"html-keyboard-response","184","292904","0.0-5.0-1.59","FL","hc4uh4u04h","1366","768","0","1","0","5f5d6c3cbacc025bf0a03440","","null","","","learningBlock1","","","","That was a wug.","null","","","","","",""
"html-keyboard-response","185","293906","0.0-5.0-2.59","FL","hc4uh4u04h","1366","768","0","1","0","5f5d6c3cbacc025bf0a03440","","null","","","learningBlock1","","","","<div style=""font-size:60px;""> </div>","null","FL","learning/Slide60.JPG","That was a wug.","","",""
"image-keyboard-response","186","294083","0.0-5.0-0.60","FL","hc4uh4u04h","1366","768","0","1","0","5f5d6c3cbacc025bf0a03440","","null","","","","","","","learning/Slide61.JPG","null","","","","","",""
"html-keyboard-response","187","295235","0.0-5.0-1.60","FL","hc4uh4u04h","1366","768","0","1","0","5f5d6c3cbacc025bf0a03440","","null","","","learningBlock1","","","","That was a bim.","null","","","","","",""
"html-keyboard-response","188","296236","0.0-5.0-2.60","FL","hc4uh4u04h","1366","768","0","1","0","5f5d6c3cbacc025bf0a03440","","null","","","learningBlock1","","","","<div style=""font-size:60px;""> </div>","null","FL","learning/Slide61.JPG","That was a bim.","","",""
"image-keyboard-response","189","296414","0.0-5.0-0.61","FL","hc4uh4u04h","1366","768","0","1","0","5f5d6c3cbacc025bf0a03440","","null","","","","","","","learning/Slide62.JPG","null","","","","","",""
"html-keyboard-response","190","297566","0.0-5.0-1.61","FL","hc4uh4u04h","1366","768","0","1","0","5f5d6c3cbacc025bf0a03440","","null","","","learningBlock1","","","","That was a dep.","null","","","","","",""
"html-keyboard-response","191","298569","0.0-5.0-2.61","FL","hc4uh4u04h","1366","768","0","1","0","5f5d6c3cbacc025bf0a03440","","null","","","learningBlock1","","","","<div style=""font-size:60px;""> </div>","null","FL","learning/Slide62.JPG","That was a dep.","","",""
"image-keyboard-response","192","298746","0.0-5.0-0.62","FL","hc4uh4u04h","1366","768","0","1","0","5f5d6c3cbacc025bf0a03440","","null","","","","","","","learning/Slide63.JPG","null","","","","","",""
"html-keyboard-response","193","299898","0.0-5.0-1.62","FL","hc4uh4u04h","1366","768","0","1","0","5f5d6c3cbacc025bf0a03440","","null","","","learningBlock1","","","","That was a bim.","null","","","","","",""
"html-keyboard-response","194","300899","0.0-5.0-2.62","FL","hc4uh4u04h","1366","768","0","1","0","5f5d6c3cbacc025bf0a03440","","null","","","learningBlock1","","","","<div style=""font-size:60px;""> </div>","null","FL","learning/Slide63.JPG","That was a bim.","","",""
"image-keyboard-response","195","301076","0.0-5.0-0.63","FL","hc4uh4u04h","1366","768","0","1","0","5f5d6c3cbacc025bf0a03440","","null","","","","","","","learning/Slide64.JPG","null","","","","","",""
"html-keyboard-response","196","302229","0.0-5.0-1.63","FL","hc4uh4u04h","1366","768","0","1","0","5f5d6c3cbacc025bf0a03440","","null","","","learningBlock1","","","","That was a tob.","null","","","","","",""
"html-keyboard-response","197","303231","0.0-5.0-2.63","FL","hc4uh4u04h","1366","768","0","1","0","5f5d6c3cbacc025bf0a03440","","null","","","learningBlock1","","","","<div style=""font-size:60px;""> </div>","null","FL","learning/Slide64.JPG","That was a tob.","","",""
"image-keyboard-response","198","303409","0.0-5.0-0.64","FL","hc4uh4u04h","1366","768","0","1","0","5f5d6c3cbacc025bf0a03440","","null","","","","","","","learning/Slide65.JPG","null","","","","","",""
"html-keyboard-response","199","304562","0.0-5.0-1.64","FL","hc4uh4u04h","1366","768","0","1","0","5f5d6c3cbacc025bf0a03440","","null","","","learningBlock1","","","","That was a wug.","null","","","","","",""
"html-keyboard-response","200","305564","0.0-5.0-2.64","FL","hc4uh4u04h","1366","768","0","1","0","5f5d6c3cbacc025bf0a03440","","null","","","learningBlock1","","","","<div style=""font-size:60px;""> </div>","null","FL","learning/Slide65.JPG","That was a wug.","","",""
"image-keyboard-response","201","305742","0.0-5.0-0.65","FL","hc4uh4u04h","1366","768","0","1","0","5f5d6c3cbacc025bf0a03440","","null","","","","","","","learning/Slide66.JPG","null","","","","","",""
"html-keyboard-response","202","306895","0.0-5.0-1.65","FL","hc4uh4u04h","1366","768","0","1","0","5f5d6c3cbacc025bf0a03440","","null","","","learningBlock1","","","","That was a dep.","null","","","","","",""
"html-keyboard-response","203","307896","0.0-5.0-2.65","FL","hc4uh4u04h","1366","768","0","1","0","5f5d6c3cbacc025bf0a03440","","null","","","learningBlock1","","","","<div style=""font-size:60px;""> </div>","null","FL","learning/Slide66.JPG","That was a dep.","","",""
"image-keyboard-response","204","308074","0.0-5.0-0.66","FL","hc4uh4u04h","1366","768","0","1","0","5f5d6c3cbacc025bf0a03440","","null","","","","","","","learning/Slide67.JPG","null","","","","","",""
"html-keyboard-response","205","309226","0.0-5.0-1.66","FL","hc4uh4u04h","1366","768","0","1","0","5f5d6c3cbacc025bf0a03440","","null","","","learningBlock1","","","","That was a tob.","null","","","","","",""
"html-keyboard-response","206","310228","0.0-5.0-2.66","FL","hc4uh4u04h","1366","768","0","1","0","5f5d6c3cbacc025bf0a03440","","null","","","learningBlock1","","","","<div style=""font-size:60px;""> </div>","null","FL","learning/Slide67.JPG","That was a tob.","","",""
"image-keyboard-response","207","310405","0.0-5.0-0.67","FL","hc4uh4u04h","1366","768","0","1","0","5f5d6c3cbacc025bf0a03440","","null","","","","","","","learning/Slide68.JPG","null","","","","","",""
"html-keyboard-response","208","311557","0.0-5.0-1.67","FL","hc4uh4u04h","1366","768","0","1","0","5f5d6c3cbacc025bf0a03440","","null","","","learningBlock1","","","","That was a wug.","null","","","","","",""
"html-keyboard-response","209","312561","0.0-5.0-2.67","FL","hc4uh4u04h","1366","768","0","1","0","5f5d6c3cbacc025bf0a03440","","null","","","learningBlock1","","","","<div style=""font-size:60px;""> </div>","null","FL","learning/Slide68.JPG","That was a wug.","","",""
"image-keyboard-response","210","312739","0.0-5.0-0.68","FL","hc4uh4u04h","1366","768","0","1","0","5f5d6c3cbacc025bf0a03440","","null","","","","","","","learning/Slide69.JPG","null","","","","","",""
"html-keyboard-response","211","313892","0.0-5.0-1.68","FL","hc4uh4u04h","1366","768","0","1","0","5f5d6c3cbacc025bf0a03440","","null","","","learningBlock1","","","","That was a tob.","null","","","","","",""
"html-keyboard-response","212","314894","0.0-5.0-2.68","FL","hc4uh4u04h","1366","768","0","1","0","5f5d6c3cbacc025bf0a03440","","null","","","learningBlock1","","","","<div style=""font-size:60px;""> </div>","null","FL","learning/Slide69.JPG","That was a tob.","","",""
"image-keyboard-response","213","315071","0.0-5.0-0.69","FL","hc4uh4u04h","1366","768","0","1","0","5f5d6c3cbacc025bf0a03440","","null","","","","","","","learning/Slide70.JPG","null","","","","","",""
"html-keyboard-response","214","316224","0.0-5.0-1.69","FL","hc4uh4u04h","1366","768","0","1","0","5f5d6c3cbacc025bf0a03440","","null","","","learningBlock1","","","","That was a dep.","null","","","","","",""
"html-keyboard-response","215","317226","0.0-5.0-2.69","FL","hc4uh4u04h","1366","768","0","1","0","5f5d6c3cbacc025bf0a03440","","null","","","learningBlock1","","","","<div style=""font-size:60px;""> </div>","null","FL","learning/Slide70.JPG","That was a dep.","","",""
"image-keyboard-response","216","317403","0.0-5.0-0.70","FL","hc4uh4u04h","1366","768","0","1","0","5f5d6c3cbacc025bf0a03440","","null","","","","","","","learning/Slide71.JPG","null","","","","","",""
"html-keyboard-response","217","318556","0.0-5.0-1.70","FL","hc4uh4u04h","1366","768","0","1","0","5f5d6c3cbacc025bf0a03440","","null","","","learningBlock1","","","","That was a wug.","null","","","","","",""
"html-keyboard-response","218","319558","0.0-5.0-2.70","FL","hc4uh4u04h","1366","768","0","1","0","5f5d6c3cbacc025bf0a03440","","null","","","learningBlock1","","","","<div style=""font-size:60px;""> </div>","null","FL","learning/Slide71.JPG","That was a wug.","","",""
"image-keyboard-response","219","319735","0.0-5.0-0.71","FL","hc4uh4u04h","1366","768","0","1","0","5f5d6c3cbacc025bf0a03440","","null","","","","","","","learning/Slide72.JPG","null","","","","","",""
"html-keyboard-response","220","320887","0.0-5.0-1.71","FL","hc4uh4u04h","1366","768","0","1","0","5f5d6c3cbacc025bf0a03440","","null","","","learningBlock1","","","","That was a bim.","null","","","","","",""
"html-keyboard-response","221","321890","0.0-5.0-2.71","FL","hc4uh4u04h","1366","768","0","1","0","5f5d6c3cbacc025bf0a03440","","null","","","learningBlock1","","","","<div style=""font-size:60px;""> </div>","null","FL","learning/Slide72.JPG","That was a bim.","","",""
"image-keyboard-response","222","322066","0.0-5.0-0.72","FL","hc4uh4u04h","1366","768","0","1","0","5f5d6c3cbacc025bf0a03440","","null","","","","","","","learning/Slide73.JPG","null","","","","","",""
"html-keyboard-response","223","323219","0.0-5.0-1.72","FL","hc4uh4u04h","1366","768","0","1","0","5f5d6c3cbacc025bf0a03440","","null","","","learningBlock1","","","","That was a wug.","null","","","","","",""
"html-keyboard-response","224","324220","0.0-5.0-2.72","FL","hc4uh4u04h","1366","768","0","1","0","5f5d6c3cbacc025bf0a03440","","null","","","learningBlock1","","","","<div style=""font-size:60px;""> </div>","null","FL","learning/Slide73.JPG","That was a wug.","","",""
"image-keyboard-response","225","324397","0.0-5.0-0.73","FL","hc4uh4u04h","1366","768","0","1","0","5f5d6c3cbacc025bf0a03440","","null","","","","","","","learning/Slide74.JPG","null","","","","","",""
"html-keyboard-response","226","325550","0.0-5.0-1.73","FL","hc4uh4u04h","1366","768","0","1","0","5f5d6c3cbacc025bf0a03440","","null","","","learningBlock1","","","","That was a dep.","null","","","","","",""
"html-keyboard-response","227","326552","0.0-5.0-2.73","FL","hc4uh4u04h","1366","768","0","1","0","5f5d6c3cbacc025bf0a03440","","null","","","learningBlock1","","","","<div style=""font-size:60px;""> </div>","null","FL","learning/Slide74.JPG","That was a dep.","","",""
"image-keyboard-response","228","326728","0.0-5.0-0.74","FL","hc4uh4u04h","1366","768","0","1","0","5f5d6c3cbacc025bf0a03440","","null","","","","","","","learning/Slide75.JPG","null","","","","","",""
"html-keyboard-response","229","327881","0.0-5.0-1.74","FL","hc4uh4u04h","1366","768","0","1","0","5f5d6c3cbacc025bf0a03440","","null","","","learningBlock1","","","","That was a tob.","null","","","","","",""
"html-keyboard-response","230","328884","0.0-5.0-2.74","FL","hc4uh4u04h","1366","768","0","1","0","5f5d6c3cbacc025bf0a03440","","null","","","learningBlock1","","","","<div style=""font-size:60px;""> </div>","null","FL","learning/Slide75.JPG","That was a tob.","","",""
"image-keyboard-response","231","329061","0.0-5.0-0.75","FL","hc4uh4u04h","1366","768","0","1","0","5f5d6c3cbacc025bf0a03440","","null","","","","","","","learning/Slide76.JPG","null","","","","","",""
"html-keyboard-response","232","330214","0.0-5.0-1.75","FL","hc4uh4u04h","1366","768","0","1","0","5f5d6c3cbacc025bf0a03440","","null","","","learningBlock1","","","","That was a bim.","null","","","","","",""
"html-keyboard-response","233","331216","0.0-5.0-2.75","FL","hc4uh4u04h","1366","768","0","1","0","5f5d6c3cbacc025bf0a03440","","null","","","learningBlock1","","","","<div style=""font-size:60px;""> </div>","null","FL","learning/Slide76.JPG","That was a bim.","","",""
"image-keyboard-response","234","331393","0.0-5.0-0.76","FL","hc4uh4u04h","1366","768","0","1","0","5f5d6c3cbacc025bf0a03440","","null","","","","","","","learning/Slide77.JPG","null","","","","","",""
"html-keyboard-response","235","332546","0.0-5.0-1.76","FL","hc4uh4u04h","1366","768","0","1","0","5f5d6c3cbacc025bf0a03440","","null","","","learningBlock1","","","","That was a tob.","null","","","","","",""
"html-keyboard-response","236","333548","0.0-5.0-2.76","FL","hc4uh4u04h","1366","768","0","1","0","5f5d6c3cbacc025bf0a03440","","null","","","learningBlock1","","","","<div style=""font-size:60px;""> </div>","null","FL","learning/Slide77.JPG","That was a tob.","","",""
"image-keyboard-response","237","333725","0.0-5.0-0.77","FL","hc4uh4u04h","1366","768","0","1","0","5f5d6c3cbacc025bf0a03440","","null","","","","","","","learning/Slide78.JPG","null","","","","","",""
"html-keyboard-response","238","334878","0.0-5.0-1.77","FL","hc4uh4u04h","1366","768","0","1","0","5f5d6c3cbacc025bf0a03440","","null","","","learningBlock1","","","","That was a wug.","null","","","","","",""
"html-keyboard-response","239","335880","0.0-5.0-2.77","FL","hc4uh4u04h","1366","768","0","1","0","5f5d6c3cbacc025bf0a03440","","null","","","learningBlock1","","","","<div style=""font-size:60px;""> </div>","null","FL","learning/Slide78.JPG","That was a wug.","","",""
"image-keyboard-response","240","336057","0.0-5.0-0.78","FL","hc4uh4u04h","1366","768","0","1","0","5f5d6c3cbacc025bf0a03440","","null","","","","","","","learning/Slide79.JPG","null","","","","","",""
"html-keyboard-response","241","337209","0.0-5.0-1.78","FL","hc4uh4u04h","1366","768","0","1","0","5f5d6c3cbacc025bf0a03440","","null","","","learningBlock1","","","","That was a bim.","null","","","","","",""
"html-keyboard-response","242","338211","0.0-5.0-2.78","FL","hc4uh4u04h","1366","768","0","1","0","5f5d6c3cbacc025bf0a03440","","null","","","learningBlock1","","","","<div style=""font-size:60px;""> </div>","null","FL","learning/Slide79.JPG","That was a bim.","","",""
"image-keyboard-response","243","338389","0.0-5.0-0.79","FL","hc4uh4u04h","1366","768","0","1","0","5f5d6c3cbacc025bf0a03440","","null","","","","","","","learning/Slide80.JPG","null","","","","","",""
"html-keyboard-response","244","339541","0.0-5.0-1.79","FL","hc4uh4u04h","1366","768","0","1","0","5f5d6c3cbacc025bf0a03440","","null","","","learningBlock1","","","","That was a tob.","null","","","","","",""
"html-keyboard-response","245","340542","0.0-5.0-2.79","FL","hc4uh4u04h","1366","768","0","1","0","5f5d6c3cbacc025bf0a03440","","null","","","learningBlock1","","","","<div style=""font-size:60px;""> </div>","null","FL","learning/Slide80.JPG","That was a tob.","","",""
"instructions","246","346874","0.0-6.0","FL","hc4uh4u04h","1366","768","0","1","0","5f5d6c3cbacc025bf0a03440","","NA","","[{""page_index"":0,""viewing_time"":6331.019999925047}]","instructions","","","","","","","","","","",""
"image-keyboard-response","247","347052","0.0-7.0-0.0","FL","hc4uh4u04h","1366","768","0","1","0","5f5d6c3cbacc025bf0a03440","","null","","","","","","","learning/Slide81.JPG","null","","","","","",""
"html-keyboard-response","248","348204","0.0-7.0-1.0","FL","hc4uh4u04h","1366","768","0","1","0","5f5d6c3cbacc025bf0a03440","","null","","","learningBlock2","","","","That was a wug.","null","","","","","",""
"html-keyboard-response","249","349206","0.0-7.0-2.0","FL","hc4uh4u04h","1366","768","0","1","0","5f5d6c3cbacc025bf0a03440","","null","","","learningBlock2","","","","<div style=""font-size:60px;""> </div>","null","FL","learning/Slide81.JPG","That was a wug.","","",""
"image-keyboard-response","250","349384","0.0-7.0-0.1","FL","hc4uh4u04h","1366","768","0","1","0","5f5d6c3cbacc025bf0a03440","","null","","","","","","","learning/Slide82.JPG","null","","","","","",""
"html-keyboard-response","251","350537","0.0-7.0-1.1","FL","hc4uh4u04h","1366","768","0","1","0","5f5d6c3cbacc025bf0a03440","","null","","","learningBlock2","","","","That was a bim.","null","","","","","",""
"html-keyboard-response","252","351539","0.0-7.0-2.1","FL","hc4uh4u04h","1366","768","0","1","0","5f5d6c3cbacc025bf0a03440","","null","","","learningBlock2","","","","<div style=""font-size:60px;""> </div>","null","FL","learning/Slide82.JPG","That was a bim.","","",""
"image-keyboard-response","253","351717","0.0-7.0-0.2","FL","hc4uh4u04h","1366","768","0","1","0","5f5d6c3cbacc025bf0a03440","","null","","","","","","","learning/Slide83.JPG","null","","","","","",""
"html-keyboard-response","254","352870","0.0-7.0-1.2","FL","hc4uh4u04h","1366","768","0","1","0","5f5d6c3cbacc025bf0a03440","","null","","","learningBlock2","","","","That was a wug.","null","","","","","",""
"html-keyboard-response","255","353872","0.0-7.0-2.2","FL","hc4uh4u04h","1366","768","0","1","0","5f5d6c3cbacc025bf0a03440","","null","","","learningBlock2","","","","<div style=""font-size:60px;""> </div>","null","FL","learning/Slide83.JPG","That was a wug.","","",""
"image-keyboard-response","256","354050","0.0-7.0-0.3","FL","hc4uh4u04h","1366","768","0","1","0","5f5d6c3cbacc025bf0a03440","","null","","","","","","","learning/Slide84.JPG","null","","","","","",""
"html-keyboard-response","257","355202","0.0-7.0-1.3","FL","hc4uh4u04h","1366","768","0","1","0","5f5d6c3cbacc025bf0a03440","","null","","","learningBlock2","","","","That was a dep.","null","","","","","",""
"html-keyboard-response","258","356205","0.0-7.0-2.3","FL","hc4uh4u04h","1366","768","0","1","0","5f5d6c3cbacc025bf0a03440","","null","","","learningBlock2","","","","<div style=""font-size:60px;""> </div>","null","FL","learning/Slide84.JPG","That was a dep.","","",""
"image-keyboard-response","259","356382","0.0-7.0-0.4","FL","hc4uh4u04h","1366","768","0","1","0","5f5d6c3cbacc025bf0a03440","","null","","","","","","","learning/Slide85.JPG","null","","","","","",""
"html-keyboard-response","260","357535","0.0-7.0-1.4","FL","hc4uh4u04h","1366","768","0","1","0","5f5d6c3cbacc025bf0a03440","","null","","","learningBlock2","","","","That was a bim.","null","","","","","",""
"html-keyboard-response","261","358538","0.0-7.0-2.4","FL","hc4uh4u04h","1366","768","0","1","0","5f5d6c3cbacc025bf0a03440","","null","","","learningBlock2","","","","<div style=""font-size:60px;""> </div>","null","FL","learning/Slide85.JPG","That was a bim.","","",""
"image-keyboard-response","262","358715","0.0-7.0-0.5","FL","hc4uh4u04h","1366","768","0","1","0","5f5d6c3cbacc025bf0a03440","","null","","","","","","","learning/Slide86.JPG","null","","","","","",""
"html-keyboard-response","263","359867","0.0-7.0-1.5","FL","hc4uh4u04h","1366","768","0","1","0","5f5d6c3cbacc025bf0a03440","","null","","","learningBlock2","","","","That was a tob.","null","","","","","",""
"html-keyboard-response","264","360869","0.0-7.0-2.5","FL","hc4uh4u04h","1366","768","0","1","0","5f5d6c3cbacc025bf0a03440","","null","","","learningBlock2","","","","<div style=""font-size:60px;""> </div>","null","FL","learning/Slide86.JPG","That was a tob.","","",""
"image-keyboard-response","265","361046","0.0-7.0-0.6","FL","hc4uh4u04h","1366","768","0","1","0","5f5d6c3cbacc025bf0a03440","","null","","","","","","","learning/Slide87.JPG","null","","","","","",""
"html-keyboard-response","266","362198","0.0-7.0-1.6","FL","hc4uh4u04h","1366","768","0","1","0","5f5d6c3cbacc025bf0a03440","","null","","","learningBlock2","","","","That was a wug.","null","","","","","",""
"html-keyboard-response","267","363200","0.0-7.0-2.6","FL","hc4uh4u04h","1366","768","0","1","0","5f5d6c3cbacc025bf0a03440","","null","","","learningBlock2","","","","<div style=""font-size:60px;""> </div>","null","FL","learning/Slide87.JPG","That was a wug.","","",""
"image-keyboard-response","268","363377","0.0-7.0-0.7","FL","hc4uh4u04h","1366","768","0","1","0","5f5d6c3cbacc025bf0a03440","","null","","","","","","","learning/Slide88.JPG","null","","","","","",""
"html-keyboard-response","269","364531","0.0-7.0-1.7","FL","hc4uh4u04h","1366","768","0","1","0","5f5d6c3cbacc025bf0a03440","","null","","","learningBlock2","","","","That was a tob.","null","","","","","",""
"html-keyboard-response","270","365533","0.0-7.0-2.7","FL","hc4uh4u04h","1366","768","0","1","0","5f5d6c3cbacc025bf0a03440","","null","","","learningBlock2","","","","<div style=""font-size:60px;""> </div>","null","FL","learning/Slide88.JPG","That was a tob.","","",""
"image-keyboard-response","271","365710","0.0-7.0-0.8","FL","hc4uh4u04h","1366","768","0","1","0","5f5d6c3cbacc025bf0a03440","","null","","","","","","","learning/Slide89.JPG","null","","","","","",""
"html-keyboard-response","272","366862","0.0-7.0-1.8","FL","hc4uh4u04h","1366","768","0","1","0","5f5d6c3cbacc025bf0a03440","","null","","","learningBlock2","","","","That was a bim.","null","","","","","",""
"html-keyboard-response","273","367864","0.0-7.0-2.8","FL","hc4uh4u04h","1366","768","0","1","0","5f5d6c3cbacc025bf0a03440","","null","","","learningBlock2","","","","<div style=""font-size:60px;""> </div>","null","FL","learning/Slide89.JPG","That was a bim.","","",""
"image-keyboard-response","274","368042","0.0-7.0-0.9","FL","hc4uh4u04h","1366","768","0","1","0","5f5d6c3cbacc025bf0a03440","","null","","","","","","","learning/Slide90.JPG","null","","","","","",""
"html-keyboard-response","275","369195","0.0-7.0-1.9","FL","hc4uh4u04h","1366","768","0","1","0","5f5d6c3cbacc025bf0a03440","","null","","","learningBlock2","","","","That was a dep.","null","","","","","",""
"html-keyboard-response","276","370197","0.0-7.0-2.9","FL","hc4uh4u04h","1366","768","0","1","0","5f5d6c3cbacc025bf0a03440","","null","","","learningBlock2","","","","<div style=""font-size:60px;""> </div>","null","FL","learning/Slide90.JPG","That was a dep.","","",""
"image-keyboard-response","277","370375","0.0-7.0-0.10","FL","hc4uh4u04h","1366","768","0","1","0","5f5d6c3cbacc025bf0a03440","","null","","","","","","","learning/Slide91.JPG","null","","","","","",""
"html-keyboard-response","278","371527","0.0-7.0-1.10","FL","hc4uh4u04h","1366","768","0","1","0","5f5d6c3cbacc025bf0a03440","","null","","","learningBlock2","","","","That was a wug.","null","","","","","",""
"html-keyboard-response","279","372529","0.0-7.0-2.10","FL","hc4uh4u04h","1366","768","0","1","0","5f5d6c3cbacc025bf0a03440","","null","","","learningBlock2","","","","<div style=""font-size:60px;""> </div>","null","FL","learning/Slide91.JPG","That was a wug.","","",""
"image-keyboard-response","280","372706","0.0-7.0-0.11","FL","hc4uh4u04h","1366","768","0","1","0","5f5d6c3cbacc025bf0a03440","","null","","","","","","","learning/Slide92.JPG","null","","","","","",""
"html-keyboard-response","281","373858","0.0-7.0-1.11","FL","hc4uh4u04h","1366","768","0","1","0","5f5d6c3cbacc025bf0a03440","","null","","","learningBlock2","","","","That was a tob.","null","","","","","",""
"html-keyboard-response","282","374861","0.0-7.0-2.11","FL","hc4uh4u04h","1366","768","0","1","0","5f5d6c3cbacc025bf0a03440","","null","","","learningBlock2","","","","<div style=""font-size:60px;""> </div>","null","FL","learning/Slide92.JPG","That was a tob.","","",""
"image-keyboard-response","283","375038","0.0-7.0-0.12","FL","hc4uh4u04h","1366","768","0","1","0","5f5d6c3cbacc025bf0a03440","","null","","","","","","","learning/Slide93.JPG","null","","","","","",""
"html-keyboard-response","284","376190","0.0-7.0-1.12","FL","hc4uh4u04h","1366","768","0","1","0","5f5d6c3cbacc025bf0a03440","","null","","","learningBlock2","","","","That was a bim.","null","","","","","",""
"html-keyboard-response","285","377192","0.0-7.0-2.12","FL","hc4uh4u04h","1366","768","0","1","0","5f5d6c3cbacc025bf0a03440","","null","","","learningBlock2","","","","<div style=""font-size:60px;""> </div>","null","FL","learning/Slide93.JPG","That was a bim.","","",""
"image-keyboard-response","286","377368","0.0-7.0-0.13","FL","hc4uh4u04h","1366","768","0","1","0","5f5d6c3cbacc025bf0a03440","","null","","","","","","","learning/Slide94.JPG","null","","","","","",""
"html-keyboard-response","287","378521","0.0-7.0-1.13","FL","hc4uh4u04h","1366","768","0","1","0","5f5d6c3cbacc025bf0a03440","","null","","","learningBlock2","","","","That was a tob.","null","","","","","",""
"html-keyboard-response","288","379522","0.0-7.0-2.13","FL","hc4uh4u04h","1366","768","0","1","0","5f5d6c3cbacc025bf0a03440","","null","","","learningBlock2","","","","<div style=""font-size:60px;""> </div>","null","FL","learning/Slide94.JPG","That was a tob.","","",""
"image-keyboard-response","289","379700","0.0-7.0-0.14","FL","hc4uh4u04h","1366","768","0","1","0","5f5d6c3cbacc025bf0a03440","","null","","","","","","","learning/Slide95.JPG","null","","","","","",""
"html-keyboard-response","290","380852","0.0-7.0-1.14","FL","hc4uh4u04h","1366","768","0","1","0","5f5d6c3cbacc025bf0a03440","","null","","","learningBlock2","","","","That was a wug.","null","","","","","",""
"html-keyboard-response","291","381854","0.0-7.0-2.14","FL","hc4uh4u04h","1366","768","0","1","0","5f5d6c3cbacc025bf0a03440","","null","","","learningBlock2","","","","<div style=""font-size:60px;""> </div>","null","FL","learning/Slide95.JPG","That was a wug.","","",""
"image-keyboard-response","292","382031","0.0-7.0-0.15","FL","hc4uh4u04h","1366","768","0","1","0","5f5d6c3cbacc025bf0a03440","","null","","","","","","","learning/Slide96.JPG","null","","","","","",""
"html-keyboard-response","293","383183","0.0-7.0-1.15","FL","hc4uh4u04h","1366","768","0","1","0","5f5d6c3cbacc025bf0a03440","","null","","","learningBlock2","","","","That was a tob.","null","","","","","",""
"html-keyboard-response","294","384185","0.0-7.0-2.15","FL","hc4uh4u04h","1366","768","0","1","0","5f5d6c3cbacc025bf0a03440","","null","","","learningBlock2","","","","<div style=""font-size:60px;""> </div>","null","FL","learning/Slide96.JPG","That was a tob.","","",""
"image-keyboard-response","295","384361","0.0-7.0-0.16","FL","hc4uh4u04h","1366","768","0","1","0","5f5d6c3cbacc025bf0a03440","","null","","","","","","","learning/Slide97.JPG","null","","","","","",""
"html-keyboard-response","296","385514","0.0-7.0-1.16","FL","hc4uh4u04h","1366","768","0","1","0","5f5d6c3cbacc025bf0a03440","","null","","","learningBlock2","","","","That was a dep.","null","","","","","",""
"html-keyboard-response","297","386515","0.0-7.0-2.16","FL","hc4uh4u04h","1366","768","0","1","0","5f5d6c3cbacc025bf0a03440","","null","","","learningBlock2","","","","<div style=""font-size:60px;""> </div>","null","FL","learning/Slide97.JPG","That was a dep.","","",""
"image-keyboard-response","298","386692","0.0-7.0-0.17","FL","hc4uh4u04h","1366","768","0","1","0","5f5d6c3cbacc025bf0a03440","","null","","","","","","","learning/Slide98.JPG","null","","","","","",""
"html-keyboard-response","299","387844","0.0-7.0-1.17","FL","hc4uh4u04h","1366","768","0","1","0","5f5d6c3cbacc025bf0a03440","","null","","","learningBlock2","","","","That was a bim.","null","","","","","",""
"html-keyboard-response","300","388846","0.0-7.0-2.17","FL","hc4uh4u04h","1366","768","0","1","0","5f5d6c3cbacc025bf0a03440","","null","","","learningBlock2","","","","<div style=""font-size:60px;""> </div>","null","FL","learning/Slide98.JPG","That was a bim.","","",""
"image-keyboard-response","301","389023","0.0-7.0-0.18","FL","hc4uh4u04h","1366","768","0","1","0","5f5d6c3cbacc025bf0a03440","","null","","","","","","","learning/Slide99.JPG","null","","","","","",""
"html-keyboard-response","302","390176","0.0-7.0-1.18","FL","hc4uh4u04h","1366","768","0","1","0","5f5d6c3cbacc025bf0a03440","","null","","","learningBlock2","","","","That was a dep.","null","","","","","",""
"html-keyboard-response","303","391178","0.0-7.0-2.18","FL","hc4uh4u04h","1366","768","0","1","0","5f5d6c3cbacc025bf0a03440","","null","","","learningBlock2","","","","<div style=""font-size:60px;""> </div>","null","FL","learning/Slide99.JPG","That was a dep.","","",""
"image-keyboard-response","304","391355","0.0-7.0-0.19","FL","hc4uh4u04h","1366","768","0","1","0","5f5d6c3cbacc025bf0a03440","","null","","","","","","","learning/Slide100.JPG","null","","","","","",""
"html-keyboard-response","305","392507","0.0-7.0-1.19","FL","hc4uh4u04h","1366","768","0","1","0","5f5d6c3cbacc025bf0a03440","","null","","","learningBlock2","","","","That was a bim.","null","","","","","",""
"html-keyboard-response","306","393510","0.0-7.0-2.19","FL","hc4uh4u04h","1366","768","0","1","0","5f5d6c3cbacc025bf0a03440","","null","","","learningBlock2","","","","<div style=""font-size:60px;""> </div>","null","FL","learning/Slide100.JPG","That was a bim.","","",""
"image-keyboard-response","307","393688","0.0-7.0-0.20","FL","hc4uh4u04h","1366","768","0","1","0","5f5d6c3cbacc025bf0a03440","","null","","","","","","","learning/Slide101.JPG","null","","","","","",""
"html-keyboard-response","308","394839","0.0-7.0-1.20","FL","hc4uh4u04h","1366","768","0","1","0","5f5d6c3cbacc025bf0a03440","","null","","","learningBlock2","","","","That was a tob.","null","","","","","",""
"html-keyboard-response","309","395842","0.0-7.0-2.20","FL","hc4uh4u04h","1366","768","0","1","0","5f5d6c3cbacc025bf0a03440","","null","","","learningBlock2","","","","<div style=""font-size:60px;""> </div>","null","FL","learning/Slide101.JPG","That was a tob.","","",""
"image-keyboard-response","310","396019","0.0-7.0-0.21","FL","hc4uh4u04h","1366","768","0","1","0","5f5d6c3cbacc025bf0a03440","","null","","","","","","","learning/Slide102.JPG","null","","","","","",""
"html-keyboard-response","311","397171","0.0-7.0-1.21","FL","hc4uh4u04h","1366","768","0","1","0","5f5d6c3cbacc025bf0a03440","","null","","","learningBlock2","","","","That was a bim.","null","","","","","",""
"html-keyboard-response","312","398173","0.0-7.0-2.21","FL","hc4uh4u04h","1366","768","0","1","0","5f5d6c3cbacc025bf0a03440","","null","","","learningBlock2","","","","<div style=""font-size:60px;""> </div>","null","FL","learning/Slide102.JPG","That was a bim.","","",""
"image-keyboard-response","313","398351","0.0-7.0-0.22","FL","hc4uh4u04h","1366","768","0","1","0","5f5d6c3cbacc025bf0a03440","","null","","","","","","","learning/Slide103.JPG","null","","","","","",""
"html-keyboard-response","314","399502","0.0-7.0-1.22","FL","hc4uh4u04h","1366","768","0","1","0","5f5d6c3cbacc025bf0a03440","","null","","","learningBlock2","","","","That was a dep.","null","","","","","",""
"html-keyboard-response","315","400505","0.0-7.0-2.22","FL","hc4uh4u04h","1366","768","0","1","0","5f5d6c3cbacc025bf0a03440","","null","","","learningBlock2","","","","<div style=""font-size:60px;""> </div>","null","FL","learning/Slide103.JPG","That was a dep.","","",""
"image-keyboard-response","316","400682","0.0-7.0-0.23","FL","hc4uh4u04h","1366","768","0","1","0","5f5d6c3cbacc025bf0a03440","","null","","","","","","","learning/Slide104.JPG","null","","","","","",""
"html-keyboard-response","317","401835","0.0-7.0-1.23","FL","hc4uh4u04h","1366","768","0","1","0","5f5d6c3cbacc025bf0a03440","","null","","","learningBlock2","","","","That was a tob.","null","","","","","",""
"html-keyboard-response","318","402837","0.0-7.0-2.23","FL","hc4uh4u04h","1366","768","0","1","0","5f5d6c3cbacc025bf0a03440","","null","","","learningBlock2","","","","<div style=""font-size:60px;""> </div>","null","FL","learning/Slide104.JPG","That was a tob.","","",""
"image-keyboard-response","319","403015","0.0-7.0-0.24","FL","hc4uh4u04h","1366","768","0","1","0","5f5d6c3cbacc025bf0a03440","","null","","","","","","","learning/Slide105.JPG","null","","","","","",""
"html-keyboard-response","320","404166","0.0-7.0-1.24","FL","hc4uh4u04h","1366","768","0","1","0","5f5d6c3cbacc025bf0a03440","","null","","","learningBlock2","","","","That was a dep.","null","","","","","",""
"html-keyboard-response","321","405168","0.0-7.0-2.24","FL","hc4uh4u04h","1366","768","0","1","0","5f5d6c3cbacc025bf0a03440","","null","","","learningBlock2","","","","<div style=""font-size:60px;""> </div>","null","FL","learning/Slide105.JPG","That was a dep.","","",""
"image-keyboard-response","322","405347","0.0-7.0-0.25","FL","hc4uh4u04h","1366","768","0","1","0","5f5d6c3cbacc025bf0a03440","","null","","","","","","","learning/Slide106.JPG","null","","","","","",""
"html-keyboard-response","323","406499","0.0-7.0-1.25","FL","hc4uh4u04h","1366","768","0","1","0","5f5d6c3cbacc025bf0a03440","","null","","","learningBlock2","","","","That was a wug.","null","","","","","",""
"html-keyboard-response","324","407501","0.0-7.0-2.25","FL","hc4uh4u04h","1366","768","0","1","0","5f5d6c3cbacc025bf0a03440","","null","","","learningBlock2","","","","<div style=""font-size:60px;""> </div>","null","FL","learning/Slide106.JPG","That was a wug.","","",""
"image-keyboard-response","325","407679","0.0-7.0-0.26","FL","hc4uh4u04h","1366","768","0","1","0","5f5d6c3cbacc025bf0a03440","","null","","","","","","","learning/Slide107.JPG","null","","","","","",""
"html-keyboard-response","326","408831","0.0-7.0-1.26","FL","hc4uh4u04h","1366","768","0","1","0","5f5d6c3cbacc025bf0a03440","","null","","","learningBlock2","","","","That was a bim.","null","","","","","",""
"html-keyboard-response","327","409833","0.0-7.0-2.26","FL","hc4uh4u04h","1366","768","0","1","0","5f5d6c3cbacc025bf0a03440","","null","","","learningBlock2","","","","<div style=""font-size:60px;""> </div>","null","FL","learning/Slide107.JPG","That was a bim.","","",""
"image-keyboard-response","328","410011","0.0-7.0-0.27","FL","hc4uh4u04h","1366","768","0","1","0","5f5d6c3cbacc025bf0a03440","","null","","","","","","","learning/Slide108.JPG","null","","","","","",""
"html-keyboard-response","329","411162","0.0-7.0-1.27","FL","hc4uh4u04h","1366","768","0","1","0","5f5d6c3cbacc025bf0a03440","","null","","","learningBlock2","","","","That was a dep.","null","","","","","",""
"html-keyboard-response","330","412164","0.0-7.0-2.27","FL","hc4uh4u04h","1366","768","0","1","0","5f5d6c3cbacc025bf0a03440","","null","","","learningBlock2","","","","<div style=""font-size:60px;""> </div>","null","FL","learning/Slide108.JPG","That was a dep.","","",""
"image-keyboard-response","331","412342","0.0-7.0-0.28","FL","hc4uh4u04h","1366","768","0","1","0","5f5d6c3cbacc025bf0a03440","","null","","","","","","","learning/Slide109.JPG","null","","","","","",""
"html-keyboard-response","332","413495","0.0-7.0-1.28","FL","hc4uh4u04h","1366","768","0","1","0","5f5d6c3cbacc025bf0a03440","","null","","","learningBlock2","","","","That was a wug.","null","","","","","",""
"html-keyboard-response","333","414497","0.0-7.0-2.28","FL","hc4uh4u04h","1366","768","0","1","0","5f5d6c3cbacc025bf0a03440","","null","","","learningBlock2","","","","<div style=""font-size:60px;""> </div>","null","FL","learning/Slide109.JPG","That was a wug.","","",""
"image-keyboard-response","334","414674","0.0-7.0-0.29","FL","hc4uh4u04h","1366","768","0","1","0","5f5d6c3cbacc025bf0a03440","","null","","","","","","","learning/Slide110.JPG","null","","","","","",""
"html-keyboard-response","335","415828","0.0-7.0-1.29","FL","hc4uh4u04h","1366","768","0","1","0","5f5d6c3cbacc025bf0a03440","","null","","","learningBlock2","","","","That was a bim.","null","","","","","",""
"html-keyboard-response","336","416830","0.0-7.0-2.29","FL","hc4uh4u04h","1366","768","0","1","0","5f5d6c3cbacc025bf0a03440","","null","","","learningBlock2","","","","<div style=""font-size:60px;""> </div>","null","FL","learning/Slide110.JPG","That was a bim.","","",""
"image-keyboard-response","337","417008","0.0-7.0-0.30","FL","hc4uh4u04h","1366","768","0","1","0","5f5d6c3cbacc025bf0a03440","","null","","","","","","","learning/Slide111.JPG","null","","","","","",""
"html-keyboard-response","338","418160","0.0-7.0-1.30","FL","hc4uh4u04h","1366","768","0","1","0","5f5d6c3cbacc025bf0a03440","","null","","","learningBlock2","","","","That was a tob.","null","","","","","",""
"html-keyboard-response","339","419162","0.0-7.0-2.30","FL","hc4uh4u04h","1366","768","0","1","0","5f5d6c3cbacc025bf0a03440","","null","","","learningBlock2","","","","<div style=""font-size:60px;""> </div>","null","FL","learning/Slide111.JPG","That was a tob.","","",""
"image-keyboard-response","340","419339","0.0-7.0-0.31","FL","hc4uh4u04h","1366","768","0","1","0","5f5d6c3cbacc025bf0a03440","","null","","","","","","","learning/Slide112.JPG","null","","","","","",""
"html-keyboard-response","341","420491","0.0-7.0-1.31","FL","hc4uh4u04h","1366","768","0","1","0","5f5d6c3cbacc025bf0a03440","","null","","","learningBlock2","","","","That was a wug.","null","","","","","",""
"html-keyboard-response","342","421493","0.0-7.0-2.31","FL","hc4uh4u04h","1366","768","0","1","0","5f5d6c3cbacc025bf0a03440","","null","","","learningBlock2","","","","<div style=""font-size:60px;""> </div>","null","FL","learning/Slide112.JPG","That was a wug.","","",""
"image-keyboard-response","343","421671","0.0-7.0-0.32","FL","hc4uh4u04h","1366","768","0","1","0","5f5d6c3cbacc025bf0a03440","","null","","","","","","","learning/Slide113.JPG","null","","","","","",""
"html-keyboard-response","344","422823","0.0-7.0-1.32","FL","hc4uh4u04h","1366","768","0","1","0","5f5d6c3cbacc025bf0a03440","","null","","","learningBlock2","","","","That was a tob.","null","","","","","",""
"html-keyboard-response","345","423825","0.0-7.0-2.32","FL","hc4uh4u04h","1366","768","0","1","0","5f5d6c3cbacc025bf0a03440","","null","","","learningBlock2","","","","<div style=""font-size:60px;""> </div>","null","FL","learning/Slide113.JPG","That was a tob.","","",""
"image-keyboard-response","346","424003","0.0-7.0-0.33","FL","hc4uh4u04h","1366","768","0","1","0","5f5d6c3cbacc025bf0a03440","","null","","","","","","","learning/Slide114.JPG","null","","","","","",""
"html-keyboard-response","347","425155","0.0-7.0-1.33","FL","hc4uh4u04h","1366","768","0","1","0","5f5d6c3cbacc025bf0a03440","","null","","","learningBlock2","","","","That was a wug.","null","","","","","",""
"html-keyboard-response","348","426158","0.0-7.0-2.33","FL","hc4uh4u04h","1366","768","0","1","0","5f5d6c3cbacc025bf0a03440","","null","","","learningBlock2","","","","<div style=""font-size:60px;""> </div>","null","FL","learning/Slide114.JPG","That was a wug.","","",""
"image-keyboard-response","349","426335","0.0-7.0-0.34","FL","hc4uh4u04h","1366","768","0","1","0","5f5d6c3cbacc025bf0a03440","","null","","","","","","","learning/Slide115.JPG","null","","","","","",""
"html-keyboard-response","350","427487","0.0-7.0-1.34","FL","hc4uh4u04h","1366","768","0","1","0","5f5d6c3cbacc025bf0a03440","","null","","","learningBlock2","","","","That was a bim.","null","","","","","",""
"html-keyboard-response","351","428490","0.0-7.0-2.34","FL","hc4uh4u04h","1366","768","0","1","0","5f5d6c3cbacc025bf0a03440","","null","","","learningBlock2","","","","<div style=""font-size:60px;""> </div>","null","FL","learning/Slide115.JPG","That was a bim.","","",""
"image-keyboard-response","352","428667","0.0-7.0-0.35","FL","hc4uh4u04h","1366","768","0","1","0","5f5d6c3cbacc025bf0a03440","","null","","","","","","","learning/Slide116.JPG","null","","","","","",""
"html-keyboard-response","353","429820","0.0-7.0-1.35","FL","hc4uh4u04h","1366","768","0","1","0","5f5d6c3cbacc025bf0a03440","","null","","","learningBlock2","","","","That was a dep.","null","","","","","",""
"html-keyboard-response","354","430822","0.0-7.0-2.35","FL","hc4uh4u04h","1366","768","0","1","0","5f5d6c3cbacc025bf0a03440","","null","","","learningBlock2","","","","<div style=""font-size:60px;""> </div>","null","FL","learning/Slide116.JPG","That was a dep.","","",""
"image-keyboard-response","355","431000","0.0-7.0-0.36","FL","hc4uh4u04h","1366","768","0","1","0","5f5d6c3cbacc025bf0a03440","","null","","","","","","","learning/Slide117.JPG","null","","","","","",""
"html-keyboard-response","356","432152","0.0-7.0-1.36","FL","hc4uh4u04h","1366","768","0","1","0","5f5d6c3cbacc025bf0a03440","","null","","","learningBlock2","","","","That was a tob.","null","","","","","",""
"html-keyboard-response","357","433154","0.0-7.0-2.36","FL","hc4uh4u04h","1366","768","0","1","0","5f5d6c3cbacc025bf0a03440","","null","","","learningBlock2","","","","<div style=""font-size:60px;""> </div>","null","FL","learning/Slide117.JPG","That was a tob.","","",""
"image-keyboard-response","358","433332","0.0-7.0-0.37","FL","hc4uh4u04h","1366","768","0","1","0","5f5d6c3cbacc025bf0a03440","","null","","","","","","","learning/Slide118.JPG","null","","","","","",""
"html-keyboard-response","359","434484","0.0-7.0-1.37","FL","hc4uh4u04h","1366","768","0","1","0","5f5d6c3cbacc025bf0a03440","","null","","","learningBlock2","","","","That was a dep.","null","","","","","",""
"html-keyboard-response","360","435487","0.0-7.0-2.37","FL","hc4uh4u04h","1366","768","0","1","0","5f5d6c3cbacc025bf0a03440","","null","","","learningBlock2","","","","<div style=""font-size:60px;""> </div>","null","FL","learning/Slide118.JPG","That was a dep.","","",""
"image-keyboard-response","361","435664","0.0-7.0-0.38","FL","hc4uh4u04h","1366","768","0","1","0","5f5d6c3cbacc025bf0a03440","","null","","","","","","","learning/Slide119.JPG","null","","","","","",""
"html-keyboard-response","362","436815","0.0-7.0-1.38","FL","hc4uh4u04h","1366","768","0","1","0","5f5d6c3cbacc025bf0a03440","","null","","","learningBlock2","","","","That was a wug.","null","","","","","",""
"html-keyboard-response","363","437818","0.0-7.0-2.38","FL","hc4uh4u04h","1366","768","0","1","0","5f5d6c3cbacc025bf0a03440","","null","","","learningBlock2","","","","<div style=""font-size:60px;""> </div>","null","FL","learning/Slide119.JPG","That was a wug.","","",""
"image-keyboard-response","364","437995","0.0-7.0-0.39","FL","hc4uh4u04h","1366","768","0","1","0","5f5d6c3cbacc025bf0a03440","","null","","","","","","","learning/Slide120.JPG","null","","","","","",""
"html-keyboard-response","365","439147","0.0-7.0-1.39","FL","hc4uh4u04h","1366","768","0","1","0","5f5d6c3cbacc025bf0a03440","","null","","","learningBlock2","","","","That was a dep.","null","","","","","",""
"html-keyboard-response","366","440149","0.0-7.0-2.39","FL","hc4uh4u04h","1366","768","0","1","0","5f5d6c3cbacc025bf0a03440","","null","","","learningBlock2","","","","<div style=""font-size:60px;""> </div>","null","FL","learning/Slide120.JPG","That was a dep.","","",""
"image-keyboard-response","367","440327","0.0-7.0-0.40","FL","hc4uh4u04h","1366","768","0","1","0","5f5d6c3cbacc025bf0a03440","","null","","","","","","","learning/Slide121.JPG","null","","","","","",""
"html-keyboard-response","368","441479","0.0-7.0-1.40","FL","hc4uh4u04h","1366","768","0","1","0","5f5d6c3cbacc025bf0a03440","","null","","","learningBlock2","","","","That was a bim.","null","","","","","",""
"html-keyboard-response","369","442481","0.0-7.0-2.40","FL","hc4uh4u04h","1366","768","0","1","0","5f5d6c3cbacc025bf0a03440","","null","","","learningBlock2","","","","<div style=""font-size:60px;""> </div>","null","FL","learning/Slide121.JPG","That was a bim.","","",""
"image-keyboard-response","370","442658","0.0-7.0-0.41","FL","hc4uh4u04h","1366","768","0","1","0","5f5d6c3cbacc025bf0a03440","","null","","","","","","","learning/Slide122.JPG","null","","","","","",""
"html-keyboard-response","371","443810","0.0-7.0-1.41","FL","hc4uh4u04h","1366","768","0","1","0","5f5d6c3cbacc025bf0a03440","","null","","","learningBlock2","","","","That was a wug.","null","","","","","",""
"html-keyboard-response","372","444812","0.0-7.0-2.41","FL","hc4uh4u04h","1366","768","0","1","0","5f5d6c3cbacc025bf0a03440","","null","","","learningBlock2","","","","<div style=""font-size:60px;""> </div>","null","FL","learning/Slide122.JPG","That was a wug.","","",""
"image-keyboard-response","373","444989","0.0-7.0-0.42","FL","hc4uh4u04h","1366","768","0","1","0","5f5d6c3cbacc025bf0a03440","","null","","","","","","","learning/Slide123.JPG","null","","","","","",""
"html-keyboard-response","374","446141","0.0-7.0-1.42","FL","hc4uh4u04h","1366","768","0","1","0","5f5d6c3cbacc025bf0a03440","","null","","","learningBlock2","","","","That was a bim.","null","","","","","",""
"html-keyboard-response","375","447143","0.0-7.0-2.42","FL","hc4uh4u04h","1366","768","0","1","0","5f5d6c3cbacc025bf0a03440","","null","","","learningBlock2","","","","<div style=""font-size:60px;""> </div>","null","FL","learning/Slide123.JPG","That was a bim.","","",""
"image-keyboard-response","376","447320","0.0-7.0-0.43","FL","hc4uh4u04h","1366","768","0","1","0","5f5d6c3cbacc025bf0a03440","","null","","","","","","","learning/Slide124.JPG","null","","","","","",""
"html-keyboard-response","377","448472","0.0-7.0-1.43","FL","hc4uh4u04h","1366","768","0","1","0","5f5d6c3cbacc025bf0a03440","","null","","","learningBlock2","","","","That was a tob.","null","","","","","",""
"html-keyboard-response","378","449475","0.0-7.0-2.43","FL","hc4uh4u04h","1366","768","0","1","0","5f5d6c3cbacc025bf0a03440","","null","","","learningBlock2","","","","<div style=""font-size:60px;""> </div>","null","FL","learning/Slide124.JPG","That was a tob.","","",""
"image-keyboard-response","379","449652","0.0-7.0-0.44","FL","hc4uh4u04h","1366","768","0","1","0","5f5d6c3cbacc025bf0a03440","","null","","","","","","","learning/Slide125.JPG","null","","","","","",""
"html-keyboard-response","380","450805","0.0-7.0-1.44","FL","hc4uh4u04h","1366","768","0","1","0","5f5d6c3cbacc025bf0a03440","","null","","","learningBlock2","","","","That was a bim.","null","","","","","",""
"html-keyboard-response","381","451808","0.0-7.0-2.44","FL","hc4uh4u04h","1366","768","0","1","0","5f5d6c3cbacc025bf0a03440","","null","","","learningBlock2","","","","<div style=""font-size:60px;""> </div>","null","FL","learning/Slide125.JPG","That was a bim.","","",""
"image-keyboard-response","382","451985","0.0-7.0-0.45","FL","hc4uh4u04h","1366","768","0","1","0","5f5d6c3cbacc025bf0a03440","","null","","","","","","","learning/Slide126.JPG","null","","","","","",""
"html-keyboard-response","383","453137","0.0-7.0-1.45","FL","hc4uh4u04h","1366","768","0","1","0","5f5d6c3cbacc025bf0a03440","","null","","","learningBlock2","","","","That was a tob.","null","","","","","",""
"html-keyboard-response","384","454139","0.0-7.0-2.45","FL","hc4uh4u04h","1366","768","0","1","0","5f5d6c3cbacc025bf0a03440","","null","","","learningBlock2","","","","<div style=""font-size:60px;""> </div>","null","FL","learning/Slide126.JPG","That was a tob.","","",""
"image-keyboard-response","385","454316","0.0-7.0-0.46","FL","hc4uh4u04h","1366","768","0","1","0","5f5d6c3cbacc025bf0a03440","","null","","","","","","","learning/Slide127.JPG","null","","","","","",""
"html-keyboard-response","386","455468","0.0-7.0-1.46","FL","hc4uh4u04h","1366","768","0","1","0","5f5d6c3cbacc025bf0a03440","","null","","","learningBlock2","","","","That was a dep.","null","","","","","",""
"html-keyboard-response","387","456470","0.0-7.0-2.46","FL","hc4uh4u04h","1366","768","0","1","0","5f5d6c3cbacc025bf0a03440","","null","","","learningBlock2","","","","<div style=""font-size:60px;""> </div>","null","FL","learning/Slide127.JPG","That was a dep.","","",""
"image-keyboard-response","388","456648","0.0-7.0-0.47","FL","hc4uh4u04h","1366","768","0","1","0","5f5d6c3cbacc025bf0a03440","","null","","","","","","","learning/Slide128.JPG","null","","","","","",""
"html-keyboard-response","389","457800","0.0-7.0-1.47","FL","hc4uh4u04h","1366","768","0","1","0","5f5d6c3cbacc025bf0a03440","","null","","","learningBlock2","","","","That was a wug.","null","","","","","",""
"html-keyboard-response","390","458802","0.0-7.0-2.47","FL","hc4uh4u04h","1366","768","0","1","0","5f5d6c3cbacc025bf0a03440","","null","","","learningBlock2","","","","<div style=""font-size:60px;""> </div>","null","FL","learning/Slide128.JPG","That was a wug.","","",""
"image-keyboard-response","391","458979","0.0-7.0-0.48","FL","hc4uh4u04h","1366","768","0","1","0","5f5d6c3cbacc025bf0a03440","","null","","","","","","","learning/Slide129.JPG","null","","","","","",""
"html-keyboard-response","392","460130","0.0-7.0-1.48","FL","hc4uh4u04h","1366","768","0","1","0","5f5d6c3cbacc025bf0a03440","","null","","","learningBlock2","","","","That was a tob.","null","","","","","",""
"html-keyboard-response","393","461133","0.0-7.0-2.48","FL","hc4uh4u04h","1366","768","0","1","0","5f5d6c3cbacc025bf0a03440","","null","","","learningBlock2","","","","<div style=""font-size:60px;""> </div>","null","FL","learning/Slide129.JPG","That was a tob.","","",""
"image-keyboard-response","394","461310","0.0-7.0-0.49","FL","hc4uh4u04h","1366","768","0","1","0","5f5d6c3cbacc025bf0a03440","","null","","","","","","","learning/Slide130.JPG","null","","","","","",""
"html-keyboard-response","395","462463","0.0-7.0-1.49","FL","hc4uh4u04h","1366","768","0","1","0","5f5d6c3cbacc025bf0a03440","","null","","","learningBlock2","","","","That was a wug.","null","","","","","",""
"html-keyboard-response","396","463465","0.0-7.0-2.49","FL","hc4uh4u04h","1366","768","0","1","0","5f5d6c3cbacc025bf0a03440","","null","","","learningBlock2","","","","<div style=""font-size:60px;""> </div>","null","FL","learning/Slide130.JPG","That was a wug.","","",""
"image-keyboard-response","397","463642","0.0-7.0-0.50","FL","hc4uh4u04h","1366","768","0","1","0","5f5d6c3cbacc025bf0a03440","","null","","","","","","","learning/Slide131.JPG","null","","","","","",""
"html-keyboard-response","398","464796","0.0-7.0-1.50","FL","hc4uh4u04h","1366","768","0","1","0","5f5d6c3cbacc025bf0a03440","","null","","","learningBlock2","","","","That was a bim.","null","","","","","",""
"html-keyboard-response","399","465798","0.0-7.0-2.50","FL","hc4uh4u04h","1366","768","0","1","0","5f5d6c3cbacc025bf0a03440","","null","","","learningBlock2","","","","<div style=""font-size:60px;""> </div>","null","FL","learning/Slide131.JPG","That was a bim.","","",""
"image-keyboard-response","400","465975","0.0-7.0-0.51","FL","hc4uh4u04h","1366","768","0","1","0","5f5d6c3cbacc025bf0a03440","","null","","","","","","","learning/Slide132.JPG","null","","","","","",""
"html-keyboard-response","401","467127","0.0-7.0-1.51","FL","hc4uh4u04h","1366","768","0","1","0","5f5d6c3cbacc025bf0a03440","","null","","","learningBlock2","","","","That was a dep.","null","","","","","",""
"html-keyboard-response","402","468131","0.0-7.0-2.51","FL","hc4uh4u04h","1366","768","0","1","0","5f5d6c3cbacc025bf0a03440","","null","","","learningBlock2","","","","<div style=""font-size:60px;""> </div>","null","FL","learning/Slide132.JPG","That was a dep.","","",""
"image-keyboard-response","403","468308","0.0-7.0-0.52","FL","hc4uh4u04h","1366","768","0","1","0","5f5d6c3cbacc025bf0a03440","","null","","","","","","","learning/Slide133.JPG","null","","","","","",""
"html-keyboard-response","404","469464","0.0-7.0-1.52","FL","hc4uh4u04h","1366","768","0","1","0","5f5d6c3cbacc025bf0a03440","","null","","","learningBlock2","","","","That was a tob.","null","","","","","",""
"html-keyboard-response","405","470466","0.0-7.0-2.52","FL","hc4uh4u04h","1366","768","0","1","0","5f5d6c3cbacc025bf0a03440","","null","","","learningBlock2","","","","<div style=""font-size:60px;""> </div>","null","FL","learning/Slide133.JPG","That was a tob.","","",""
"image-keyboard-response","406","470644","0.0-7.0-0.53","FL","hc4uh4u04h","1366","768","0","1","0","5f5d6c3cbacc025bf0a03440","","null","","","","","","","learning/Slide134.JPG","null","","","","","",""
"html-keyboard-response","407","471795","0.0-7.0-1.53","FL","hc4uh4u04h","1366","768","0","1","0","5f5d6c3cbacc025bf0a03440","","null","","","learningBlock2","","","","That was a dep.","null","","","","","",""
"html-keyboard-response","408","472797","0.0-7.0-2.53","FL","hc4uh4u04h","1366","768","0","1","0","5f5d6c3cbacc025bf0a03440","","null","","","learningBlock2","","","","<div style=""font-size:60px;""> </div>","null","FL","learning/Slide134.JPG","That was a dep.","","",""
"image-keyboard-response","409","472975","0.0-7.0-0.54","FL","hc4uh4u04h","1366","768","0","1","0","5f5d6c3cbacc025bf0a03440","","null","","","","","","","learning/Slide135.JPG","null","","","","","",""
"html-keyboard-response","410","474128","0.0-7.0-1.54","FL","hc4uh4u04h","1366","768","0","1","0","5f5d6c3cbacc025bf0a03440","","null","","","learningBlock2","","","","That was a tob.","null","","","","","",""
"html-keyboard-response","411","475130","0.0-7.0-2.54","FL","hc4uh4u04h","1366","768","0","1","0","5f5d6c3cbacc025bf0a03440","","null","","","learningBlock2","","","","<div style=""font-size:60px;""> </div>","null","FL","learning/Slide135.JPG","That was a tob.","","",""
"image-keyboard-response","412","475308","0.0-7.0-0.55","FL","hc4uh4u04h","1366","768","0","1","0","5f5d6c3cbacc025bf0a03440","","null","","","","","","","learning/Slide136.JPG","null","","","","","",""
"html-keyboard-response","413","476460","0.0-7.0-1.55","FL","hc4uh4u04h","1366","768","0","1","0","5f5d6c3cbacc025bf0a03440","","null","","","learningBlock2","","","","That was a wug.","null","","","","","",""
"html-keyboard-response","414","477463","0.0-7.0-2.55","FL","hc4uh4u04h","1366","768","0","1","0","5f5d6c3cbacc025bf0a03440","","null","","","learningBlock2","","","","<div style=""font-size:60px;""> </div>","null","FL","learning/Slide136.JPG","That was a wug.","","",""
"image-keyboard-response","415","477639","0.0-7.0-0.56","FL","hc4uh4u04h","1366","768","0","1","0","5f5d6c3cbacc025bf0a03440","","null","","","","","","","learning/Slide137.JPG","null","","","","","",""
"html-keyboard-response","416","478791","0.0-7.0-1.56","FL","hc4uh4u04h","1366","768","0","1","0","5f5d6c3cbacc025bf0a03440","","null","","","learningBlock2","","","","That was a tob.","null","","","","","",""
"html-keyboard-response","417","479794","0.0-7.0-2.56","FL","hc4uh4u04h","1366","768","0","1","0","5f5d6c3cbacc025bf0a03440","","null","","","learningBlock2","","","","<div style=""font-size:60px;""> </div>","null","FL","learning/Slide137.JPG","That was a tob.","","",""
"image-keyboard-response","418","479971","0.0-7.0-0.57","FL","hc4uh4u04h","1366","768","0","1","0","5f5d6c3cbacc025bf0a03440","","null","","","","","","","learning/Slide138.JPG","null","","","","","",""
"html-keyboard-response","419","481124","0.0-7.0-1.57","FL","hc4uh4u04h","1366","768","0","1","0","5f5d6c3cbacc025bf0a03440","","null","","","learningBlock2","","","","That was a bim.","null","","","","","",""
"html-keyboard-response","420","482127","0.0-7.0-2.57","FL","hc4uh4u04h","1366","768","0","1","0","5f5d6c3cbacc025bf0a03440","","null","","","learningBlock2","","","","<div style=""font-size:60px;""> </div>","null","FL","learning/Slide138.JPG","That was a bim.","","",""
"image-keyboard-response","421","482305","0.0-7.0-0.58","FL","hc4uh4u04h","1366","768","0","1","0","5f5d6c3cbacc025bf0a03440","","null","","","","","","","learning/Slide139.JPG","null","","","","","",""
"html-keyboard-response","422","483459","0.0-7.0-1.58","FL","hc4uh4u04h","1366","768","0","1","0","5f5d6c3cbacc025bf0a03440","","null","","","learningBlock2","","","","That was a wug.","null","","","","","",""
"html-keyboard-response","423","484461","0.0-7.0-2.58","FL","hc4uh4u04h","1366","768","0","1","0","5f5d6c3cbacc025bf0a03440","","null","","","learningBlock2","","","","<div style=""font-size:60px;""> </div>","null","FL","learning/Slide139.JPG","That was a wug.","","",""
"image-keyboard-response","424","484638","0.0-7.0-0.59","FL","hc4uh4u04h","1366","768","0","1","0","5f5d6c3cbacc025bf0a03440","","null","","","","","","","learning/Slide140.JPG","null","","","","","",""
"html-keyboard-response","425","485790","0.0-7.0-1.59","FL","hc4uh4u04h","1366","768","0","1","0","5f5d6c3cbacc025bf0a03440","","null","","","learningBlock2","","","","That was a dep.","null","","","","","",""
"html-keyboard-response","426","486792","0.0-7.0-2.59","FL","hc4uh4u04h","1366","768","0","1","0","5f5d6c3cbacc025bf0a03440","","null","","","learningBlock2","","","","<div style=""font-size:60px;""> </div>","null","FL","learning/Slide140.JPG","That was a dep.","","",""
"image-keyboard-response","427","486969","0.0-7.0-0.60","FL","hc4uh4u04h","1366","768","0","1","0","5f5d6c3cbacc025bf0a03440","","null","","","","","","","learning/Slide141.JPG","null","","","","","",""
"html-keyboard-response","428","488122","0.0-7.0-1.60","FL","hc4uh4u04h","1366","768","0","1","0","5f5d6c3cbacc025bf0a03440","","null","","","learningBlock2","","","","That was a tob.","null","","","","","",""
"html-keyboard-response","429","489123","0.0-7.0-2.60","FL","hc4uh4u04h","1366","768","0","1","0","5f5d6c3cbacc025bf0a03440","","null","","","learningBlock2","","","","<div style=""font-size:60px;""> </div>","null","FL","learning/Slide141.JPG","That was a tob.","","",""
"image-keyboard-response","430","489299","0.0-7.0-0.61","FL","hc4uh4u04h","1366","768","0","1","0","5f5d6c3cbacc025bf0a03440","","null","","","","","","","learning/Slide142.JPG","null","","","","","",""
"html-keyboard-response","431","490453","0.0-7.0-1.61","FL","hc4uh4u04h","1366","768","0","1","0","5f5d6c3cbacc025bf0a03440","","null","","","learningBlock2","","","","That was a wug.","null","","","","","",""
"html-keyboard-response","432","491455","0.0-7.0-2.61","FL","hc4uh4u04h","1366","768","0","1","0","5f5d6c3cbacc025bf0a03440","","null","","","learningBlock2","","","","<div style=""font-size:60px;""> </div>","null","FL","learning/Slide142.JPG","That was a wug.","","",""
"image-keyboard-response","433","491632","0.0-7.0-0.62","FL","hc4uh4u04h","1366","768","0","1","0","5f5d6c3cbacc025bf0a03440","","null","","","","","","","learning/Slide143.JPG","null","","","","","",""
"html-keyboard-response","434","492785","0.0-7.0-1.62","FL","hc4uh4u04h","1366","768","0","1","0","5f5d6c3cbacc025bf0a03440","","null","","","learningBlock2","","","","That was a bim.","null","","","","","",""
"html-keyboard-response","435","493788","0.0-7.0-2.62","FL","hc4uh4u04h","1366","768","0","1","0","5f5d6c3cbacc025bf0a03440","","null","","","learningBlock2","","","","<div style=""font-size:60px;""> </div>","null","FL","learning/Slide143.JPG","That was a bim.","","",""
"image-keyboard-response","436","493965","0.0-7.0-0.63","FL","hc4uh4u04h","1366","768","0","1","0","5f5d6c3cbacc025bf0a03440","","null","","","","","","","learning/Slide144.JPG","null","","","","","",""
