"trial_type","trial_index","time_elapsed","internal_node_id","condition","subject","screen_width","screen_height","attention","distraction","conscientious","prolificID","success","rt","url","view_history","test_part","final_height_px","final_width_px","scale_factor","stimulus","key_press","learningType","presentedImage","presentedLabel","button_pressed","response","responses"
"pavlovia","0","17","0.0-0.0","LF","vzebe40w15","1920","1080","0","1","0","5fce9a625474c41129c10fb1","","","","","","","","","","","","","","","",""
"fullscreen","1","4717","0.0-1.0","LF","vzebe40w15","1920","1080","0","1","0","5fce9a625474c41129c10fb1","true","","","","","","","","","","","","","","",""
"external-html","2","15169","0.0-2.0-0.0","LF","vzebe40w15","1920","1080","0","1","0","5fce9a625474c41129c10fb1","","10370.179999998072","text/information_english.html","","","","","","","","","","","","",""
"external-html","3","21170","0.0-2.0-1.0","LF","vzebe40w15","1920","1080","0","1","0","5fce9a625474c41129c10fb1","","5936.409999994794","text/consent_english.html","","","","","","","","","","","","",""
"instructions","4","33029","0.0-3.0","LF","vzebe40w15","1920","1080","0","1","0","5fce9a625474c41129c10fb1","","NA","","[{""page_index"":0,""viewing_time"":1865.4950000054669},{""page_index"":1,""viewing_time"":9988.140000001295}]","instructions","","","","","","","","","","",""
"resize","5","89061","0.0-4.0","LF","vzebe40w15","1920","1080","0","1","0","5fce9a625474c41129c10fb1","","","","","","","340","2.1587301587301586","","","","","","","",""
"html-keyboard-response","6","90062","0.0-5.0-0.0","LF","vzebe40w15","1920","1080","0","1","0","5fce9a625474c41129c10fb1","","null","","","learningBlock1","","","","This is a tob:","null","","","","","",""
"image-keyboard-response","7","90389","0.0-5.0-1.0","LF","vzebe40w15","1920","1080","0","1","0","5fce9a625474c41129c10fb1","","null","","","","","","","learning/Slide1.JPG","null","","","","","",""
"html-keyboard-response","8","91390","0.0-5.0-2.0","LF","vzebe40w15","1920","1080","0","1","0","5fce9a625474c41129c10fb1","","null","","","learningBlock1","","","","<div style=""font-size:60px;""> </div>","null","LF","learning/Slide1.JPG","This is a tob:","","",""
"html-keyboard-response","9","92391","0.0-5.0-0.1","LF","vzebe40w15","1920","1080","0","1","0","5fce9a625474c41129c10fb1","","null","","","learningBlock1","","","","This is a wug:","null","","","","","",""
"image-keyboard-response","10","92718","0.0-5.0-1.1","LF","vzebe40w15","1920","1080","0","1","0","5fce9a625474c41129c10fb1","","null","","","","","","","learning/Slide2.JPG","null","","","","","",""
"html-keyboard-response","11","93719","0.0-5.0-2.1","LF","vzebe40w15","1920","1080","0","1","0","5fce9a625474c41129c10fb1","","null","","","learningBlock1","","","","<div style=""font-size:60px;""> </div>","null","LF","learning/Slide2.JPG","This is a wug:","","",""
"html-keyboard-response","12","94720","0.0-5.0-0.2","LF","vzebe40w15","1920","1080","0","1","0","5fce9a625474c41129c10fb1","","null","","","learningBlock1","","","","This is a bim:","null","","","","","",""
"image-keyboard-response","13","95048","0.0-5.0-1.2","LF","vzebe40w15","1920","1080","0","1","0","5fce9a625474c41129c10fb1","","null","","","","","","","learning/Slide3.JPG","null","","","","","",""
"html-keyboard-response","14","96050","0.0-5.0-2.2","LF","vzebe40w15","1920","1080","0","1","0","5fce9a625474c41129c10fb1","","null","","","learningBlock1","","","","<div style=""font-size:60px;""> </div>","null","LF","learning/Slide3.JPG","This is a bim:","","",""
"html-keyboard-response","15","97051","0.0-5.0-0.3","LF","vzebe40w15","1920","1080","0","1","0","5fce9a625474c41129c10fb1","","null","","","learningBlock1","","","","This is a dep:","null","","","","","",""
"image-keyboard-response","16","97378","0.0-5.0-1.3","LF","vzebe40w15","1920","1080","0","1","0","5fce9a625474c41129c10fb1","","null","","","","","","","learning/Slide4.JPG","null","","","","","",""
"html-keyboard-response","17","98380","0.0-5.0-2.3","LF","vzebe40w15","1920","1080","0","1","0","5fce9a625474c41129c10fb1","","null","","","learningBlock1","","","","<div style=""font-size:60px;""> </div>","null","LF","learning/Slide4.JPG","This is a dep:","","",""
"html-keyboard-response","18","99381","0.0-5.0-0.4","LF","vzebe40w15","1920","1080","0","1","0","5fce9a625474c41129c10fb1","","null","","","learningBlock1","","","","This is a wug:","null","","","","","",""
"image-keyboard-response","19","99708","0.0-5.0-1.4","LF","vzebe40w15","1920","1080","0","1","0","5fce9a625474c41129c10fb1","","null","","","","","","","learning/Slide5.JPG","null","","","","","",""
"html-keyboard-response","20","100709","0.0-5.0-2.4","LF","vzebe40w15","1920","1080","0","1","0","5fce9a625474c41129c10fb1","","null","","","learningBlock1","","","","<div style=""font-size:60px;""> </div>","null","LF","learning/Slide5.JPG","This is a wug:","","",""
"html-keyboard-response","21","101711","0.0-5.0-0.5","LF","vzebe40w15","1920","1080","0","1","0","5fce9a625474c41129c10fb1","","null","","","learningBlock1","","","","This is a dep:","null","","","","","",""
"image-keyboard-response","22","102039","0.0-5.0-1.5","LF","vzebe40w15","1920","1080","0","1","0","5fce9a625474c41129c10fb1","","null","","","","","","","learning/Slide6.JPG","null","","","","","",""
"html-keyboard-response","23","103039","0.0-5.0-2.5","LF","vzebe40w15","1920","1080","0","1","0","5fce9a625474c41129c10fb1","","null","","","learningBlock1","","","","<div style=""font-size:60px;""> </div>","null","LF","learning/Slide6.JPG","This is a dep:","","",""
"html-keyboard-response","24","104040","0.0-5.0-0.6","LF","vzebe40w15","1920","1080","0","1","0","5fce9a625474c41129c10fb1","","null","","","learningBlock1","","","","This is a wug:","null","","","","","",""
"image-keyboard-response","25","104367","0.0-5.0-1.6","LF","vzebe40w15","1920","1080","0","1","0","5fce9a625474c41129c10fb1","","null","","","","","","","learning/Slide7.JPG","null","","","","","",""
"html-keyboard-response","26","105367","0.0-5.0-2.6","LF","vzebe40w15","1920","1080","0","1","0","5fce9a625474c41129c10fb1","","null","","","learningBlock1","","","","<div style=""font-size:60px;""> </div>","null","LF","learning/Slide7.JPG","This is a wug:","","",""
"html-keyboard-response","27","106368","0.0-5.0-0.7","LF","vzebe40w15","1920","1080","0","1","0","5fce9a625474c41129c10fb1","","null","","","learningBlock1","","","","This is a bim:","null","","","","","",""
"image-keyboard-response","28","106695","0.0-5.0-1.7","LF","vzebe40w15","1920","1080","0","1","0","5fce9a625474c41129c10fb1","","null","","","","","","","learning/Slide8.JPG","null","","","","","",""
"html-keyboard-response","29","107696","0.0-5.0-2.7","LF","vzebe40w15","1920","1080","0","1","0","5fce9a625474c41129c10fb1","","null","","","learningBlock1","","","","<div style=""font-size:60px;""> </div>","null","LF","learning/Slide8.JPG","This is a bim:","","",""
"html-keyboard-response","30","108697","0.0-5.0-0.8","LF","vzebe40w15","1920","1080","0","1","0","5fce9a625474c41129c10fb1","","null","","","learningBlock1","","","","This is a wug:","null","","","","","",""
"image-keyboard-response","31","109025","0.0-5.0-1.8","LF","vzebe40w15","1920","1080","0","1","0","5fce9a625474c41129c10fb1","","null","","","","","","","learning/Slide9.JPG","null","","","","","",""
"html-keyboard-response","32","110026","0.0-5.0-2.8","LF","vzebe40w15","1920","1080","0","1","0","5fce9a625474c41129c10fb1","","null","","","learningBlock1","","","","<div style=""font-size:60px;""> </div>","null","LF","learning/Slide9.JPG","This is a wug:","","",""
"html-keyboard-response","33","111026","0.0-5.0-0.9","LF","vzebe40w15","1920","1080","0","1","0","5fce9a625474c41129c10fb1","","null","","","learningBlock1","","","","This is a dep:","null","","","","","",""
"image-keyboard-response","34","111354","0.0-5.0-1.9","LF","vzebe40w15","1920","1080","0","1","0","5fce9a625474c41129c10fb1","","null","","","","","","","learning/Slide10.JPG","null","","","","","",""
"html-keyboard-response","35","112355","0.0-5.0-2.9","LF","vzebe40w15","1920","1080","0","1","0","5fce9a625474c41129c10fb1","","null","","","learningBlock1","","","","<div style=""font-size:60px;""> </div>","null","LF","learning/Slide10.JPG","This is a dep:","","",""
"html-keyboard-response","36","113356","0.0-5.0-0.10","LF","vzebe40w15","1920","1080","0","1","0","5fce9a625474c41129c10fb1","","null","","","learningBlock1","","","","This is a tob:","null","","","","","",""
"image-keyboard-response","37","113683","0.0-5.0-1.10","LF","vzebe40w15","1920","1080","0","1","0","5fce9a625474c41129c10fb1","","null","","","","","","","learning/Slide11.JPG","null","","","","","",""
"html-keyboard-response","38","114684","0.0-5.0-2.10","LF","vzebe40w15","1920","1080","0","1","0","5fce9a625474c41129c10fb1","","null","","","learningBlock1","","","","<div style=""font-size:60px;""> </div>","null","LF","learning/Slide11.JPG","This is a tob:","","",""
"html-keyboard-response","39","115685","0.0-5.0-0.11","LF","vzebe40w15","1920","1080","0","1","0","5fce9a625474c41129c10fb1","","null","","","learningBlock1","","","","This is a dep:","null","","","","","",""
"image-keyboard-response","40","116013","0.0-5.0-1.11","LF","vzebe40w15","1920","1080","0","1","0","5fce9a625474c41129c10fb1","","null","","","","","","","learning/Slide12.JPG","null","","","","","",""
"html-keyboard-response","41","117014","0.0-5.0-2.11","LF","vzebe40w15","1920","1080","0","1","0","5fce9a625474c41129c10fb1","","null","","","learningBlock1","","","","<div style=""font-size:60px;""> </div>","null","LF","learning/Slide12.JPG","This is a dep:","","",""
"html-keyboard-response","42","118015","0.0-5.0-0.12","LF","vzebe40w15","1920","1080","0","1","0","5fce9a625474c41129c10fb1","","null","","","learningBlock1","","","","This is a bim:","null","","","","","",""
"image-keyboard-response","43","118342","0.0-5.0-1.12","LF","vzebe40w15","1920","1080","0","1","0","5fce9a625474c41129c10fb1","","null","","","","","","","learning/Slide13.JPG","null","","","","","",""
"html-keyboard-response","44","119343","0.0-5.0-2.12","LF","vzebe40w15","1920","1080","0","1","0","5fce9a625474c41129c10fb1","","null","","","learningBlock1","","","","<div style=""font-size:60px;""> </div>","null","LF","learning/Slide13.JPG","This is a bim:","","",""
"html-keyboard-response","45","120344","0.0-5.0-0.13","LF","vzebe40w15","1920","1080","0","1","0","5fce9a625474c41129c10fb1","","null","","","learningBlock1","","","","This is a wug:","null","","","","","",""
"image-keyboard-response","46","120671","0.0-5.0-1.13","LF","vzebe40w15","1920","1080","0","1","0","5fce9a625474c41129c10fb1","","null","","","","","","","learning/Slide14.JPG","null","","","","","",""
"html-keyboard-response","47","121672","0.0-5.0-2.13","LF","vzebe40w15","1920","1080","0","1","0","5fce9a625474c41129c10fb1","","null","","","learningBlock1","","","","<div style=""font-size:60px;""> </div>","null","LF","learning/Slide14.JPG","This is a wug:","","",""
"html-keyboard-response","48","122673","0.0-5.0-0.14","LF","vzebe40w15","1920","1080","0","1","0","5fce9a625474c41129c10fb1","","null","","","learningBlock1","","","","This is a tob:","null","","","","","",""
"image-keyboard-response","49","123001","0.0-5.0-1.14","LF","vzebe40w15","1920","1080","0","1","0","5fce9a625474c41129c10fb1","","null","","","","","","","learning/Slide15.JPG","null","","","","","",""
"html-keyboard-response","50","124002","0.0-5.0-2.14","LF","vzebe40w15","1920","1080","0","1","0","5fce9a625474c41129c10fb1","","null","","","learningBlock1","","","","<div style=""font-size:60px;""> </div>","null","LF","learning/Slide15.JPG","This is a tob:","","",""
"html-keyboard-response","51","125002","0.0-5.0-0.15","LF","vzebe40w15","1920","1080","0","1","0","5fce9a625474c41129c10fb1","","null","","","learningBlock1","","","","This is a dep:","null","","","","","",""
"image-keyboard-response","52","125330","0.0-5.0-1.15","LF","vzebe40w15","1920","1080","0","1","0","5fce9a625474c41129c10fb1","","null","","","","","","","learning/Slide16.JPG","null","","","","","",""
"html-keyboard-response","53","126331","0.0-5.0-2.15","LF","vzebe40w15","1920","1080","0","1","0","5fce9a625474c41129c10fb1","","null","","","learningBlock1","","","","<div style=""font-size:60px;""> </div>","null","LF","learning/Slide16.JPG","This is a dep:","","",""
"html-keyboard-response","54","127331","0.0-5.0-0.16","LF","vzebe40w15","1920","1080","0","1","0","5fce9a625474c41129c10fb1","","null","","","learningBlock1","","","","This is a bim:","null","","","","","",""
"image-keyboard-response","55","127659","0.0-5.0-1.16","LF","vzebe40w15","1920","1080","0","1","0","5fce9a625474c41129c10fb1","","null","","","","","","","learning/Slide17.JPG","null","","","","","",""
"html-keyboard-response","56","128660","0.0-5.0-2.16","LF","vzebe40w15","1920","1080","0","1","0","5fce9a625474c41129c10fb1","","null","","","learningBlock1","","","","<div style=""font-size:60px;""> </div>","null","LF","learning/Slide17.JPG","This is a bim:","","",""
"html-keyboard-response","57","129661","0.0-5.0-0.17","LF","vzebe40w15","1920","1080","0","1","0","5fce9a625474c41129c10fb1","","null","","","learningBlock1","","","","This is a tob:","null","","","","","",""
"image-keyboard-response","58","129989","0.0-5.0-1.17","LF","vzebe40w15","1920","1080","0","1","0","5fce9a625474c41129c10fb1","","null","","","","","","","learning/Slide18.JPG","null","","","","","",""
"html-keyboard-response","59","130990","0.0-5.0-2.17","LF","vzebe40w15","1920","1080","0","1","0","5fce9a625474c41129c10fb1","","null","","","learningBlock1","","","","<div style=""font-size:60px;""> </div>","null","LF","learning/Slide18.JPG","This is a tob:","","",""
"html-keyboard-response","60","131991","0.0-5.0-0.18","LF","vzebe40w15","1920","1080","0","1","0","5fce9a625474c41129c10fb1","","null","","","learningBlock1","","","","This is a wug:","null","","","","","",""
"image-keyboard-response","61","132318","0.0-5.0-1.18","LF","vzebe40w15","1920","1080","0","1","0","5fce9a625474c41129c10fb1","","null","","","","","","","learning/Slide19.JPG","null","","","","","",""
"html-keyboard-response","62","133319","0.0-5.0-2.18","LF","vzebe40w15","1920","1080","0","1","0","5fce9a625474c41129c10fb1","","null","","","learningBlock1","","","","<div style=""font-size:60px;""> </div>","null","LF","learning/Slide19.JPG","This is a wug:","","",""
"html-keyboard-response","63","134320","0.0-5.0-0.19","LF","vzebe40w15","1920","1080","0","1","0","5fce9a625474c41129c10fb1","","null","","","learningBlock1","","","","This is a bim:","null","","","","","",""
"image-keyboard-response","64","134647","0.0-5.0-1.19","LF","vzebe40w15","1920","1080","0","1","0","5fce9a625474c41129c10fb1","","null","","","","","","","learning/Slide20.JPG","null","","","","","",""
"html-keyboard-response","65","135648","0.0-5.0-2.19","LF","vzebe40w15","1920","1080","0","1","0","5fce9a625474c41129c10fb1","","null","","","learningBlock1","","","","<div style=""font-size:60px;""> </div>","null","LF","learning/Slide20.JPG","This is a bim:","","",""
"html-keyboard-response","66","136649","0.0-5.0-0.20","LF","vzebe40w15","1920","1080","0","1","0","5fce9a625474c41129c10fb1","","null","","","learningBlock1","","","","This is a dep:","null","","","","","",""
"image-keyboard-response","67","136976","0.0-5.0-1.20","LF","vzebe40w15","1920","1080","0","1","0","5fce9a625474c41129c10fb1","","null","","","","","","","learning/Slide21.JPG","null","","","","","",""
"html-keyboard-response","68","137977","0.0-5.0-2.20","LF","vzebe40w15","1920","1080","0","1","0","5fce9a625474c41129c10fb1","","null","","","learningBlock1","","","","<div style=""font-size:60px;""> </div>","null","LF","learning/Slide21.JPG","This is a dep:","","",""
"html-keyboard-response","69","138979","0.0-5.0-0.21","LF","vzebe40w15","1920","1080","0","1","0","5fce9a625474c41129c10fb1","","null","","","learningBlock1","","","","This is a bim:","null","","","","","",""
"image-keyboard-response","70","139306","0.0-5.0-1.21","LF","vzebe40w15","1920","1080","0","1","0","5fce9a625474c41129c10fb1","","null","","","","","","","learning/Slide22.JPG","null","","","","","",""
"html-keyboard-response","71","140307","0.0-5.0-2.21","LF","vzebe40w15","1920","1080","0","1","0","5fce9a625474c41129c10fb1","","null","","","learningBlock1","","","","<div style=""font-size:60px;""> </div>","null","LF","learning/Slide22.JPG","This is a bim:","","",""
"html-keyboard-response","72","141308","0.0-5.0-0.22","LF","vzebe40w15","1920","1080","0","1","0","5fce9a625474c41129c10fb1","","null","","","learningBlock1","","","","This is a tob:","null","","","","","",""
"image-keyboard-response","73","141635","0.0-5.0-1.22","LF","vzebe40w15","1920","1080","0","1","0","5fce9a625474c41129c10fb1","","null","","","","","","","learning/Slide23.JPG","null","","","","","",""
"html-keyboard-response","74","142636","0.0-5.0-2.22","LF","vzebe40w15","1920","1080","0","1","0","5fce9a625474c41129c10fb1","","null","","","learningBlock1","","","","<div style=""font-size:60px;""> </div>","null","LF","learning/Slide23.JPG","This is a tob:","","",""
"html-keyboard-response","75","143637","0.0-5.0-0.23","LF","vzebe40w15","1920","1080","0","1","0","5fce9a625474c41129c10fb1","","null","","","learningBlock1","","","","This is a wug:","null","","","","","",""
"image-keyboard-response","76","143964","0.0-5.0-1.23","LF","vzebe40w15","1920","1080","0","1","0","5fce9a625474c41129c10fb1","","null","","","","","","","learning/Slide24.JPG","null","","","","","",""
"html-keyboard-response","77","144965","0.0-5.0-2.23","LF","vzebe40w15","1920","1080","0","1","0","5fce9a625474c41129c10fb1","","null","","","learningBlock1","","","","<div style=""font-size:60px;""> </div>","null","LF","learning/Slide24.JPG","This is a wug:","","",""
"html-keyboard-response","78","145966","0.0-5.0-0.24","LF","vzebe40w15","1920","1080","0","1","0","5fce9a625474c41129c10fb1","","null","","","learningBlock1","","","","This is a dep:","null","","","","","",""
"image-keyboard-response","79","146293","0.0-5.0-1.24","LF","vzebe40w15","1920","1080","0","1","0","5fce9a625474c41129c10fb1","","null","","","","","","","learning/Slide25.JPG","null","","","","","",""
"html-keyboard-response","80","147294","0.0-5.0-2.24","LF","vzebe40w15","1920","1080","0","1","0","5fce9a625474c41129c10fb1","","null","","","learningBlock1","","","","<div style=""font-size:60px;""> </div>","null","LF","learning/Slide25.JPG","This is a dep:","","",""
"html-keyboard-response","81","148295","0.0-5.0-0.25","LF","vzebe40w15","1920","1080","0","1","0","5fce9a625474c41129c10fb1","","null","","","learningBlock1","","","","This is a wug:","null","","","","","",""
"image-keyboard-response","82","148622","0.0-5.0-1.25","LF","vzebe40w15","1920","1080","0","1","0","5fce9a625474c41129c10fb1","","null","","","","","","","learning/Slide26.JPG","null","","","","","",""
"html-keyboard-response","83","149623","0.0-5.0-2.25","LF","vzebe40w15","1920","1080","0","1","0","5fce9a625474c41129c10fb1","","null","","","learningBlock1","","","","<div style=""font-size:60px;""> </div>","null","LF","learning/Slide26.JPG","This is a wug:","","",""
"html-keyboard-response","84","150624","0.0-5.0-0.26","LF","vzebe40w15","1920","1080","0","1","0","5fce9a625474c41129c10fb1","","null","","","learningBlock1","","","","This is a bim:","null","","","","","",""
"image-keyboard-response","85","150952","0.0-5.0-1.26","LF","vzebe40w15","1920","1080","0","1","0","5fce9a625474c41129c10fb1","","null","","","","","","","learning/Slide27.JPG","null","","","","","",""
"html-keyboard-response","86","151952","0.0-5.0-2.26","LF","vzebe40w15","1920","1080","0","1","0","5fce9a625474c41129c10fb1","","null","","","learningBlock1","","","","<div style=""font-size:60px;""> </div>","null","LF","learning/Slide27.JPG","This is a bim:","","",""
"html-keyboard-response","87","152953","0.0-5.0-0.27","LF","vzebe40w15","1920","1080","0","1","0","5fce9a625474c41129c10fb1","","null","","","learningBlock1","","","","This is a dep:","null","","","","","",""
"image-keyboard-response","88","153281","0.0-5.0-1.27","LF","vzebe40w15","1920","1080","0","1","0","5fce9a625474c41129c10fb1","","null","","","","","","","learning/Slide28.JPG","null","","","","","",""
"html-keyboard-response","89","154281","0.0-5.0-2.27","LF","vzebe40w15","1920","1080","0","1","0","5fce9a625474c41129c10fb1","","null","","","learningBlock1","","","","<div style=""font-size:60px;""> </div>","null","LF","learning/Slide28.JPG","This is a dep:","","",""
"html-keyboard-response","90","155282","0.0-5.0-0.28","LF","vzebe40w15","1920","1080","0","1","0","5fce9a625474c41129c10fb1","","null","","","learningBlock1","","","","This is a tob:","null","","","","","",""
"image-keyboard-response","91","155611","0.0-5.0-1.28","LF","vzebe40w15","1920","1080","0","1","0","5fce9a625474c41129c10fb1","","null","","","","","","","learning/Slide29.JPG","null","","","","","",""
"html-keyboard-response","92","156613","0.0-5.0-2.28","LF","vzebe40w15","1920","1080","0","1","0","5fce9a625474c41129c10fb1","","null","","","learningBlock1","","","","<div style=""font-size:60px;""> </div>","null","LF","learning/Slide29.JPG","This is a tob:","","",""
"html-keyboard-response","93","157613","0.0-5.0-0.29","LF","vzebe40w15","1920","1080","0","1","0","5fce9a625474c41129c10fb1","","null","","","learningBlock1","","","","This is a dep:","null","","","","","",""
"image-keyboard-response","94","157941","0.0-5.0-1.29","LF","vzebe40w15","1920","1080","0","1","0","5fce9a625474c41129c10fb1","","null","","","","","","","learning/Slide30.JPG","null","","","","","",""
"html-keyboard-response","95","158942","0.0-5.0-2.29","LF","vzebe40w15","1920","1080","0","1","0","5fce9a625474c41129c10fb1","","null","","","learningBlock1","","","","<div style=""font-size:60px;""> </div>","null","LF","learning/Slide30.JPG","This is a dep:","","",""
"html-keyboard-response","96","159944","0.0-5.0-0.30","LF","vzebe40w15","1920","1080","0","1","0","5fce9a625474c41129c10fb1","","null","","","learningBlock1","","","","This is a wug:","null","","","","","",""
"image-keyboard-response","97","160271","0.0-5.0-1.30","LF","vzebe40w15","1920","1080","0","1","0","5fce9a625474c41129c10fb1","","null","","","","","","","learning/Slide31.JPG","null","","","","","",""
"html-keyboard-response","98","161272","0.0-5.0-2.30","LF","vzebe40w15","1920","1080","0","1","0","5fce9a625474c41129c10fb1","","null","","","learningBlock1","","","","<div style=""font-size:60px;""> </div>","null","LF","learning/Slide31.JPG","This is a wug:","","",""
"html-keyboard-response","99","162273","0.0-5.0-0.31","LF","vzebe40w15","1920","1080","0","1","0","5fce9a625474c41129c10fb1","","null","","","learningBlock1","","","","This is a tob:","null","","","","","",""
"image-keyboard-response","100","162600","0.0-5.0-1.31","LF","vzebe40w15","1920","1080","0","1","0","5fce9a625474c41129c10fb1","","null","","","","","","","learning/Slide32.JPG","null","","","","","",""
"html-keyboard-response","101","163601","0.0-5.0-2.31","LF","vzebe40w15","1920","1080","0","1","0","5fce9a625474c41129c10fb1","","null","","","learningBlock1","","","","<div style=""font-size:60px;""> </div>","null","LF","learning/Slide32.JPG","This is a tob:","","",""
"html-keyboard-response","102","164602","0.0-5.0-0.32","LF","vzebe40w15","1920","1080","0","1","0","5fce9a625474c41129c10fb1","","null","","","learningBlock1","","","","This is a bim:","null","","","","","",""
"image-keyboard-response","103","164929","0.0-5.0-1.32","LF","vzebe40w15","1920","1080","0","1","0","5fce9a625474c41129c10fb1","","null","","","","","","","learning/Slide33.JPG","null","","","","","",""
"html-keyboard-response","104","165930","0.0-5.0-2.32","LF","vzebe40w15","1920","1080","0","1","0","5fce9a625474c41129c10fb1","","null","","","learningBlock1","","","","<div style=""font-size:60px;""> </div>","null","LF","learning/Slide33.JPG","This is a bim:","","",""
"html-keyboard-response","105","166931","0.0-5.0-0.33","LF","vzebe40w15","1920","1080","0","1","0","5fce9a625474c41129c10fb1","","null","","","learningBlock1","","","","This is a tob:","null","","","","","",""
"image-keyboard-response","106","167258","0.0-5.0-1.33","LF","vzebe40w15","1920","1080","0","1","0","5fce9a625474c41129c10fb1","","null","","","","","","","learning/Slide34.JPG","null","","","","","",""
"html-keyboard-response","107","168259","0.0-5.0-2.33","LF","vzebe40w15","1920","1080","0","1","0","5fce9a625474c41129c10fb1","","null","","","learningBlock1","","","","<div style=""font-size:60px;""> </div>","null","LF","learning/Slide34.JPG","This is a tob:","","",""
"html-keyboard-response","108","169260","0.0-5.0-0.34","LF","vzebe40w15","1920","1080","0","1","0","5fce9a625474c41129c10fb1","","null","","","learningBlock1","","","","This is a bim:","null","","","","","",""
"image-keyboard-response","109","169588","0.0-5.0-1.34","LF","vzebe40w15","1920","1080","0","1","0","5fce9a625474c41129c10fb1","","null","","","","","","","learning/Slide35.JPG","null","","","","","",""
"html-keyboard-response","110","170589","0.0-5.0-2.34","LF","vzebe40w15","1920","1080","0","1","0","5fce9a625474c41129c10fb1","","null","","","learningBlock1","","","","<div style=""font-size:60px;""> </div>","null","LF","learning/Slide35.JPG","This is a bim:","","",""
"html-keyboard-response","111","171590","0.0-5.0-0.35","LF","vzebe40w15","1920","1080","0","1","0","5fce9a625474c41129c10fb1","","null","","","learningBlock1","","","","This is a dep:","null","","","","","",""
"image-keyboard-response","112","171917","0.0-5.0-1.35","LF","vzebe40w15","1920","1080","0","1","0","5fce9a625474c41129c10fb1","","null","","","","","","","learning/Slide36.JPG","null","","","","","",""
"html-keyboard-response","113","172918","0.0-5.0-2.35","LF","vzebe40w15","1920","1080","0","1","0","5fce9a625474c41129c10fb1","","null","","","learningBlock1","","","","<div style=""font-size:60px;""> </div>","null","LF","learning/Slide36.JPG","This is a dep:","","",""
"html-keyboard-response","114","173919","0.0-5.0-0.36","LF","vzebe40w15","1920","1080","0","1","0","5fce9a625474c41129c10fb1","","null","","","learningBlock1","","","","This is a tob:","null","","","","","",""
"image-keyboard-response","115","174246","0.0-5.0-1.36","LF","vzebe40w15","1920","1080","0","1","0","5fce9a625474c41129c10fb1","","null","","","","","","","learning/Slide37.JPG","null","","","","","",""
"html-keyboard-response","116","175247","0.0-5.0-2.36","LF","vzebe40w15","1920","1080","0","1","0","5fce9a625474c41129c10fb1","","null","","","learningBlock1","","","","<div style=""font-size:60px;""> </div>","null","LF","learning/Slide37.JPG","This is a tob:","","",""
"html-keyboard-response","117","176248","0.0-5.0-0.37","LF","vzebe40w15","1920","1080","0","1","0","5fce9a625474c41129c10fb1","","null","","","learningBlock1","","","","This is a wug:","null","","","","","",""
"image-keyboard-response","118","176576","0.0-5.0-1.37","LF","vzebe40w15","1920","1080","0","1","0","5fce9a625474c41129c10fb1","","null","","","","","","","learning/Slide38.JPG","null","","","","","",""
"html-keyboard-response","119","177576","0.0-5.0-2.37","LF","vzebe40w15","1920","1080","0","1","0","5fce9a625474c41129c10fb1","","null","","","learningBlock1","","","","<div style=""font-size:60px;""> </div>","null","LF","learning/Slide38.JPG","This is a wug:","","",""
"html-keyboard-response","120","178577","0.0-5.0-0.38","LF","vzebe40w15","1920","1080","0","1","0","5fce9a625474c41129c10fb1","","null","","","learningBlock1","","","","This is a bim:","null","","","","","",""
"image-keyboard-response","121","178905","0.0-5.0-1.38","LF","vzebe40w15","1920","1080","0","1","0","5fce9a625474c41129c10fb1","","null","","","","","","","learning/Slide39.JPG","null","","","","","",""
"html-keyboard-response","122","179906","0.0-5.0-2.38","LF","vzebe40w15","1920","1080","0","1","0","5fce9a625474c41129c10fb1","","null","","","learningBlock1","","","","<div style=""font-size:60px;""> </div>","null","LF","learning/Slide39.JPG","This is a bim:","","",""
"html-keyboard-response","123","180906","0.0-5.0-0.39","LF","vzebe40w15","1920","1080","0","1","0","5fce9a625474c41129c10fb1","","null","","","learningBlock1","","","","This is a tob:","null","","","","","",""
"image-keyboard-response","124","181234","0.0-5.0-1.39","LF","vzebe40w15","1920","1080","0","1","0","5fce9a625474c41129c10fb1","","null","","","","","","","learning/Slide40.JPG","null","","","","","",""
"html-keyboard-response","125","182235","0.0-5.0-2.39","LF","vzebe40w15","1920","1080","0","1","0","5fce9a625474c41129c10fb1","","null","","","learningBlock1","","","","<div style=""font-size:60px;""> </div>","null","LF","learning/Slide40.JPG","This is a tob:","","",""
"html-keyboard-response","126","183235","0.0-5.0-0.40","LF","vzebe40w15","1920","1080","0","1","0","5fce9a625474c41129c10fb1","","null","","","learningBlock1","","","","This is a bim:","null","","","","","",""
"image-keyboard-response","127","183563","0.0-5.0-1.40","LF","vzebe40w15","1920","1080","0","1","0","5fce9a625474c41129c10fb1","","null","","","","","","","learning/Slide41.JPG","null","","","","","",""
"html-keyboard-response","128","184564","0.0-5.0-2.40","LF","vzebe40w15","1920","1080","0","1","0","5fce9a625474c41129c10fb1","","null","","","learningBlock1","","","","<div style=""font-size:60px;""> </div>","null","LF","learning/Slide41.JPG","This is a bim:","","",""
"html-keyboard-response","129","185565","0.0-5.0-0.41","LF","vzebe40w15","1920","1080","0","1","0","5fce9a625474c41129c10fb1","","null","","","learningBlock1","","","","This is a dep:","null","","","","","",""
"image-keyboard-response","130","185892","0.0-5.0-1.41","LF","vzebe40w15","1920","1080","0","1","0","5fce9a625474c41129c10fb1","","null","","","","","","","learning/Slide42.JPG","null","","","","","",""
"html-keyboard-response","131","186893","0.0-5.0-2.41","LF","vzebe40w15","1920","1080","0","1","0","5fce9a625474c41129c10fb1","","null","","","learningBlock1","","","","<div style=""font-size:60px;""> </div>","null","LF","learning/Slide42.JPG","This is a dep:","","",""
"html-keyboard-response","132","187894","0.0-5.0-0.42","LF","vzebe40w15","1920","1080","0","1","0","5fce9a625474c41129c10fb1","","null","","","learningBlock1","","","","This is a wug:","null","","","","","",""
"image-keyboard-response","133","188222","0.0-5.0-1.42","LF","vzebe40w15","1920","1080","0","1","0","5fce9a625474c41129c10fb1","","null","","","","","","","learning/Slide43.JPG","null","","","","","",""
"html-keyboard-response","134","189223","0.0-5.0-2.42","LF","vzebe40w15","1920","1080","0","1","0","5fce9a625474c41129c10fb1","","null","","","learningBlock1","","","","<div style=""font-size:60px;""> </div>","null","LF","learning/Slide43.JPG","This is a wug:","","",""
"html-keyboard-response","135","190224","0.0-5.0-0.43","LF","vzebe40w15","1920","1080","0","1","0","5fce9a625474c41129c10fb1","","null","","","learningBlock1","","","","This is a bim:","null","","","","","",""
"image-keyboard-response","136","190551","0.0-5.0-1.43","LF","vzebe40w15","1920","1080","0","1","0","5fce9a625474c41129c10fb1","","null","","","","","","","learning/Slide44.JPG","null","","","","","",""
"html-keyboard-response","137","191552","0.0-5.0-2.43","LF","vzebe40w15","1920","1080","0","1","0","5fce9a625474c41129c10fb1","","null","","","learningBlock1","","","","<div style=""font-size:60px;""> </div>","null","LF","learning/Slide44.JPG","This is a bim:","","",""
"html-keyboard-response","138","192553","0.0-5.0-0.44","LF","vzebe40w15","1920","1080","0","1","0","5fce9a625474c41129c10fb1","","null","","","learningBlock1","","","","This is a wug:","null","","","","","",""
"image-keyboard-response","139","192880","0.0-5.0-1.44","LF","vzebe40w15","1920","1080","0","1","0","5fce9a625474c41129c10fb1","","null","","","","","","","learning/Slide45.JPG","null","","","","","",""
"html-keyboard-response","140","193881","0.0-5.0-2.44","LF","vzebe40w15","1920","1080","0","1","0","5fce9a625474c41129c10fb1","","null","","","learningBlock1","","","","<div style=""font-size:60px;""> </div>","null","LF","learning/Slide45.JPG","This is a wug:","","",""
"html-keyboard-response","141","194882","0.0-5.0-0.45","LF","vzebe40w15","1920","1080","0","1","0","5fce9a625474c41129c10fb1","","null","","","learningBlock1","","","","This is a dep:","null","","","","","",""
"image-keyboard-response","142","195209","0.0-5.0-1.45","LF","vzebe40w15","1920","1080","0","1","0","5fce9a625474c41129c10fb1","","null","","","","","","","learning/Slide46.JPG","null","","","","","",""
"html-keyboard-response","143","196210","0.0-5.0-2.45","LF","vzebe40w15","1920","1080","0","1","0","5fce9a625474c41129c10fb1","","null","","","learningBlock1","","","","<div style=""font-size:60px;""> </div>","null","LF","learning/Slide46.JPG","This is a dep:","","",""
"html-keyboard-response","144","197211","0.0-5.0-0.46","LF","vzebe40w15","1920","1080","0","1","0","5fce9a625474c41129c10fb1","","null","","","learningBlock1","","","","This is a tob:","null","","","","","",""
"image-keyboard-response","145","197538","0.0-5.0-1.46","LF","vzebe40w15","1920","1080","0","1","0","5fce9a625474c41129c10fb1","","null","","","","","","","learning/Slide47.JPG","null","","","","","",""
"html-keyboard-response","146","198539","0.0-5.0-2.46","LF","vzebe40w15","1920","1080","0","1","0","5fce9a625474c41129c10fb1","","null","","","learningBlock1","","","","<div style=""font-size:60px;""> </div>","null","LF","learning/Slide47.JPG","This is a tob:","","",""
"html-keyboard-response","147","199540","0.0-5.0-0.47","LF","vzebe40w15","1920","1080","0","1","0","5fce9a625474c41129c10fb1","","null","","","learningBlock1","","","","This is a bim:","null","","","","","",""
"image-keyboard-response","148","199867","0.0-5.0-1.47","LF","vzebe40w15","1920","1080","0","1","0","5fce9a625474c41129c10fb1","","null","","","","","","","learning/Slide48.JPG","null","","","","","",""
"html-keyboard-response","149","200868","0.0-5.0-2.47","LF","vzebe40w15","1920","1080","0","1","0","5fce9a625474c41129c10fb1","","null","","","learningBlock1","","","","<div style=""font-size:60px;""> </div>","null","LF","learning/Slide48.JPG","This is a bim:","","",""
"html-keyboard-response","150","201869","0.0-5.0-0.48","LF","vzebe40w15","1920","1080","0","1","0","5fce9a625474c41129c10fb1","","null","","","learningBlock1","","","","This is a dep:","null","","","","","",""
"image-keyboard-response","151","202196","0.0-5.0-1.48","LF","vzebe40w15","1920","1080","0","1","0","5fce9a625474c41129c10fb1","","null","","","","","","","learning/Slide49.JPG","null","","","","","",""
"html-keyboard-response","152","203197","0.0-5.0-2.48","LF","vzebe40w15","1920","1080","0","1","0","5fce9a625474c41129c10fb1","","null","","","learningBlock1","","","","<div style=""font-size:60px;""> </div>","null","LF","learning/Slide49.JPG","This is a dep:","","",""
"html-keyboard-response","153","204198","0.0-5.0-0.49","LF","vzebe40w15","1920","1080","0","1","0","5fce9a625474c41129c10fb1","","null","","","learningBlock1","","","","This is a tob:","null","","","","","",""
"image-keyboard-response","154","204525","0.0-5.0-1.49","LF","vzebe40w15","1920","1080","0","1","0","5fce9a625474c41129c10fb1","","null","","","","","","","learning/Slide50.JPG","null","","","","","",""
"html-keyboard-response","155","205526","0.0-5.0-2.49","LF","vzebe40w15","1920","1080","0","1","0","5fce9a625474c41129c10fb1","","null","","","learningBlock1","","","","<div style=""font-size:60px;""> </div>","null","LF","learning/Slide50.JPG","This is a tob:","","",""
"html-keyboard-response","156","206527","0.0-5.0-0.50","LF","vzebe40w15","1920","1080","0","1","0","5fce9a625474c41129c10fb1","","null","","","learningBlock1","","","","This is a bim:","null","","","","","",""
"image-keyboard-response","157","206855","0.0-5.0-1.50","LF","vzebe40w15","1920","1080","0","1","0","5fce9a625474c41129c10fb1","","null","","","","","","","learning/Slide51.JPG","null","","","","","",""
"html-keyboard-response","158","207855","0.0-5.0-2.50","LF","vzebe40w15","1920","1080","0","1","0","5fce9a625474c41129c10fb1","","null","","","learningBlock1","","","","<div style=""font-size:60px;""> </div>","null","LF","learning/Slide51.JPG","This is a bim:","","",""
"html-keyboard-response","159","208856","0.0-5.0-0.51","LF","vzebe40w15","1920","1080","0","1","0","5fce9a625474c41129c10fb1","","null","","","learningBlock1","","","","This is a wug:","null","","","","","",""
"image-keyboard-response","160","209184","0.0-5.0-1.51","LF","vzebe40w15","1920","1080","0","1","0","5fce9a625474c41129c10fb1","","null","","","","","","","learning/Slide52.JPG","null","","","","","",""
"html-keyboard-response","161","210185","0.0-5.0-2.51","LF","vzebe40w15","1920","1080","0","1","0","5fce9a625474c41129c10fb1","","null","","","learningBlock1","","","","<div style=""font-size:60px;""> </div>","null","LF","learning/Slide52.JPG","This is a wug:","","",""
"html-keyboard-response","162","211185","0.0-5.0-0.52","LF","vzebe40w15","1920","1080","0","1","0","5fce9a625474c41129c10fb1","","null","","","learningBlock1","","","","This is a tob:","null","","","","","",""
"image-keyboard-response","163","211513","0.0-5.0-1.52","LF","vzebe40w15","1920","1080","0","1","0","5fce9a625474c41129c10fb1","","null","","","","","","","learning/Slide53.JPG","null","","","","","",""
"html-keyboard-response","164","212514","0.0-5.0-2.52","LF","vzebe40w15","1920","1080","0","1","0","5fce9a625474c41129c10fb1","","null","","","learningBlock1","","","","<div style=""font-size:60px;""> </div>","null","LF","learning/Slide53.JPG","This is a tob:","","",""
"html-keyboard-response","165","213516","0.0-5.0-0.53","LF","vzebe40w15","1920","1080","0","1","0","5fce9a625474c41129c10fb1","","null","","","learningBlock1","","","","This is a dep:","null","","","","","",""
"image-keyboard-response","166","213843","0.0-5.0-1.53","LF","vzebe40w15","1920","1080","0","1","0","5fce9a625474c41129c10fb1","","null","","","","","","","learning/Slide54.JPG","null","","","","","",""
"html-keyboard-response","167","214844","0.0-5.0-2.53","LF","vzebe40w15","1920","1080","0","1","0","5fce9a625474c41129c10fb1","","null","","","learningBlock1","","","","<div style=""font-size:60px;""> </div>","null","LF","learning/Slide54.JPG","This is a dep:","","",""
"html-keyboard-response","168","215845","0.0-5.0-0.54","LF","vzebe40w15","1920","1080","0","1","0","5fce9a625474c41129c10fb1","","null","","","learningBlock1","","","","This is a bim:","null","","","","","",""
"image-keyboard-response","169","216172","0.0-5.0-1.54","LF","vzebe40w15","1920","1080","0","1","0","5fce9a625474c41129c10fb1","","null","","","","","","","learning/Slide55.JPG","null","","","","","",""
"html-keyboard-response","170","217173","0.0-5.0-2.54","LF","vzebe40w15","1920","1080","0","1","0","5fce9a625474c41129c10fb1","","null","","","learningBlock1","","","","<div style=""font-size:60px;""> </div>","null","LF","learning/Slide55.JPG","This is a bim:","","",""
"html-keyboard-response","171","218174","0.0-5.0-0.55","LF","vzebe40w15","1920","1080","0","1","0","5fce9a625474c41129c10fb1","","null","","","learningBlock1","","","","This is a tob:","null","","","","","",""
"image-keyboard-response","172","218501","0.0-5.0-1.55","LF","vzebe40w15","1920","1080","0","1","0","5fce9a625474c41129c10fb1","","null","","","","","","","learning/Slide56.JPG","null","","","","","",""
"html-keyboard-response","173","219502","0.0-5.0-2.55","LF","vzebe40w15","1920","1080","0","1","0","5fce9a625474c41129c10fb1","","null","","","learningBlock1","","","","<div style=""font-size:60px;""> </div>","null","LF","learning/Slide56.JPG","This is a tob:","","",""
"html-keyboard-response","174","220503","0.0-5.0-0.56","LF","vzebe40w15","1920","1080","0","1","0","5fce9a625474c41129c10fb1","","null","","","learningBlock1","","","","This is a dep:","null","","","","","",""
"image-keyboard-response","175","220830","0.0-5.0-1.56","LF","vzebe40w15","1920","1080","0","1","0","5fce9a625474c41129c10fb1","","null","","","","","","","learning/Slide57.JPG","null","","","","","",""
"html-keyboard-response","176","221831","0.0-5.0-2.56","LF","vzebe40w15","1920","1080","0","1","0","5fce9a625474c41129c10fb1","","null","","","learningBlock1","","","","<div style=""font-size:60px;""> </div>","null","LF","learning/Slide57.JPG","This is a dep:","","",""
"html-keyboard-response","177","222832","0.0-5.0-0.57","LF","vzebe40w15","1920","1080","0","1","0","5fce9a625474c41129c10fb1","","null","","","learningBlock1","","","","This is a wug:","null","","","","","",""
"image-keyboard-response","178","223159","0.0-5.0-1.57","LF","vzebe40w15","1920","1080","0","1","0","5fce9a625474c41129c10fb1","","null","","","","","","","learning/Slide58.JPG","null","","","","","",""
"html-keyboard-response","179","224160","0.0-5.0-2.57","LF","vzebe40w15","1920","1080","0","1","0","5fce9a625474c41129c10fb1","","null","","","learningBlock1","","","","<div style=""font-size:60px;""> </div>","null","LF","learning/Slide58.JPG","This is a wug:","","",""
"html-keyboard-response","180","225161","0.0-5.0-0.58","LF","vzebe40w15","1920","1080","0","1","0","5fce9a625474c41129c10fb1","","null","","","learningBlock1","","","","This is a dep:","null","","","","","",""
"image-keyboard-response","181","225489","0.0-5.0-1.58","LF","vzebe40w15","1920","1080","0","1","0","5fce9a625474c41129c10fb1","","null","","","","","","","learning/Slide59.JPG","null","","","","","",""
"html-keyboard-response","182","226490","0.0-5.0-2.58","LF","vzebe40w15","1920","1080","0","1","0","5fce9a625474c41129c10fb1","","null","","","learningBlock1","","","","<div style=""font-size:60px;""> </div>","null","LF","learning/Slide59.JPG","This is a dep:","","",""
"html-keyboard-response","183","227491","0.0-5.0-0.59","LF","vzebe40w15","1920","1080","0","1","0","5fce9a625474c41129c10fb1","","null","","","learningBlock1","","","","This is a wug:","null","","","","","",""
"image-keyboard-response","184","227818","0.0-5.0-1.59","LF","vzebe40w15","1920","1080","0","1","0","5fce9a625474c41129c10fb1","","null","","","","","","","learning/Slide60.JPG","null","","","","","",""
"html-keyboard-response","185","228819","0.0-5.0-2.59","LF","vzebe40w15","1920","1080","0","1","0","5fce9a625474c41129c10fb1","","null","","","learningBlock1","","","","<div style=""font-size:60px;""> </div>","null","LF","learning/Slide60.JPG","This is a wug:","","",""
"html-keyboard-response","186","229820","0.0-5.0-0.60","LF","vzebe40w15","1920","1080","0","1","0","5fce9a625474c41129c10fb1","","null","","","learningBlock1","","","","This is a bim:","null","","","","","",""
"image-keyboard-response","187","230147","0.0-5.0-1.60","LF","vzebe40w15","1920","1080","0","1","0","5fce9a625474c41129c10fb1","","null","","","","","","","learning/Slide61.JPG","null","","","","","",""
"html-keyboard-response","188","231148","0.0-5.0-2.60","LF","vzebe40w15","1920","1080","0","1","0","5fce9a625474c41129c10fb1","","null","","","learningBlock1","","","","<div style=""font-size:60px;""> </div>","null","LF","learning/Slide61.JPG","This is a bim:","","",""
"html-keyboard-response","189","232150","0.0-5.0-0.61","LF","vzebe40w15","1920","1080","0","1","0","5fce9a625474c41129c10fb1","","null","","","learningBlock1","","","","This is a dep:","null","","","","","",""
"image-keyboard-response","190","232478","0.0-5.0-1.61","LF","vzebe40w15","1920","1080","0","1","0","5fce9a625474c41129c10fb1","","null","","","","","","","learning/Slide62.JPG","null","","","","","",""
"html-keyboard-response","191","233478","0.0-5.0-2.61","LF","vzebe40w15","1920","1080","0","1","0","5fce9a625474c41129c10fb1","","null","","","learningBlock1","","","","<div style=""font-size:60px;""> </div>","null","LF","learning/Slide62.JPG","This is a dep:","","",""
"html-keyboard-response","192","234479","0.0-5.0-0.62","LF","vzebe40w15","1920","1080","0","1","0","5fce9a625474c41129c10fb1","","null","","","learningBlock1","","","","This is a bim:","null","","","","","",""
"image-keyboard-response","193","234807","0.0-5.0-1.62","LF","vzebe40w15","1920","1080","0","1","0","5fce9a625474c41129c10fb1","","null","","","","","","","learning/Slide63.JPG","null","","","","","",""
"html-keyboard-response","194","235807","0.0-5.0-2.62","LF","vzebe40w15","1920","1080","0","1","0","5fce9a625474c41129c10fb1","","null","","","learningBlock1","","","","<div style=""font-size:60px;""> </div>","null","LF","learning/Slide63.JPG","This is a bim:","","",""
"html-keyboard-response","195","236808","0.0-5.0-0.63","LF","vzebe40w15","1920","1080","0","1","0","5fce9a625474c41129c10fb1","","null","","","learningBlock1","","","","This is a tob:","null","","","","","",""
"image-keyboard-response","196","237136","0.0-5.0-1.63","LF","vzebe40w15","1920","1080","0","1","0","5fce9a625474c41129c10fb1","","null","","","","","","","learning/Slide64.JPG","null","","","","","",""
"html-keyboard-response","197","238136","0.0-5.0-2.63","LF","vzebe40w15","1920","1080","0","1","0","5fce9a625474c41129c10fb1","","null","","","learningBlock1","","","","<div style=""font-size:60px;""> </div>","null","LF","learning/Slide64.JPG","This is a tob:","","",""
"html-keyboard-response","198","239137","0.0-5.0-0.64","LF","vzebe40w15","1920","1080","0","1","0","5fce9a625474c41129c10fb1","","null","","","learningBlock1","","","","This is a wug:","null","","","","","",""
"image-keyboard-response","199","239465","0.0-5.0-1.64","LF","vzebe40w15","1920","1080","0","1","0","5fce9a625474c41129c10fb1","","null","","","","","","","learning/Slide65.JPG","null","","","","","",""
"html-keyboard-response","200","240466","0.0-5.0-2.64","LF","vzebe40w15","1920","1080","0","1","0","5fce9a625474c41129c10fb1","","null","","","learningBlock1","","","","<div style=""font-size:60px;""> </div>","null","LF","learning/Slide65.JPG","This is a wug:","","",""
"html-keyboard-response","201","241466","0.0-5.0-0.65","LF","vzebe40w15","1920","1080","0","1","0","5fce9a625474c41129c10fb1","","null","","","learningBlock1","","","","This is a dep:","null","","","","","",""
"image-keyboard-response","202","241794","0.0-5.0-1.65","LF","vzebe40w15","1920","1080","0","1","0","5fce9a625474c41129c10fb1","","null","","","","","","","learning/Slide66.JPG","null","","","","","",""
"html-keyboard-response","203","242795","0.0-5.0-2.65","LF","vzebe40w15","1920","1080","0","1","0","5fce9a625474c41129c10fb1","","null","","","learningBlock1","","","","<div style=""font-size:60px;""> </div>","null","LF","learning/Slide66.JPG","This is a dep:","","",""
"html-keyboard-response","204","243796","0.0-5.0-0.66","LF","vzebe40w15","1920","1080","0","1","0","5fce9a625474c41129c10fb1","","null","","","learningBlock1","","","","This is a tob:","null","","","","","",""
"image-keyboard-response","205","244123","0.0-5.0-1.66","LF","vzebe40w15","1920","1080","0","1","0","5fce9a625474c41129c10fb1","","null","","","","","","","learning/Slide67.JPG","null","","","","","",""
"html-keyboard-response","206","245124","0.0-5.0-2.66","LF","vzebe40w15","1920","1080","0","1","0","5fce9a625474c41129c10fb1","","null","","","learningBlock1","","","","<div style=""font-size:60px;""> </div>","null","LF","learning/Slide67.JPG","This is a tob:","","",""
"html-keyboard-response","207","246125","0.0-5.0-0.67","LF","vzebe40w15","1920","1080","0","1","0","5fce9a625474c41129c10fb1","","null","","","learningBlock1","","","","This is a wug:","null","","","","","",""
"image-keyboard-response","208","246452","0.0-5.0-1.67","LF","vzebe40w15","1920","1080","0","1","0","5fce9a625474c41129c10fb1","","null","","","","","","","learning/Slide68.JPG","null","","","","","",""
"html-keyboard-response","209","247453","0.0-5.0-2.67","LF","vzebe40w15","1920","1080","0","1","0","5fce9a625474c41129c10fb1","","null","","","learningBlock1","","","","<div style=""font-size:60px;""> </div>","null","LF","learning/Slide68.JPG","This is a wug:","","",""
"html-keyboard-response","210","248454","0.0-5.0-0.68","LF","vzebe40w15","1920","1080","0","1","0","5fce9a625474c41129c10fb1","","null","","","learningBlock1","","","","This is a tob:","null","","","","","",""
"image-keyboard-response","211","248781","0.0-5.0-1.68","LF","vzebe40w15","1920","1080","0","1","0","5fce9a625474c41129c10fb1","","null","","","","","","","learning/Slide69.JPG","null","","","","","",""
"html-keyboard-response","212","249782","0.0-5.0-2.68","LF","vzebe40w15","1920","1080","0","1","0","5fce9a625474c41129c10fb1","","null","","","learningBlock1","","","","<div style=""font-size:60px;""> </div>","null","LF","learning/Slide69.JPG","This is a tob:","","",""
"html-keyboard-response","213","250783","0.0-5.0-0.69","LF","vzebe40w15","1920","1080","0","1","0","5fce9a625474c41129c10fb1","","null","","","learningBlock1","","","","This is a dep:","null","","","","","",""
"image-keyboard-response","214","251111","0.0-5.0-1.69","LF","vzebe40w15","1920","1080","0","1","0","5fce9a625474c41129c10fb1","","null","","","","","","","learning/Slide70.JPG","null","","","","","",""
"html-keyboard-response","215","252112","0.0-5.0-2.69","LF","vzebe40w15","1920","1080","0","1","0","5fce9a625474c41129c10fb1","","null","","","learningBlock1","","","","<div style=""font-size:60px;""> </div>","null","LF","learning/Slide70.JPG","This is a dep:","","",""
"html-keyboard-response","216","253113","0.0-5.0-0.70","LF","vzebe40w15","1920","1080","0","1","0","5fce9a625474c41129c10fb1","","null","","","learningBlock1","","","","This is a wug:","null","","","","","",""
"image-keyboard-response","217","253440","0.0-5.0-1.70","LF","vzebe40w15","1920","1080","0","1","0","5fce9a625474c41129c10fb1","","null","","","","","","","learning/Slide71.JPG","null","","","","","",""
"html-keyboard-response","218","254441","0.0-5.0-2.70","LF","vzebe40w15","1920","1080","0","1","0","5fce9a625474c41129c10fb1","","null","","","learningBlock1","","","","<div style=""font-size:60px;""> </div>","null","LF","learning/Slide71.JPG","This is a wug:","","",""
"html-keyboard-response","219","255442","0.0-5.0-0.71","LF","vzebe40w15","1920","1080","0","1","0","5fce9a625474c41129c10fb1","","null","","","learningBlock1","","","","This is a bim:","null","","","","","",""
"image-keyboard-response","220","255769","0.0-5.0-1.71","LF","vzebe40w15","1920","1080","0","1","0","5fce9a625474c41129c10fb1","","null","","","","","","","learning/Slide72.JPG","null","","","","","",""
"html-keyboard-response","221","256770","0.0-5.0-2.71","LF","vzebe40w15","1920","1080","0","1","0","5fce9a625474c41129c10fb1","","null","","","learningBlock1","","","","<div style=""font-size:60px;""> </div>","null","LF","learning/Slide72.JPG","This is a bim:","","",""
"html-keyboard-response","222","257771","0.0-5.0-0.72","LF","vzebe40w15","1920","1080","0","1","0","5fce9a625474c41129c10fb1","","null","","","learningBlock1","","","","This is a wug:","null","","","","","",""
"image-keyboard-response","223","258098","0.0-5.0-1.72","LF","vzebe40w15","1920","1080","0","1","0","5fce9a625474c41129c10fb1","","null","","","","","","","learning/Slide73.JPG","null","","","","","",""
"html-keyboard-response","224","259099","0.0-5.0-2.72","LF","vzebe40w15","1920","1080","0","1","0","5fce9a625474c41129c10fb1","","null","","","learningBlock1","","","","<div style=""font-size:60px;""> </div>","null","LF","learning/Slide73.JPG","This is a wug:","","",""
"html-keyboard-response","225","260100","0.0-5.0-0.73","LF","vzebe40w15","1920","1080","0","1","0","5fce9a625474c41129c10fb1","","null","","","learningBlock1","","","","This is a dep:","null","","","","","",""
"image-keyboard-response","226","260427","0.0-5.0-1.73","LF","vzebe40w15","1920","1080","0","1","0","5fce9a625474c41129c10fb1","","null","","","","","","","learning/Slide74.JPG","null","","","","","",""
"html-keyboard-response","227","261428","0.0-5.0-2.73","LF","vzebe40w15","1920","1080","0","1","0","5fce9a625474c41129c10fb1","","null","","","learningBlock1","","","","<div style=""font-size:60px;""> </div>","null","LF","learning/Slide74.JPG","This is a dep:","","",""
"html-keyboard-response","228","262429","0.0-5.0-0.74","LF","vzebe40w15","1920","1080","0","1","0","5fce9a625474c41129c10fb1","","null","","","learningBlock1","","","","This is a tob:","null","","","","","",""
"image-keyboard-response","229","262757","0.0-5.0-1.74","LF","vzebe40w15","1920","1080","0","1","0","5fce9a625474c41129c10fb1","","null","","","","","","","learning/Slide75.JPG","null","","","","","",""
"html-keyboard-response","230","263757","0.0-5.0-2.74","LF","vzebe40w15","1920","1080","0","1","0","5fce9a625474c41129c10fb1","","null","","","learningBlock1","","","","<div style=""font-size:60px;""> </div>","null","LF","learning/Slide75.JPG","This is a tob:","","",""
"html-keyboard-response","231","264758","0.0-5.0-0.75","LF","vzebe40w15","1920","1080","0","1","0","5fce9a625474c41129c10fb1","","null","","","learningBlock1","","","","This is a bim:","null","","","","","",""
"image-keyboard-response","232","265086","0.0-5.0-1.75","LF","vzebe40w15","1920","1080","0","1","0","5fce9a625474c41129c10fb1","","null","","","","","","","learning/Slide76.JPG","null","","","","","",""
"html-keyboard-response","233","266087","0.0-5.0-2.75","LF","vzebe40w15","1920","1080","0","1","0","5fce9a625474c41129c10fb1","","null","","","learningBlock1","","","","<div style=""font-size:60px;""> </div>","null","LF","learning/Slide76.JPG","This is a bim:","","",""
"html-keyboard-response","234","267087","0.0-5.0-0.76","LF","vzebe40w15","1920","1080","0","1","0","5fce9a625474c41129c10fb1","","null","","","learningBlock1","","","","This is a tob:","null","","","","","",""
"image-keyboard-response","235","267415","0.0-5.0-1.76","LF","vzebe40w15","1920","1080","0","1","0","5fce9a625474c41129c10fb1","","null","","","","","","","learning/Slide77.JPG","null","","","","","",""
"html-keyboard-response","236","268416","0.0-5.0-2.76","LF","vzebe40w15","1920","1080","0","1","0","5fce9a625474c41129c10fb1","","null","","","learningBlock1","","","","<div style=""font-size:60px;""> </div>","null","LF","learning/Slide77.JPG","This is a tob:","","",""
"html-keyboard-response","237","269416","0.0-5.0-0.77","LF","vzebe40w15","1920","1080","0","1","0","5fce9a625474c41129c10fb1","","null","","","learningBlock1","","","","This is a wug:","null","","","","","",""
"image-keyboard-response","238","269744","0.0-5.0-1.77","LF","vzebe40w15","1920","1080","0","1","0","5fce9a625474c41129c10fb1","","null","","","","","","","learning/Slide78.JPG","null","","","","","",""
"html-keyboard-response","239","270745","0.0-5.0-2.77","LF","vzebe40w15","1920","1080","0","1","0","5fce9a625474c41129c10fb1","","null","","","learningBlock1","","","","<div style=""font-size:60px;""> </div>","null","LF","learning/Slide78.JPG","This is a wug:","","",""
"html-keyboard-response","240","271746","0.0-5.0-0.78","LF","vzebe40w15","1920","1080","0","1","0","5fce9a625474c41129c10fb1","","null","","","learningBlock1","","","","This is a bim:","null","","","","","",""
"image-keyboard-response","241","272073","0.0-5.0-1.78","LF","vzebe40w15","1920","1080","0","1","0","5fce9a625474c41129c10fb1","","null","","","","","","","learning/Slide79.JPG","null","","","","","",""
"html-keyboard-response","242","273074","0.0-5.0-2.78","LF","vzebe40w15","1920","1080","0","1","0","5fce9a625474c41129c10fb1","","null","","","learningBlock1","","","","<div style=""font-size:60px;""> </div>","null","LF","learning/Slide79.JPG","This is a bim:","","",""
"html-keyboard-response","243","274075","0.0-5.0-0.79","LF","vzebe40w15","1920","1080","0","1","0","5fce9a625474c41129c10fb1","","null","","","learningBlock1","","","","This is a tob:","null","","","","","",""
"image-keyboard-response","244","274402","0.0-5.0-1.79","LF","vzebe40w15","1920","1080","0","1","0","5fce9a625474c41129c10fb1","","null","","","","","","","learning/Slide80.JPG","null","","","","","",""
"html-keyboard-response","245","275403","0.0-5.0-2.79","LF","vzebe40w15","1920","1080","0","1","0","5fce9a625474c41129c10fb1","","null","","","learningBlock1","","","","<div style=""font-size:60px;""> </div>","null","LF","learning/Slide80.JPG","This is a tob:","","",""
"instructions","246","280798","0.0-6.0","LF","vzebe40w15","1920","1080","0","1","0","5fce9a625474c41129c10fb1","","NA","","[{""page_index"":0,""viewing_time"":5394.925000000512}]","instructions","","","","","","","","","","",""
"html-keyboard-response","247","281799","0.0-7.0-0.0","LF","vzebe40w15","1920","1080","0","1","0","5fce9a625474c41129c10fb1","","null","","","learningBlock2","","","","This is a wug:","null","","","","","",""
"image-keyboard-response","248","282127","0.0-7.0-1.0","LF","vzebe40w15","1920","1080","0","1","0","5fce9a625474c41129c10fb1","","null","","","","","","","learning/Slide81.JPG","null","","","","","",""
"html-keyboard-response","249","283128","0.0-7.0-2.0","LF","vzebe40w15","1920","1080","0","1","0","5fce9a625474c41129c10fb1","","null","","","learningBlock2","","","","<div style=""font-size:60px;""> </div>","null","LF","learning/Slide81.JPG","This is a wug:","","",""
"html-keyboard-response","250","284129","0.0-7.0-0.1","LF","vzebe40w15","1920","1080","0","1","0","5fce9a625474c41129c10fb1","","null","","","learningBlock2","","","","This is a bim:","null","","","","","",""
"image-keyboard-response","251","284456","0.0-7.0-1.1","LF","vzebe40w15","1920","1080","0","1","0","5fce9a625474c41129c10fb1","","null","","","","","","","learning/Slide82.JPG","null","","","","","",""
"html-keyboard-response","252","285457","0.0-7.0-2.1","LF","vzebe40w15","1920","1080","0","1","0","5fce9a625474c41129c10fb1","","null","","","learningBlock2","","","","<div style=""font-size:60px;""> </div>","null","LF","learning/Slide82.JPG","This is a bim:","","",""
"html-keyboard-response","253","286458","0.0-7.0-0.2","LF","vzebe40w15","1920","1080","0","1","0","5fce9a625474c41129c10fb1","","null","","","learningBlock2","","","","This is a wug:","null","","","","","",""
"image-keyboard-response","254","286785","0.0-7.0-1.2","LF","vzebe40w15","1920","1080","0","1","0","5fce9a625474c41129c10fb1","","null","","","","","","","learning/Slide83.JPG","null","","","","","",""
"html-keyboard-response","255","287786","0.0-7.0-2.2","LF","vzebe40w15","1920","1080","0","1","0","5fce9a625474c41129c10fb1","","null","","","learningBlock2","","","","<div style=""font-size:60px;""> </div>","null","LF","learning/Slide83.JPG","This is a wug:","","",""
"html-keyboard-response","256","288787","0.0-7.0-0.3","LF","vzebe40w15","1920","1080","0","1","0","5fce9a625474c41129c10fb1","","null","","","learningBlock2","","","","This is a dep:","null","","","","","",""
"image-keyboard-response","257","289114","0.0-7.0-1.3","LF","vzebe40w15","1920","1080","0","1","0","5fce9a625474c41129c10fb1","","null","","","","","","","learning/Slide84.JPG","null","","","","","",""
"html-keyboard-response","258","290115","0.0-7.0-2.3","LF","vzebe40w15","1920","1080","0","1","0","5fce9a625474c41129c10fb1","","null","","","learningBlock2","","","","<div style=""font-size:60px;""> </div>","null","LF","learning/Slide84.JPG","This is a dep:","","",""
"html-keyboard-response","259","291116","0.0-7.0-0.4","LF","vzebe40w15","1920","1080","0","1","0","5fce9a625474c41129c10fb1","","null","","","learningBlock2","","","","This is a bim:","null","","","","","",""
"image-keyboard-response","260","291443","0.0-7.0-1.4","LF","vzebe40w15","1920","1080","0","1","0","5fce9a625474c41129c10fb1","","null","","","","","","","learning/Slide85.JPG","null","","","","","",""
"html-keyboard-response","261","292444","0.0-7.0-2.4","LF","vzebe40w15","1920","1080","0","1","0","5fce9a625474c41129c10fb1","","null","","","learningBlock2","","","","<div style=""font-size:60px;""> </div>","null","LF","learning/Slide85.JPG","This is a bim:","","",""
"html-keyboard-response","262","293445","0.0-7.0-0.5","LF","vzebe40w15","1920","1080","0","1","0","5fce9a625474c41129c10fb1","","null","","","learningBlock2","","","","This is a tob:","null","","","","","",""
"image-keyboard-response","263","293772","0.0-7.0-1.5","LF","vzebe40w15","1920","1080","0","1","0","5fce9a625474c41129c10fb1","","null","","","","","","","learning/Slide86.JPG","null","","","","","",""
"html-keyboard-response","264","294773","0.0-7.0-2.5","LF","vzebe40w15","1920","1080","0","1","0","5fce9a625474c41129c10fb1","","null","","","learningBlock2","","","","<div style=""font-size:60px;""> </div>","null","LF","learning/Slide86.JPG","This is a tob:","","",""
"html-keyboard-response","265","295774","0.0-7.0-0.6","LF","vzebe40w15","1920","1080","0","1","0","5fce9a625474c41129c10fb1","","null","","","learningBlock2","","","","This is a wug:","null","","","","","",""
"image-keyboard-response","266","296101","0.0-7.0-1.6","LF","vzebe40w15","1920","1080","0","1","0","5fce9a625474c41129c10fb1","","null","","","","","","","learning/Slide87.JPG","null","","","","","",""
"html-keyboard-response","267","297102","0.0-7.0-2.6","LF","vzebe40w15","1920","1080","0","1","0","5fce9a625474c41129c10fb1","","null","","","learningBlock2","","","","<div style=""font-size:60px;""> </div>","null","LF","learning/Slide87.JPG","This is a wug:","","",""
"html-keyboard-response","268","298103","0.0-7.0-0.7","LF","vzebe40w15","1920","1080","0","1","0","5fce9a625474c41129c10fb1","","null","","","learningBlock2","","","","This is a tob:","null","","","","","",""
"image-keyboard-response","269","298430","0.0-7.0-1.7","LF","vzebe40w15","1920","1080","0","1","0","5fce9a625474c41129c10fb1","","null","","","","","","","learning/Slide88.JPG","null","","","","","",""
"html-keyboard-response","270","299431","0.0-7.0-2.7","LF","vzebe40w15","1920","1080","0","1","0","5fce9a625474c41129c10fb1","","null","","","learningBlock2","","","","<div style=""font-size:60px;""> </div>","null","LF","learning/Slide88.JPG","This is a tob:","","",""
"html-keyboard-response","271","300432","0.0-7.0-0.8","LF","vzebe40w15","1920","1080","0","1","0","5fce9a625474c41129c10fb1","","null","","","learningBlock2","","","","This is a bim:","null","","","","","",""
"image-keyboard-response","272","300759","0.0-7.0-1.8","LF","vzebe40w15","1920","1080","0","1","0","5fce9a625474c41129c10fb1","","null","","","","","","","learning/Slide89.JPG","null","","","","","",""
"html-keyboard-response","273","301760","0.0-7.0-2.8","LF","vzebe40w15","1920","1080","0","1","0","5fce9a625474c41129c10fb1","","null","","","learningBlock2","","","","<div style=""font-size:60px;""> </div>","null","LF","learning/Slide89.JPG","This is a bim:","","",""
"html-keyboard-response","274","302761","0.0-7.0-0.9","LF","vzebe40w15","1920","1080","0","1","0","5fce9a625474c41129c10fb1","","null","","","learningBlock2","","","","This is a dep:","null","","","","","",""
"image-keyboard-response","275","303089","0.0-7.0-1.9","LF","vzebe40w15","1920","1080","0","1","0","5fce9a625474c41129c10fb1","","null","","","","","","","learning/Slide90.JPG","null","","","","","",""
"html-keyboard-response","276","304089","0.0-7.0-2.9","LF","vzebe40w15","1920","1080","0","1","0","5fce9a625474c41129c10fb1","","null","","","learningBlock2","","","","<div style=""font-size:60px;""> </div>","null","LF","learning/Slide90.JPG","This is a dep:","","",""
"html-keyboard-response","277","305090","0.0-7.0-0.10","LF","vzebe40w15","1920","1080","0","1","0","5fce9a625474c41129c10fb1","","null","","","learningBlock2","","","","This is a wug:","null","","","","","",""
"image-keyboard-response","278","305418","0.0-7.0-1.10","LF","vzebe40w15","1920","1080","0","1","0","5fce9a625474c41129c10fb1","","null","","","","","","","learning/Slide91.JPG","null","","","","","",""
"html-keyboard-response","279","306418","0.0-7.0-2.10","LF","vzebe40w15","1920","1080","0","1","0","5fce9a625474c41129c10fb1","","null","","","learningBlock2","","","","<div style=""font-size:60px;""> </div>","null","LF","learning/Slide91.JPG","This is a wug:","","",""
"html-keyboard-response","280","307419","0.0-7.0-0.11","LF","vzebe40w15","1920","1080","0","1","0","5fce9a625474c41129c10fb1","","null","","","learningBlock2","","","","This is a tob:","null","","","","","",""
"image-keyboard-response","281","307747","0.0-7.0-1.11","LF","vzebe40w15","1920","1080","0","1","0","5fce9a625474c41129c10fb1","","null","","","","","","","learning/Slide92.JPG","null","","","","","",""
"html-keyboard-response","282","308748","0.0-7.0-2.11","LF","vzebe40w15","1920","1080","0","1","0","5fce9a625474c41129c10fb1","","null","","","learningBlock2","","","","<div style=""font-size:60px;""> </div>","null","LF","learning/Slide92.JPG","This is a tob:","","",""
"html-keyboard-response","283","309749","0.0-7.0-0.12","LF","vzebe40w15","1920","1080","0","1","0","5fce9a625474c41129c10fb1","","null","","","learningBlock2","","","","This is a bim:","null","","","","","",""
"image-keyboard-response","284","310076","0.0-7.0-1.12","LF","vzebe40w15","1920","1080","0","1","0","5fce9a625474c41129c10fb1","","null","","","","","","","learning/Slide93.JPG","null","","","","","",""
"html-keyboard-response","285","311077","0.0-7.0-2.12","LF","vzebe40w15","1920","1080","0","1","0","5fce9a625474c41129c10fb1","","null","","","learningBlock2","","","","<div style=""font-size:60px;""> </div>","null","LF","learning/Slide93.JPG","This is a bim:","","",""
"html-keyboard-response","286","312078","0.0-7.0-0.13","LF","vzebe40w15","1920","1080","0","1","0","5fce9a625474c41129c10fb1","","null","","","learningBlock2","","","","This is a tob:","null","","","","","",""
"image-keyboard-response","287","312405","0.0-7.0-1.13","LF","vzebe40w15","1920","1080","0","1","0","5fce9a625474c41129c10fb1","","null","","","","","","","learning/Slide94.JPG","null","","","","","",""
"html-keyboard-response","288","313406","0.0-7.0-2.13","LF","vzebe40w15","1920","1080","0","1","0","5fce9a625474c41129c10fb1","","null","","","learningBlock2","","","","<div style=""font-size:60px;""> </div>","null","LF","learning/Slide94.JPG","This is a tob:","","",""
"html-keyboard-response","289","314407","0.0-7.0-0.14","LF","vzebe40w15","1920","1080","0","1","0","5fce9a625474c41129c10fb1","","null","","","learningBlock2","","","","This is a wug:","null","","","","","",""
"image-keyboard-response","290","314734","0.0-7.0-1.14","LF","vzebe40w15","1920","1080","0","1","0","5fce9a625474c41129c10fb1","","null","","","","","","","learning/Slide95.JPG","null","","","","","",""
"html-keyboard-response","291","315736","0.0-7.0-2.14","LF","vzebe40w15","1920","1080","0","1","0","5fce9a625474c41129c10fb1","","null","","","learningBlock2","","","","<div style=""font-size:60px;""> </div>","null","LF","learning/Slide95.JPG","This is a wug:","","",""
"html-keyboard-response","292","316737","0.0-7.0-0.15","LF","vzebe40w15","1920","1080","0","1","0","5fce9a625474c41129c10fb1","","null","","","learningBlock2","","","","This is a tob:","null","","","","","",""
"image-keyboard-response","293","317064","0.0-7.0-1.15","LF","vzebe40w15","1920","1080","0","1","0","5fce9a625474c41129c10fb1","","null","","","","","","","learning/Slide96.JPG","null","","","","","",""
"html-keyboard-response","294","318065","0.0-7.0-2.15","LF","vzebe40w15","1920","1080","0","1","0","5fce9a625474c41129c10fb1","","null","","","learningBlock2","","","","<div style=""font-size:60px;""> </div>","null","LF","learning/Slide96.JPG","This is a tob:","","",""
"html-keyboard-response","295","319066","0.0-7.0-0.16","LF","vzebe40w15","1920","1080","0","1","0","5fce9a625474c41129c10fb1","","null","","","learningBlock2","","","","This is a dep:","null","","","","","",""
"image-keyboard-response","296","319393","0.0-7.0-1.16","LF","vzebe40w15","1920","1080","0","1","0","5fce9a625474c41129c10fb1","","null","","","","","","","learning/Slide97.JPG","null","","","","","",""
"html-keyboard-response","297","320394","0.0-7.0-2.16","LF","vzebe40w15","1920","1080","0","1","0","5fce9a625474c41129c10fb1","","null","","","learningBlock2","","","","<div style=""font-size:60px;""> </div>","null","LF","learning/Slide97.JPG","This is a dep:","","",""
"html-keyboard-response","298","321395","0.0-7.0-0.17","LF","vzebe40w15","1920","1080","0","1","0","5fce9a625474c41129c10fb1","","null","","","learningBlock2","","","","This is a bim:","null","","","","","",""
"image-keyboard-response","299","321722","0.0-7.0-1.17","LF","vzebe40w15","1920","1080","0","1","0","5fce9a625474c41129c10fb1","","null","","","","","","","learning/Slide98.JPG","null","","","","","",""
"html-keyboard-response","300","322723","0.0-7.0-2.17","LF","vzebe40w15","1920","1080","0","1","0","5fce9a625474c41129c10fb1","","null","","","learningBlock2","","","","<div style=""font-size:60px;""> </div>","null","LF","learning/Slide98.JPG","This is a bim:","","",""
"html-keyboard-response","301","323724","0.0-7.0-0.18","LF","vzebe40w15","1920","1080","0","1","0","5fce9a625474c41129c10fb1","","null","","","learningBlock2","","","","This is a dep:","null","","","","","",""
"image-keyboard-response","302","324051","0.0-7.0-1.18","LF","vzebe40w15","1920","1080","0","1","0","5fce9a625474c41129c10fb1","","null","","","","","","","learning/Slide99.JPG","null","","","","","",""
"html-keyboard-response","303","325052","0.0-7.0-2.18","LF","vzebe40w15","1920","1080","0","1","0","5fce9a625474c41129c10fb1","","null","","","learningBlock2","","","","<div style=""font-size:60px;""> </div>","null","LF","learning/Slide99.JPG","This is a dep:","","",""
"html-keyboard-response","304","326053","0.0-7.0-0.19","LF","vzebe40w15","1920","1080","0","1","0","5fce9a625474c41129c10fb1","","null","","","learningBlock2","","","","This is a bim:","null","","","","","",""
"image-keyboard-response","305","326380","0.0-7.0-1.19","LF","vzebe40w15","1920","1080","0","1","0","5fce9a625474c41129c10fb1","","null","","","","","","","learning/Slide100.JPG","null","","","","","",""
"html-keyboard-response","306","327381","0.0-7.0-2.19","LF","vzebe40w15","1920","1080","0","1","0","5fce9a625474c41129c10fb1","","null","","","learningBlock2","","","","<div style=""font-size:60px;""> </div>","null","LF","learning/Slide100.JPG","This is a bim:","","",""
"html-keyboard-response","307","328382","0.0-7.0-0.20","LF","vzebe40w15","1920","1080","0","1","0","5fce9a625474c41129c10fb1","","null","","","learningBlock2","","","","This is a tob:","null","","","","","",""
"image-keyboard-response","308","328709","0.0-7.0-1.20","LF","vzebe40w15","1920","1080","0","1","0","5fce9a625474c41129c10fb1","","null","","","","","","","learning/Slide101.JPG","null","","","","","",""
"html-keyboard-response","309","329711","0.0-7.0-2.20","LF","vzebe40w15","1920","1080","0","1","0","5fce9a625474c41129c10fb1","","null","","","learningBlock2","","","","<div style=""font-size:60px;""> </div>","null","LF","learning/Slide101.JPG","This is a tob:","","",""
"html-keyboard-response","310","330712","0.0-7.0-0.21","LF","vzebe40w15","1920","1080","0","1","0","5fce9a625474c41129c10fb1","","null","","","learningBlock2","","","","This is a bim:","null","","","","","",""
"image-keyboard-response","311","331039","0.0-7.0-1.21","LF","vzebe40w15","1920","1080","0","1","0","5fce9a625474c41129c10fb1","","null","","","","","","","learning/Slide102.JPG","null","","","","","",""
"html-keyboard-response","312","332040","0.0-7.0-2.21","LF","vzebe40w15","1920","1080","0","1","0","5fce9a625474c41129c10fb1","","null","","","learningBlock2","","","","<div style=""font-size:60px;""> </div>","null","LF","learning/Slide102.JPG","This is a bim:","","",""
"html-keyboard-response","313","333041","0.0-7.0-0.22","LF","vzebe40w15","1920","1080","0","1","0","5fce9a625474c41129c10fb1","","null","","","learningBlock2","","","","This is a dep:","null","","","","","",""
"image-keyboard-response","314","333369","0.0-7.0-1.22","LF","vzebe40w15","1920","1080","0","1","0","5fce9a625474c41129c10fb1","","null","","","","","","","learning/Slide103.JPG","null","","","","","",""
"html-keyboard-response","315","334369","0.0-7.0-2.22","LF","vzebe40w15","1920","1080","0","1","0","5fce9a625474c41129c10fb1","","null","","","learningBlock2","","","","<div style=""font-size:60px;""> </div>","null","LF","learning/Slide103.JPG","This is a dep:","","",""
"html-keyboard-response","316","335370","0.0-7.0-0.23","LF","vzebe40w15","1920","1080","0","1","0","5fce9a625474c41129c10fb1","","null","","","learningBlock2","","","","This is a tob:","null","","","","","",""
"image-keyboard-response","317","335698","0.0-7.0-1.23","LF","vzebe40w15","1920","1080","0","1","0","5fce9a625474c41129c10fb1","","null","","","","","","","learning/Slide104.JPG","null","","","","","",""
"html-keyboard-response","318","336699","0.0-7.0-2.23","LF","vzebe40w15","1920","1080","0","1","0","5fce9a625474c41129c10fb1","","null","","","learningBlock2","","","","<div style=""font-size:60px;""> </div>","null","LF","learning/Slide104.JPG","This is a tob:","","",""
"html-keyboard-response","319","337699","0.0-7.0-0.24","LF","vzebe40w15","1920","1080","0","1","0","5fce9a625474c41129c10fb1","","null","","","learningBlock2","","","","This is a dep:","null","","","","","",""
"image-keyboard-response","320","338028","0.0-7.0-1.24","LF","vzebe40w15","1920","1080","0","1","0","5fce9a625474c41129c10fb1","","null","","","","","","","learning/Slide105.JPG","null","","","","","",""
"html-keyboard-response","321","339029","0.0-7.0-2.24","LF","vzebe40w15","1920","1080","0","1","0","5fce9a625474c41129c10fb1","","null","","","learningBlock2","","","","<div style=""font-size:60px;""> </div>","null","LF","learning/Slide105.JPG","This is a dep:","","",""
"html-keyboard-response","322","340030","0.0-7.0-0.25","LF","vzebe40w15","1920","1080","0","1","0","5fce9a625474c41129c10fb1","","null","","","learningBlock2","","","","This is a wug:","null","","","","","",""
"image-keyboard-response","323","340357","0.0-7.0-1.25","LF","vzebe40w15","1920","1080","0","1","0","5fce9a625474c41129c10fb1","","null","","","","","","","learning/Slide106.JPG","null","","","","","",""
"html-keyboard-response","324","341358","0.0-7.0-2.25","LF","vzebe40w15","1920","1080","0","1","0","5fce9a625474c41129c10fb1","","null","","","learningBlock2","","","","<div style=""font-size:60px;""> </div>","null","LF","learning/Slide106.JPG","This is a wug:","","",""
"html-keyboard-response","325","342359","0.0-7.0-0.26","LF","vzebe40w15","1920","1080","0","1","0","5fce9a625474c41129c10fb1","","null","","","learningBlock2","","","","This is a bim:","null","","","","","",""
"image-keyboard-response","326","342686","0.0-7.0-1.26","LF","vzebe40w15","1920","1080","0","1","0","5fce9a625474c41129c10fb1","","null","","","","","","","learning/Slide107.JPG","null","","","","","",""
"html-keyboard-response","327","343687","0.0-7.0-2.26","LF","vzebe40w15","1920","1080","0","1","0","5fce9a625474c41129c10fb1","","null","","","learningBlock2","","","","<div style=""font-size:60px;""> </div>","null","LF","learning/Slide107.JPG","This is a bim:","","",""
"html-keyboard-response","328","344688","0.0-7.0-0.27","LF","vzebe40w15","1920","1080","0","1","0","5fce9a625474c41129c10fb1","","null","","","learningBlock2","","","","This is a dep:","null","","","","","",""
"image-keyboard-response","329","345015","0.0-7.0-1.27","LF","vzebe40w15","1920","1080","0","1","0","5fce9a625474c41129c10fb1","","null","","","","","","","learning/Slide108.JPG","null","","","","","",""
"html-keyboard-response","330","346016","0.0-7.0-2.27","LF","vzebe40w15","1920","1080","0","1","0","5fce9a625474c41129c10fb1","","null","","","learningBlock2","","","","<div style=""font-size:60px;""> </div>","null","LF","learning/Slide108.JPG","This is a dep:","","",""
"html-keyboard-response","331","347017","0.0-7.0-0.28","LF","vzebe40w15","1920","1080","0","1","0","5fce9a625474c41129c10fb1","","null","","","learningBlock2","","","","This is a wug:","null","","","","","",""
"image-keyboard-response","332","347344","0.0-7.0-1.28","LF","vzebe40w15","1920","1080","0","1","0","5fce9a625474c41129c10fb1","","null","","","","","","","learning/Slide109.JPG","null","","","","","",""
"html-keyboard-response","333","348345","0.0-7.0-2.28","LF","vzebe40w15","1920","1080","0","1","0","5fce9a625474c41129c10fb1","","null","","","learningBlock2","","","","<div style=""font-size:60px;""> </div>","null","LF","learning/Slide109.JPG","This is a wug:","","",""
"html-keyboard-response","334","349346","0.0-7.0-0.29","LF","vzebe40w15","1920","1080","0","1","0","5fce9a625474c41129c10fb1","","null","","","learningBlock2","","","","This is a bim:","null","","","","","",""
"image-keyboard-response","335","349673","0.0-7.0-1.29","LF","vzebe40w15","1920","1080","0","1","0","5fce9a625474c41129c10fb1","","null","","","","","","","learning/Slide110.JPG","null","","","","","",""
"html-keyboard-response","336","350674","0.0-7.0-2.29","LF","vzebe40w15","1920","1080","0","1","0","5fce9a625474c41129c10fb1","","null","","","learningBlock2","","","","<div style=""font-size:60px;""> </div>","null","LF","learning/Slide110.JPG","This is a bim:","","",""
"html-keyboard-response","337","351675","0.0-7.0-0.30","LF","vzebe40w15","1920","1080","0","1","0","5fce9a625474c41129c10fb1","","null","","","learningBlock2","","","","This is a tob:","null","","","","","",""
"image-keyboard-response","338","352002","0.0-7.0-1.30","LF","vzebe40w15","1920","1080","0","1","0","5fce9a625474c41129c10fb1","","null","","","","","","","learning/Slide111.JPG","null","","","","","",""
"html-keyboard-response","339","353003","0.0-7.0-2.30","LF","vzebe40w15","1920","1080","0","1","0","5fce9a625474c41129c10fb1","","null","","","learningBlock2","","","","<div style=""font-size:60px;""> </div>","null","LF","learning/Slide111.JPG","This is a tob:","","",""
"html-keyboard-response","340","354004","0.0-7.0-0.31","LF","vzebe40w15","1920","1080","0","1","0","5fce9a625474c41129c10fb1","","null","","","learningBlock2","","","","This is a wug:","null","","","","","",""
"image-keyboard-response","341","354331","0.0-7.0-1.31","LF","vzebe40w15","1920","1080","0","1","0","5fce9a625474c41129c10fb1","","null","","","","","","","learning/Slide112.JPG","null","","","","","",""
"html-keyboard-response","342","355332","0.0-7.0-2.31","LF","vzebe40w15","1920","1080","0","1","0","5fce9a625474c41129c10fb1","","null","","","learningBlock2","","","","<div style=""font-size:60px;""> </div>","null","LF","learning/Slide112.JPG","This is a wug:","","",""
"html-keyboard-response","343","356333","0.0-7.0-0.32","LF","vzebe40w15","1920","1080","0","1","0","5fce9a625474c41129c10fb1","","null","","","learningBlock2","","","","This is a tob:","null","","","","","",""
"image-keyboard-response","344","356660","0.0-7.0-1.32","LF","vzebe40w15","1920","1080","0","1","0","5fce9a625474c41129c10fb1","","null","","","","","","","learning/Slide113.JPG","null","","","","","",""
"html-keyboard-response","345","357661","0.0-7.0-2.32","LF","vzebe40w15","1920","1080","0","1","0","5fce9a625474c41129c10fb1","","null","","","learningBlock2","","","","<div style=""font-size:60px;""> </div>","null","LF","learning/Slide113.JPG","This is a tob:","","",""
"html-keyboard-response","346","358662","0.0-7.0-0.33","LF","vzebe40w15","1920","1080","0","1","0","5fce9a625474c41129c10fb1","","null","","","learningBlock2","","","","This is a wug:","null","","","","","",""
"image-keyboard-response","347","358989","0.0-7.0-1.33","LF","vzebe40w15","1920","1080","0","1","0","5fce9a625474c41129c10fb1","","null","","","","","","","learning/Slide114.JPG","null","","","","","",""
"html-keyboard-response","348","359990","0.0-7.0-2.33","LF","vzebe40w15","1920","1080","0","1","0","5fce9a625474c41129c10fb1","","null","","","learningBlock2","","","","<div style=""font-size:60px;""> </div>","null","LF","learning/Slide114.JPG","This is a wug:","","",""
"html-keyboard-response","349","360991","0.0-7.0-0.34","LF","vzebe40w15","1920","1080","0","1","0","5fce9a625474c41129c10fb1","","null","","","learningBlock2","","","","This is a bim:","null","","","","","",""
"image-keyboard-response","350","361318","0.0-7.0-1.34","LF","vzebe40w15","1920","1080","0","1","0","5fce9a625474c41129c10fb1","","null","","","","","","","learning/Slide115.JPG","null","","","","","",""
"html-keyboard-response","351","362319","0.0-7.0-2.34","LF","vzebe40w15","1920","1080","0","1","0","5fce9a625474c41129c10fb1","","null","","","learningBlock2","","","","<div style=""font-size:60px;""> </div>","null","LF","learning/Slide115.JPG","This is a bim:","","",""
"html-keyboard-response","352","363320","0.0-7.0-0.35","LF","vzebe40w15","1920","1080","0","1","0","5fce9a625474c41129c10fb1","","null","","","learningBlock2","","","","This is a dep:","null","","","","","",""
"image-keyboard-response","353","363648","0.0-7.0-1.35","LF","vzebe40w15","1920","1080","0","1","0","5fce9a625474c41129c10fb1","","null","","","","","","","learning/Slide116.JPG","null","","","","","",""
"html-keyboard-response","354","364648","0.0-7.0-2.35","LF","vzebe40w15","1920","1080","0","1","0","5fce9a625474c41129c10fb1","","null","","","learningBlock2","","","","<div style=""font-size:60px;""> </div>","null","LF","learning/Slide116.JPG","This is a dep:","","",""
"html-keyboard-response","355","365649","0.0-7.0-0.36","LF","vzebe40w15","1920","1080","0","1","0","5fce9a625474c41129c10fb1","","null","","","learningBlock2","","","","This is a tob:","null","","","","","",""
"image-keyboard-response","356","365977","0.0-7.0-1.36","LF","vzebe40w15","1920","1080","0","1","0","5fce9a625474c41129c10fb1","","null","","","","","","","learning/Slide117.JPG","null","","","","","",""
"html-keyboard-response","357","366977","0.0-7.0-2.36","LF","vzebe40w15","1920","1080","0","1","0","5fce9a625474c41129c10fb1","","null","","","learningBlock2","","","","<div style=""font-size:60px;""> </div>","null","LF","learning/Slide117.JPG","This is a tob:","","",""
"html-keyboard-response","358","367978","0.0-7.0-0.37","LF","vzebe40w15","1920","1080","0","1","0","5fce9a625474c41129c10fb1","","null","","","learningBlock2","","","","This is a dep:","null","","","","","",""
"image-keyboard-response","359","368306","0.0-7.0-1.37","LF","vzebe40w15","1920","1080","0","1","0","5fce9a625474c41129c10fb1","","null","","","","","","","learning/Slide118.JPG","null","","","","","",""
"html-keyboard-response","360","369307","0.0-7.0-2.37","LF","vzebe40w15","1920","1080","0","1","0","5fce9a625474c41129c10fb1","","null","","","learningBlock2","","","","<div style=""font-size:60px;""> </div>","null","LF","learning/Slide118.JPG","This is a dep:","","",""
"html-keyboard-response","361","370308","0.0-7.0-0.38","LF","vzebe40w15","1920","1080","0","1","0","5fce9a625474c41129c10fb1","","null","","","learningBlock2","","","","This is a wug:","null","","","","","",""
"image-keyboard-response","362","370635","0.0-7.0-1.38","LF","vzebe40w15","1920","1080","0","1","0","5fce9a625474c41129c10fb1","","null","","","","","","","learning/Slide119.JPG","null","","","","","",""
"html-keyboard-response","363","371636","0.0-7.0-2.38","LF","vzebe40w15","1920","1080","0","1","0","5fce9a625474c41129c10fb1","","null","","","learningBlock2","","","","<div style=""font-size:60px;""> </div>","null","LF","learning/Slide119.JPG","This is a wug:","","",""
"html-keyboard-response","364","372637","0.0-7.0-0.39","LF","vzebe40w15","1920","1080","0","1","0","5fce9a625474c41129c10fb1","","null","","","learningBlock2","","","","This is a dep:","null","","","","","",""
"image-keyboard-response","365","372964","0.0-7.0-1.39","LF","vzebe40w15","1920","1080","0","1","0","5fce9a625474c41129c10fb1","","null","","","","","","","learning/Slide120.JPG","null","","","","","",""
"html-keyboard-response","366","373965","0.0-7.0-2.39","LF","vzebe40w15","1920","1080","0","1","0","5fce9a625474c41129c10fb1","","null","","","learningBlock2","","","","<div style=""font-size:60px;""> </div>","null","LF","learning/Slide120.JPG","This is a dep:","","",""
"html-keyboard-response","367","374966","0.0-7.0-0.40","LF","vzebe40w15","1920","1080","0","1","0","5fce9a625474c41129c10fb1","","null","","","learningBlock2","","","","This is a bim:","null","","","","","",""
"image-keyboard-response","368","375293","0.0-7.0-1.40","LF","vzebe40w15","1920","1080","0","1","0","5fce9a625474c41129c10fb1","","null","","","","","","","learning/Slide121.JPG","null","","","","","",""
"html-keyboard-response","369","376294","0.0-7.0-2.40","LF","vzebe40w15","1920","1080","0","1","0","5fce9a625474c41129c10fb1","","null","","","learningBlock2","","","","<div style=""font-size:60px;""> </div>","null","LF","learning/Slide121.JPG","This is a bim:","","",""
"html-keyboard-response","370","377295","0.0-7.0-0.41","LF","vzebe40w15","1920","1080","0","1","0","5fce9a625474c41129c10fb1","","null","","","learningBlock2","","","","This is a wug:","null","","","","","",""
"image-keyboard-response","371","377622","0.0-7.0-1.41","LF","vzebe40w15","1920","1080","0","1","0","5fce9a625474c41129c10fb1","","null","","","","","","","learning/Slide122.JPG","null","","","","","",""
"html-keyboard-response","372","378623","0.0-7.0-2.41","LF","vzebe40w15","1920","1080","0","1","0","5fce9a625474c41129c10fb1","","null","","","learningBlock2","","","","<div style=""font-size:60px;""> </div>","null","LF","learning/Slide122.JPG","This is a wug:","","",""
"html-keyboard-response","373","379624","0.0-7.0-0.42","LF","vzebe40w15","1920","1080","0","1","0","5fce9a625474c41129c10fb1","","null","","","learningBlock2","","","","This is a bim:","null","","","","","",""
"image-keyboard-response","374","379951","0.0-7.0-1.42","LF","vzebe40w15","1920","1080","0","1","0","5fce9a625474c41129c10fb1","","null","","","","","","","learning/Slide123.JPG","null","","","","","",""
"html-keyboard-response","375","380952","0.0-7.0-2.42","LF","vzebe40w15","1920","1080","0","1","0","5fce9a625474c41129c10fb1","","null","","","learningBlock2","","","","<div style=""font-size:60px;""> </div>","null","LF","learning/Slide123.JPG","This is a bim:","","",""
"html-keyboard-response","376","381953","0.0-7.0-0.43","LF","vzebe40w15","1920","1080","0","1","0","5fce9a625474c41129c10fb1","","null","","","learningBlock2","","","","This is a tob:","null","","","","","",""
"image-keyboard-response","377","382280","0.0-7.0-1.43","LF","vzebe40w15","1920","1080","0","1","0","5fce9a625474c41129c10fb1","","null","","","","","","","learning/Slide124.JPG","null","","","","","",""
"html-keyboard-response","378","383281","0.0-7.0-2.43","LF","vzebe40w15","1920","1080","0","1","0","5fce9a625474c41129c10fb1","","null","","","learningBlock2","","","","<div style=""font-size:60px;""> </div>","null","LF","learning/Slide124.JPG","This is a tob:","","",""
"html-keyboard-response","379","384282","0.0-7.0-0.44","LF","vzebe40w15","1920","1080","0","1","0","5fce9a625474c41129c10fb1","","null","","","learningBlock2","","","","This is a bim:","null","","","","","",""
"image-keyboard-response","380","384609","0.0-7.0-1.44","LF","vzebe40w15","1920","1080","0","1","0","5fce9a625474c41129c10fb1","","null","","","","","","","learning/Slide125.JPG","null","","","","","",""
"html-keyboard-response","381","385610","0.0-7.0-2.44","LF","vzebe40w15","1920","1080","0","1","0","5fce9a625474c41129c10fb1","","null","","","learningBlock2","","","","<div style=""font-size:60px;""> </div>","null","LF","learning/Slide125.JPG","This is a bim:","","",""
"html-keyboard-response","382","386611","0.0-7.0-0.45","LF","vzebe40w15","1920","1080","0","1","0","5fce9a625474c41129c10fb1","","null","","","learningBlock2","","","","This is a tob:","null","","","","","",""
"image-keyboard-response","383","386938","0.0-7.0-1.45","LF","vzebe40w15","1920","1080","0","1","0","5fce9a625474c41129c10fb1","","null","","","","","","","learning/Slide126.JPG","null","","","","","",""
"html-keyboard-response","384","387939","0.0-7.0-2.45","LF","vzebe40w15","1920","1080","0","1","0","5fce9a625474c41129c10fb1","","null","","","learningBlock2","","","","<div style=""font-size:60px;""> </div>","null","LF","learning/Slide126.JPG","This is a tob:","","",""
"html-keyboard-response","385","388941","0.0-7.0-0.46","LF","vzebe40w15","1920","1080","0","1","0","5fce9a625474c41129c10fb1","","null","","","learningBlock2","","","","This is a dep:","null","","","","","",""
"image-keyboard-response","386","389269","0.0-7.0-1.46","LF","vzebe40w15","1920","1080","0","1","0","5fce9a625474c41129c10fb1","","null","","","","","","","learning/Slide127.JPG","null","","","","","",""
"html-keyboard-response","387","390269","0.0-7.0-2.46","LF","vzebe40w15","1920","1080","0","1","0","5fce9a625474c41129c10fb1","","null","","","learningBlock2","","","","<div style=""font-size:60px;""> </div>","null","LF","learning/Slide127.JPG","This is a dep:","","",""
"html-keyboard-response","388","391270","0.0-7.0-0.47","LF","vzebe40w15","1920","1080","0","1","0","5fce9a625474c41129c10fb1","","null","","","learningBlock2","","","","This is a wug:","null","","","","","",""
"image-keyboard-response","389","391598","0.0-7.0-1.47","LF","vzebe40w15","1920","1080","0","1","0","5fce9a625474c41129c10fb1","","null","","","","","","","learning/Slide128.JPG","null","","","","","",""
"html-keyboard-response","390","392599","0.0-7.0-2.47","LF","vzebe40w15","1920","1080","0","1","0","5fce9a625474c41129c10fb1","","null","","","learningBlock2","","","","<div style=""font-size:60px;""> </div>","null","LF","learning/Slide128.JPG","This is a wug:","","",""
"html-keyboard-response","391","393600","0.0-7.0-0.48","LF","vzebe40w15","1920","1080","0","1","0","5fce9a625474c41129c10fb1","","null","","","learningBlock2","","","","This is a tob:","null","","","","","",""
"image-keyboard-response","392","393927","0.0-7.0-1.48","LF","vzebe40w15","1920","1080","0","1","0","5fce9a625474c41129c10fb1","","null","","","","","","","learning/Slide129.JPG","null","","","","","",""
"html-keyboard-response","393","394928","0.0-7.0-2.48","LF","vzebe40w15","1920","1080","0","1","0","5fce9a625474c41129c10fb1","","null","","","learningBlock2","","","","<div style=""font-size:60px;""> </div>","null","LF","learning/Slide129.JPG","This is a tob:","","",""
"html-keyboard-response","394","395929","0.0-7.0-0.49","LF","vzebe40w15","1920","1080","0","1","0","5fce9a625474c41129c10fb1","","null","","","learningBlock2","","","","This is a wug:","null","","","","","",""
"image-keyboard-response","395","396256","0.0-7.0-1.49","LF","vzebe40w15","1920","1080","0","1","0","5fce9a625474c41129c10fb1","","null","","","","","","","learning/Slide130.JPG","null","","","","","",""
"html-keyboard-response","396","397257","0.0-7.0-2.49","LF","vzebe40w15","1920","1080","0","1","0","5fce9a625474c41129c10fb1","","null","","","learningBlock2","","","","<div style=""font-size:60px;""> </div>","null","LF","learning/Slide130.JPG","This is a wug:","","",""
"html-keyboard-response","397","398258","0.0-7.0-0.50","LF","vzebe40w15","1920","1080","0","1","0","5fce9a625474c41129c10fb1","","null","","","learningBlock2","","","","This is a bim:","null","","","","","",""
"image-keyboard-response","398","398585","0.0-7.0-1.50","LF","vzebe40w15","1920","1080","0","1","0","5fce9a625474c41129c10fb1","","null","","","","","","","learning/Slide131.JPG","null","","","","","",""
"html-keyboard-response","399","399586","0.0-7.0-2.50","LF","vzebe40w15","1920","1080","0","1","0","5fce9a625474c41129c10fb1","","null","","","learningBlock2","","","","<div style=""font-size:60px;""> </div>","null","LF","learning/Slide131.JPG","This is a bim:","","",""
"html-keyboard-response","400","400587","0.0-7.0-0.51","LF","vzebe40w15","1920","1080","0","1","0","5fce9a625474c41129c10fb1","","null","","","learningBlock2","","","","This is a dep:","null","","","","","",""
"image-keyboard-response","401","400914","0.0-7.0-1.51","LF","vzebe40w15","1920","1080","0","1","0","5fce9a625474c41129c10fb1","","null","","","","","","","learning/Slide132.JPG","null","","","","","",""
"html-keyboard-response","402","401915","0.0-7.0-2.51","LF","vzebe40w15","1920","1080","0","1","0","5fce9a625474c41129c10fb1","","null","","","learningBlock2","","","","<div style=""font-size:60px;""> </div>","null","LF","learning/Slide132.JPG","This is a dep:","","",""
"html-keyboard-response","403","402916","0.0-7.0-0.52","LF","vzebe40w15","1920","1080","0","1","0","5fce9a625474c41129c10fb1","","null","","","learningBlock2","","","","This is a tob:","null","","","","","",""
"image-keyboard-response","404","403244","0.0-7.0-1.52","LF","vzebe40w15","1920","1080","0","1","0","5fce9a625474c41129c10fb1","","null","","","","","","","learning/Slide133.JPG","null","","","","","",""
"html-keyboard-response","405","404245","0.0-7.0-2.52","LF","vzebe40w15","1920","1080","0","1","0","5fce9a625474c41129c10fb1","","null","","","learningBlock2","","","","<div style=""font-size:60px;""> </div>","null","LF","learning/Slide133.JPG","This is a tob:","","",""
"html-keyboard-response","406","405246","0.0-7.0-0.53","LF","vzebe40w15","1920","1080","0","1","0","5fce9a625474c41129c10fb1","","null","","","learningBlock2","","","","This is a dep:","null","","","","","",""
"image-keyboard-response","407","405573","0.0-7.0-1.53","LF","vzebe40w15","1920","1080","0","1","0","5fce9a625474c41129c10fb1","","null","","","","","","","learning/Slide134.JPG","null","","","","","",""
"html-keyboard-response","408","406574","0.0-7.0-2.53","LF","vzebe40w15","1920","1080","0","1","0","5fce9a625474c41129c10fb1","","null","","","learningBlock2","","","","<div style=""font-size:60px;""> </div>","null","LF","learning/Slide134.JPG","This is a dep:","","",""
"html-keyboard-response","409","407575","0.0-7.0-0.54","LF","vzebe40w15","1920","1080","0","1","0","5fce9a625474c41129c10fb1","","null","","","learningBlock2","","","","This is a tob:","null","","","","","",""
"image-keyboard-response","410","407902","0.0-7.0-1.54","LF","vzebe40w15","1920","1080","0","1","0","5fce9a625474c41129c10fb1","","null","","","","","","","learning/Slide135.JPG","null","","","","","",""
"html-keyboard-response","411","408903","0.0-7.0-2.54","LF","vzebe40w15","1920","1080","0","1","0","5fce9a625474c41129c10fb1","","null","","","learningBlock2","","","","<div style=""font-size:60px;""> </div>","null","LF","learning/Slide135.JPG","This is a tob:","","",""
"html-keyboard-response","412","409904","0.0-7.0-0.55","LF","vzebe40w15","1920","1080","0","1","0","5fce9a625474c41129c10fb1","","null","","","learningBlock2","","","","This is a wug:","null","","","","","",""
"image-keyboard-response","413","410231","0.0-7.0-1.55","LF","vzebe40w15","1920","1080","0","1","0","5fce9a625474c41129c10fb1","","null","","","","","","","learning/Slide136.JPG","null","","","","","",""
"html-keyboard-response","414","411232","0.0-7.0-2.55","LF","vzebe40w15","1920","1080","0","1","0","5fce9a625474c41129c10fb1","","null","","","learningBlock2","","","","<div style=""font-size:60px;""> </div>","null","LF","learning/Slide136.JPG","This is a wug:","","",""
"html-keyboard-response","415","412233","0.0-7.0-0.56","LF","vzebe40w15","1920","1080","0","1","0","5fce9a625474c41129c10fb1","","null","","","learningBlock2","","","","This is a tob:","null","","","","","",""
"image-keyboard-response","416","412560","0.0-7.0-1.56","LF","vzebe40w15","1920","1080","0","1","0","5fce9a625474c41129c10fb1","","null","","","","","","","learning/Slide137.JPG","null","","","","","",""
"html-keyboard-response","417","413561","0.0-7.0-2.56","LF","vzebe40w15","1920","1080","0","1","0","5fce9a625474c41129c10fb1","","null","","","learningBlock2","","","","<div style=""font-size:60px;""> </div>","null","LF","learning/Slide137.JPG","This is a tob:","","",""
"html-keyboard-response","418","414562","0.0-7.0-0.57","LF","vzebe40w15","1920","1080","0","1","0","5fce9a625474c41129c10fb1","","null","","","learningBlock2","","","","This is a bim:","null","","","","","",""
"image-keyboard-response","419","414890","0.0-7.0-1.57","LF","vzebe40w15","1920","1080","0","1","0","5fce9a625474c41129c10fb1","","null","","","","","","","learning/Slide138.JPG","null","","","","","",""
"html-keyboard-response","420","415891","0.0-7.0-2.57","LF","vzebe40w15","1920","1080","0","1","0","5fce9a625474c41129c10fb1","","null","","","learningBlock2","","","","<div style=""font-size:60px;""> </div>","null","LF","learning/Slide138.JPG","This is a bim:","","",""
"html-keyboard-response","421","416892","0.0-7.0-0.58","LF","vzebe40w15","1920","1080","0","1","0","5fce9a625474c41129c10fb1","","null","","","learningBlock2","","","","This is a wug:","null","","","","","",""
"image-keyboard-response","422","417220","0.0-7.0-1.58","LF","vzebe40w15","1920","1080","0","1","0","5fce9a625474c41129c10fb1","","null","","","","","","","learning/Slide139.JPG","null","","","","","",""
"html-keyboard-response","423","418220","0.0-7.0-2.58","LF","vzebe40w15","1920","1080","0","1","0","5fce9a625474c41129c10fb1","","null","","","learningBlock2","","","","<div style=""font-size:60px;""> </div>","null","LF","learning/Slide139.JPG","This is a wug:","","",""
"html-keyboard-response","424","419222","0.0-7.0-0.59","LF","vzebe40w15","1920","1080","0","1","0","5fce9a625474c41129c10fb1","","null","","","learningBlock2","","","","This is a dep:","null","","","","","",""
"image-keyboard-response","425","419550","0.0-7.0-1.59","LF","vzebe40w15","1920","1080","0","1","0","5fce9a625474c41129c10fb1","","null","","","","","","","learning/Slide140.JPG","null","","","","","",""
"html-keyboard-response","426","420551","0.0-7.0-2.59","LF","vzebe40w15","1920","1080","0","1","0","5fce9a625474c41129c10fb1","","null","","","learningBlock2","","","","<div style=""font-size:60px;""> </div>","null","LF","learning/Slide140.JPG","This is a dep:","","",""
"html-keyboard-response","427","421551","0.0-7.0-0.60","LF","vzebe40w15","1920","1080","0","1","0","5fce9a625474c41129c10fb1","","null","","","learningBlock2","","","","This is a tob:","null","","","","","",""
"image-keyboard-response","428","421879","0.0-7.0-1.60","LF","vzebe40w15","1920","1080","0","1","0","5fce9a625474c41129c10fb1","","null","","","","","","","learning/Slide141.JPG","null","","","","","",""
"html-keyboard-response","429","422880","0.0-7.0-2.60","LF","vzebe40w15","1920","1080","0","1","0","5fce9a625474c41129c10fb1","","null","","","learningBlock2","","","","<div style=""font-size:60px;""> </div>","null","LF","learning/Slide141.JPG","This is a tob:","","",""
"html-keyboard-response","430","423881","0.0-7.0-0.61","LF","vzebe40w15","1920","1080","0","1","0","5fce9a625474c41129c10fb1","","null","","","learningBlock2","","","","This is a wug:","null","","","","","",""
"image-keyboard-response","431","424208","0.0-7.0-1.61","LF","vzebe40w15","1920","1080","0","1","0","5fce9a625474c41129c10fb1","","null","","","","","","","learning/Slide142.JPG","null","","","","","",""
"html-keyboard-response","432","425209","0.0-7.0-2.61","LF","vzebe40w15","1920","1080","0","1","0","5fce9a625474c41129c10fb1","","null","","","learningBlock2","","","","<div style=""font-size:60px;""> </div>","null","LF","learning/Slide142.JPG","This is a wug:","","",""
"html-keyboard-response","433","426210","0.0-7.0-0.62","LF","vzebe40w15","1920","1080","0","1","0","5fce9a625474c41129c10fb1","","null","","","learningBlock2","","","","This is a bim:","null","","","","","",""
"image-keyboard-response","434","426537","0.0-7.0-1.62","LF","vzebe40w15","1920","1080","0","1","0","5fce9a625474c41129c10fb1","","null","","","","","","","learning/Slide143.JPG","null","","","","","",""
"html-keyboard-response","435","427538","0.0-7.0-2.62","LF","vzebe40w15","1920","1080","0","1","0","5fce9a625474c41129c10fb1","","null","","","learningBlock2","","","","<div style=""font-size:60px;""> </div>","null","LF","learning/Slide143.JPG","This is a bim:","","",""
"html-keyboard-response","436","428539","0.0-7.0-0.63","LF","vzebe40w15","1920","1080","0","1","0","5fce9a625474c41129c10fb1","","null","","","learningBlock2","","","","This is a dep:","null","","","","","",""
