"trial_type","trial_index","time_elapsed","internal_node_id","condition","subject","screen_width","screen_height","attention","distraction","conscientious","prolificID","success","rt","url","view_history","test_part","final_height_px","final_width_px","scale_factor","stimulus","key_press","learningType","presentedImage","presentedLabel","button_pressed","response","responses"
"pavlovia","0","21","0.0-0.0","FL","e9dxj57s6l","1280","720","0","1","0","5eb58476f88d4008fa483809","","","","","","","","","","","","","","","",""
"fullscreen","1","13285","0.0-1.0","FL","e9dxj57s6l","1280","720","0","1","0","5eb58476f88d4008fa483809","true","","","","","","","","","","","","","","",""
"external-html","2","17998","0.0-2.0-0.0","FL","e9dxj57s6l","1280","720","0","1","0","5eb58476f88d4008fa483809","","4665.879999985918","text/information_english.html","","","","","","","","","","","","",""
"external-html","3","28030","0.0-2.0-1.0","FL","e9dxj57s6l","1280","720","0","1","0","5eb58476f88d4008fa483809","","9986.735000042245","text/consent_english.html","","","","","","","","","","","","",""
"instructions","4","158956","0.0-3.0","FL","e9dxj57s6l","1280","720","0","1","0","5eb58476f88d4008fa483809","","NA","","[{""page_index"":0,""viewing_time"":59097.810000006575},{""page_index"":1,""viewing_time"":71823.80000001285}]","instructions","","","","","","","","","","",""
"resize","5","272091","0.0-4.0","FL","e9dxj57s6l","1280","720","0","1","0","5eb58476f88d4008fa483809","","","","","","","354","2.2476190476190476","","","","","","","",""
"image-keyboard-response","6","272275","0.0-5.0-0.0","FL","e9dxj57s6l","1280","720","0","1","0","5eb58476f88d4008fa483809","","null","","","","","","","learning/Slide1.JPG","null","","","","","",""
"html-keyboard-response","7","273454","0.0-5.0-1.0","FL","e9dxj57s6l","1280","720","0","1","0","5eb58476f88d4008fa483809","","null","","","learningBlock1","","","","That was a tob.","null","","","","","",""
"html-keyboard-response","8","274457","0.0-5.0-2.0","FL","e9dxj57s6l","1280","720","0","1","0","5eb58476f88d4008fa483809","","null","","","learningBlock1","","","","<div style=""font-size:60px;""> </div>","null","FL","learning/Slide1.JPG","That was a tob.","","",""
"image-keyboard-response","9","274642","0.0-5.0-0.1","FL","e9dxj57s6l","1280","720","0","1","0","5eb58476f88d4008fa483809","","null","","","","","","","learning/Slide2.JPG","null","","","","","",""
"html-keyboard-response","10","275810","0.0-5.0-1.1","FL","e9dxj57s6l","1280","720","0","1","0","5eb58476f88d4008fa483809","","null","","","learningBlock1","","","","That was a wug.","null","","","","","",""
"html-keyboard-response","11","276814","0.0-5.0-2.1","FL","e9dxj57s6l","1280","720","0","1","0","5eb58476f88d4008fa483809","","null","","","learningBlock1","","","","<div style=""font-size:60px;""> </div>","null","FL","learning/Slide2.JPG","That was a wug.","","",""
"image-keyboard-response","12","276999","0.0-5.0-0.2","FL","e9dxj57s6l","1280","720","0","1","0","5eb58476f88d4008fa483809","","null","","","","","","","learning/Slide3.JPG","null","","","","","",""
"html-keyboard-response","13","278159","0.0-5.0-1.2","FL","e9dxj57s6l","1280","720","0","1","0","5eb58476f88d4008fa483809","","null","","","learningBlock1","","","","That was a bim.","null","","","","","",""
"html-keyboard-response","14","279165","0.0-5.0-2.2","FL","e9dxj57s6l","1280","720","0","1","0","5eb58476f88d4008fa483809","","null","","","learningBlock1","","","","<div style=""font-size:60px;""> </div>","null","FL","learning/Slide3.JPG","That was a bim.","","",""
"image-keyboard-response","15","279350","0.0-5.0-0.3","FL","e9dxj57s6l","1280","720","0","1","0","5eb58476f88d4008fa483809","","null","","","","","","","learning/Slide4.JPG","null","","","","","",""
"html-keyboard-response","16","280511","0.0-5.0-1.3","FL","e9dxj57s6l","1280","720","0","1","0","5eb58476f88d4008fa483809","","null","","","learningBlock1","","","","That was a dep.","null","","","","","",""
"html-keyboard-response","17","281515","0.0-5.0-2.3","FL","e9dxj57s6l","1280","720","0","1","0","5eb58476f88d4008fa483809","","null","","","learningBlock1","","","","<div style=""font-size:60px;""> </div>","null","FL","learning/Slide4.JPG","That was a dep.","","",""
"image-keyboard-response","18","281699","0.0-5.0-0.4","FL","e9dxj57s6l","1280","720","0","1","0","5eb58476f88d4008fa483809","","null","","","","","","","learning/Slide5.JPG","null","","","","","",""
"html-keyboard-response","19","282866","0.0-5.0-1.4","FL","e9dxj57s6l","1280","720","0","1","0","5eb58476f88d4008fa483809","","null","","","learningBlock1","","","","That was a wug.","null","","","","","",""
"html-keyboard-response","20","283870","0.0-5.0-2.4","FL","e9dxj57s6l","1280","720","0","1","0","5eb58476f88d4008fa483809","","null","","","learningBlock1","","","","<div style=""font-size:60px;""> </div>","null","FL","learning/Slide5.JPG","That was a wug.","","",""
"image-keyboard-response","21","284055","0.0-5.0-0.5","FL","e9dxj57s6l","1280","720","0","1","0","5eb58476f88d4008fa483809","","null","","","","","","","learning/Slide6.JPG","null","","","","","",""
"html-keyboard-response","22","285213","0.0-5.0-1.5","FL","e9dxj57s6l","1280","720","0","1","0","5eb58476f88d4008fa483809","","null","","","learningBlock1","","","","That was a dep.","null","","","","","",""
"html-keyboard-response","23","286217","0.0-5.0-2.5","FL","e9dxj57s6l","1280","720","0","1","0","5eb58476f88d4008fa483809","","null","","","learningBlock1","","","","<div style=""font-size:60px;""> </div>","null","FL","learning/Slide6.JPG","That was a dep.","","",""
"image-keyboard-response","24","286402","0.0-5.0-0.6","FL","e9dxj57s6l","1280","720","0","1","0","5eb58476f88d4008fa483809","","null","","","","","","","learning/Slide7.JPG","null","","","","","",""
"html-keyboard-response","25","287569","0.0-5.0-1.6","FL","e9dxj57s6l","1280","720","0","1","0","5eb58476f88d4008fa483809","","null","","","learningBlock1","","","","That was a wug.","null","","","","","",""
"html-keyboard-response","26","288572","0.0-5.0-2.6","FL","e9dxj57s6l","1280","720","0","1","0","5eb58476f88d4008fa483809","","null","","","learningBlock1","","","","<div style=""font-size:60px;""> </div>","null","FL","learning/Slide7.JPG","That was a wug.","","",""
"image-keyboard-response","27","288763","0.0-5.0-0.7","FL","e9dxj57s6l","1280","720","0","1","0","5eb58476f88d4008fa483809","","null","","","","","","","learning/Slide8.JPG","null","","","","","",""
"html-keyboard-response","28","289920","0.0-5.0-1.7","FL","e9dxj57s6l","1280","720","0","1","0","5eb58476f88d4008fa483809","","null","","","learningBlock1","","","","That was a bim.","null","","","","","",""
"html-keyboard-response","29","290924","0.0-5.0-2.7","FL","e9dxj57s6l","1280","720","0","1","0","5eb58476f88d4008fa483809","","null","","","learningBlock1","","","","<div style=""font-size:60px;""> </div>","null","FL","learning/Slide8.JPG","That was a bim.","","",""
"image-keyboard-response","30","291103","0.0-5.0-0.8","FL","e9dxj57s6l","1280","720","0","1","0","5eb58476f88d4008fa483809","","null","","","","","","","learning/Slide9.JPG","null","","","","","",""
"html-keyboard-response","31","292265","0.0-5.0-1.8","FL","e9dxj57s6l","1280","720","0","1","0","5eb58476f88d4008fa483809","","null","","","learningBlock1","","","","That was a wug.","null","","","","","",""
"html-keyboard-response","32","293270","0.0-5.0-2.8","FL","e9dxj57s6l","1280","720","0","1","0","5eb58476f88d4008fa483809","","null","","","learningBlock1","","","","<div style=""font-size:60px;""> </div>","null","FL","learning/Slide9.JPG","That was a wug.","","",""
"image-keyboard-response","33","293455","0.0-5.0-0.9","FL","e9dxj57s6l","1280","720","0","1","0","5eb58476f88d4008fa483809","","null","","","","","","","learning/Slide10.JPG","null","","","","","",""
"html-keyboard-response","34","294627","0.0-5.0-1.9","FL","e9dxj57s6l","1280","720","0","1","0","5eb58476f88d4008fa483809","","null","","","learningBlock1","","","","That was a dep.","null","","","","","",""
"html-keyboard-response","35","295631","0.0-5.0-2.9","FL","e9dxj57s6l","1280","720","0","1","0","5eb58476f88d4008fa483809","","null","","","learningBlock1","","","","<div style=""font-size:60px;""> </div>","null","FL","learning/Slide10.JPG","That was a dep.","","",""
"image-keyboard-response","36","295815","0.0-5.0-0.10","FL","e9dxj57s6l","1280","720","0","1","0","5eb58476f88d4008fa483809","","null","","","","","","","learning/Slide11.JPG","null","","","","","",""
"html-keyboard-response","37","296973","0.0-5.0-1.10","FL","e9dxj57s6l","1280","720","0","1","0","5eb58476f88d4008fa483809","","null","","","learningBlock1","","","","That was a tob.","null","","","","","",""
"html-keyboard-response","38","297978","0.0-5.0-2.10","FL","e9dxj57s6l","1280","720","0","1","0","5eb58476f88d4008fa483809","","null","","","learningBlock1","","","","<div style=""font-size:60px;""> </div>","null","FL","learning/Slide11.JPG","That was a tob.","","",""
"image-keyboard-response","39","298162","0.0-5.0-0.11","FL","e9dxj57s6l","1280","720","0","1","0","5eb58476f88d4008fa483809","","null","","","","","","","learning/Slide12.JPG","null","","","","","",""
"html-keyboard-response","40","299329","0.0-5.0-1.11","FL","e9dxj57s6l","1280","720","0","1","0","5eb58476f88d4008fa483809","","null","","","learningBlock1","","","","That was a dep.","null","","","","","",""
"html-keyboard-response","41","300338","0.0-5.0-2.11","FL","e9dxj57s6l","1280","720","0","1","0","5eb58476f88d4008fa483809","","null","","","learningBlock1","","","","<div style=""font-size:60px;""> </div>","null","FL","learning/Slide12.JPG","That was a dep.","","",""
"image-keyboard-response","42","300523","0.0-5.0-0.12","FL","e9dxj57s6l","1280","720","0","1","0","5eb58476f88d4008fa483809","","null","","","","","","","learning/Slide13.JPG","null","","","","","",""
"html-keyboard-response","43","301685","0.0-5.0-1.12","FL","e9dxj57s6l","1280","720","0","1","0","5eb58476f88d4008fa483809","","null","","","learningBlock1","","","","That was a bim.","null","","","","","",""
"html-keyboard-response","44","302689","0.0-5.0-2.12","FL","e9dxj57s6l","1280","720","0","1","0","5eb58476f88d4008fa483809","","null","","","learningBlock1","","","","<div style=""font-size:60px;""> </div>","null","FL","learning/Slide13.JPG","That was a bim.","","",""
"image-keyboard-response","45","302867","0.0-5.0-0.13","FL","e9dxj57s6l","1280","720","0","1","0","5eb58476f88d4008fa483809","","null","","","","","","","learning/Slide14.JPG","null","","","","","",""
"html-keyboard-response","46","304027","0.0-5.0-1.13","FL","e9dxj57s6l","1280","720","0","1","0","5eb58476f88d4008fa483809","","null","","","learningBlock1","","","","That was a wug.","null","","","","","",""
"html-keyboard-response","47","305030","0.0-5.0-2.13","FL","e9dxj57s6l","1280","720","0","1","0","5eb58476f88d4008fa483809","","null","","","learningBlock1","","","","<div style=""font-size:60px;""> </div>","null","FL","learning/Slide14.JPG","That was a wug.","","",""
"image-keyboard-response","48","305215","0.0-5.0-0.14","FL","e9dxj57s6l","1280","720","0","1","0","5eb58476f88d4008fa483809","","null","","","","","","","learning/Slide15.JPG","null","","","","","",""
"html-keyboard-response","49","306389","0.0-5.0-1.14","FL","e9dxj57s6l","1280","720","0","1","0","5eb58476f88d4008fa483809","","null","","","learningBlock1","","","","That was a tob.","null","","","","","",""
"html-keyboard-response","50","307393","0.0-5.0-2.14","FL","e9dxj57s6l","1280","720","0","1","0","5eb58476f88d4008fa483809","","null","","","learningBlock1","","","","<div style=""font-size:60px;""> </div>","null","FL","learning/Slide15.JPG","That was a tob.","","",""
"image-keyboard-response","51","307579","0.0-5.0-0.15","FL","e9dxj57s6l","1280","720","0","1","0","5eb58476f88d4008fa483809","","null","","","","","","","learning/Slide16.JPG","null","","","","","",""
"html-keyboard-response","52","308736","0.0-5.0-1.15","FL","e9dxj57s6l","1280","720","0","1","0","5eb58476f88d4008fa483809","","null","","","learningBlock1","","","","That was a dep.","null","","","","","",""
"html-keyboard-response","53","309740","0.0-5.0-2.15","FL","e9dxj57s6l","1280","720","0","1","0","5eb58476f88d4008fa483809","","null","","","learningBlock1","","","","<div style=""font-size:60px;""> </div>","null","FL","learning/Slide16.JPG","That was a dep.","","",""
"image-keyboard-response","54","309925","0.0-5.0-0.16","FL","e9dxj57s6l","1280","720","0","1","0","5eb58476f88d4008fa483809","","null","","","","","","","learning/Slide17.JPG","null","","","","","",""
"html-keyboard-response","55","311091","0.0-5.0-1.16","FL","e9dxj57s6l","1280","720","0","1","0","5eb58476f88d4008fa483809","","null","","","learningBlock1","","","","That was a bim.","null","","","","","",""
"html-keyboard-response","56","312094","0.0-5.0-2.16","FL","e9dxj57s6l","1280","720","0","1","0","5eb58476f88d4008fa483809","","null","","","learningBlock1","","","","<div style=""font-size:60px;""> </div>","null","FL","learning/Slide17.JPG","That was a bim.","","",""
"image-keyboard-response","57","312283","0.0-5.0-0.17","FL","e9dxj57s6l","1280","720","0","1","0","5eb58476f88d4008fa483809","","null","","","","","","","learning/Slide18.JPG","null","","","","","",""
"html-keyboard-response","58","313443","0.0-5.0-1.17","FL","e9dxj57s6l","1280","720","0","1","0","5eb58476f88d4008fa483809","","null","","","learningBlock1","","","","That was a tob.","null","","","","","",""
"html-keyboard-response","59","314448","0.0-5.0-2.17","FL","e9dxj57s6l","1280","720","0","1","0","5eb58476f88d4008fa483809","","null","","","learningBlock1","","","","<div style=""font-size:60px;""> </div>","null","FL","learning/Slide18.JPG","That was a tob.","","",""
"image-keyboard-response","60","314648","0.0-5.0-0.18","FL","e9dxj57s6l","1280","720","0","1","0","5eb58476f88d4008fa483809","","null","","","","","","","learning/Slide19.JPG","null","","","","","",""
"html-keyboard-response","61","315815","0.0-5.0-1.18","FL","e9dxj57s6l","1280","720","0","1","0","5eb58476f88d4008fa483809","","null","","","learningBlock1","","","","That was a wug.","null","","","","","",""
"html-keyboard-response","62","316828","0.0-5.0-2.18","FL","e9dxj57s6l","1280","720","0","1","0","5eb58476f88d4008fa483809","","null","","","learningBlock1","","","","<div style=""font-size:60px;""> </div>","null","FL","learning/Slide19.JPG","That was a wug.","","",""
"image-keyboard-response","63","317012","0.0-5.0-0.19","FL","e9dxj57s6l","1280","720","0","1","0","5eb58476f88d4008fa483809","","null","","","","","","","learning/Slide20.JPG","null","","","","","",""
"html-keyboard-response","64","318170","0.0-5.0-1.19","FL","e9dxj57s6l","1280","720","0","1","0","5eb58476f88d4008fa483809","","null","","","learningBlock1","","","","That was a bim.","null","","","","","",""
"html-keyboard-response","65","319173","0.0-5.0-2.19","FL","e9dxj57s6l","1280","720","0","1","0","5eb58476f88d4008fa483809","","null","","","learningBlock1","","","","<div style=""font-size:60px;""> </div>","null","FL","learning/Slide20.JPG","That was a bim.","","",""
"image-keyboard-response","66","319352","0.0-5.0-0.20","FL","e9dxj57s6l","1280","720","0","1","0","5eb58476f88d4008fa483809","","null","","","","","","","learning/Slide21.JPG","null","","","","","",""
"html-keyboard-response","67","320513","0.0-5.0-1.20","FL","e9dxj57s6l","1280","720","0","1","0","5eb58476f88d4008fa483809","","null","","","learningBlock1","","","","That was a dep.","null","","","","","",""
"html-keyboard-response","68","321517","0.0-5.0-2.20","FL","e9dxj57s6l","1280","720","0","1","0","5eb58476f88d4008fa483809","","null","","","learningBlock1","","","","<div style=""font-size:60px;""> </div>","null","FL","learning/Slide21.JPG","That was a dep.","","",""
"image-keyboard-response","69","321702","0.0-5.0-0.21","FL","e9dxj57s6l","1280","720","0","1","0","5eb58476f88d4008fa483809","","null","","","","","","","learning/Slide22.JPG","null","","","","","",""
"html-keyboard-response","70","322868","0.0-5.0-1.21","FL","e9dxj57s6l","1280","720","0","1","0","5eb58476f88d4008fa483809","","null","","","learningBlock1","","","","That was a bim.","null","","","","","",""
"html-keyboard-response","71","323876","0.0-5.0-2.21","FL","e9dxj57s6l","1280","720","0","1","0","5eb58476f88d4008fa483809","","null","","","learningBlock1","","","","<div style=""font-size:60px;""> </div>","null","FL","learning/Slide22.JPG","That was a bim.","","",""
"image-keyboard-response","72","324061","0.0-5.0-0.22","FL","e9dxj57s6l","1280","720","0","1","0","5eb58476f88d4008fa483809","","null","","","","","","","learning/Slide23.JPG","null","","","","","",""
"html-keyboard-response","73","325222","0.0-5.0-1.22","FL","e9dxj57s6l","1280","720","0","1","0","5eb58476f88d4008fa483809","","null","","","learningBlock1","","","","That was a tob.","null","","","","","",""
"html-keyboard-response","74","326225","0.0-5.0-2.22","FL","e9dxj57s6l","1280","720","0","1","0","5eb58476f88d4008fa483809","","null","","","learningBlock1","","","","<div style=""font-size:60px;""> </div>","null","FL","learning/Slide23.JPG","That was a tob.","","",""
"image-keyboard-response","75","326410","0.0-5.0-0.23","FL","e9dxj57s6l","1280","720","0","1","0","5eb58476f88d4008fa483809","","null","","","","","","","learning/Slide24.JPG","null","","","","","",""
"html-keyboard-response","76","327579","0.0-5.0-1.23","FL","e9dxj57s6l","1280","720","0","1","0","5eb58476f88d4008fa483809","","null","","","learningBlock1","","","","That was a wug.","null","","","","","",""
"html-keyboard-response","77","328582","0.0-5.0-2.23","FL","e9dxj57s6l","1280","720","0","1","0","5eb58476f88d4008fa483809","","null","","","learningBlock1","","","","<div style=""font-size:60px;""> </div>","null","FL","learning/Slide24.JPG","That was a wug.","","",""
"image-keyboard-response","78","328767","0.0-5.0-0.24","FL","e9dxj57s6l","1280","720","0","1","0","5eb58476f88d4008fa483809","","null","","","","","","","learning/Slide25.JPG","null","","","","","",""
"html-keyboard-response","79","329938","0.0-5.0-1.24","FL","e9dxj57s6l","1280","720","0","1","0","5eb58476f88d4008fa483809","","null","","","learningBlock1","","","","That was a dep.","null","","","","","",""
"html-keyboard-response","80","330942","0.0-5.0-2.24","FL","e9dxj57s6l","1280","720","0","1","0","5eb58476f88d4008fa483809","","null","","","learningBlock1","","","","<div style=""font-size:60px;""> </div>","null","FL","learning/Slide25.JPG","That was a dep.","","",""
"image-keyboard-response","81","331126","0.0-5.0-0.25","FL","e9dxj57s6l","1280","720","0","1","0","5eb58476f88d4008fa483809","","null","","","","","","","learning/Slide26.JPG","null","","","","","",""
"html-keyboard-response","82","332287","0.0-5.0-1.25","FL","e9dxj57s6l","1280","720","0","1","0","5eb58476f88d4008fa483809","","null","","","learningBlock1","","","","That was a wug.","null","","","","","",""
"html-keyboard-response","83","333291","0.0-5.0-2.25","FL","e9dxj57s6l","1280","720","0","1","0","5eb58476f88d4008fa483809","","null","","","learningBlock1","","","","<div style=""font-size:60px;""> </div>","null","FL","learning/Slide26.JPG","That was a wug.","","",""
"image-keyboard-response","84","333476","0.0-5.0-0.26","FL","e9dxj57s6l","1280","720","0","1","0","5eb58476f88d4008fa483809","","null","","","","","","","learning/Slide27.JPG","null","","","","","",""
"html-keyboard-response","85","334632","0.0-5.0-1.26","FL","e9dxj57s6l","1280","720","0","1","0","5eb58476f88d4008fa483809","","null","","","learningBlock1","","","","That was a bim.","null","","","","","",""
"html-keyboard-response","86","335635","0.0-5.0-2.26","FL","e9dxj57s6l","1280","720","0","1","0","5eb58476f88d4008fa483809","","null","","","learningBlock1","","","","<div style=""font-size:60px;""> </div>","null","FL","learning/Slide27.JPG","That was a bim.","","",""
"image-keyboard-response","87","335821","0.0-5.0-0.27","FL","e9dxj57s6l","1280","720","0","1","0","5eb58476f88d4008fa483809","","null","","","","","","","learning/Slide28.JPG","null","","","","","",""
"html-keyboard-response","88","336981","0.0-5.0-1.27","FL","e9dxj57s6l","1280","720","0","1","0","5eb58476f88d4008fa483809","","null","","","learningBlock1","","","","That was a dep.","null","","","","","",""
"html-keyboard-response","89","337984","0.0-5.0-2.27","FL","e9dxj57s6l","1280","720","0","1","0","5eb58476f88d4008fa483809","","null","","","learningBlock1","","","","<div style=""font-size:60px;""> </div>","null","FL","learning/Slide28.JPG","That was a dep.","","",""
"image-keyboard-response","90","338162","0.0-5.0-0.28","FL","e9dxj57s6l","1280","720","0","1","0","5eb58476f88d4008fa483809","","null","","","","","","","learning/Slide29.JPG","null","","","","","",""
"html-keyboard-response","91","339322","0.0-5.0-1.28","FL","e9dxj57s6l","1280","720","0","1","0","5eb58476f88d4008fa483809","","null","","","learningBlock1","","","","That was a tob.","null","","","","","",""
"html-keyboard-response","92","340335","0.0-5.0-2.28","FL","e9dxj57s6l","1280","720","0","1","0","5eb58476f88d4008fa483809","","null","","","learningBlock1","","","","<div style=""font-size:60px;""> </div>","null","FL","learning/Slide29.JPG","That was a tob.","","",""
"image-keyboard-response","93","340520","0.0-5.0-0.29","FL","e9dxj57s6l","1280","720","0","1","0","5eb58476f88d4008fa483809","","null","","","","","","","learning/Slide30.JPG","null","","","","","",""
"html-keyboard-response","94","341691","0.0-5.0-1.29","FL","e9dxj57s6l","1280","720","0","1","0","5eb58476f88d4008fa483809","","null","","","learningBlock1","","","","That was a dep.","null","","","","","",""
"html-keyboard-response","95","342699","0.0-5.0-2.29","FL","e9dxj57s6l","1280","720","0","1","0","5eb58476f88d4008fa483809","","null","","","learningBlock1","","","","<div style=""font-size:60px;""> </div>","null","FL","learning/Slide30.JPG","That was a dep.","","",""
"image-keyboard-response","96","342884","0.0-5.0-0.30","FL","e9dxj57s6l","1280","720","0","1","0","5eb58476f88d4008fa483809","","null","","","","","","","learning/Slide31.JPG","null","","","","","",""
"html-keyboard-response","97","344046","0.0-5.0-1.30","FL","e9dxj57s6l","1280","720","0","1","0","5eb58476f88d4008fa483809","","null","","","learningBlock1","","","","That was a wug.","null","","","","","",""
"html-keyboard-response","98","345052","0.0-5.0-2.30","FL","e9dxj57s6l","1280","720","0","1","0","5eb58476f88d4008fa483809","","null","","","learningBlock1","","","","<div style=""font-size:60px;""> </div>","null","FL","learning/Slide31.JPG","That was a wug.","","",""
"image-keyboard-response","99","345237","0.0-5.0-0.31","FL","e9dxj57s6l","1280","720","0","1","0","5eb58476f88d4008fa483809","","null","","","","","","","learning/Slide32.JPG","null","","","","","",""
"html-keyboard-response","100","346403","0.0-5.0-1.31","FL","e9dxj57s6l","1280","720","0","1","0","5eb58476f88d4008fa483809","","null","","","learningBlock1","","","","That was a tob.","null","","","","","",""
"html-keyboard-response","101","347409","0.0-5.0-2.31","FL","e9dxj57s6l","1280","720","0","1","0","5eb58476f88d4008fa483809","","null","","","learningBlock1","","","","<div style=""font-size:60px;""> </div>","null","FL","learning/Slide32.JPG","That was a tob.","","",""
"image-keyboard-response","102","347594","0.0-5.0-0.32","FL","e9dxj57s6l","1280","720","0","1","0","5eb58476f88d4008fa483809","","null","","","","","","","learning/Slide33.JPG","null","","","","","",""
"html-keyboard-response","103","348756","0.0-5.0-1.32","FL","e9dxj57s6l","1280","720","0","1","0","5eb58476f88d4008fa483809","","null","","","learningBlock1","","","","That was a bim.","null","","","","","",""
"html-keyboard-response","104","349760","0.0-5.0-2.32","FL","e9dxj57s6l","1280","720","0","1","0","5eb58476f88d4008fa483809","","null","","","learningBlock1","","","","<div style=""font-size:60px;""> </div>","null","FL","learning/Slide33.JPG","That was a bim.","","",""
"image-keyboard-response","105","349939","0.0-5.0-0.33","FL","e9dxj57s6l","1280","720","0","1","0","5eb58476f88d4008fa483809","","null","","","","","","","learning/Slide34.JPG","null","","","","","",""
"html-keyboard-response","106","351100","0.0-5.0-1.33","FL","e9dxj57s6l","1280","720","0","1","0","5eb58476f88d4008fa483809","","null","","","learningBlock1","","","","That was a tob.","null","","","","","",""
"html-keyboard-response","107","352113","0.0-5.0-2.33","FL","e9dxj57s6l","1280","720","0","1","0","5eb58476f88d4008fa483809","","null","","","learningBlock1","","","","<div style=""font-size:60px;""> </div>","null","FL","learning/Slide34.JPG","That was a tob.","","",""
"image-keyboard-response","108","352301","0.0-5.0-0.34","FL","e9dxj57s6l","1280","720","0","1","0","5eb58476f88d4008fa483809","","null","","","","","","","learning/Slide35.JPG","null","","","","","",""
"html-keyboard-response","109","353468","0.0-5.0-1.34","FL","e9dxj57s6l","1280","720","0","1","0","5eb58476f88d4008fa483809","","null","","","learningBlock1","","","","That was a bim.","null","","","","","",""
"html-keyboard-response","110","354475","0.0-5.0-2.34","FL","e9dxj57s6l","1280","720","0","1","0","5eb58476f88d4008fa483809","","null","","","learningBlock1","","","","<div style=""font-size:60px;""> </div>","null","FL","learning/Slide35.JPG","That was a bim.","","",""
"image-keyboard-response","111","354660","0.0-5.0-0.35","FL","e9dxj57s6l","1280","720","0","1","0","5eb58476f88d4008fa483809","","null","","","","","","","learning/Slide36.JPG","null","","","","","",""
"html-keyboard-response","112","355817","0.0-5.0-1.35","FL","e9dxj57s6l","1280","720","0","1","0","5eb58476f88d4008fa483809","","null","","","learningBlock1","","","","That was a dep.","null","","","","","",""
"html-keyboard-response","113","356821","0.0-5.0-2.35","FL","e9dxj57s6l","1280","720","0","1","0","5eb58476f88d4008fa483809","","null","","","learningBlock1","","","","<div style=""font-size:60px;""> </div>","null","FL","learning/Slide36.JPG","That was a dep.","","",""
"image-keyboard-response","114","357006","0.0-5.0-0.36","FL","e9dxj57s6l","1280","720","0","1","0","5eb58476f88d4008fa483809","","null","","","","","","","learning/Slide37.JPG","null","","","","","",""
"html-keyboard-response","115","358172","0.0-5.0-1.36","FL","e9dxj57s6l","1280","720","0","1","0","5eb58476f88d4008fa483809","","null","","","learningBlock1","","","","That was a tob.","null","","","","","",""
"html-keyboard-response","116","359176","0.0-5.0-2.36","FL","e9dxj57s6l","1280","720","0","1","0","5eb58476f88d4008fa483809","","null","","","learningBlock1","","","","<div style=""font-size:60px;""> </div>","null","FL","learning/Slide37.JPG","That was a tob.","","",""
"image-keyboard-response","117","359362","0.0-5.0-0.37","FL","e9dxj57s6l","1280","720","0","1","0","5eb58476f88d4008fa483809","","null","","","","","","","learning/Slide38.JPG","null","","","","","",""
"html-keyboard-response","118","360521","0.0-5.0-1.37","FL","e9dxj57s6l","1280","720","0","1","0","5eb58476f88d4008fa483809","","null","","","learningBlock1","","","","That was a wug.","null","","","","","",""
"html-keyboard-response","119","361528","0.0-5.0-2.37","FL","e9dxj57s6l","1280","720","0","1","0","5eb58476f88d4008fa483809","","null","","","learningBlock1","","","","<div style=""font-size:60px;""> </div>","null","FL","learning/Slide38.JPG","That was a wug.","","",""
"image-keyboard-response","120","361706","0.0-5.0-0.38","FL","e9dxj57s6l","1280","720","0","1","0","5eb58476f88d4008fa483809","","null","","","","","","","learning/Slide39.JPG","null","","","","","",""
"html-keyboard-response","121","362865","0.0-5.0-1.38","FL","e9dxj57s6l","1280","720","0","1","0","5eb58476f88d4008fa483809","","null","","","learningBlock1","","","","That was a bim.","null","","","","","",""
"html-keyboard-response","122","363868","0.0-5.0-2.38","FL","e9dxj57s6l","1280","720","0","1","0","5eb58476f88d4008fa483809","","null","","","learningBlock1","","","","<div style=""font-size:60px;""> </div>","null","FL","learning/Slide39.JPG","That was a bim.","","",""
"image-keyboard-response","123","364053","0.0-5.0-0.39","FL","e9dxj57s6l","1280","720","0","1","0","5eb58476f88d4008fa483809","","null","","","","","","","learning/Slide40.JPG","null","","","","","",""
"html-keyboard-response","124","365225","0.0-5.0-1.39","FL","e9dxj57s6l","1280","720","0","1","0","5eb58476f88d4008fa483809","","null","","","learningBlock1","","","","That was a tob.","null","","","","","",""
"html-keyboard-response","125","366228","0.0-5.0-2.39","FL","e9dxj57s6l","1280","720","0","1","0","5eb58476f88d4008fa483809","","null","","","learningBlock1","","","","<div style=""font-size:60px;""> </div>","null","FL","learning/Slide40.JPG","That was a tob.","","",""
"image-keyboard-response","126","366412","0.0-5.0-0.40","FL","e9dxj57s6l","1280","720","0","1","0","5eb58476f88d4008fa483809","","null","","","","","","","learning/Slide41.JPG","null","","","","","",""
"html-keyboard-response","127","367574","0.0-5.0-1.40","FL","e9dxj57s6l","1280","720","0","1","0","5eb58476f88d4008fa483809","","null","","","learningBlock1","","","","That was a bim.","null","","","","","",""
"html-keyboard-response","128","368578","0.0-5.0-2.40","FL","e9dxj57s6l","1280","720","0","1","0","5eb58476f88d4008fa483809","","null","","","learningBlock1","","","","<div style=""font-size:60px;""> </div>","null","FL","learning/Slide41.JPG","That was a bim.","","",""
"image-keyboard-response","129","368771","0.0-5.0-0.41","FL","e9dxj57s6l","1280","720","0","1","0","5eb58476f88d4008fa483809","","null","","","","","","","learning/Slide42.JPG","null","","","","","",""
"html-keyboard-response","130","369937","0.0-5.0-1.41","FL","e9dxj57s6l","1280","720","0","1","0","5eb58476f88d4008fa483809","","null","","","learningBlock1","","","","That was a dep.","null","","","","","",""
"html-keyboard-response","131","370943","0.0-5.0-2.41","FL","e9dxj57s6l","1280","720","0","1","0","5eb58476f88d4008fa483809","","null","","","learningBlock1","","","","<div style=""font-size:60px;""> </div>","null","FL","learning/Slide42.JPG","That was a dep.","","",""
"image-keyboard-response","132","371128","0.0-5.0-0.42","FL","e9dxj57s6l","1280","720","0","1","0","5eb58476f88d4008fa483809","","null","","","","","","","learning/Slide43.JPG","null","","","","","",""
"html-keyboard-response","133","372289","0.0-5.0-1.42","FL","e9dxj57s6l","1280","720","0","1","0","5eb58476f88d4008fa483809","","null","","","learningBlock1","","","","That was a wug.","null","","","","","",""
"html-keyboard-response","134","373293","0.0-5.0-2.42","FL","e9dxj57s6l","1280","720","0","1","0","5eb58476f88d4008fa483809","","null","","","learningBlock1","","","","<div style=""font-size:60px;""> </div>","null","FL","learning/Slide43.JPG","That was a wug.","","",""
"image-keyboard-response","135","373473","0.0-5.0-0.43","FL","e9dxj57s6l","1280","720","0","1","0","5eb58476f88d4008fa483809","","null","","","","","","","learning/Slide44.JPG","null","","","","","",""
"html-keyboard-response","136","374635","0.0-5.0-1.43","FL","e9dxj57s6l","1280","720","0","1","0","5eb58476f88d4008fa483809","","null","","","learningBlock1","","","","That was a bim.","null","","","","","",""
"html-keyboard-response","137","375638","0.0-5.0-2.43","FL","e9dxj57s6l","1280","720","0","1","0","5eb58476f88d4008fa483809","","null","","","learningBlock1","","","","<div style=""font-size:60px;""> </div>","null","FL","learning/Slide44.JPG","That was a bim.","","",""
"image-keyboard-response","138","375823","0.0-5.0-0.44","FL","e9dxj57s6l","1280","720","0","1","0","5eb58476f88d4008fa483809","","null","","","","","","","learning/Slide45.JPG","null","","","","","",""
"html-keyboard-response","139","376994","0.0-5.0-1.44","FL","e9dxj57s6l","1280","720","0","1","0","5eb58476f88d4008fa483809","","null","","","learningBlock1","","","","That was a wug.","null","","","","","",""
"html-keyboard-response","140","377999","0.0-5.0-2.44","FL","e9dxj57s6l","1280","720","0","1","0","5eb58476f88d4008fa483809","","null","","","learningBlock1","","","","<div style=""font-size:60px;""> </div>","null","FL","learning/Slide45.JPG","That was a wug.","","",""
"image-keyboard-response","141","378187","0.0-5.0-0.45","FL","e9dxj57s6l","1280","720","0","1","0","5eb58476f88d4008fa483809","","null","","","","","","","learning/Slide46.JPG","null","","","","","",""
"html-keyboard-response","142","379353","0.0-5.0-1.45","FL","e9dxj57s6l","1280","720","0","1","0","5eb58476f88d4008fa483809","","null","","","learningBlock1","","","","That was a dep.","null","","","","","",""
"html-keyboard-response","143","380358","0.0-5.0-2.45","FL","e9dxj57s6l","1280","720","0","1","0","5eb58476f88d4008fa483809","","null","","","learningBlock1","","","","<div style=""font-size:60px;""> </div>","null","FL","learning/Slide46.JPG","That was a dep.","","",""
"image-keyboard-response","144","380543","0.0-5.0-0.46","FL","e9dxj57s6l","1280","720","0","1","0","5eb58476f88d4008fa483809","","null","","","","","","","learning/Slide47.JPG","null","","","","","",""
"html-keyboard-response","145","381708","0.0-5.0-1.46","FL","e9dxj57s6l","1280","720","0","1","0","5eb58476f88d4008fa483809","","null","","","learningBlock1","","","","That was a tob.","null","","","","","",""
"html-keyboard-response","146","382712","0.0-5.0-2.46","FL","e9dxj57s6l","1280","720","0","1","0","5eb58476f88d4008fa483809","","null","","","learningBlock1","","","","<div style=""font-size:60px;""> </div>","null","FL","learning/Slide47.JPG","That was a tob.","","",""
"image-keyboard-response","147","382901","0.0-5.0-0.47","FL","e9dxj57s6l","1280","720","0","1","0","5eb58476f88d4008fa483809","","null","","","","","","","learning/Slide48.JPG","null","","","","","",""
"html-keyboard-response","148","384065","0.0-5.0-1.47","FL","e9dxj57s6l","1280","720","0","1","0","5eb58476f88d4008fa483809","","null","","","learningBlock1","","","","That was a bim.","null","","","","","",""
"html-keyboard-response","149","385069","0.0-5.0-2.47","FL","e9dxj57s6l","1280","720","0","1","0","5eb58476f88d4008fa483809","","null","","","learningBlock1","","","","<div style=""font-size:60px;""> </div>","null","FL","learning/Slide48.JPG","That was a bim.","","",""
"image-keyboard-response","150","385247","0.0-5.0-0.48","FL","e9dxj57s6l","1280","720","0","1","0","5eb58476f88d4008fa483809","","null","","","","","","","learning/Slide49.JPG","null","","","","","",""
"html-keyboard-response","151","386409","0.0-5.0-1.48","FL","e9dxj57s6l","1280","720","0","1","0","5eb58476f88d4008fa483809","","null","","","learningBlock1","","","","That was a dep.","null","","","","","",""
"html-keyboard-response","152","387413","0.0-5.0-2.48","FL","e9dxj57s6l","1280","720","0","1","0","5eb58476f88d4008fa483809","","null","","","learningBlock1","","","","<div style=""font-size:60px;""> </div>","null","FL","learning/Slide49.JPG","That was a dep.","","",""
"image-keyboard-response","153","387599","0.0-5.0-0.49","FL","e9dxj57s6l","1280","720","0","1","0","5eb58476f88d4008fa483809","","null","","","","","","","learning/Slide50.JPG","null","","","","","",""
"html-keyboard-response","154","388771","0.0-5.0-1.49","FL","e9dxj57s6l","1280","720","0","1","0","5eb58476f88d4008fa483809","","null","","","learningBlock1","","","","That was a tob.","null","","","","","",""
"html-keyboard-response","155","389773","0.0-5.0-2.49","FL","e9dxj57s6l","1280","720","0","1","0","5eb58476f88d4008fa483809","","null","","","learningBlock1","","","","<div style=""font-size:60px;""> </div>","null","FL","learning/Slide50.JPG","That was a tob.","","",""
"image-keyboard-response","156","389958","0.0-5.0-0.50","FL","e9dxj57s6l","1280","720","0","1","0","5eb58476f88d4008fa483809","","null","","","","","","","learning/Slide51.JPG","null","","","","","",""
"html-keyboard-response","157","391115","0.0-5.0-1.50","FL","e9dxj57s6l","1280","720","0","1","0","5eb58476f88d4008fa483809","","null","","","learningBlock1","","","","That was a bim.","null","","","","","",""
"html-keyboard-response","158","392118","0.0-5.0-2.50","FL","e9dxj57s6l","1280","720","0","1","0","5eb58476f88d4008fa483809","","null","","","learningBlock1","","","","<div style=""font-size:60px;""> </div>","null","FL","learning/Slide51.JPG","That was a bim.","","",""
"image-keyboard-response","159","392304","0.0-5.0-0.51","FL","e9dxj57s6l","1280","720","0","1","0","5eb58476f88d4008fa483809","","null","","","","","","","learning/Slide52.JPG","null","","","","","",""
"html-keyboard-response","160","393470","0.0-5.0-1.51","FL","e9dxj57s6l","1280","720","0","1","0","5eb58476f88d4008fa483809","","null","","","learningBlock1","","","","That was a wug.","null","","","","","",""
"html-keyboard-response","161","394474","0.0-5.0-2.51","FL","e9dxj57s6l","1280","720","0","1","0","5eb58476f88d4008fa483809","","null","","","learningBlock1","","","","<div style=""font-size:60px;""> </div>","null","FL","learning/Slide52.JPG","That was a wug.","","",""
"image-keyboard-response","162","394658","0.0-5.0-0.52","FL","e9dxj57s6l","1280","720","0","1","0","5eb58476f88d4008fa483809","","null","","","","","","","learning/Slide53.JPG","null","","","","","",""
"html-keyboard-response","163","395822","0.0-5.0-1.52","FL","e9dxj57s6l","1280","720","0","1","0","5eb58476f88d4008fa483809","","null","","","learningBlock1","","","","That was a tob.","null","","","","","",""
"html-keyboard-response","164","396829","0.0-5.0-2.52","FL","e9dxj57s6l","1280","720","0","1","0","5eb58476f88d4008fa483809","","null","","","learningBlock1","","","","<div style=""font-size:60px;""> </div>","null","FL","learning/Slide53.JPG","That was a tob.","","",""
"image-keyboard-response","165","397008","0.0-5.0-0.53","FL","e9dxj57s6l","1280","720","0","1","0","5eb58476f88d4008fa483809","","null","","","","","","","learning/Slide54.JPG","null","","","","","",""
"html-keyboard-response","166","398170","0.0-5.0-1.53","FL","e9dxj57s6l","1280","720","0","1","0","5eb58476f88d4008fa483809","","null","","","learningBlock1","","","","That was a dep.","null","","","","","",""
"html-keyboard-response","167","399174","0.0-5.0-2.53","FL","e9dxj57s6l","1280","720","0","1","0","5eb58476f88d4008fa483809","","null","","","learningBlock1","","","","<div style=""font-size:60px;""> </div>","null","FL","learning/Slide54.JPG","That was a dep.","","",""
"image-keyboard-response","168","399359","0.0-5.0-0.54","FL","e9dxj57s6l","1280","720","0","1","0","5eb58476f88d4008fa483809","","null","","","","","","","learning/Slide55.JPG","null","","","","","",""
"html-keyboard-response","169","400530","0.0-5.0-1.54","FL","e9dxj57s6l","1280","720","0","1","0","5eb58476f88d4008fa483809","","null","","","learningBlock1","","","","That was a bim.","null","","","","","",""
"html-keyboard-response","170","401534","0.0-5.0-2.54","FL","e9dxj57s6l","1280","720","0","1","0","5eb58476f88d4008fa483809","","null","","","learningBlock1","","","","<div style=""font-size:60px;""> </div>","null","FL","learning/Slide55.JPG","That was a bim.","","",""
"image-keyboard-response","171","401719","0.0-5.0-0.55","FL","e9dxj57s6l","1280","720","0","1","0","5eb58476f88d4008fa483809","","null","","","","","","","learning/Slide56.JPG","null","","","","","",""
"html-keyboard-response","172","402880","0.0-5.0-1.55","FL","e9dxj57s6l","1280","720","0","1","0","5eb58476f88d4008fa483809","","null","","","learningBlock1","","","","That was a tob.","null","","","","","",""
"html-keyboard-response","173","403884","0.0-5.0-2.55","FL","e9dxj57s6l","1280","720","0","1","0","5eb58476f88d4008fa483809","","null","","","learningBlock1","","","","<div style=""font-size:60px;""> </div>","null","FL","learning/Slide56.JPG","That was a tob.","","",""
"image-keyboard-response","174","404069","0.0-5.0-0.56","FL","e9dxj57s6l","1280","720","0","1","0","5eb58476f88d4008fa483809","","null","","","","","","","learning/Slide57.JPG","null","","","","","",""
"html-keyboard-response","175","405240","0.0-5.0-1.56","FL","e9dxj57s6l","1280","720","0","1","0","5eb58476f88d4008fa483809","","null","","","learningBlock1","","","","That was a dep.","null","","","","","",""
"html-keyboard-response","176","406248","0.0-5.0-2.56","FL","e9dxj57s6l","1280","720","0","1","0","5eb58476f88d4008fa483809","","null","","","learningBlock1","","","","<div style=""font-size:60px;""> </div>","null","FL","learning/Slide57.JPG","That was a dep.","","",""
"image-keyboard-response","177","406431","0.0-5.0-0.57","FL","e9dxj57s6l","1280","720","0","1","0","5eb58476f88d4008fa483809","","null","","","","","","","learning/Slide58.JPG","null","","","","","",""
"html-keyboard-response","178","407604","0.0-5.0-1.57","FL","e9dxj57s6l","1280","720","0","1","0","5eb58476f88d4008fa483809","","null","","","learningBlock1","","","","That was a wug.","null","","","","","",""
"html-keyboard-response","179","408608","0.0-5.0-2.57","FL","e9dxj57s6l","1280","720","0","1","0","5eb58476f88d4008fa483809","","null","","","learningBlock1","","","","<div style=""font-size:60px;""> </div>","null","FL","learning/Slide58.JPG","That was a wug.","","",""
"image-keyboard-response","180","408788","0.0-5.0-0.58","FL","e9dxj57s6l","1280","720","0","1","0","5eb58476f88d4008fa483809","","null","","","","","","","learning/Slide59.JPG","null","","","","","",""
"html-keyboard-response","181","409950","0.0-5.0-1.58","FL","e9dxj57s6l","1280","720","0","1","0","5eb58476f88d4008fa483809","","null","","","learningBlock1","","","","That was a dep.","null","","","","","",""
"html-keyboard-response","182","410954","0.0-5.0-2.58","FL","e9dxj57s6l","1280","720","0","1","0","5eb58476f88d4008fa483809","","null","","","learningBlock1","","","","<div style=""font-size:60px;""> </div>","null","FL","learning/Slide59.JPG","That was a dep.","","",""
"image-keyboard-response","183","411140","0.0-5.0-0.59","FL","e9dxj57s6l","1280","720","0","1","0","5eb58476f88d4008fa483809","","null","","","","","","","learning/Slide60.JPG","null","","","","","",""
"html-keyboard-response","184","412307","0.0-5.0-1.59","FL","e9dxj57s6l","1280","720","0","1","0","5eb58476f88d4008fa483809","","null","","","learningBlock1","","","","That was a wug.","null","","","","","",""
"html-keyboard-response","185","413312","0.0-5.0-2.59","FL","e9dxj57s6l","1280","720","0","1","0","5eb58476f88d4008fa483809","","null","","","learningBlock1","","","","<div style=""font-size:60px;""> </div>","null","FL","learning/Slide60.JPG","That was a wug.","","",""
"image-keyboard-response","186","413498","0.0-5.0-0.60","FL","e9dxj57s6l","1280","720","0","1","0","5eb58476f88d4008fa483809","","null","","","","","","","learning/Slide61.JPG","null","","","","","",""
"html-keyboard-response","187","414655","0.0-5.0-1.60","FL","e9dxj57s6l","1280","720","0","1","0","5eb58476f88d4008fa483809","","null","","","learningBlock1","","","","That was a bim.","null","","","","","",""
"html-keyboard-response","188","415659","0.0-5.0-2.60","FL","e9dxj57s6l","1280","720","0","1","0","5eb58476f88d4008fa483809","","null","","","learningBlock1","","","","<div style=""font-size:60px;""> </div>","null","FL","learning/Slide61.JPG","That was a bim.","","",""
"image-keyboard-response","189","415844","0.0-5.0-0.61","FL","e9dxj57s6l","1280","720","0","1","0","5eb58476f88d4008fa483809","","null","","","","","","","learning/Slide62.JPG","null","","","","","",""
"html-keyboard-response","190","417010","0.0-5.0-1.61","FL","e9dxj57s6l","1280","720","0","1","0","5eb58476f88d4008fa483809","","null","","","learningBlock1","","","","That was a dep.","null","","","","","",""
"html-keyboard-response","191","418013","0.0-5.0-2.61","FL","e9dxj57s6l","1280","720","0","1","0","5eb58476f88d4008fa483809","","null","","","learningBlock1","","","","<div style=""font-size:60px;""> </div>","null","FL","learning/Slide62.JPG","That was a dep.","","",""
"image-keyboard-response","192","418202","0.0-5.0-0.62","FL","e9dxj57s6l","1280","720","0","1","0","5eb58476f88d4008fa483809","","null","","","","","","","learning/Slide63.JPG","null","","","","","",""
"html-keyboard-response","193","419363","0.0-5.0-1.62","FL","e9dxj57s6l","1280","720","0","1","0","5eb58476f88d4008fa483809","","null","","","learningBlock1","","","","That was a bim.","null","","","","","",""
"html-keyboard-response","194","420367","0.0-5.0-2.62","FL","e9dxj57s6l","1280","720","0","1","0","5eb58476f88d4008fa483809","","null","","","learningBlock1","","","","<div style=""font-size:60px;""> </div>","null","FL","learning/Slide63.JPG","That was a bim.","","",""
"image-keyboard-response","195","420545","0.0-5.0-0.63","FL","e9dxj57s6l","1280","720","0","1","0","5eb58476f88d4008fa483809","","null","","","","","","","learning/Slide64.JPG","null","","","","","",""
"html-keyboard-response","196","421708","0.0-5.0-1.63","FL","e9dxj57s6l","1280","720","0","1","0","5eb58476f88d4008fa483809","","null","","","learningBlock1","","","","That was a tob.","null","","","","","",""
"html-keyboard-response","197","422712","0.0-5.0-2.63","FL","e9dxj57s6l","1280","720","0","1","0","5eb58476f88d4008fa483809","","null","","","learningBlock1","","","","<div style=""font-size:60px;""> </div>","null","FL","learning/Slide64.JPG","That was a tob.","","",""
"image-keyboard-response","198","422897","0.0-5.0-0.64","FL","e9dxj57s6l","1280","720","0","1","0","5eb58476f88d4008fa483809","","null","","","","","","","learning/Slide65.JPG","null","","","","","",""
"html-keyboard-response","199","424072","0.0-5.0-1.64","FL","e9dxj57s6l","1280","720","0","1","0","5eb58476f88d4008fa483809","","null","","","learningBlock1","","","","That was a wug.","null","","","","","",""
"html-keyboard-response","200","425080","0.0-5.0-2.64","FL","e9dxj57s6l","1280","720","0","1","0","5eb58476f88d4008fa483809","","null","","","learningBlock1","","","","<div style=""font-size:60px;""> </div>","null","FL","learning/Slide65.JPG","That was a wug.","","",""
"image-keyboard-response","201","425265","0.0-5.0-0.65","FL","e9dxj57s6l","1280","720","0","1","0","5eb58476f88d4008fa483809","","null","","","","","","","learning/Slide66.JPG","null","","","","","",""
"html-keyboard-response","202","426431","0.0-5.0-1.65","FL","e9dxj57s6l","1280","720","0","1","0","5eb58476f88d4008fa483809","","null","","","learningBlock1","","","","That was a dep.","null","","","","","",""
"html-keyboard-response","203","427435","0.0-5.0-2.65","FL","e9dxj57s6l","1280","720","0","1","0","5eb58476f88d4008fa483809","","null","","","learningBlock1","","","","<div style=""font-size:60px;""> </div>","null","FL","learning/Slide66.JPG","That was a dep.","","",""
"image-keyboard-response","204","427627","0.0-5.0-0.66","FL","e9dxj57s6l","1280","720","0","1","0","5eb58476f88d4008fa483809","","null","","","","","","","learning/Slide67.JPG","null","","","","","",""
"html-keyboard-response","205","428796","0.0-5.0-1.66","FL","e9dxj57s6l","1280","720","0","1","0","5eb58476f88d4008fa483809","","null","","","learningBlock1","","","","That was a tob.","null","","","","","",""
"html-keyboard-response","206","429805","0.0-5.0-2.66","FL","e9dxj57s6l","1280","720","0","1","0","5eb58476f88d4008fa483809","","null","","","learningBlock1","","","","<div style=""font-size:60px;""> </div>","null","FL","learning/Slide67.JPG","That was a tob.","","",""
"image-keyboard-response","207","429986","0.0-5.0-0.67","FL","e9dxj57s6l","1280","720","0","1","0","5eb58476f88d4008fa483809","","null","","","","","","","learning/Slide68.JPG","null","","","","","",""
"html-keyboard-response","208","431160","0.0-5.0-1.67","FL","e9dxj57s6l","1280","720","0","1","0","5eb58476f88d4008fa483809","","null","","","learningBlock1","","","","That was a wug.","null","","","","","",""
"html-keyboard-response","209","432163","0.0-5.0-2.67","FL","e9dxj57s6l","1280","720","0","1","0","5eb58476f88d4008fa483809","","null","","","learningBlock1","","","","<div style=""font-size:60px;""> </div>","null","FL","learning/Slide68.JPG","That was a wug.","","",""
"image-keyboard-response","210","432341","0.0-5.0-0.68","FL","e9dxj57s6l","1280","720","0","1","0","5eb58476f88d4008fa483809","","null","","","","","","","learning/Slide69.JPG","null","","","","","",""
"html-keyboard-response","211","433502","0.0-5.0-1.68","FL","e9dxj57s6l","1280","720","0","1","0","5eb58476f88d4008fa483809","","null","","","learningBlock1","","","","That was a tob.","null","","","","","",""
"html-keyboard-response","212","434506","0.0-5.0-2.68","FL","e9dxj57s6l","1280","720","0","1","0","5eb58476f88d4008fa483809","","null","","","learningBlock1","","","","<div style=""font-size:60px;""> </div>","null","FL","learning/Slide69.JPG","That was a tob.","","",""
"image-keyboard-response","213","434691","0.0-5.0-0.69","FL","e9dxj57s6l","1280","720","0","1","0","5eb58476f88d4008fa483809","","null","","","","","","","learning/Slide70.JPG","null","","","","","",""
"html-keyboard-response","214","435869","0.0-5.0-1.69","FL","e9dxj57s6l","1280","720","0","1","0","5eb58476f88d4008fa483809","","null","","","learningBlock1","","","","That was a dep.","null","","","","","",""
"html-keyboard-response","215","436870","0.0-5.0-2.69","FL","e9dxj57s6l","1280","720","0","1","0","5eb58476f88d4008fa483809","","null","","","learningBlock1","","","","<div style=""font-size:60px;""> </div>","null","FL","learning/Slide70.JPG","That was a dep.","","",""
"image-keyboard-response","216","437054","0.0-5.0-0.70","FL","e9dxj57s6l","1280","720","0","1","0","5eb58476f88d4008fa483809","","null","","","","","","","learning/Slide71.JPG","null","","","","","",""
"html-keyboard-response","217","438216","0.0-5.0-1.70","FL","e9dxj57s6l","1280","720","0","1","0","5eb58476f88d4008fa483809","","null","","","learningBlock1","","","","That was a wug.","null","","","","","",""
"html-keyboard-response","218","439220","0.0-5.0-2.70","FL","e9dxj57s6l","1280","720","0","1","0","5eb58476f88d4008fa483809","","null","","","learningBlock1","","","","<div style=""font-size:60px;""> </div>","null","FL","learning/Slide71.JPG","That was a wug.","","",""
"image-keyboard-response","219","439399","0.0-5.0-0.71","FL","e9dxj57s6l","1280","720","0","1","0","5eb58476f88d4008fa483809","","null","","","","","","","learning/Slide72.JPG","null","","","","","",""
"html-keyboard-response","220","440557","0.0-5.0-1.71","FL","e9dxj57s6l","1280","720","0","1","0","5eb58476f88d4008fa483809","","null","","","learningBlock1","","","","That was a bim.","null","","","","","",""
"html-keyboard-response","221","441565","0.0-5.0-2.71","FL","e9dxj57s6l","1280","720","0","1","0","5eb58476f88d4008fa483809","","null","","","learningBlock1","","","","<div style=""font-size:60px;""> </div>","null","FL","learning/Slide72.JPG","That was a bim.","","",""
"image-keyboard-response","222","441750","0.0-5.0-0.72","FL","e9dxj57s6l","1280","720","0","1","0","5eb58476f88d4008fa483809","","null","","","","","","","learning/Slide73.JPG","null","","","","","",""
"html-keyboard-response","223","442917","0.0-5.0-1.72","FL","e9dxj57s6l","1280","720","0","1","0","5eb58476f88d4008fa483809","","null","","","learningBlock1","","","","That was a wug.","null","","","","","",""
"html-keyboard-response","224","443925","0.0-5.0-2.72","FL","e9dxj57s6l","1280","720","0","1","0","5eb58476f88d4008fa483809","","null","","","learningBlock1","","","","<div style=""font-size:60px;""> </div>","null","FL","learning/Slide73.JPG","That was a wug.","","",""
"image-keyboard-response","225","444110","0.0-5.0-0.73","FL","e9dxj57s6l","1280","720","0","1","0","5eb58476f88d4008fa483809","","null","","","","","","","learning/Slide74.JPG","null","","","","","",""
"html-keyboard-response","226","445267","0.0-5.0-1.73","FL","e9dxj57s6l","1280","720","0","1","0","5eb58476f88d4008fa483809","","null","","","learningBlock1","","","","That was a dep.","null","","","","","",""
"html-keyboard-response","227","446271","0.0-5.0-2.73","FL","e9dxj57s6l","1280","720","0","1","0","5eb58476f88d4008fa483809","","null","","","learningBlock1","","","","<div style=""font-size:60px;""> </div>","null","FL","learning/Slide74.JPG","That was a dep.","","",""
"image-keyboard-response","228","446456","0.0-5.0-0.74","FL","e9dxj57s6l","1280","720","0","1","0","5eb58476f88d4008fa483809","","null","","","","","","","learning/Slide75.JPG","null","","","","","",""
"html-keyboard-response","229","447626","0.0-5.0-1.74","FL","e9dxj57s6l","1280","720","0","1","0","5eb58476f88d4008fa483809","","null","","","learningBlock1","","","","That was a tob.","null","","","","","",""
"html-keyboard-response","230","448630","0.0-5.0-2.74","FL","e9dxj57s6l","1280","720","0","1","0","5eb58476f88d4008fa483809","","null","","","learningBlock1","","","","<div style=""font-size:60px;""> </div>","null","FL","learning/Slide75.JPG","That was a tob.","","",""
"image-keyboard-response","231","448815","0.0-5.0-0.75","FL","e9dxj57s6l","1280","720","0","1","0","5eb58476f88d4008fa483809","","null","","","","","","","learning/Slide76.JPG","null","","","","","",""
"html-keyboard-response","232","449977","0.0-5.0-1.75","FL","e9dxj57s6l","1280","720","0","1","0","5eb58476f88d4008fa483809","","null","","","learningBlock1","","","","That was a bim.","null","","","","","",""
"html-keyboard-response","233","450981","0.0-5.0-2.75","FL","e9dxj57s6l","1280","720","0","1","0","5eb58476f88d4008fa483809","","null","","","learningBlock1","","","","<div style=""font-size:60px;""> </div>","null","FL","learning/Slide76.JPG","That was a bim.","","",""
"image-keyboard-response","234","451161","0.0-5.0-0.76","FL","e9dxj57s6l","1280","720","0","1","0","5eb58476f88d4008fa483809","","null","","","","","","","learning/Slide77.JPG","null","","","","","",""
"html-keyboard-response","235","452326","0.0-5.0-1.76","FL","e9dxj57s6l","1280","720","0","1","0","5eb58476f88d4008fa483809","","null","","","learningBlock1","","","","That was a tob.","null","","","","","",""
"html-keyboard-response","236","453330","0.0-5.0-2.76","FL","e9dxj57s6l","1280","720","0","1","0","5eb58476f88d4008fa483809","","null","","","learningBlock1","","","","<div style=""font-size:60px;""> </div>","null","FL","learning/Slide77.JPG","That was a tob.","","",""
"image-keyboard-response","237","453515","0.0-5.0-0.77","FL","e9dxj57s6l","1280","720","0","1","0","5eb58476f88d4008fa483809","","null","","","","","","","learning/Slide78.JPG","null","","","","","",""
"html-keyboard-response","238","454679","0.0-5.0-1.77","FL","e9dxj57s6l","1280","720","0","1","0","5eb58476f88d4008fa483809","","null","","","learningBlock1","","","","That was a wug.","null","","","","","",""
"html-keyboard-response","239","455688","0.0-5.0-2.77","FL","e9dxj57s6l","1280","720","0","1","0","5eb58476f88d4008fa483809","","null","","","learningBlock1","","","","<div style=""font-size:60px;""> </div>","null","FL","learning/Slide78.JPG","That was a wug.","","",""
"image-keyboard-response","240","455864","0.0-5.0-0.78","FL","e9dxj57s6l","1280","720","0","1","0","5eb58476f88d4008fa483809","","null","","","","","","","learning/Slide79.JPG","null","","","","","",""
"html-keyboard-response","241","457017","0.0-5.0-1.78","FL","e9dxj57s6l","1280","720","0","1","0","5eb58476f88d4008fa483809","","null","","","learningBlock1","","","","That was a bim.","null","","","","","",""
"html-keyboard-response","242","458018","0.0-5.0-2.78","FL","e9dxj57s6l","1280","720","0","1","0","5eb58476f88d4008fa483809","","null","","","learningBlock1","","","","<div style=""font-size:60px;""> </div>","null","FL","learning/Slide79.JPG","That was a bim.","","",""
"image-keyboard-response","243","458207","0.0-5.0-0.79","FL","e9dxj57s6l","1280","720","0","1","0","5eb58476f88d4008fa483809","","null","","","","","","","learning/Slide80.JPG","null","","","","","",""
"html-keyboard-response","244","459365","0.0-5.0-1.79","FL","e9dxj57s6l","1280","720","0","1","0","5eb58476f88d4008fa483809","","null","","","learningBlock1","","","","That was a tob.","null","","","","","",""
"html-keyboard-response","245","460387","0.0-5.0-2.79","FL","e9dxj57s6l","1280","720","0","1","0","5eb58476f88d4008fa483809","","null","","","learningBlock1","","","","<div style=""font-size:60px;""> </div>","null","FL","learning/Slide80.JPG","That was a tob.","","",""
"instructions","246","477520","0.0-6.0","FL","e9dxj57s6l","1280","720","0","1","0","5eb58476f88d4008fa483809","","NA","","[{""page_index"":0,""viewing_time"":17131.52999995509}]","instructions","","","","","","","","","","",""
"image-keyboard-response","247","477709","0.0-7.0-0.0","FL","e9dxj57s6l","1280","720","0","1","0","5eb58476f88d4008fa483809","","null","","","","","","","learning/Slide81.JPG","null","","","","","",""
"html-keyboard-response","248","478866","0.0-7.0-1.0","FL","e9dxj57s6l","1280","720","0","1","0","5eb58476f88d4008fa483809","","null","","","learningBlock2","","","","That was a wug.","null","","","","","",""
"html-keyboard-response","249","479870","0.0-7.0-2.0","FL","e9dxj57s6l","1280","720","0","1","0","5eb58476f88d4008fa483809","","null","","","learningBlock2","","","","<div style=""font-size:60px;""> </div>","null","FL","learning/Slide81.JPG","That was a wug.","","",""
"image-keyboard-response","250","480048","0.0-7.0-0.1","FL","e9dxj57s6l","1280","720","0","1","0","5eb58476f88d4008fa483809","","null","","","","","","","learning/Slide82.JPG","null","","","","","",""
"html-keyboard-response","251","481210","0.0-7.0-1.1","FL","e9dxj57s6l","1280","720","0","1","0","5eb58476f88d4008fa483809","","null","","","learningBlock2","","","","That was a bim.","null","","","","","",""
"html-keyboard-response","252","482213","0.0-7.0-2.1","FL","e9dxj57s6l","1280","720","0","1","0","5eb58476f88d4008fa483809","","null","","","learningBlock2","","","","<div style=""font-size:60px;""> </div>","null","FL","learning/Slide82.JPG","That was a bim.","","",""
"image-keyboard-response","253","482398","0.0-7.0-0.2","FL","e9dxj57s6l","1280","720","0","1","0","5eb58476f88d4008fa483809","","null","","","","","","","learning/Slide83.JPG","null","","","","","",""
"html-keyboard-response","254","483569","0.0-7.0-1.2","FL","e9dxj57s6l","1280","720","0","1","0","5eb58476f88d4008fa483809","","null","","","learningBlock2","","","","That was a wug.","null","","","","","",""
"html-keyboard-response","255","484573","0.0-7.0-2.2","FL","e9dxj57s6l","1280","720","0","1","0","5eb58476f88d4008fa483809","","null","","","learningBlock2","","","","<div style=""font-size:60px;""> </div>","null","FL","learning/Slide83.JPG","That was a wug.","","",""
"image-keyboard-response","256","484761","0.0-7.0-0.3","FL","e9dxj57s6l","1280","720","0","1","0","5eb58476f88d4008fa483809","","null","","","","","","","learning/Slide84.JPG","null","","","","","",""
"html-keyboard-response","257","485915","0.0-7.0-1.3","FL","e9dxj57s6l","1280","720","0","1","0","5eb58476f88d4008fa483809","","null","","","learningBlock2","","","","That was a dep.","null","","","","","",""
"html-keyboard-response","258","486920","0.0-7.0-2.3","FL","e9dxj57s6l","1280","720","0","1","0","5eb58476f88d4008fa483809","","null","","","learningBlock2","","","","<div style=""font-size:60px;""> </div>","null","FL","learning/Slide84.JPG","That was a dep.","","",""
"image-keyboard-response","259","487105","0.0-7.0-0.4","FL","e9dxj57s6l","1280","720","0","1","0","5eb58476f88d4008fa483809","","null","","","","","","","learning/Slide85.JPG","null","","","","","",""
"html-keyboard-response","260","488270","0.0-7.0-1.4","FL","e9dxj57s6l","1280","720","0","1","0","5eb58476f88d4008fa483809","","null","","","learningBlock2","","","","That was a bim.","null","","","","","",""
"html-keyboard-response","261","489275","0.0-7.0-2.4","FL","e9dxj57s6l","1280","720","0","1","0","5eb58476f88d4008fa483809","","null","","","learningBlock2","","","","<div style=""font-size:60px;""> </div>","null","FL","learning/Slide85.JPG","That was a bim.","","",""
"image-keyboard-response","262","489464","0.0-7.0-0.5","FL","e9dxj57s6l","1280","720","0","1","0","5eb58476f88d4008fa483809","","null","","","","","","","learning/Slide86.JPG","null","","","","","",""
"html-keyboard-response","263","490637","0.0-7.0-1.5","FL","e9dxj57s6l","1280","720","0","1","0","5eb58476f88d4008fa483809","","null","","","learningBlock2","","","","That was a tob.","null","","","","","",""
"html-keyboard-response","264","491648","0.0-7.0-2.5","FL","e9dxj57s6l","1280","720","0","1","0","5eb58476f88d4008fa483809","","null","","","learningBlock2","","","","<div style=""font-size:60px;""> </div>","null","FL","learning/Slide86.JPG","That was a tob.","","",""
"image-keyboard-response","265","491826","0.0-7.0-0.6","FL","e9dxj57s6l","1280","720","0","1","0","5eb58476f88d4008fa483809","","null","","","","","","","learning/Slide87.JPG","null","","","","","",""
"html-keyboard-response","266","492981","0.0-7.0-1.6","FL","e9dxj57s6l","1280","720","0","1","0","5eb58476f88d4008fa483809","","null","","","learningBlock2","","","","That was a wug.","null","","","","","",""
"html-keyboard-response","267","493985","0.0-7.0-2.6","FL","e9dxj57s6l","1280","720","0","1","0","5eb58476f88d4008fa483809","","null","","","learningBlock2","","","","<div style=""font-size:60px;""> </div>","null","FL","learning/Slide87.JPG","That was a wug.","","",""
"image-keyboard-response","268","494170","0.0-7.0-0.7","FL","e9dxj57s6l","1280","720","0","1","0","5eb58476f88d4008fa483809","","null","","","","","","","learning/Slide88.JPG","null","","","","","",""
"html-keyboard-response","269","495336","0.0-7.0-1.7","FL","e9dxj57s6l","1280","720","0","1","0","5eb58476f88d4008fa483809","","null","","","learningBlock2","","","","That was a tob.","null","","","","","",""
"html-keyboard-response","270","496340","0.0-7.0-2.7","FL","e9dxj57s6l","1280","720","0","1","0","5eb58476f88d4008fa483809","","null","","","learningBlock2","","","","<div style=""font-size:60px;""> </div>","null","FL","learning/Slide88.JPG","That was a tob.","","",""
"image-keyboard-response","271","496523","0.0-7.0-0.8","FL","e9dxj57s6l","1280","720","0","1","0","5eb58476f88d4008fa483809","","null","","","","","","","learning/Slide89.JPG","null","","","","","",""
"html-keyboard-response","272","497696","0.0-7.0-1.8","FL","e9dxj57s6l","1280","720","0","1","0","5eb58476f88d4008fa483809","","null","","","learningBlock2","","","","That was a bim.","null","","","","","",""
"html-keyboard-response","273","498700","0.0-7.0-2.8","FL","e9dxj57s6l","1280","720","0","1","0","5eb58476f88d4008fa483809","","null","","","learningBlock2","","","","<div style=""font-size:60px;""> </div>","null","FL","learning/Slide89.JPG","That was a bim.","","",""
"image-keyboard-response","274","498878","0.0-7.0-0.9","FL","e9dxj57s6l","1280","720","0","1","0","5eb58476f88d4008fa483809","","null","","","","","","","learning/Slide90.JPG","null","","","","","",""
"html-keyboard-response","275","500037","0.0-7.0-1.9","FL","e9dxj57s6l","1280","720","0","1","0","5eb58476f88d4008fa483809","","null","","","learningBlock2","","","","That was a dep.","null","","","","","",""
"html-keyboard-response","276","501040","0.0-7.0-2.9","FL","e9dxj57s6l","1280","720","0","1","0","5eb58476f88d4008fa483809","","null","","","learningBlock2","","","","<div style=""font-size:60px;""> </div>","null","FL","learning/Slide90.JPG","That was a dep.","","",""
"image-keyboard-response","277","501225","0.0-7.0-0.10","FL","e9dxj57s6l","1280","720","0","1","0","5eb58476f88d4008fa483809","","null","","","","","","","learning/Slide91.JPG","null","","","","","",""
"html-keyboard-response","278","502393","0.0-7.0-1.10","FL","e9dxj57s6l","1280","720","0","1","0","5eb58476f88d4008fa483809","","null","","","learningBlock2","","","","That was a wug.","null","","","","","",""
"html-keyboard-response","279","503399","0.0-7.0-2.10","FL","e9dxj57s6l","1280","720","0","1","0","5eb58476f88d4008fa483809","","null","","","learningBlock2","","","","<div style=""font-size:60px;""> </div>","null","FL","learning/Slide91.JPG","That was a wug.","","",""
"image-keyboard-response","280","503585","0.0-7.0-0.11","FL","e9dxj57s6l","1280","720","0","1","0","5eb58476f88d4008fa483809","","null","","","","","","","learning/Slide92.JPG","null","","","","","",""
"html-keyboard-response","281","504742","0.0-7.0-1.11","FL","e9dxj57s6l","1280","720","0","1","0","5eb58476f88d4008fa483809","","null","","","learningBlock2","","","","That was a tob.","null","","","","","",""
"html-keyboard-response","282","505746","0.0-7.0-2.11","FL","e9dxj57s6l","1280","720","0","1","0","5eb58476f88d4008fa483809","","null","","","learningBlock2","","","","<div style=""font-size:60px;""> </div>","null","FL","learning/Slide92.JPG","That was a tob.","","",""
"image-keyboard-response","283","505931","0.0-7.0-0.12","FL","e9dxj57s6l","1280","720","0","1","0","5eb58476f88d4008fa483809","","null","","","","","","","learning/Slide93.JPG","null","","","","","",""
"html-keyboard-response","284","507098","0.0-7.0-1.12","FL","e9dxj57s6l","1280","720","0","1","0","5eb58476f88d4008fa483809","","null","","","learningBlock2","","","","That was a bim.","null","","","","","",""
"html-keyboard-response","285","508102","0.0-7.0-2.12","FL","e9dxj57s6l","1280","720","0","1","0","5eb58476f88d4008fa483809","","null","","","learningBlock2","","","","<div style=""font-size:60px;""> </div>","null","FL","learning/Slide93.JPG","That was a bim.","","",""
"image-keyboard-response","286","508284","0.0-7.0-0.13","FL","e9dxj57s6l","1280","720","0","1","0","5eb58476f88d4008fa483809","","null","","","","","","","learning/Slide94.JPG","null","","","","","",""
"html-keyboard-response","287","509458","0.0-7.0-1.13","FL","e9dxj57s6l","1280","720","0","1","0","5eb58476f88d4008fa483809","","null","","","learningBlock2","","","","That was a tob.","null","","","","","",""
"html-keyboard-response","288","510462","0.0-7.0-2.13","FL","e9dxj57s6l","1280","720","0","1","0","5eb58476f88d4008fa483809","","null","","","learningBlock2","","","","<div style=""font-size:60px;""> </div>","null","FL","learning/Slide94.JPG","That was a tob.","","",""
"image-keyboard-response","289","510640","0.0-7.0-0.14","FL","e9dxj57s6l","1280","720","0","1","0","5eb58476f88d4008fa483809","","null","","","","","","","learning/Slide95.JPG","null","","","","","",""
"html-keyboard-response","290","511797","0.0-7.0-1.14","FL","e9dxj57s6l","1280","720","0","1","0","5eb58476f88d4008fa483809","","null","","","learningBlock2","","","","That was a wug.","null","","","","","",""
"html-keyboard-response","291","512801","0.0-7.0-2.14","FL","e9dxj57s6l","1280","720","0","1","0","5eb58476f88d4008fa483809","","null","","","learningBlock2","","","","<div style=""font-size:60px;""> </div>","null","FL","learning/Slide95.JPG","That was a wug.","","",""
"image-keyboard-response","292","512986","0.0-7.0-0.15","FL","e9dxj57s6l","1280","720","0","1","0","5eb58476f88d4008fa483809","","null","","","","","","","learning/Slide96.JPG","null","","","","","",""
"html-keyboard-response","293","514154","0.0-7.0-1.15","FL","e9dxj57s6l","1280","720","0","1","0","5eb58476f88d4008fa483809","","null","","","learningBlock2","","","","That was a tob.","null","","","","","",""
"html-keyboard-response","294","515161","0.0-7.0-2.15","FL","e9dxj57s6l","1280","720","0","1","0","5eb58476f88d4008fa483809","","null","","","learningBlock2","","","","<div style=""font-size:60px;""> </div>","null","FL","learning/Slide96.JPG","That was a tob.","","",""
"image-keyboard-response","295","515346","0.0-7.0-0.16","FL","e9dxj57s6l","1280","720","0","1","0","5eb58476f88d4008fa483809","","null","","","","","","","learning/Slide97.JPG","null","","","","","",""
"html-keyboard-response","296","516503","0.0-7.0-1.16","FL","e9dxj57s6l","1280","720","0","1","0","5eb58476f88d4008fa483809","","null","","","learningBlock2","","","","That was a dep.","null","","","","","",""
"html-keyboard-response","297","517507","0.0-7.0-2.16","FL","e9dxj57s6l","1280","720","0","1","0","5eb58476f88d4008fa483809","","null","","","learningBlock2","","","","<div style=""font-size:60px;""> </div>","null","FL","learning/Slide97.JPG","That was a dep.","","",""
"image-keyboard-response","298","517692","0.0-7.0-0.17","FL","e9dxj57s6l","1280","720","0","1","0","5eb58476f88d4008fa483809","","null","","","","","","","learning/Slide98.JPG","null","","","","","",""
"html-keyboard-response","299","518859","0.0-7.0-1.17","FL","e9dxj57s6l","1280","720","0","1","0","5eb58476f88d4008fa483809","","null","","","learningBlock2","","","","That was a bim.","null","","","","","",""
"html-keyboard-response","300","519862","0.0-7.0-2.17","FL","e9dxj57s6l","1280","720","0","1","0","5eb58476f88d4008fa483809","","null","","","learningBlock2","","","","<div style=""font-size:60px;""> </div>","null","FL","learning/Slide98.JPG","That was a bim.","","",""
"image-keyboard-response","301","520048","0.0-7.0-0.18","FL","e9dxj57s6l","1280","720","0","1","0","5eb58476f88d4008fa483809","","null","","","","","","","learning/Slide99.JPG","null","","","","","",""
"html-keyboard-response","302","521206","0.0-7.0-1.18","FL","e9dxj57s6l","1280","720","0","1","0","5eb58476f88d4008fa483809","","null","","","learningBlock2","","","","That was a dep.","null","","","","","",""
"html-keyboard-response","303","522210","0.0-7.0-2.18","FL","e9dxj57s6l","1280","720","0","1","0","5eb58476f88d4008fa483809","","null","","","learningBlock2","","","","<div style=""font-size:60px;""> </div>","null","FL","learning/Slide99.JPG","That was a dep.","","",""
"image-keyboard-response","304","522389","0.0-7.0-0.19","FL","e9dxj57s6l","1280","720","0","1","0","5eb58476f88d4008fa483809","","null","","","","","","","learning/Slide100.JPG","null","","","","","",""
"html-keyboard-response","305","523547","0.0-7.0-1.19","FL","e9dxj57s6l","1280","720","0","1","0","5eb58476f88d4008fa483809","","null","","","learningBlock2","","","","That was a bim.","null","","","","","",""
"html-keyboard-response","306","524551","0.0-7.0-2.19","FL","e9dxj57s6l","1280","720","0","1","0","5eb58476f88d4008fa483809","","null","","","learningBlock2","","","","<div style=""font-size:60px;""> </div>","null","FL","learning/Slide100.JPG","That was a bim.","","",""
"image-keyboard-response","307","524735","0.0-7.0-0.20","FL","e9dxj57s6l","1280","720","0","1","0","5eb58476f88d4008fa483809","","null","","","","","","","learning/Slide101.JPG","null","","","","","",""
"html-keyboard-response","308","525903","0.0-7.0-1.20","FL","e9dxj57s6l","1280","720","0","1","0","5eb58476f88d4008fa483809","","null","","","learningBlock2","","","","That was a tob.","null","","","","","",""
"html-keyboard-response","309","526911","0.0-7.0-2.20","FL","e9dxj57s6l","1280","720","0","1","0","5eb58476f88d4008fa483809","","null","","","learningBlock2","","","","<div style=""font-size:60px;""> </div>","null","FL","learning/Slide101.JPG","That was a tob.","","",""
"image-keyboard-response","310","527097","0.0-7.0-0.21","FL","e9dxj57s6l","1280","720","0","1","0","5eb58476f88d4008fa483809","","null","","","","","","","learning/Slide102.JPG","null","","","","","",""
"html-keyboard-response","311","528253","0.0-7.0-1.21","FL","e9dxj57s6l","1280","720","0","1","0","5eb58476f88d4008fa483809","","null","","","learningBlock2","","","","That was a bim.","null","","","","","",""
"html-keyboard-response","312","529258","0.0-7.0-2.21","FL","e9dxj57s6l","1280","720","0","1","0","5eb58476f88d4008fa483809","","null","","","learningBlock2","","","","<div style=""font-size:60px;""> </div>","null","FL","learning/Slide102.JPG","That was a bim.","","",""
"image-keyboard-response","313","529443","0.0-7.0-0.22","FL","e9dxj57s6l","1280","720","0","1","0","5eb58476f88d4008fa483809","","null","","","","","","","learning/Slide103.JPG","null","","","","","",""
"html-keyboard-response","314","530619","0.0-7.0-1.22","FL","e9dxj57s6l","1280","720","0","1","0","5eb58476f88d4008fa483809","","null","","","learningBlock2","","","","That was a dep.","null","","","","","",""
"html-keyboard-response","315","531623","0.0-7.0-2.22","FL","e9dxj57s6l","1280","720","0","1","0","5eb58476f88d4008fa483809","","null","","","learningBlock2","","","","<div style=""font-size:60px;""> </div>","null","FL","learning/Slide103.JPG","That was a dep.","","",""
"image-keyboard-response","316","531808","0.0-7.0-0.23","FL","e9dxj57s6l","1280","720","0","1","0","5eb58476f88d4008fa483809","","null","","","","","","","learning/Slide104.JPG","null","","","","","",""
"html-keyboard-response","317","532969","0.0-7.0-1.23","FL","e9dxj57s6l","1280","720","0","1","0","5eb58476f88d4008fa483809","","null","","","learningBlock2","","","","That was a tob.","null","","","","","",""
"html-keyboard-response","318","533974","0.0-7.0-2.23","FL","e9dxj57s6l","1280","720","0","1","0","5eb58476f88d4008fa483809","","null","","","learningBlock2","","","","<div style=""font-size:60px;""> </div>","null","FL","learning/Slide104.JPG","That was a tob.","","",""
"image-keyboard-response","319","534152","0.0-7.0-0.24","FL","e9dxj57s6l","1280","720","0","1","0","5eb58476f88d4008fa483809","","null","","","","","","","learning/Slide105.JPG","null","","","","","",""
"html-keyboard-response","320","535310","0.0-7.0-1.24","FL","e9dxj57s6l","1280","720","0","1","0","5eb58476f88d4008fa483809","","null","","","learningBlock2","","","","That was a dep.","null","","","","","",""
"html-keyboard-response","321","536314","0.0-7.0-2.24","FL","e9dxj57s6l","1280","720","0","1","0","5eb58476f88d4008fa483809","","null","","","learningBlock2","","","","<div style=""font-size:60px;""> </div>","null","FL","learning/Slide105.JPG","That was a dep.","","",""
"image-keyboard-response","322","536499","0.0-7.0-0.25","FL","e9dxj57s6l","1280","720","0","1","0","5eb58476f88d4008fa483809","","null","","","","","","","learning/Slide106.JPG","null","","","","","",""
"html-keyboard-response","323","537675","0.0-7.0-1.25","FL","e9dxj57s6l","1280","720","0","1","0","5eb58476f88d4008fa483809","","null","","","learningBlock2","","","","That was a wug.","null","","","","","",""
"html-keyboard-response","324","538679","0.0-7.0-2.25","FL","e9dxj57s6l","1280","720","0","1","0","5eb58476f88d4008fa483809","","null","","","learningBlock2","","","","<div style=""font-size:60px;""> </div>","null","FL","learning/Slide106.JPG","That was a wug.","","",""
"image-keyboard-response","325","538866","0.0-7.0-0.26","FL","e9dxj57s6l","1280","720","0","1","0","5eb58476f88d4008fa483809","","null","","","","","","","learning/Slide107.JPG","null","","","","","",""
"html-keyboard-response","326","540026","0.0-7.0-1.26","FL","e9dxj57s6l","1280","720","0","1","0","5eb58476f88d4008fa483809","","null","","","learningBlock2","","","","That was a bim.","null","","","","","",""
"html-keyboard-response","327","541030","0.0-7.0-2.26","FL","e9dxj57s6l","1280","720","0","1","0","5eb58476f88d4008fa483809","","null","","","learningBlock2","","","","<div style=""font-size:60px;""> </div>","null","FL","learning/Slide107.JPG","That was a bim.","","",""
"image-keyboard-response","328","541215","0.0-7.0-0.27","FL","e9dxj57s6l","1280","720","0","1","0","5eb58476f88d4008fa483809","","null","","","","","","","learning/Slide108.JPG","null","","","","","",""
"html-keyboard-response","329","542376","0.0-7.0-1.27","FL","e9dxj57s6l","1280","720","0","1","0","5eb58476f88d4008fa483809","","null","","","learningBlock2","","","","That was a dep.","null","","","","","",""
"html-keyboard-response","330","543384","0.0-7.0-2.27","FL","e9dxj57s6l","1280","720","0","1","0","5eb58476f88d4008fa483809","","null","","","learningBlock2","","","","<div style=""font-size:60px;""> </div>","null","FL","learning/Slide108.JPG","That was a dep.","","",""
"image-keyboard-response","331","543572","0.0-7.0-0.28","FL","e9dxj57s6l","1280","720","0","1","0","5eb58476f88d4008fa483809","","null","","","","","","","learning/Slide109.JPG","null","","","","","",""
"html-keyboard-response","332","544745","0.0-7.0-1.28","FL","e9dxj57s6l","1280","720","0","1","0","5eb58476f88d4008fa483809","","null","","","learningBlock2","","","","That was a wug.","null","","","","","",""
"html-keyboard-response","333","545749","0.0-7.0-2.28","FL","e9dxj57s6l","1280","720","0","1","0","5eb58476f88d4008fa483809","","null","","","learningBlock2","","","","<div style=""font-size:60px;""> </div>","null","FL","learning/Slide109.JPG","That was a wug.","","",""
"image-keyboard-response","334","545929","0.0-7.0-0.29","FL","e9dxj57s6l","1280","720","0","1","0","5eb58476f88d4008fa483809","","null","","","","","","","learning/Slide110.JPG","null","","","","","",""
"html-keyboard-response","335","547091","0.0-7.0-1.29","FL","e9dxj57s6l","1280","720","0","1","0","5eb58476f88d4008fa483809","","null","","","learningBlock2","","","","That was a bim.","null","","","","","",""
"html-keyboard-response","336","548094","0.0-7.0-2.29","FL","e9dxj57s6l","1280","720","0","1","0","5eb58476f88d4008fa483809","","null","","","learningBlock2","","","","<div style=""font-size:60px;""> </div>","null","FL","learning/Slide110.JPG","That was a bim.","","",""
"image-keyboard-response","337","548280","0.0-7.0-0.30","FL","e9dxj57s6l","1280","720","0","1","0","5eb58476f88d4008fa483809","","null","","","","","","","learning/Slide111.JPG","null","","","","","",""
"html-keyboard-response","338","549447","0.0-7.0-1.30","FL","e9dxj57s6l","1280","720","0","1","0","5eb58476f88d4008fa483809","","null","","","learningBlock2","","","","That was a tob.","null","","","","","",""
"html-keyboard-response","339","550452","0.0-7.0-2.30","FL","e9dxj57s6l","1280","720","0","1","0","5eb58476f88d4008fa483809","","null","","","learningBlock2","","","","<div style=""font-size:60px;""> </div>","null","FL","learning/Slide111.JPG","That was a tob.","","",""
"image-keyboard-response","340","550637","0.0-7.0-0.31","FL","e9dxj57s6l","1280","720","0","1","0","5eb58476f88d4008fa483809","","null","","","","","","","learning/Slide112.JPG","null","","","","","",""
"html-keyboard-response","341","551794","0.0-7.0-1.31","FL","e9dxj57s6l","1280","720","0","1","0","5eb58476f88d4008fa483809","","null","","","learningBlock2","","","","That was a wug.","null","","","","","",""
"html-keyboard-response","342","552798","0.0-7.0-2.31","FL","e9dxj57s6l","1280","720","0","1","0","5eb58476f88d4008fa483809","","null","","","learningBlock2","","","","<div style=""font-size:60px;""> </div>","null","FL","learning/Slide112.JPG","That was a wug.","","",""
"image-keyboard-response","343","552984","0.0-7.0-0.32","FL","e9dxj57s6l","1280","720","0","1","0","5eb58476f88d4008fa483809","","null","","","","","","","learning/Slide113.JPG","null","","","","","",""
"html-keyboard-response","344","554151","0.0-7.0-1.32","FL","e9dxj57s6l","1280","720","0","1","0","5eb58476f88d4008fa483809","","null","","","learningBlock2","","","","That was a tob.","null","","","","","",""
"html-keyboard-response","345","555159","0.0-7.0-2.32","FL","e9dxj57s6l","1280","720","0","1","0","5eb58476f88d4008fa483809","","null","","","learningBlock2","","","","<div style=""font-size:60px;""> </div>","null","FL","learning/Slide113.JPG","That was a tob.","","",""
"image-keyboard-response","346","555344","0.0-7.0-0.33","FL","e9dxj57s6l","1280","720","0","1","0","5eb58476f88d4008fa483809","","null","","","","","","","learning/Slide114.JPG","null","","","","","",""
"html-keyboard-response","347","556506","0.0-7.0-1.33","FL","e9dxj57s6l","1280","720","0","1","0","5eb58476f88d4008fa483809","","null","","","learningBlock2","","","","That was a wug.","null","","","","","",""
"html-keyboard-response","348","557510","0.0-7.0-2.33","FL","e9dxj57s6l","1280","720","0","1","0","5eb58476f88d4008fa483809","","null","","","learningBlock2","","","","<div style=""font-size:60px;""> </div>","null","FL","learning/Slide114.JPG","That was a wug.","","",""
"image-keyboard-response","349","557688","0.0-7.0-0.34","FL","e9dxj57s6l","1280","720","0","1","0","5eb58476f88d4008fa483809","","null","","","","","","","learning/Slide115.JPG","null","","","","","",""
"html-keyboard-response","350","558850","0.0-7.0-1.34","FL","e9dxj57s6l","1280","720","0","1","0","5eb58476f88d4008fa483809","","null","","","learningBlock2","","","","That was a bim.","null","","","","","",""
"html-keyboard-response","351","559854","0.0-7.0-2.34","FL","e9dxj57s6l","1280","720","0","1","0","5eb58476f88d4008fa483809","","null","","","learningBlock2","","","","<div style=""font-size:60px;""> </div>","null","FL","learning/Slide115.JPG","That was a bim.","","",""
"image-keyboard-response","352","560038","0.0-7.0-0.35","FL","e9dxj57s6l","1280","720","0","1","0","5eb58476f88d4008fa483809","","null","","","","","","","learning/Slide116.JPG","null","","","","","",""
"html-keyboard-response","353","561207","0.0-7.0-1.35","FL","e9dxj57s6l","1280","720","0","1","0","5eb58476f88d4008fa483809","","null","","","learningBlock2","","","","That was a dep.","null","","","","","",""
"html-keyboard-response","354","562213","0.0-7.0-2.35","FL","e9dxj57s6l","1280","720","0","1","0","5eb58476f88d4008fa483809","","null","","","learningBlock2","","","","<div style=""font-size:60px;""> </div>","null","FL","learning/Slide116.JPG","That was a dep.","","",""
"image-keyboard-response","355","562398","0.0-7.0-0.36","FL","e9dxj57s6l","1280","720","0","1","0","5eb58476f88d4008fa483809","","null","","","","","","","learning/Slide117.JPG","null","","","","","",""
"html-keyboard-response","356","563555","0.0-7.0-1.36","FL","e9dxj57s6l","1280","720","0","1","0","5eb58476f88d4008fa483809","","null","","","learningBlock2","","","","That was a tob.","null","","","","","",""
"html-keyboard-response","357","564559","0.0-7.0-2.36","FL","e9dxj57s6l","1280","720","0","1","0","5eb58476f88d4008fa483809","","null","","","learningBlock2","","","","<div style=""font-size:60px;""> </div>","null","FL","learning/Slide117.JPG","That was a tob.","","",""
"image-keyboard-response","358","564737","0.0-7.0-0.37","FL","e9dxj57s6l","1280","720","0","1","0","5eb58476f88d4008fa483809","","null","","","","","","","learning/Slide118.JPG","null","","","","","",""
"html-keyboard-response","359","565894","0.0-7.0-1.37","FL","e9dxj57s6l","1280","720","0","1","0","5eb58476f88d4008fa483809","","null","","","learningBlock2","","","","That was a dep.","null","","","","","",""
"html-keyboard-response","360","566898","0.0-7.0-2.37","FL","e9dxj57s6l","1280","720","0","1","0","5eb58476f88d4008fa483809","","null","","","learningBlock2","","","","<div style=""font-size:60px;""> </div>","null","FL","learning/Slide118.JPG","That was a dep.","","",""
"image-keyboard-response","361","567083","0.0-7.0-0.38","FL","e9dxj57s6l","1280","720","0","1","0","5eb58476f88d4008fa483809","","null","","","","","","","learning/Slide119.JPG","null","","","","","",""
"html-keyboard-response","362","568253","0.0-7.0-1.38","FL","e9dxj57s6l","1280","720","0","1","0","5eb58476f88d4008fa483809","","null","","","learningBlock2","","","","That was a wug.","null","","","","","",""
"html-keyboard-response","363","569257","0.0-7.0-2.38","FL","e9dxj57s6l","1280","720","0","1","0","5eb58476f88d4008fa483809","","null","","","learningBlock2","","","","<div style=""font-size:60px;""> </div>","null","FL","learning/Slide119.JPG","That was a wug.","","",""
"image-keyboard-response","364","569442","0.0-7.0-0.39","FL","e9dxj57s6l","1280","720","0","1","0","5eb58476f88d4008fa483809","","null","","","","","","","learning/Slide120.JPG","null","","","","","",""
"html-keyboard-response","365","570600","0.0-7.0-1.39","FL","e9dxj57s6l","1280","720","0","1","0","5eb58476f88d4008fa483809","","null","","","learningBlock2","","","","That was a dep.","null","","","","","",""
"html-keyboard-response","366","571604","0.0-7.0-2.39","FL","e9dxj57s6l","1280","720","0","1","0","5eb58476f88d4008fa483809","","null","","","learningBlock2","","","","<div style=""font-size:60px;""> </div>","null","FL","learning/Slide120.JPG","That was a dep.","","",""
"image-keyboard-response","367","571788","0.0-7.0-0.40","FL","e9dxj57s6l","1280","720","0","1","0","5eb58476f88d4008fa483809","","null","","","","","","","learning/Slide121.JPG","null","","","","","",""
"html-keyboard-response","368","572955","0.0-7.0-1.40","FL","e9dxj57s6l","1280","720","0","1","0","5eb58476f88d4008fa483809","","null","","","learningBlock2","","","","That was a bim.","null","","","","","",""
"html-keyboard-response","369","573958","0.0-7.0-2.40","FL","e9dxj57s6l","1280","720","0","1","0","5eb58476f88d4008fa483809","","null","","","learningBlock2","","","","<div style=""font-size:60px;""> </div>","null","FL","learning/Slide121.JPG","That was a bim.","","",""
"image-keyboard-response","370","574143","0.0-7.0-0.41","FL","e9dxj57s6l","1280","720","0","1","0","5eb58476f88d4008fa483809","","null","","","","","","","learning/Slide122.JPG","null","","","","","",""
"html-keyboard-response","371","575301","0.0-7.0-1.41","FL","e9dxj57s6l","1280","720","0","1","0","5eb58476f88d4008fa483809","","null","","","learningBlock2","","","","That was a wug.","null","","","","","",""
"html-keyboard-response","372","576308","0.0-7.0-2.41","FL","e9dxj57s6l","1280","720","0","1","0","5eb58476f88d4008fa483809","","null","","","learningBlock2","","","","<div style=""font-size:60px;""> </div>","null","FL","learning/Slide122.JPG","That was a wug.","","",""
"image-keyboard-response","373","576487","0.0-7.0-0.42","FL","e9dxj57s6l","1280","720","0","1","0","5eb58476f88d4008fa483809","","null","","","","","","","learning/Slide123.JPG","null","","","","","",""
"html-keyboard-response","374","577649","0.0-7.0-1.42","FL","e9dxj57s6l","1280","720","0","1","0","5eb58476f88d4008fa483809","","null","","","learningBlock2","","","","That was a bim.","null","","","","","",""
"html-keyboard-response","375","578653","0.0-7.0-2.42","FL","e9dxj57s6l","1280","720","0","1","0","5eb58476f88d4008fa483809","","null","","","learningBlock2","","","","<div style=""font-size:60px;""> </div>","null","FL","learning/Slide123.JPG","That was a bim.","","",""
"image-keyboard-response","376","578838","0.0-7.0-0.43","FL","e9dxj57s6l","1280","720","0","1","0","5eb58476f88d4008fa483809","","null","","","","","","","learning/Slide124.JPG","null","","","","","",""
"html-keyboard-response","377","580005","0.0-7.0-1.43","FL","e9dxj57s6l","1280","720","0","1","0","5eb58476f88d4008fa483809","","null","","","learningBlock2","","","","That was a tob.","null","","","","","",""
"html-keyboard-response","378","581015","0.0-7.0-2.43","FL","e9dxj57s6l","1280","720","0","1","0","5eb58476f88d4008fa483809","","null","","","learningBlock2","","","","<div style=""font-size:60px;""> </div>","null","FL","learning/Slide124.JPG","That was a tob.","","",""
"image-keyboard-response","379","581200","0.0-7.0-0.44","FL","e9dxj57s6l","1280","720","0","1","0","5eb58476f88d4008fa483809","","null","","","","","","","learning/Slide125.JPG","null","","","","","",""
"html-keyboard-response","380","582360","0.0-7.0-1.44","FL","e9dxj57s6l","1280","720","0","1","0","5eb58476f88d4008fa483809","","null","","","learningBlock2","","","","That was a bim.","null","","","","","",""
"html-keyboard-response","381","583365","0.0-7.0-2.44","FL","e9dxj57s6l","1280","720","0","1","0","5eb58476f88d4008fa483809","","null","","","learningBlock2","","","","<div style=""font-size:60px;""> </div>","null","FL","learning/Slide125.JPG","That was a bim.","","",""
"image-keyboard-response","382","583550","0.0-7.0-0.45","FL","e9dxj57s6l","1280","720","0","1","0","5eb58476f88d4008fa483809","","null","","","","","","","learning/Slide126.JPG","null","","","","","",""
"html-keyboard-response","383","584716","0.0-7.0-1.45","FL","e9dxj57s6l","1280","720","0","1","0","5eb58476f88d4008fa483809","","null","","","learningBlock2","","","","That was a tob.","null","","","","","",""
"html-keyboard-response","384","585723","0.0-7.0-2.45","FL","e9dxj57s6l","1280","720","0","1","0","5eb58476f88d4008fa483809","","null","","","learningBlock2","","","","<div style=""font-size:60px;""> </div>","null","FL","learning/Slide126.JPG","That was a tob.","","",""
"image-keyboard-response","385","585915","0.0-7.0-0.46","FL","e9dxj57s6l","1280","720","0","1","0","5eb58476f88d4008fa483809","","null","","","","","","","learning/Slide127.JPG","null","","","","","",""
"html-keyboard-response","386","587073","0.0-7.0-1.46","FL","e9dxj57s6l","1280","720","0","1","0","5eb58476f88d4008fa483809","","null","","","learningBlock2","","","","That was a dep.","null","","","","","",""
"html-keyboard-response","387","588077","0.0-7.0-2.46","FL","e9dxj57s6l","1280","720","0","1","0","5eb58476f88d4008fa483809","","null","","","learningBlock2","","","","<div style=""font-size:60px;""> </div>","null","FL","learning/Slide127.JPG","That was a dep.","","",""
"image-keyboard-response","388","588255","0.0-7.0-0.47","FL","e9dxj57s6l","1280","720","0","1","0","5eb58476f88d4008fa483809","","null","","","","","","","learning/Slide128.JPG","null","","","","","",""
"html-keyboard-response","389","589422","0.0-7.0-1.47","FL","e9dxj57s6l","1280","720","0","1","0","5eb58476f88d4008fa483809","","null","","","learningBlock2","","","","That was a wug.","null","","","","","",""
"html-keyboard-response","390","590435","0.0-7.0-2.47","FL","e9dxj57s6l","1280","720","0","1","0","5eb58476f88d4008fa483809","","null","","","learningBlock2","","","","<div style=""font-size:60px;""> </div>","null","FL","learning/Slide128.JPG","That was a wug.","","",""
"image-keyboard-response","391","590620","0.0-7.0-0.48","FL","e9dxj57s6l","1280","720","0","1","0","5eb58476f88d4008fa483809","","null","","","","","","","learning/Slide129.JPG","null","","","","","",""
"html-keyboard-response","392","591786","0.0-7.0-1.48","FL","e9dxj57s6l","1280","720","0","1","0","5eb58476f88d4008fa483809","","null","","","learningBlock2","","","","That was a tob.","null","","","","","",""
"html-keyboard-response","393","592793","0.0-7.0-2.48","FL","e9dxj57s6l","1280","720","0","1","0","5eb58476f88d4008fa483809","","null","","","learningBlock2","","","","<div style=""font-size:60px;""> </div>","null","FL","learning/Slide129.JPG","That was a tob.","","",""
"image-keyboard-response","394","592975","0.0-7.0-0.49","FL","e9dxj57s6l","1280","720","0","1","0","5eb58476f88d4008fa483809","","null","","","","","","","learning/Slide130.JPG","null","","","","","",""
"html-keyboard-response","395","594133","0.0-7.0-1.49","FL","e9dxj57s6l","1280","720","0","1","0","5eb58476f88d4008fa483809","","null","","","learningBlock2","","","","That was a wug.","null","","","","","",""
"html-keyboard-response","396","595137","0.0-7.0-2.49","FL","e9dxj57s6l","1280","720","0","1","0","5eb58476f88d4008fa483809","","null","","","learningBlock2","","","","<div style=""font-size:60px;""> </div>","null","FL","learning/Slide130.JPG","That was a wug.","","",""
"image-keyboard-response","397","595322","0.0-7.0-0.50","FL","e9dxj57s6l","1280","720","0","1","0","5eb58476f88d4008fa483809","","null","","","","","","","learning/Slide131.JPG","null","","","","","",""
"html-keyboard-response","398","596492","0.0-7.0-1.50","FL","e9dxj57s6l","1280","720","0","1","0","5eb58476f88d4008fa483809","","null","","","learningBlock2","","","","That was a bim.","null","","","","","",""
"html-keyboard-response","399","597496","0.0-7.0-2.50","FL","e9dxj57s6l","1280","720","0","1","0","5eb58476f88d4008fa483809","","null","","","learningBlock2","","","","<div style=""font-size:60px;""> </div>","null","FL","learning/Slide131.JPG","That was a bim.","","",""
"image-keyboard-response","400","597680","0.0-7.0-0.51","FL","e9dxj57s6l","1280","720","0","1","0","5eb58476f88d4008fa483809","","null","","","","","","","learning/Slide132.JPG","null","","","","","",""
"html-keyboard-response","401","598850","0.0-7.0-1.51","FL","e9dxj57s6l","1280","720","0","1","0","5eb58476f88d4008fa483809","","null","","","learningBlock2","","","","That was a dep.","null","","","","","",""
"html-keyboard-response","402","599854","0.0-7.0-2.51","FL","e9dxj57s6l","1280","720","0","1","0","5eb58476f88d4008fa483809","","null","","","learningBlock2","","","","<div style=""font-size:60px;""> </div>","null","FL","learning/Slide132.JPG","That was a dep.","","",""
"image-keyboard-response","403","600030","0.0-7.0-0.52","FL","e9dxj57s6l","1280","720","0","1","0","5eb58476f88d4008fa483809","","null","","","","","","","learning/Slide133.JPG","null","","","","","",""
"html-keyboard-response","404","601192","0.0-7.0-1.52","FL","e9dxj57s6l","1280","720","0","1","0","5eb58476f88d4008fa483809","","null","","","learningBlock2","","","","That was a tob.","null","","","","","",""
"html-keyboard-response","405","602195","0.0-7.0-2.52","FL","e9dxj57s6l","1280","720","0","1","0","5eb58476f88d4008fa483809","","null","","","learningBlock2","","","","<div style=""font-size:60px;""> </div>","null","FL","learning/Slide133.JPG","That was a tob.","","",""
"image-keyboard-response","406","602373","0.0-7.0-0.53","FL","e9dxj57s6l","1280","720","0","1","0","5eb58476f88d4008fa483809","","null","","","","","","","learning/Slide134.JPG","null","","","","","",""
"html-keyboard-response","407","603535","0.0-7.0-1.53","FL","e9dxj57s6l","1280","720","0","1","0","5eb58476f88d4008fa483809","","null","","","learningBlock2","","","","That was a dep.","null","","","","","",""
"html-keyboard-response","408","604538","0.0-7.0-2.53","FL","e9dxj57s6l","1280","720","0","1","0","5eb58476f88d4008fa483809","","null","","","learningBlock2","","","","<div style=""font-size:60px;""> </div>","null","FL","learning/Slide134.JPG","That was a dep.","","",""
"image-keyboard-response","409","604723","0.0-7.0-0.54","FL","e9dxj57s6l","1280","720","0","1","0","5eb58476f88d4008fa483809","","null","","","","","","","learning/Slide135.JPG","null","","","","","",""
"html-keyboard-response","410","605893","0.0-7.0-1.54","FL","e9dxj57s6l","1280","720","0","1","0","5eb58476f88d4008fa483809","","null","","","learningBlock2","","","","That was a tob.","null","","","","","",""
"html-keyboard-response","411","606896","0.0-7.0-2.54","FL","e9dxj57s6l","1280","720","0","1","0","5eb58476f88d4008fa483809","","null","","","learningBlock2","","","","<div style=""font-size:60px;""> </div>","null","FL","learning/Slide135.JPG","That was a tob.","","",""
"image-keyboard-response","412","607083","0.0-7.0-0.55","FL","e9dxj57s6l","1280","720","0","1","0","5eb58476f88d4008fa483809","","null","","","","","","","learning/Slide136.JPG","null","","","","","",""
"html-keyboard-response","413","608241","0.0-7.0-1.55","FL","e9dxj57s6l","1280","720","0","1","0","5eb58476f88d4008fa483809","","null","","","learningBlock2","","","","That was a wug.","null","","","","","",""
"html-keyboard-response","414","609244","0.0-7.0-2.55","FL","e9dxj57s6l","1280","720","0","1","0","5eb58476f88d4008fa483809","","null","","","learningBlock2","","","","<div style=""font-size:60px;""> </div>","null","FL","learning/Slide136.JPG","That was a wug.","","",""
"image-keyboard-response","415","609429","0.0-7.0-0.56","FL","e9dxj57s6l","1280","720","0","1","0","5eb58476f88d4008fa483809","","null","","","","","","","learning/Slide137.JPG","null","","","","","",""
"html-keyboard-response","416","610601","0.0-7.0-1.56","FL","e9dxj57s6l","1280","720","0","1","0","5eb58476f88d4008fa483809","","null","","","learningBlock2","","","","That was a tob.","null","","","","","",""
"html-keyboard-response","417","611605","0.0-7.0-2.56","FL","e9dxj57s6l","1280","720","0","1","0","5eb58476f88d4008fa483809","","null","","","learningBlock2","","","","<div style=""font-size:60px;""> </div>","null","FL","learning/Slide137.JPG","That was a tob.","","",""
"image-keyboard-response","418","611789","0.0-7.0-0.57","FL","e9dxj57s6l","1280","720","0","1","0","5eb58476f88d4008fa483809","","null","","","","","","","learning/Slide138.JPG","null","","","","","",""
"html-keyboard-response","419","612958","0.0-7.0-1.57","FL","e9dxj57s6l","1280","720","0","1","0","5eb58476f88d4008fa483809","","null","","","learningBlock2","","","","That was a bim.","null","","","","","",""
"html-keyboard-response","420","613962","0.0-7.0-2.57","FL","e9dxj57s6l","1280","720","0","1","0","5eb58476f88d4008fa483809","","null","","","learningBlock2","","","","<div style=""font-size:60px;""> </div>","null","FL","learning/Slide138.JPG","That was a bim.","","",""
"image-keyboard-response","421","614140","0.0-7.0-0.58","FL","e9dxj57s6l","1280","720","0","1","0","5eb58476f88d4008fa483809","","null","","","","","","","learning/Slide139.JPG","null","","","","","",""
"html-keyboard-response","422","615306","0.0-7.0-1.58","FL","e9dxj57s6l","1280","720","0","1","0","5eb58476f88d4008fa483809","","null","","","learningBlock2","","","","That was a wug.","null","","","","","",""
"html-keyboard-response","423","616309","0.0-7.0-2.58","FL","e9dxj57s6l","1280","720","0","1","0","5eb58476f88d4008fa483809","","null","","","learningBlock2","","","","<div style=""font-size:60px;""> </div>","null","FL","learning/Slide139.JPG","That was a wug.","","",""
"image-keyboard-response","424","616494","0.0-7.0-0.59","FL","e9dxj57s6l","1280","720","0","1","0","5eb58476f88d4008fa483809","","null","","","","","","","learning/Slide140.JPG","null","","","","","",""
"html-keyboard-response","425","617670","0.0-7.0-1.59","FL","e9dxj57s6l","1280","720","0","1","0","5eb58476f88d4008fa483809","","null","","","learningBlock2","","","","That was a dep.","null","","","","","",""
"html-keyboard-response","426","618682","0.0-7.0-2.59","FL","e9dxj57s6l","1280","720","0","1","0","5eb58476f88d4008fa483809","","null","","","learningBlock2","","","","<div style=""font-size:60px;""> </div>","null","FL","learning/Slide140.JPG","That was a dep.","","",""
"image-keyboard-response","427","618867","0.0-7.0-0.60","FL","e9dxj57s6l","1280","720","0","1","0","5eb58476f88d4008fa483809","","null","","","","","","","learning/Slide141.JPG","null","","","","","",""
"html-keyboard-response","428","620027","0.0-7.0-1.60","FL","e9dxj57s6l","1280","720","0","1","0","5eb58476f88d4008fa483809","","null","","","learningBlock2","","","","That was a tob.","null","","","","","",""
"html-keyboard-response","429","621031","0.0-7.0-2.60","FL","e9dxj57s6l","1280","720","0","1","0","5eb58476f88d4008fa483809","","null","","","learningBlock2","","","","<div style=""font-size:60px;""> </div>","null","FL","learning/Slide141.JPG","That was a tob.","","",""
"image-keyboard-response","430","621209","0.0-7.0-0.61","FL","e9dxj57s6l","1280","720","0","1","0","5eb58476f88d4008fa483809","","null","","","","","","","learning/Slide142.JPG","null","","","","","",""
"html-keyboard-response","431","622367","0.0-7.0-1.61","FL","e9dxj57s6l","1280","720","0","1","0","5eb58476f88d4008fa483809","","null","","","learningBlock2","","","","That was a wug.","null","","","","","",""
"html-keyboard-response","432","623370","0.0-7.0-2.61","FL","e9dxj57s6l","1280","720","0","1","0","5eb58476f88d4008fa483809","","null","","","learningBlock2","","","","<div style=""font-size:60px;""> </div>","null","FL","learning/Slide142.JPG","That was a wug.","","",""
"image-keyboard-response","433","623556","0.0-7.0-0.62","FL","e9dxj57s6l","1280","720","0","1","0","5eb58476f88d4008fa483809","","null","","","","","","","learning/Slide143.JPG","null","","","","","",""
"html-keyboard-response","434","624723","0.0-7.0-1.62","FL","e9dxj57s6l","1280","720","0","1","0","5eb58476f88d4008fa483809","","null","","","learningBlock2","","","","That was a bim.","null","","","","","",""
"html-keyboard-response","435","625727","0.0-7.0-2.62","FL","e9dxj57s6l","1280","720","0","1","0","5eb58476f88d4008fa483809","","null","","","learningBlock2","","","","<div style=""font-size:60px;""> </div>","null","FL","learning/Slide143.JPG","That was a bim.","","",""
"image-keyboard-response","436","625912","0.0-7.0-0.63","FL","e9dxj57s6l","1280","720","0","1","0","5eb58476f88d4008fa483809","","null","","","","","","","learning/Slide144.JPG","null","","","","","",""
