"trial_type","trial_index","time_elapsed","internal_node_id","condition","subject","screen_width","screen_height","attention","distraction","conscientious","prolificID","success","rt","url","view_history","test_part","final_height_px","final_width_px","scale_factor","stimulus","key_press","learningType","presentedImage","presentedLabel","button_pressed","response","responses"
"pavlovia","0","23","0.0-0.0","LF","o7w146d4yj","1920","1080","0","1","0","5f343de4d0c07630b7f90b92","","","","","","","","","","","","","","","",""
"fullscreen","1","10515","0.0-1.0","LF","o7w146d4yj","1920","1080","0","1","0","5f343de4d0c07630b7f90b92","true","","","","","","","","","","","","","","",""
"external-html","2","16478","0.0-2.0-0.0","LF","o7w146d4yj","1920","1080","0","1","0","5f343de4d0c07630b7f90b92","","5872.624999999971","text/information_english.html","","","","","","","","","","","","",""
"external-html","3","20150","0.0-2.0-1.0","LF","o7w146d4yj","1920","1080","0","1","0","5f343de4d0c07630b7f90b92","","3579.1000000026543","text/consent_english.html","","","","","","","","","","","","",""
"instructions","4","33027","0.0-3.0","LF","o7w146d4yj","1920","1080","0","1","0","5f343de4d0c07630b7f90b92","","NA","","[{""page_index"":0,""viewing_time"":3240.9850000003644},{""page_index"":1,""viewing_time"":9630.870000000868}]","instructions","","","","","","","","","","",""
"resize","5","63100","0.0-4.0","LF","o7w146d4yj","1920","1080","0","1","0","5f343de4d0c07630b7f90b92","","","","","","","352","2.234920634920635","","","","","","","",""
"html-keyboard-response","6","64104","0.0-5.0-0.0","LF","o7w146d4yj","1920","1080","0","1","0","5f343de4d0c07630b7f90b92","","null","","","learningBlock1","","","","This is a tob:","null","","","","","",""
"image-keyboard-response","7","64432","0.0-5.0-1.0","LF","o7w146d4yj","1920","1080","0","1","0","5f343de4d0c07630b7f90b92","","null","","","","","","","learning/Slide1.JPG","null","","","","","",""
"html-keyboard-response","8","65434","0.0-5.0-2.0","LF","o7w146d4yj","1920","1080","0","1","0","5f343de4d0c07630b7f90b92","","null","","","learningBlock1","","","","<div style=""font-size:60px;""> </div>","null","LF","learning/Slide1.JPG","This is a tob:","","",""
"html-keyboard-response","9","66436","0.0-5.0-0.1","LF","o7w146d4yj","1920","1080","0","1","0","5f343de4d0c07630b7f90b92","","null","","","learningBlock1","","","","This is a wug:","null","","","","","",""
"image-keyboard-response","10","66764","0.0-5.0-1.1","LF","o7w146d4yj","1920","1080","0","1","0","5f343de4d0c07630b7f90b92","","null","","","","","","","learning/Slide2.JPG","null","","","","","",""
"html-keyboard-response","11","67766","0.0-5.0-2.1","LF","o7w146d4yj","1920","1080","0","1","0","5f343de4d0c07630b7f90b92","","null","","","learningBlock1","","","","<div style=""font-size:60px;""> </div>","null","LF","learning/Slide2.JPG","This is a wug:","","",""
"html-keyboard-response","12","68768","0.0-5.0-0.2","LF","o7w146d4yj","1920","1080","0","1","0","5f343de4d0c07630b7f90b92","","null","","","learningBlock1","","","","This is a bim:","null","","","","","",""
"image-keyboard-response","13","69097","0.0-5.0-1.2","LF","o7w146d4yj","1920","1080","0","1","0","5f343de4d0c07630b7f90b92","","null","","","","","","","learning/Slide3.JPG","null","","","","","",""
"html-keyboard-response","14","70098","0.0-5.0-2.2","LF","o7w146d4yj","1920","1080","0","1","0","5f343de4d0c07630b7f90b92","","null","","","learningBlock1","","","","<div style=""font-size:60px;""> </div>","null","LF","learning/Slide3.JPG","This is a bim:","","",""
"html-keyboard-response","15","71099","0.0-5.0-0.3","LF","o7w146d4yj","1920","1080","0","1","0","5f343de4d0c07630b7f90b92","","null","","","learningBlock1","","","","This is a dep:","null","","","","","",""
"image-keyboard-response","16","71426","0.0-5.0-1.3","LF","o7w146d4yj","1920","1080","0","1","0","5f343de4d0c07630b7f90b92","","null","","","","","","","learning/Slide4.JPG","null","","","","","",""
"html-keyboard-response","17","72428","0.0-5.0-2.3","LF","o7w146d4yj","1920","1080","0","1","0","5f343de4d0c07630b7f90b92","","null","","","learningBlock1","","","","<div style=""font-size:60px;""> </div>","null","LF","learning/Slide4.JPG","This is a dep:","","",""
"html-keyboard-response","18","73432","0.0-5.0-0.4","LF","o7w146d4yj","1920","1080","0","1","0","5f343de4d0c07630b7f90b92","","null","","","learningBlock1","","","","This is a wug:","null","","","","","",""
"image-keyboard-response","19","73759","0.0-5.0-1.4","LF","o7w146d4yj","1920","1080","0","1","0","5f343de4d0c07630b7f90b92","","null","","","","","","","learning/Slide5.JPG","null","","","","","",""
"html-keyboard-response","20","74761","0.0-5.0-2.4","LF","o7w146d4yj","1920","1080","0","1","0","5f343de4d0c07630b7f90b92","","null","","","learningBlock1","","","","<div style=""font-size:60px;""> </div>","null","LF","learning/Slide5.JPG","This is a wug:","","",""
"html-keyboard-response","21","75763","0.0-5.0-0.5","LF","o7w146d4yj","1920","1080","0","1","0","5f343de4d0c07630b7f90b92","","null","","","learningBlock1","","","","This is a dep:","null","","","","","",""
"image-keyboard-response","22","76090","0.0-5.0-1.5","LF","o7w146d4yj","1920","1080","0","1","0","5f343de4d0c07630b7f90b92","","null","","","","","","","learning/Slide6.JPG","null","","","","","",""
"html-keyboard-response","23","77091","0.0-5.0-2.5","LF","o7w146d4yj","1920","1080","0","1","0","5f343de4d0c07630b7f90b92","","null","","","learningBlock1","","","","<div style=""font-size:60px;""> </div>","null","LF","learning/Slide6.JPG","This is a dep:","","",""
"html-keyboard-response","24","78093","0.0-5.0-0.6","LF","o7w146d4yj","1920","1080","0","1","0","5f343de4d0c07630b7f90b92","","null","","","learningBlock1","","","","This is a wug:","null","","","","","",""
"image-keyboard-response","25","78420","0.0-5.0-1.6","LF","o7w146d4yj","1920","1080","0","1","0","5f343de4d0c07630b7f90b92","","null","","","","","","","learning/Slide7.JPG","null","","","","","",""
"html-keyboard-response","26","79422","0.0-5.0-2.6","LF","o7w146d4yj","1920","1080","0","1","0","5f343de4d0c07630b7f90b92","","null","","","learningBlock1","","","","<div style=""font-size:60px;""> </div>","null","LF","learning/Slide7.JPG","This is a wug:","","",""
"html-keyboard-response","27","80424","0.0-5.0-0.7","LF","o7w146d4yj","1920","1080","0","1","0","5f343de4d0c07630b7f90b92","","null","","","learningBlock1","","","","This is a bim:","null","","","","","",""
"image-keyboard-response","28","80751","0.0-5.0-1.7","LF","o7w146d4yj","1920","1080","0","1","0","5f343de4d0c07630b7f90b92","","null","","","","","","","learning/Slide8.JPG","null","","","","","",""
"html-keyboard-response","29","81752","0.0-5.0-2.7","LF","o7w146d4yj","1920","1080","0","1","0","5f343de4d0c07630b7f90b92","","null","","","learningBlock1","","","","<div style=""font-size:60px;""> </div>","null","LF","learning/Slide8.JPG","This is a bim:","","",""
"html-keyboard-response","30","82753","0.0-5.0-0.8","LF","o7w146d4yj","1920","1080","0","1","0","5f343de4d0c07630b7f90b92","","null","","","learningBlock1","","","","This is a wug:","null","","","","","",""
"image-keyboard-response","31","83081","0.0-5.0-1.8","LF","o7w146d4yj","1920","1080","0","1","0","5f343de4d0c07630b7f90b92","","null","","","","","","","learning/Slide9.JPG","null","","","","","",""
"html-keyboard-response","32","84082","0.0-5.0-2.8","LF","o7w146d4yj","1920","1080","0","1","0","5f343de4d0c07630b7f90b92","","null","","","learningBlock1","","","","<div style=""font-size:60px;""> </div>","null","LF","learning/Slide9.JPG","This is a wug:","","",""
"html-keyboard-response","33","85084","0.0-5.0-0.9","LF","o7w146d4yj","1920","1080","0","1","0","5f343de4d0c07630b7f90b92","","null","","","learningBlock1","","","","This is a dep:","null","","","","","",""
"image-keyboard-response","34","85410","0.0-5.0-1.9","LF","o7w146d4yj","1920","1080","0","1","0","5f343de4d0c07630b7f90b92","","null","","","","","","","learning/Slide10.JPG","null","","","","","",""
"html-keyboard-response","35","86413","0.0-5.0-2.9","LF","o7w146d4yj","1920","1080","0","1","0","5f343de4d0c07630b7f90b92","","null","","","learningBlock1","","","","<div style=""font-size:60px;""> </div>","null","LF","learning/Slide10.JPG","This is a dep:","","",""
"html-keyboard-response","36","87414","0.0-5.0-0.10","LF","o7w146d4yj","1920","1080","0","1","0","5f343de4d0c07630b7f90b92","","null","","","learningBlock1","","","","This is a tob:","null","","","","","",""
"image-keyboard-response","37","87741","0.0-5.0-1.10","LF","o7w146d4yj","1920","1080","0","1","0","5f343de4d0c07630b7f90b92","","null","","","","","","","learning/Slide11.JPG","null","","","","","",""
"html-keyboard-response","38","88742","0.0-5.0-2.10","LF","o7w146d4yj","1920","1080","0","1","0","5f343de4d0c07630b7f90b92","","null","","","learningBlock1","","","","<div style=""font-size:60px;""> </div>","null","LF","learning/Slide11.JPG","This is a tob:","","",""
"html-keyboard-response","39","89746","0.0-5.0-0.11","LF","o7w146d4yj","1920","1080","0","1","0","5f343de4d0c07630b7f90b92","","null","","","learningBlock1","","","","This is a dep:","null","","","","","",""
"image-keyboard-response","40","90075","0.0-5.0-1.11","LF","o7w146d4yj","1920","1080","0","1","0","5f343de4d0c07630b7f90b92","","null","","","","","","","learning/Slide12.JPG","null","","","","","",""
"html-keyboard-response","41","91076","0.0-5.0-2.11","LF","o7w146d4yj","1920","1080","0","1","0","5f343de4d0c07630b7f90b92","","null","","","learningBlock1","","","","<div style=""font-size:60px;""> </div>","null","LF","learning/Slide12.JPG","This is a dep:","","",""
"html-keyboard-response","42","92078","0.0-5.0-0.12","LF","o7w146d4yj","1920","1080","0","1","0","5f343de4d0c07630b7f90b92","","null","","","learningBlock1","","","","This is a bim:","null","","","","","",""
"image-keyboard-response","43","92407","0.0-5.0-1.12","LF","o7w146d4yj","1920","1080","0","1","0","5f343de4d0c07630b7f90b92","","null","","","","","","","learning/Slide13.JPG","null","","","","","",""
"html-keyboard-response","44","93410","0.0-5.0-2.12","LF","o7w146d4yj","1920","1080","0","1","0","5f343de4d0c07630b7f90b92","","null","","","learningBlock1","","","","<div style=""font-size:60px;""> </div>","null","LF","learning/Slide13.JPG","This is a bim:","","",""
"html-keyboard-response","45","94412","0.0-5.0-0.13","LF","o7w146d4yj","1920","1080","0","1","0","5f343de4d0c07630b7f90b92","","null","","","learningBlock1","","","","This is a wug:","null","","","","","",""
"image-keyboard-response","46","94739","0.0-5.0-1.13","LF","o7w146d4yj","1920","1080","0","1","0","5f343de4d0c07630b7f90b92","","null","","","","","","","learning/Slide14.JPG","null","","","","","",""
"html-keyboard-response","47","95742","0.0-5.0-2.13","LF","o7w146d4yj","1920","1080","0","1","0","5f343de4d0c07630b7f90b92","","null","","","learningBlock1","","","","<div style=""font-size:60px;""> </div>","null","LF","learning/Slide14.JPG","This is a wug:","","",""
"html-keyboard-response","48","96743","0.0-5.0-0.14","LF","o7w146d4yj","1920","1080","0","1","0","5f343de4d0c07630b7f90b92","","null","","","learningBlock1","","","","This is a tob:","null","","","","","",""
"image-keyboard-response","49","97071","0.0-5.0-1.14","LF","o7w146d4yj","1920","1080","0","1","0","5f343de4d0c07630b7f90b92","","null","","","","","","","learning/Slide15.JPG","null","","","","","",""
"html-keyboard-response","50","98073","0.0-5.0-2.14","LF","o7w146d4yj","1920","1080","0","1","0","5f343de4d0c07630b7f90b92","","null","","","learningBlock1","","","","<div style=""font-size:60px;""> </div>","null","LF","learning/Slide15.JPG","This is a tob:","","",""
"html-keyboard-response","51","99074","0.0-5.0-0.15","LF","o7w146d4yj","1920","1080","0","1","0","5f343de4d0c07630b7f90b92","","null","","","learningBlock1","","","","This is a dep:","null","","","","","",""
"image-keyboard-response","52","99401","0.0-5.0-1.15","LF","o7w146d4yj","1920","1080","0","1","0","5f343de4d0c07630b7f90b92","","null","","","","","","","learning/Slide16.JPG","null","","","","","",""
"html-keyboard-response","53","100403","0.0-5.0-2.15","LF","o7w146d4yj","1920","1080","0","1","0","5f343de4d0c07630b7f90b92","","null","","","learningBlock1","","","","<div style=""font-size:60px;""> </div>","null","LF","learning/Slide16.JPG","This is a dep:","","",""
"html-keyboard-response","54","101405","0.0-5.0-0.16","LF","o7w146d4yj","1920","1080","0","1","0","5f343de4d0c07630b7f90b92","","null","","","learningBlock1","","","","This is a bim:","null","","","","","",""
"image-keyboard-response","55","101732","0.0-5.0-1.16","LF","o7w146d4yj","1920","1080","0","1","0","5f343de4d0c07630b7f90b92","","null","","","","","","","learning/Slide17.JPG","null","","","","","",""
"html-keyboard-response","56","102733","0.0-5.0-2.16","LF","o7w146d4yj","1920","1080","0","1","0","5f343de4d0c07630b7f90b92","","null","","","learningBlock1","","","","<div style=""font-size:60px;""> </div>","null","LF","learning/Slide17.JPG","This is a bim:","","",""
"html-keyboard-response","57","103734","0.0-5.0-0.17","LF","o7w146d4yj","1920","1080","0","1","0","5f343de4d0c07630b7f90b92","","null","","","learningBlock1","","","","This is a tob:","null","","","","","",""
"image-keyboard-response","58","104061","0.0-5.0-1.17","LF","o7w146d4yj","1920","1080","0","1","0","5f343de4d0c07630b7f90b92","","null","","","","","","","learning/Slide18.JPG","null","","","","","",""
"html-keyboard-response","59","105062","0.0-5.0-2.17","LF","o7w146d4yj","1920","1080","0","1","0","5f343de4d0c07630b7f90b92","","null","","","learningBlock1","","","","<div style=""font-size:60px;""> </div>","null","LF","learning/Slide18.JPG","This is a tob:","","",""
"html-keyboard-response","60","106064","0.0-5.0-0.18","LF","o7w146d4yj","1920","1080","0","1","0","5f343de4d0c07630b7f90b92","","null","","","learningBlock1","","","","This is a wug:","null","","","","","",""
"image-keyboard-response","61","106391","0.0-5.0-1.18","LF","o7w146d4yj","1920","1080","0","1","0","5f343de4d0c07630b7f90b92","","null","","","","","","","learning/Slide19.JPG","null","","","","","",""
"html-keyboard-response","62","107394","0.0-5.0-2.18","LF","o7w146d4yj","1920","1080","0","1","0","5f343de4d0c07630b7f90b92","","null","","","learningBlock1","","","","<div style=""font-size:60px;""> </div>","null","LF","learning/Slide19.JPG","This is a wug:","","",""
"html-keyboard-response","63","108395","0.0-5.0-0.19","LF","o7w146d4yj","1920","1080","0","1","0","5f343de4d0c07630b7f90b92","","null","","","learningBlock1","","","","This is a bim:","null","","","","","",""
"image-keyboard-response","64","108722","0.0-5.0-1.19","LF","o7w146d4yj","1920","1080","0","1","0","5f343de4d0c07630b7f90b92","","null","","","","","","","learning/Slide20.JPG","null","","","","","",""
"html-keyboard-response","65","109726","0.0-5.0-2.19","LF","o7w146d4yj","1920","1080","0","1","0","5f343de4d0c07630b7f90b92","","null","","","learningBlock1","","","","<div style=""font-size:60px;""> </div>","null","LF","learning/Slide20.JPG","This is a bim:","","",""
"html-keyboard-response","66","110728","0.0-5.0-0.20","LF","o7w146d4yj","1920","1080","0","1","0","5f343de4d0c07630b7f90b92","","null","","","learningBlock1","","","","This is a dep:","null","","","","","",""
"image-keyboard-response","67","111055","0.0-5.0-1.20","LF","o7w146d4yj","1920","1080","0","1","0","5f343de4d0c07630b7f90b92","","null","","","","","","","learning/Slide21.JPG","null","","","","","",""
"html-keyboard-response","68","112057","0.0-5.0-2.20","LF","o7w146d4yj","1920","1080","0","1","0","5f343de4d0c07630b7f90b92","","null","","","learningBlock1","","","","<div style=""font-size:60px;""> </div>","null","LF","learning/Slide21.JPG","This is a dep:","","",""
"html-keyboard-response","69","113058","0.0-5.0-0.21","LF","o7w146d4yj","1920","1080","0","1","0","5f343de4d0c07630b7f90b92","","null","","","learningBlock1","","","","This is a bim:","null","","","","","",""
"image-keyboard-response","70","113387","0.0-5.0-1.21","LF","o7w146d4yj","1920","1080","0","1","0","5f343de4d0c07630b7f90b92","","null","","","","","","","learning/Slide22.JPG","null","","","","","",""
"html-keyboard-response","71","114390","0.0-5.0-2.21","LF","o7w146d4yj","1920","1080","0","1","0","5f343de4d0c07630b7f90b92","","null","","","learningBlock1","","","","<div style=""font-size:60px;""> </div>","null","LF","learning/Slide22.JPG","This is a bim:","","",""
"html-keyboard-response","72","115392","0.0-5.0-0.22","LF","o7w146d4yj","1920","1080","0","1","0","5f343de4d0c07630b7f90b92","","null","","","learningBlock1","","","","This is a tob:","null","","","","","",""
"image-keyboard-response","73","115719","0.0-5.0-1.22","LF","o7w146d4yj","1920","1080","0","1","0","5f343de4d0c07630b7f90b92","","null","","","","","","","learning/Slide23.JPG","null","","","","","",""
"html-keyboard-response","74","116721","0.0-5.0-2.22","LF","o7w146d4yj","1920","1080","0","1","0","5f343de4d0c07630b7f90b92","","null","","","learningBlock1","","","","<div style=""font-size:60px;""> </div>","null","LF","learning/Slide23.JPG","This is a tob:","","",""
"html-keyboard-response","75","117724","0.0-5.0-0.23","LF","o7w146d4yj","1920","1080","0","1","0","5f343de4d0c07630b7f90b92","","null","","","learningBlock1","","","","This is a wug:","null","","","","","",""
"image-keyboard-response","76","118051","0.0-5.0-1.23","LF","o7w146d4yj","1920","1080","0","1","0","5f343de4d0c07630b7f90b92","","null","","","","","","","learning/Slide24.JPG","null","","","","","",""
"html-keyboard-response","77","119053","0.0-5.0-2.23","LF","o7w146d4yj","1920","1080","0","1","0","5f343de4d0c07630b7f90b92","","null","","","learningBlock1","","","","<div style=""font-size:60px;""> </div>","null","LF","learning/Slide24.JPG","This is a wug:","","",""
"html-keyboard-response","78","120055","0.0-5.0-0.24","LF","o7w146d4yj","1920","1080","0","1","0","5f343de4d0c07630b7f90b92","","null","","","learningBlock1","","","","This is a dep:","null","","","","","",""
"image-keyboard-response","79","120383","0.0-5.0-1.24","LF","o7w146d4yj","1920","1080","0","1","0","5f343de4d0c07630b7f90b92","","null","","","","","","","learning/Slide25.JPG","null","","","","","",""
"html-keyboard-response","80","121386","0.0-5.0-2.24","LF","o7w146d4yj","1920","1080","0","1","0","5f343de4d0c07630b7f90b92","","null","","","learningBlock1","","","","<div style=""font-size:60px;""> </div>","null","LF","learning/Slide25.JPG","This is a dep:","","",""
"html-keyboard-response","81","122387","0.0-5.0-0.25","LF","o7w146d4yj","1920","1080","0","1","0","5f343de4d0c07630b7f90b92","","null","","","learningBlock1","","","","This is a wug:","null","","","","","",""
"image-keyboard-response","82","122714","0.0-5.0-1.25","LF","o7w146d4yj","1920","1080","0","1","0","5f343de4d0c07630b7f90b92","","null","","","","","","","learning/Slide26.JPG","null","","","","","",""
"html-keyboard-response","83","123716","0.0-5.0-2.25","LF","o7w146d4yj","1920","1080","0","1","0","5f343de4d0c07630b7f90b92","","null","","","learningBlock1","","","","<div style=""font-size:60px;""> </div>","null","LF","learning/Slide26.JPG","This is a wug:","","",""
"html-keyboard-response","84","124717","0.0-5.0-0.26","LF","o7w146d4yj","1920","1080","0","1","0","5f343de4d0c07630b7f90b92","","null","","","learningBlock1","","","","This is a bim:","null","","","","","",""
"image-keyboard-response","85","125044","0.0-5.0-1.26","LF","o7w146d4yj","1920","1080","0","1","0","5f343de4d0c07630b7f90b92","","null","","","","","","","learning/Slide27.JPG","null","","","","","",""
"html-keyboard-response","86","126045","0.0-5.0-2.26","LF","o7w146d4yj","1920","1080","0","1","0","5f343de4d0c07630b7f90b92","","null","","","learningBlock1","","","","<div style=""font-size:60px;""> </div>","null","LF","learning/Slide27.JPG","This is a bim:","","",""
"html-keyboard-response","87","127046","0.0-5.0-0.27","LF","o7w146d4yj","1920","1080","0","1","0","5f343de4d0c07630b7f90b92","","null","","","learningBlock1","","","","This is a dep:","null","","","","","",""
"image-keyboard-response","88","127373","0.0-5.0-1.27","LF","o7w146d4yj","1920","1080","0","1","0","5f343de4d0c07630b7f90b92","","null","","","","","","","learning/Slide28.JPG","null","","","","","",""
"html-keyboard-response","89","128374","0.0-5.0-2.27","LF","o7w146d4yj","1920","1080","0","1","0","5f343de4d0c07630b7f90b92","","null","","","learningBlock1","","","","<div style=""font-size:60px;""> </div>","null","LF","learning/Slide28.JPG","This is a dep:","","",""
"html-keyboard-response","90","129376","0.0-5.0-0.28","LF","o7w146d4yj","1920","1080","0","1","0","5f343de4d0c07630b7f90b92","","null","","","learningBlock1","","","","This is a tob:","null","","","","","",""
"image-keyboard-response","91","129703","0.0-5.0-1.28","LF","o7w146d4yj","1920","1080","0","1","0","5f343de4d0c07630b7f90b92","","null","","","","","","","learning/Slide29.JPG","null","","","","","",""
"html-keyboard-response","92","130705","0.0-5.0-2.28","LF","o7w146d4yj","1920","1080","0","1","0","5f343de4d0c07630b7f90b92","","null","","","learningBlock1","","","","<div style=""font-size:60px;""> </div>","null","LF","learning/Slide29.JPG","This is a tob:","","",""
"html-keyboard-response","93","131707","0.0-5.0-0.29","LF","o7w146d4yj","1920","1080","0","1","0","5f343de4d0c07630b7f90b92","","null","","","learningBlock1","","","","This is a dep:","null","","","","","",""
"image-keyboard-response","94","132033","0.0-5.0-1.29","LF","o7w146d4yj","1920","1080","0","1","0","5f343de4d0c07630b7f90b92","","null","","","","","","","learning/Slide30.JPG","null","","","","","",""
"html-keyboard-response","95","133035","0.0-5.0-2.29","LF","o7w146d4yj","1920","1080","0","1","0","5f343de4d0c07630b7f90b92","","null","","","learningBlock1","","","","<div style=""font-size:60px;""> </div>","null","LF","learning/Slide30.JPG","This is a dep:","","",""
"html-keyboard-response","96","134036","0.0-5.0-0.30","LF","o7w146d4yj","1920","1080","0","1","0","5f343de4d0c07630b7f90b92","","null","","","learningBlock1","","","","This is a wug:","null","","","","","",""
"image-keyboard-response","97","134363","0.0-5.0-1.30","LF","o7w146d4yj","1920","1080","0","1","0","5f343de4d0c07630b7f90b92","","null","","","","","","","learning/Slide31.JPG","null","","","","","",""
"html-keyboard-response","98","135365","0.0-5.0-2.30","LF","o7w146d4yj","1920","1080","0","1","0","5f343de4d0c07630b7f90b92","","null","","","learningBlock1","","","","<div style=""font-size:60px;""> </div>","null","LF","learning/Slide31.JPG","This is a wug:","","",""
"html-keyboard-response","99","136366","0.0-5.0-0.31","LF","o7w146d4yj","1920","1080","0","1","0","5f343de4d0c07630b7f90b92","","null","","","learningBlock1","","","","This is a tob:","null","","","","","",""
"image-keyboard-response","100","136693","0.0-5.0-1.31","LF","o7w146d4yj","1920","1080","0","1","0","5f343de4d0c07630b7f90b92","","null","","","","","","","learning/Slide32.JPG","null","","","","","",""
"html-keyboard-response","101","137694","0.0-5.0-2.31","LF","o7w146d4yj","1920","1080","0","1","0","5f343de4d0c07630b7f90b92","","null","","","learningBlock1","","","","<div style=""font-size:60px;""> </div>","null","LF","learning/Slide32.JPG","This is a tob:","","",""
"html-keyboard-response","102","138696","0.0-5.0-0.32","LF","o7w146d4yj","1920","1080","0","1","0","5f343de4d0c07630b7f90b92","","null","","","learningBlock1","","","","This is a bim:","null","","","","","",""
"image-keyboard-response","103","139023","0.0-5.0-1.32","LF","o7w146d4yj","1920","1080","0","1","0","5f343de4d0c07630b7f90b92","","null","","","","","","","learning/Slide33.JPG","null","","","","","",""
"html-keyboard-response","104","140024","0.0-5.0-2.32","LF","o7w146d4yj","1920","1080","0","1","0","5f343de4d0c07630b7f90b92","","null","","","learningBlock1","","","","<div style=""font-size:60px;""> </div>","null","LF","learning/Slide33.JPG","This is a bim:","","",""
"html-keyboard-response","105","141025","0.0-5.0-0.33","LF","o7w146d4yj","1920","1080","0","1","0","5f343de4d0c07630b7f90b92","","null","","","learningBlock1","","","","This is a tob:","null","","","","","",""
"image-keyboard-response","106","141352","0.0-5.0-1.33","LF","o7w146d4yj","1920","1080","0","1","0","5f343de4d0c07630b7f90b92","","null","","","","","","","learning/Slide34.JPG","null","","","","","",""
"html-keyboard-response","107","142354","0.0-5.0-2.33","LF","o7w146d4yj","1920","1080","0","1","0","5f343de4d0c07630b7f90b92","","null","","","learningBlock1","","","","<div style=""font-size:60px;""> </div>","null","LF","learning/Slide34.JPG","This is a tob:","","",""
"html-keyboard-response","108","143355","0.0-5.0-0.34","LF","o7w146d4yj","1920","1080","0","1","0","5f343de4d0c07630b7f90b92","","null","","","learningBlock1","","","","This is a bim:","null","","","","","",""
"image-keyboard-response","109","143683","0.0-5.0-1.34","LF","o7w146d4yj","1920","1080","0","1","0","5f343de4d0c07630b7f90b92","","null","","","","","","","learning/Slide35.JPG","null","","","","","",""
"html-keyboard-response","110","144685","0.0-5.0-2.34","LF","o7w146d4yj","1920","1080","0","1","0","5f343de4d0c07630b7f90b92","","null","","","learningBlock1","","","","<div style=""font-size:60px;""> </div>","null","LF","learning/Slide35.JPG","This is a bim:","","",""
"html-keyboard-response","111","145686","0.0-5.0-0.35","LF","o7w146d4yj","1920","1080","0","1","0","5f343de4d0c07630b7f90b92","","null","","","learningBlock1","","","","This is a dep:","null","","","","","",""
"image-keyboard-response","112","146014","0.0-5.0-1.35","LF","o7w146d4yj","1920","1080","0","1","0","5f343de4d0c07630b7f90b92","","null","","","","","","","learning/Slide36.JPG","null","","","","","",""
"html-keyboard-response","113","147015","0.0-5.0-2.35","LF","o7w146d4yj","1920","1080","0","1","0","5f343de4d0c07630b7f90b92","","null","","","learningBlock1","","","","<div style=""font-size:60px;""> </div>","null","LF","learning/Slide36.JPG","This is a dep:","","",""
"html-keyboard-response","114","148016","0.0-5.0-0.36","LF","o7w146d4yj","1920","1080","0","1","0","5f343de4d0c07630b7f90b92","","null","","","learningBlock1","","","","This is a tob:","null","","","","","",""
"image-keyboard-response","115","148343","0.0-5.0-1.36","LF","o7w146d4yj","1920","1080","0","1","0","5f343de4d0c07630b7f90b92","","null","","","","","","","learning/Slide37.JPG","null","","","","","",""
"html-keyboard-response","116","149345","0.0-5.0-2.36","LF","o7w146d4yj","1920","1080","0","1","0","5f343de4d0c07630b7f90b92","","null","","","learningBlock1","","","","<div style=""font-size:60px;""> </div>","null","LF","learning/Slide37.JPG","This is a tob:","","",""
"html-keyboard-response","117","150346","0.0-5.0-0.37","LF","o7w146d4yj","1920","1080","0","1","0","5f343de4d0c07630b7f90b92","","null","","","learningBlock1","","","","This is a wug:","null","","","","","",""
"image-keyboard-response","118","150673","0.0-5.0-1.37","LF","o7w146d4yj","1920","1080","0","1","0","5f343de4d0c07630b7f90b92","","null","","","","","","","learning/Slide38.JPG","null","","","","","",""
"html-keyboard-response","119","151675","0.0-5.0-2.37","LF","o7w146d4yj","1920","1080","0","1","0","5f343de4d0c07630b7f90b92","","null","","","learningBlock1","","","","<div style=""font-size:60px;""> </div>","null","LF","learning/Slide38.JPG","This is a wug:","","",""
"html-keyboard-response","120","152677","0.0-5.0-0.38","LF","o7w146d4yj","1920","1080","0","1","0","5f343de4d0c07630b7f90b92","","null","","","learningBlock1","","","","This is a bim:","null","","","","","",""
"image-keyboard-response","121","153005","0.0-5.0-1.38","LF","o7w146d4yj","1920","1080","0","1","0","5f343de4d0c07630b7f90b92","","null","","","","","","","learning/Slide39.JPG","null","","","","","",""
"html-keyboard-response","122","154007","0.0-5.0-2.38","LF","o7w146d4yj","1920","1080","0","1","0","5f343de4d0c07630b7f90b92","","null","","","learningBlock1","","","","<div style=""font-size:60px;""> </div>","null","LF","learning/Slide39.JPG","This is a bim:","","",""
"html-keyboard-response","123","155008","0.0-5.0-0.39","LF","o7w146d4yj","1920","1080","0","1","0","5f343de4d0c07630b7f90b92","","null","","","learningBlock1","","","","This is a tob:","null","","","","","",""
"image-keyboard-response","124","155336","0.0-5.0-1.39","LF","o7w146d4yj","1920","1080","0","1","0","5f343de4d0c07630b7f90b92","","null","","","","","","","learning/Slide40.JPG","null","","","","","",""
"html-keyboard-response","125","156338","0.0-5.0-2.39","LF","o7w146d4yj","1920","1080","0","1","0","5f343de4d0c07630b7f90b92","","null","","","learningBlock1","","","","<div style=""font-size:60px;""> </div>","null","LF","learning/Slide40.JPG","This is a tob:","","",""
"html-keyboard-response","126","157339","0.0-5.0-0.40","LF","o7w146d4yj","1920","1080","0","1","0","5f343de4d0c07630b7f90b92","","null","","","learningBlock1","","","","This is a bim:","null","","","","","",""
"image-keyboard-response","127","157666","0.0-5.0-1.40","LF","o7w146d4yj","1920","1080","0","1","0","5f343de4d0c07630b7f90b92","","null","","","","","","","learning/Slide41.JPG","null","","","","","",""
"html-keyboard-response","128","158667","0.0-5.0-2.40","LF","o7w146d4yj","1920","1080","0","1","0","5f343de4d0c07630b7f90b92","","null","","","learningBlock1","","","","<div style=""font-size:60px;""> </div>","null","LF","learning/Slide41.JPG","This is a bim:","","",""
"html-keyboard-response","129","159668","0.0-5.0-0.41","LF","o7w146d4yj","1920","1080","0","1","0","5f343de4d0c07630b7f90b92","","null","","","learningBlock1","","","","This is a dep:","null","","","","","",""
"image-keyboard-response","130","159995","0.0-5.0-1.41","LF","o7w146d4yj","1920","1080","0","1","0","5f343de4d0c07630b7f90b92","","null","","","","","","","learning/Slide42.JPG","null","","","","","",""
"html-keyboard-response","131","160997","0.0-5.0-2.41","LF","o7w146d4yj","1920","1080","0","1","0","5f343de4d0c07630b7f90b92","","null","","","learningBlock1","","","","<div style=""font-size:60px;""> </div>","null","LF","learning/Slide42.JPG","This is a dep:","","",""
"html-keyboard-response","132","161998","0.0-5.0-0.42","LF","o7w146d4yj","1920","1080","0","1","0","5f343de4d0c07630b7f90b92","","null","","","learningBlock1","","","","This is a wug:","null","","","","","",""
"image-keyboard-response","133","162325","0.0-5.0-1.42","LF","o7w146d4yj","1920","1080","0","1","0","5f343de4d0c07630b7f90b92","","null","","","","","","","learning/Slide43.JPG","null","","","","","",""
"html-keyboard-response","134","163328","0.0-5.0-2.42","LF","o7w146d4yj","1920","1080","0","1","0","5f343de4d0c07630b7f90b92","","null","","","learningBlock1","","","","<div style=""font-size:60px;""> </div>","null","LF","learning/Slide43.JPG","This is a wug:","","",""
"html-keyboard-response","135","164329","0.0-5.0-0.43","LF","o7w146d4yj","1920","1080","0","1","0","5f343de4d0c07630b7f90b92","","null","","","learningBlock1","","","","This is a bim:","null","","","","","",""
"image-keyboard-response","136","164656","0.0-5.0-1.43","LF","o7w146d4yj","1920","1080","0","1","0","5f343de4d0c07630b7f90b92","","null","","","","","","","learning/Slide44.JPG","null","","","","","",""
"html-keyboard-response","137","165657","0.0-5.0-2.43","LF","o7w146d4yj","1920","1080","0","1","0","5f343de4d0c07630b7f90b92","","null","","","learningBlock1","","","","<div style=""font-size:60px;""> </div>","null","LF","learning/Slide44.JPG","This is a bim:","","",""
"html-keyboard-response","138","166659","0.0-5.0-0.44","LF","o7w146d4yj","1920","1080","0","1","0","5f343de4d0c07630b7f90b92","","null","","","learningBlock1","","","","This is a wug:","null","","","","","",""
"image-keyboard-response","139","166987","0.0-5.0-1.44","LF","o7w146d4yj","1920","1080","0","1","0","5f343de4d0c07630b7f90b92","","null","","","","","","","learning/Slide45.JPG","null","","","","","",""
"html-keyboard-response","140","167989","0.0-5.0-2.44","LF","o7w146d4yj","1920","1080","0","1","0","5f343de4d0c07630b7f90b92","","null","","","learningBlock1","","","","<div style=""font-size:60px;""> </div>","null","LF","learning/Slide45.JPG","This is a wug:","","",""
"html-keyboard-response","141","168990","0.0-5.0-0.45","LF","o7w146d4yj","1920","1080","0","1","0","5f343de4d0c07630b7f90b92","","null","","","learningBlock1","","","","This is a dep:","null","","","","","",""
"image-keyboard-response","142","169319","0.0-5.0-1.45","LF","o7w146d4yj","1920","1080","0","1","0","5f343de4d0c07630b7f90b92","","null","","","","","","","learning/Slide46.JPG","null","","","","","",""
"html-keyboard-response","143","170323","0.0-5.0-2.45","LF","o7w146d4yj","1920","1080","0","1","0","5f343de4d0c07630b7f90b92","","null","","","learningBlock1","","","","<div style=""font-size:60px;""> </div>","null","LF","learning/Slide46.JPG","This is a dep:","","",""
"html-keyboard-response","144","171325","0.0-5.0-0.46","LF","o7w146d4yj","1920","1080","0","1","0","5f343de4d0c07630b7f90b92","","null","","","learningBlock1","","","","This is a tob:","null","","","","","",""
"image-keyboard-response","145","171652","0.0-5.0-1.46","LF","o7w146d4yj","1920","1080","0","1","0","5f343de4d0c07630b7f90b92","","null","","","","","","","learning/Slide47.JPG","null","","","","","",""
"html-keyboard-response","146","172654","0.0-5.0-2.46","LF","o7w146d4yj","1920","1080","0","1","0","5f343de4d0c07630b7f90b92","","null","","","learningBlock1","","","","<div style=""font-size:60px;""> </div>","null","LF","learning/Slide47.JPG","This is a tob:","","",""
"html-keyboard-response","147","173656","0.0-5.0-0.47","LF","o7w146d4yj","1920","1080","0","1","0","5f343de4d0c07630b7f90b92","","null","","","learningBlock1","","","","This is a bim:","null","","","","","",""
"image-keyboard-response","148","173984","0.0-5.0-1.47","LF","o7w146d4yj","1920","1080","0","1","0","5f343de4d0c07630b7f90b92","","null","","","","","","","learning/Slide48.JPG","null","","","","","",""
"html-keyboard-response","149","174986","0.0-5.0-2.47","LF","o7w146d4yj","1920","1080","0","1","0","5f343de4d0c07630b7f90b92","","null","","","learningBlock1","","","","<div style=""font-size:60px;""> </div>","null","LF","learning/Slide48.JPG","This is a bim:","","",""
"html-keyboard-response","150","175988","0.0-5.0-0.48","LF","o7w146d4yj","1920","1080","0","1","0","5f343de4d0c07630b7f90b92","","null","","","learningBlock1","","","","This is a dep:","null","","","","","",""
"image-keyboard-response","151","176316","0.0-5.0-1.48","LF","o7w146d4yj","1920","1080","0","1","0","5f343de4d0c07630b7f90b92","","null","","","","","","","learning/Slide49.JPG","null","","","","","",""
"html-keyboard-response","152","177318","0.0-5.0-2.48","LF","o7w146d4yj","1920","1080","0","1","0","5f343de4d0c07630b7f90b92","","null","","","learningBlock1","","","","<div style=""font-size:60px;""> </div>","null","LF","learning/Slide49.JPG","This is a dep:","","",""
"html-keyboard-response","153","178319","0.0-5.0-0.49","LF","o7w146d4yj","1920","1080","0","1","0","5f343de4d0c07630b7f90b92","","null","","","learningBlock1","","","","This is a tob:","null","","","","","",""
"image-keyboard-response","154","178646","0.0-5.0-1.49","LF","o7w146d4yj","1920","1080","0","1","0","5f343de4d0c07630b7f90b92","","null","","","","","","","learning/Slide50.JPG","null","","","","","",""
"html-keyboard-response","155","179648","0.0-5.0-2.49","LF","o7w146d4yj","1920","1080","0","1","0","5f343de4d0c07630b7f90b92","","null","","","learningBlock1","","","","<div style=""font-size:60px;""> </div>","null","LF","learning/Slide50.JPG","This is a tob:","","",""
"html-keyboard-response","156","180649","0.0-5.0-0.50","LF","o7w146d4yj","1920","1080","0","1","0","5f343de4d0c07630b7f90b92","","null","","","learningBlock1","","","","This is a bim:","null","","","","","",""
"image-keyboard-response","157","180976","0.0-5.0-1.50","LF","o7w146d4yj","1920","1080","0","1","0","5f343de4d0c07630b7f90b92","","null","","","","","","","learning/Slide51.JPG","null","","","","","",""
"html-keyboard-response","158","181979","0.0-5.0-2.50","LF","o7w146d4yj","1920","1080","0","1","0","5f343de4d0c07630b7f90b92","","null","","","learningBlock1","","","","<div style=""font-size:60px;""> </div>","null","LF","learning/Slide51.JPG","This is a bim:","","",""
"html-keyboard-response","159","182980","0.0-5.0-0.51","LF","o7w146d4yj","1920","1080","0","1","0","5f343de4d0c07630b7f90b92","","null","","","learningBlock1","","","","This is a wug:","null","","","","","",""
"image-keyboard-response","160","183307","0.0-5.0-1.51","LF","o7w146d4yj","1920","1080","0","1","0","5f343de4d0c07630b7f90b92","","null","","","","","","","learning/Slide52.JPG","null","","","","","",""
"html-keyboard-response","161","184309","0.0-5.0-2.51","LF","o7w146d4yj","1920","1080","0","1","0","5f343de4d0c07630b7f90b92","","null","","","learningBlock1","","","","<div style=""font-size:60px;""> </div>","null","LF","learning/Slide52.JPG","This is a wug:","","",""
"html-keyboard-response","162","185311","0.0-5.0-0.52","LF","o7w146d4yj","1920","1080","0","1","0","5f343de4d0c07630b7f90b92","","null","","","learningBlock1","","","","This is a tob:","null","","","","","",""
"image-keyboard-response","163","185638","0.0-5.0-1.52","LF","o7w146d4yj","1920","1080","0","1","0","5f343de4d0c07630b7f90b92","","null","","","","","","","learning/Slide53.JPG","null","","","","","",""
"html-keyboard-response","164","186639","0.0-5.0-2.52","LF","o7w146d4yj","1920","1080","0","1","0","5f343de4d0c07630b7f90b92","","null","","","learningBlock1","","","","<div style=""font-size:60px;""> </div>","null","LF","learning/Slide53.JPG","This is a tob:","","",""
"html-keyboard-response","165","187640","0.0-5.0-0.53","LF","o7w146d4yj","1920","1080","0","1","0","5f343de4d0c07630b7f90b92","","null","","","learningBlock1","","","","This is a dep:","null","","","","","",""
"image-keyboard-response","166","187967","0.0-5.0-1.53","LF","o7w146d4yj","1920","1080","0","1","0","5f343de4d0c07630b7f90b92","","null","","","","","","","learning/Slide54.JPG","null","","","","","",""
"html-keyboard-response","167","188969","0.0-5.0-2.53","LF","o7w146d4yj","1920","1080","0","1","0","5f343de4d0c07630b7f90b92","","null","","","learningBlock1","","","","<div style=""font-size:60px;""> </div>","null","LF","learning/Slide54.JPG","This is a dep:","","",""
"html-keyboard-response","168","189970","0.0-5.0-0.54","LF","o7w146d4yj","1920","1080","0","1","0","5f343de4d0c07630b7f90b92","","null","","","learningBlock1","","","","This is a bim:","null","","","","","",""
"image-keyboard-response","169","190298","0.0-5.0-1.54","LF","o7w146d4yj","1920","1080","0","1","0","5f343de4d0c07630b7f90b92","","null","","","","","","","learning/Slide55.JPG","null","","","","","",""
"html-keyboard-response","170","191299","0.0-5.0-2.54","LF","o7w146d4yj","1920","1080","0","1","0","5f343de4d0c07630b7f90b92","","null","","","learningBlock1","","","","<div style=""font-size:60px;""> </div>","null","LF","learning/Slide55.JPG","This is a bim:","","",""
"html-keyboard-response","171","192301","0.0-5.0-0.55","LF","o7w146d4yj","1920","1080","0","1","0","5f343de4d0c07630b7f90b92","","null","","","learningBlock1","","","","This is a tob:","null","","","","","",""
"image-keyboard-response","172","192633","0.0-5.0-1.55","LF","o7w146d4yj","1920","1080","0","1","0","5f343de4d0c07630b7f90b92","","null","","","","","","","learning/Slide56.JPG","null","","","","","",""
"html-keyboard-response","173","193635","0.0-5.0-2.55","LF","o7w146d4yj","1920","1080","0","1","0","5f343de4d0c07630b7f90b92","","null","","","learningBlock1","","","","<div style=""font-size:60px;""> </div>","null","LF","learning/Slide56.JPG","This is a tob:","","",""
"html-keyboard-response","174","194637","0.0-5.0-0.56","LF","o7w146d4yj","1920","1080","0","1","0","5f343de4d0c07630b7f90b92","","null","","","learningBlock1","","","","This is a dep:","null","","","","","",""
"image-keyboard-response","175","194964","0.0-5.0-1.56","LF","o7w146d4yj","1920","1080","0","1","0","5f343de4d0c07630b7f90b92","","null","","","","","","","learning/Slide57.JPG","null","","","","","",""
"html-keyboard-response","176","195967","0.0-5.0-2.56","LF","o7w146d4yj","1920","1080","0","1","0","5f343de4d0c07630b7f90b92","","null","","","learningBlock1","","","","<div style=""font-size:60px;""> </div>","null","LF","learning/Slide57.JPG","This is a dep:","","",""
"html-keyboard-response","177","196968","0.0-5.0-0.57","LF","o7w146d4yj","1920","1080","0","1","0","5f343de4d0c07630b7f90b92","","null","","","learningBlock1","","","","This is a wug:","null","","","","","",""
"image-keyboard-response","178","197295","0.0-5.0-1.57","LF","o7w146d4yj","1920","1080","0","1","0","5f343de4d0c07630b7f90b92","","null","","","","","","","learning/Slide58.JPG","null","","","","","",""
"html-keyboard-response","179","198297","0.0-5.0-2.57","LF","o7w146d4yj","1920","1080","0","1","0","5f343de4d0c07630b7f90b92","","null","","","learningBlock1","","","","<div style=""font-size:60px;""> </div>","null","LF","learning/Slide58.JPG","This is a wug:","","",""
"html-keyboard-response","180","199300","0.0-5.0-0.58","LF","o7w146d4yj","1920","1080","0","1","0","5f343de4d0c07630b7f90b92","","null","","","learningBlock1","","","","This is a dep:","null","","","","","",""
"image-keyboard-response","181","199628","0.0-5.0-1.58","LF","o7w146d4yj","1920","1080","0","1","0","5f343de4d0c07630b7f90b92","","null","","","","","","","learning/Slide59.JPG","null","","","","","",""
"html-keyboard-response","182","200630","0.0-5.0-2.58","LF","o7w146d4yj","1920","1080","0","1","0","5f343de4d0c07630b7f90b92","","null","","","learningBlock1","","","","<div style=""font-size:60px;""> </div>","null","LF","learning/Slide59.JPG","This is a dep:","","",""
"html-keyboard-response","183","201631","0.0-5.0-0.59","LF","o7w146d4yj","1920","1080","0","1","0","5f343de4d0c07630b7f90b92","","null","","","learningBlock1","","","","This is a wug:","null","","","","","",""
"image-keyboard-response","184","201958","0.0-5.0-1.59","LF","o7w146d4yj","1920","1080","0","1","0","5f343de4d0c07630b7f90b92","","null","","","","","","","learning/Slide60.JPG","null","","","","","",""
"html-keyboard-response","185","202959","0.0-5.0-2.59","LF","o7w146d4yj","1920","1080","0","1","0","5f343de4d0c07630b7f90b92","","null","","","learningBlock1","","","","<div style=""font-size:60px;""> </div>","null","LF","learning/Slide60.JPG","This is a wug:","","",""
"html-keyboard-response","186","203960","0.0-5.0-0.60","LF","o7w146d4yj","1920","1080","0","1","0","5f343de4d0c07630b7f90b92","","null","","","learningBlock1","","","","This is a bim:","null","","","","","",""
"image-keyboard-response","187","204287","0.0-5.0-1.60","LF","o7w146d4yj","1920","1080","0","1","0","5f343de4d0c07630b7f90b92","","null","","","","","","","learning/Slide61.JPG","null","","","","","",""
"html-keyboard-response","188","205289","0.0-5.0-2.60","LF","o7w146d4yj","1920","1080","0","1","0","5f343de4d0c07630b7f90b92","","null","","","learningBlock1","","","","<div style=""font-size:60px;""> </div>","null","LF","learning/Slide61.JPG","This is a bim:","","",""
"html-keyboard-response","189","206291","0.0-5.0-0.61","LF","o7w146d4yj","1920","1080","0","1","0","5f343de4d0c07630b7f90b92","","null","","","learningBlock1","","","","This is a dep:","null","","","","","",""
"image-keyboard-response","190","206618","0.0-5.0-1.61","LF","o7w146d4yj","1920","1080","0","1","0","5f343de4d0c07630b7f90b92","","null","","","","","","","learning/Slide62.JPG","null","","","","","",""
"html-keyboard-response","191","207619","0.0-5.0-2.61","LF","o7w146d4yj","1920","1080","0","1","0","5f343de4d0c07630b7f90b92","","null","","","learningBlock1","","","","<div style=""font-size:60px;""> </div>","null","LF","learning/Slide62.JPG","This is a dep:","","",""
"html-keyboard-response","192","208621","0.0-5.0-0.62","LF","o7w146d4yj","1920","1080","0","1","0","5f343de4d0c07630b7f90b92","","null","","","learningBlock1","","","","This is a bim:","null","","","","","",""
"image-keyboard-response","193","208948","0.0-5.0-1.62","LF","o7w146d4yj","1920","1080","0","1","0","5f343de4d0c07630b7f90b92","","null","","","","","","","learning/Slide63.JPG","null","","","","","",""
"html-keyboard-response","194","209949","0.0-5.0-2.62","LF","o7w146d4yj","1920","1080","0","1","0","5f343de4d0c07630b7f90b92","","null","","","learningBlock1","","","","<div style=""font-size:60px;""> </div>","null","LF","learning/Slide63.JPG","This is a bim:","","",""
"html-keyboard-response","195","210950","0.0-5.0-0.63","LF","o7w146d4yj","1920","1080","0","1","0","5f343de4d0c07630b7f90b92","","null","","","learningBlock1","","","","This is a tob:","null","","","","","",""
"image-keyboard-response","196","211277","0.0-5.0-1.63","LF","o7w146d4yj","1920","1080","0","1","0","5f343de4d0c07630b7f90b92","","null","","","","","","","learning/Slide64.JPG","null","","","","","",""
"html-keyboard-response","197","212278","0.0-5.0-2.63","LF","o7w146d4yj","1920","1080","0","1","0","5f343de4d0c07630b7f90b92","","null","","","learningBlock1","","","","<div style=""font-size:60px;""> </div>","null","LF","learning/Slide64.JPG","This is a tob:","","",""
"html-keyboard-response","198","213280","0.0-5.0-0.64","LF","o7w146d4yj","1920","1080","0","1","0","5f343de4d0c07630b7f90b92","","null","","","learningBlock1","","","","This is a wug:","null","","","","","",""
"image-keyboard-response","199","213607","0.0-5.0-1.64","LF","o7w146d4yj","1920","1080","0","1","0","5f343de4d0c07630b7f90b92","","null","","","","","","","learning/Slide65.JPG","null","","","","","",""
"html-keyboard-response","200","214608","0.0-5.0-2.64","LF","o7w146d4yj","1920","1080","0","1","0","5f343de4d0c07630b7f90b92","","null","","","learningBlock1","","","","<div style=""font-size:60px;""> </div>","null","LF","learning/Slide65.JPG","This is a wug:","","",""
"html-keyboard-response","201","215610","0.0-5.0-0.65","LF","o7w146d4yj","1920","1080","0","1","0","5f343de4d0c07630b7f90b92","","null","","","learningBlock1","","","","This is a dep:","null","","","","","",""
"image-keyboard-response","202","215937","0.0-5.0-1.65","LF","o7w146d4yj","1920","1080","0","1","0","5f343de4d0c07630b7f90b92","","null","","","","","","","learning/Slide66.JPG","null","","","","","",""
"html-keyboard-response","203","216938","0.0-5.0-2.65","LF","o7w146d4yj","1920","1080","0","1","0","5f343de4d0c07630b7f90b92","","null","","","learningBlock1","","","","<div style=""font-size:60px;""> </div>","null","LF","learning/Slide66.JPG","This is a dep:","","",""
"html-keyboard-response","204","217939","0.0-5.0-0.66","LF","o7w146d4yj","1920","1080","0","1","0","5f343de4d0c07630b7f90b92","","null","","","learningBlock1","","","","This is a tob:","null","","","","","",""
"image-keyboard-response","205","218268","0.0-5.0-1.66","LF","o7w146d4yj","1920","1080","0","1","0","5f343de4d0c07630b7f90b92","","null","","","","","","","learning/Slide67.JPG","null","","","","","",""
"html-keyboard-response","206","219272","0.0-5.0-2.66","LF","o7w146d4yj","1920","1080","0","1","0","5f343de4d0c07630b7f90b92","","null","","","learningBlock1","","","","<div style=""font-size:60px;""> </div>","null","LF","learning/Slide67.JPG","This is a tob:","","",""
"html-keyboard-response","207","220274","0.0-5.0-0.67","LF","o7w146d4yj","1920","1080","0","1","0","5f343de4d0c07630b7f90b92","","null","","","learningBlock1","","","","This is a wug:","null","","","","","",""
"image-keyboard-response","208","220604","0.0-5.0-1.67","LF","o7w146d4yj","1920","1080","0","1","0","5f343de4d0c07630b7f90b92","","null","","","","","","","learning/Slide68.JPG","null","","","","","",""
"html-keyboard-response","209","221606","0.0-5.0-2.67","LF","o7w146d4yj","1920","1080","0","1","0","5f343de4d0c07630b7f90b92","","null","","","learningBlock1","","","","<div style=""font-size:60px;""> </div>","null","LF","learning/Slide68.JPG","This is a wug:","","",""
"html-keyboard-response","210","222608","0.0-5.0-0.68","LF","o7w146d4yj","1920","1080","0","1","0","5f343de4d0c07630b7f90b92","","null","","","learningBlock1","","","","This is a tob:","null","","","","","",""
"image-keyboard-response","211","222936","0.0-5.0-1.68","LF","o7w146d4yj","1920","1080","0","1","0","5f343de4d0c07630b7f90b92","","null","","","","","","","learning/Slide69.JPG","null","","","","","",""
"html-keyboard-response","212","223937","0.0-5.0-2.68","LF","o7w146d4yj","1920","1080","0","1","0","5f343de4d0c07630b7f90b92","","null","","","learningBlock1","","","","<div style=""font-size:60px;""> </div>","null","LF","learning/Slide69.JPG","This is a tob:","","",""
"html-keyboard-response","213","224938","0.0-5.0-0.69","LF","o7w146d4yj","1920","1080","0","1","0","5f343de4d0c07630b7f90b92","","null","","","learningBlock1","","","","This is a dep:","null","","","","","",""
"image-keyboard-response","214","225265","0.0-5.0-1.69","LF","o7w146d4yj","1920","1080","0","1","0","5f343de4d0c07630b7f90b92","","null","","","","","","","learning/Slide70.JPG","null","","","","","",""
"html-keyboard-response","215","226266","0.0-5.0-2.69","LF","o7w146d4yj","1920","1080","0","1","0","5f343de4d0c07630b7f90b92","","null","","","learningBlock1","","","","<div style=""font-size:60px;""> </div>","null","LF","learning/Slide70.JPG","This is a dep:","","",""
"html-keyboard-response","216","227267","0.0-5.0-0.70","LF","o7w146d4yj","1920","1080","0","1","0","5f343de4d0c07630b7f90b92","","null","","","learningBlock1","","","","This is a wug:","null","","","","","",""
"image-keyboard-response","217","227594","0.0-5.0-1.70","LF","o7w146d4yj","1920","1080","0","1","0","5f343de4d0c07630b7f90b92","","null","","","","","","","learning/Slide71.JPG","null","","","","","",""
"html-keyboard-response","218","228597","0.0-5.0-2.70","LF","o7w146d4yj","1920","1080","0","1","0","5f343de4d0c07630b7f90b92","","null","","","learningBlock1","","","","<div style=""font-size:60px;""> </div>","null","LF","learning/Slide71.JPG","This is a wug:","","",""
"html-keyboard-response","219","229598","0.0-5.0-0.71","LF","o7w146d4yj","1920","1080","0","1","0","5f343de4d0c07630b7f90b92","","null","","","learningBlock1","","","","This is a bim:","null","","","","","",""
"image-keyboard-response","220","229926","0.0-5.0-1.71","LF","o7w146d4yj","1920","1080","0","1","0","5f343de4d0c07630b7f90b92","","null","","","","","","","learning/Slide72.JPG","null","","","","","",""
"html-keyboard-response","221","230932","0.0-5.0-2.71","LF","o7w146d4yj","1920","1080","0","1","0","5f343de4d0c07630b7f90b92","","null","","","learningBlock1","","","","<div style=""font-size:60px;""> </div>","null","LF","learning/Slide72.JPG","This is a bim:","","",""
"html-keyboard-response","222","231933","0.0-5.0-0.72","LF","o7w146d4yj","1920","1080","0","1","0","5f343de4d0c07630b7f90b92","","null","","","learningBlock1","","","","This is a wug:","null","","","","","",""
"image-keyboard-response","223","232260","0.0-5.0-1.72","LF","o7w146d4yj","1920","1080","0","1","0","5f343de4d0c07630b7f90b92","","null","","","","","","","learning/Slide73.JPG","null","","","","","",""
"html-keyboard-response","224","233261","0.0-5.0-2.72","LF","o7w146d4yj","1920","1080","0","1","0","5f343de4d0c07630b7f90b92","","null","","","learningBlock1","","","","<div style=""font-size:60px;""> </div>","null","LF","learning/Slide73.JPG","This is a wug:","","",""
"html-keyboard-response","225","234263","0.0-5.0-0.73","LF","o7w146d4yj","1920","1080","0","1","0","5f343de4d0c07630b7f90b92","","null","","","learningBlock1","","","","This is a dep:","null","","","","","",""
"image-keyboard-response","226","234591","0.0-5.0-1.73","LF","o7w146d4yj","1920","1080","0","1","0","5f343de4d0c07630b7f90b92","","null","","","","","","","learning/Slide74.JPG","null","","","","","",""
"html-keyboard-response","227","235593","0.0-5.0-2.73","LF","o7w146d4yj","1920","1080","0","1","0","5f343de4d0c07630b7f90b92","","null","","","learningBlock1","","","","<div style=""font-size:60px;""> </div>","null","LF","learning/Slide74.JPG","This is a dep:","","",""
"html-keyboard-response","228","236594","0.0-5.0-0.74","LF","o7w146d4yj","1920","1080","0","1","0","5f343de4d0c07630b7f90b92","","null","","","learningBlock1","","","","This is a tob:","null","","","","","",""
"image-keyboard-response","229","236921","0.0-5.0-1.74","LF","o7w146d4yj","1920","1080","0","1","0","5f343de4d0c07630b7f90b92","","null","","","","","","","learning/Slide75.JPG","null","","","","","",""
"html-keyboard-response","230","237922","0.0-5.0-2.74","LF","o7w146d4yj","1920","1080","0","1","0","5f343de4d0c07630b7f90b92","","null","","","learningBlock1","","","","<div style=""font-size:60px;""> </div>","null","LF","learning/Slide75.JPG","This is a tob:","","",""
"html-keyboard-response","231","238923","0.0-5.0-0.75","LF","o7w146d4yj","1920","1080","0","1","0","5f343de4d0c07630b7f90b92","","null","","","learningBlock1","","","","This is a bim:","null","","","","","",""
"image-keyboard-response","232","239252","0.0-5.0-1.75","LF","o7w146d4yj","1920","1080","0","1","0","5f343de4d0c07630b7f90b92","","null","","","","","","","learning/Slide76.JPG","null","","","","","",""
"html-keyboard-response","233","240254","0.0-5.0-2.75","LF","o7w146d4yj","1920","1080","0","1","0","5f343de4d0c07630b7f90b92","","null","","","learningBlock1","","","","<div style=""font-size:60px;""> </div>","null","LF","learning/Slide76.JPG","This is a bim:","","",""
"html-keyboard-response","234","241255","0.0-5.0-0.76","LF","o7w146d4yj","1920","1080","0","1","0","5f343de4d0c07630b7f90b92","","null","","","learningBlock1","","","","This is a tob:","null","","","","","",""
"image-keyboard-response","235","241582","0.0-5.0-1.76","LF","o7w146d4yj","1920","1080","0","1","0","5f343de4d0c07630b7f90b92","","null","","","","","","","learning/Slide77.JPG","null","","","","","",""
"html-keyboard-response","236","242584","0.0-5.0-2.76","LF","o7w146d4yj","1920","1080","0","1","0","5f343de4d0c07630b7f90b92","","null","","","learningBlock1","","","","<div style=""font-size:60px;""> </div>","null","LF","learning/Slide77.JPG","This is a tob:","","",""
"html-keyboard-response","237","243585","0.0-5.0-0.77","LF","o7w146d4yj","1920","1080","0","1","0","5f343de4d0c07630b7f90b92","","null","","","learningBlock1","","","","This is a wug:","null","","","","","",""
"image-keyboard-response","238","243913","0.0-5.0-1.77","LF","o7w146d4yj","1920","1080","0","1","0","5f343de4d0c07630b7f90b92","","null","","","","","","","learning/Slide78.JPG","null","","","","","",""
"html-keyboard-response","239","244915","0.0-5.0-2.77","LF","o7w146d4yj","1920","1080","0","1","0","5f343de4d0c07630b7f90b92","","null","","","learningBlock1","","","","<div style=""font-size:60px;""> </div>","null","LF","learning/Slide78.JPG","This is a wug:","","",""
"html-keyboard-response","240","245917","0.0-5.0-0.78","LF","o7w146d4yj","1920","1080","0","1","0","5f343de4d0c07630b7f90b92","","null","","","learningBlock1","","","","This is a bim:","null","","","","","",""
"image-keyboard-response","241","246245","0.0-5.0-1.78","LF","o7w146d4yj","1920","1080","0","1","0","5f343de4d0c07630b7f90b92","","null","","","","","","","learning/Slide79.JPG","null","","","","","",""
"html-keyboard-response","242","247247","0.0-5.0-2.78","LF","o7w146d4yj","1920","1080","0","1","0","5f343de4d0c07630b7f90b92","","null","","","learningBlock1","","","","<div style=""font-size:60px;""> </div>","null","LF","learning/Slide79.JPG","This is a bim:","","",""
"html-keyboard-response","243","248249","0.0-5.0-0.79","LF","o7w146d4yj","1920","1080","0","1","0","5f343de4d0c07630b7f90b92","","null","","","learningBlock1","","","","This is a tob:","null","","","","","",""
"image-keyboard-response","244","248575","0.0-5.0-1.79","LF","o7w146d4yj","1920","1080","0","1","0","5f343de4d0c07630b7f90b92","","null","","","","","","","learning/Slide80.JPG","null","","","","","",""
"html-keyboard-response","245","249578","0.0-5.0-2.79","LF","o7w146d4yj","1920","1080","0","1","0","5f343de4d0c07630b7f90b92","","null","","","learningBlock1","","","","<div style=""font-size:60px;""> </div>","null","LF","learning/Slide80.JPG","This is a tob:","","",""
"instructions","246","251838","0.0-6.0","LF","o7w146d4yj","1920","1080","0","1","0","5f343de4d0c07630b7f90b92","","NA","","[{""page_index"":0,""viewing_time"":2259.12000000244}]","instructions","","","","","","","","","","",""
"html-keyboard-response","247","252841","0.0-7.0-0.0","LF","o7w146d4yj","1920","1080","0","1","0","5f343de4d0c07630b7f90b92","","null","","","learningBlock2","","","","This is a wug:","null","","","","","",""
"image-keyboard-response","248","253170","0.0-7.0-1.0","LF","o7w146d4yj","1920","1080","0","1","0","5f343de4d0c07630b7f90b92","","null","","","","","","","learning/Slide81.JPG","null","","","","","",""
"html-keyboard-response","249","254171","0.0-7.0-2.0","LF","o7w146d4yj","1920","1080","0","1","0","5f343de4d0c07630b7f90b92","","null","","","learningBlock2","","","","<div style=""font-size:60px;""> </div>","null","LF","learning/Slide81.JPG","This is a wug:","","",""
"html-keyboard-response","250","255173","0.0-7.0-0.1","LF","o7w146d4yj","1920","1080","0","1","0","5f343de4d0c07630b7f90b92","","null","","","learningBlock2","","","","This is a bim:","null","","","","","",""
"image-keyboard-response","251","255501","0.0-7.0-1.1","LF","o7w146d4yj","1920","1080","0","1","0","5f343de4d0c07630b7f90b92","","null","","","","","","","learning/Slide82.JPG","null","","","","","",""
"html-keyboard-response","252","256502","0.0-7.0-2.1","LF","o7w146d4yj","1920","1080","0","1","0","5f343de4d0c07630b7f90b92","","null","","","learningBlock2","","","","<div style=""font-size:60px;""> </div>","null","LF","learning/Slide82.JPG","This is a bim:","","",""
"html-keyboard-response","253","257503","0.0-7.0-0.2","LF","o7w146d4yj","1920","1080","0","1","0","5f343de4d0c07630b7f90b92","","null","","","learningBlock2","","","","This is a wug:","null","","","","","",""
"image-keyboard-response","254","257830","0.0-7.0-1.2","LF","o7w146d4yj","1920","1080","0","1","0","5f343de4d0c07630b7f90b92","","null","","","","","","","learning/Slide83.JPG","null","","","","","",""
"html-keyboard-response","255","258832","0.0-7.0-2.2","LF","o7w146d4yj","1920","1080","0","1","0","5f343de4d0c07630b7f90b92","","null","","","learningBlock2","","","","<div style=""font-size:60px;""> </div>","null","LF","learning/Slide83.JPG","This is a wug:","","",""
"html-keyboard-response","256","259833","0.0-7.0-0.3","LF","o7w146d4yj","1920","1080","0","1","0","5f343de4d0c07630b7f90b92","","null","","","learningBlock2","","","","This is a dep:","null","","","","","",""
"image-keyboard-response","257","260160","0.0-7.0-1.3","LF","o7w146d4yj","1920","1080","0","1","0","5f343de4d0c07630b7f90b92","","null","","","","","","","learning/Slide84.JPG","null","","","","","",""
"html-keyboard-response","258","261161","0.0-7.0-2.3","LF","o7w146d4yj","1920","1080","0","1","0","5f343de4d0c07630b7f90b92","","null","","","learningBlock2","","","","<div style=""font-size:60px;""> </div>","null","LF","learning/Slide84.JPG","This is a dep:","","",""
"html-keyboard-response","259","262162","0.0-7.0-0.4","LF","o7w146d4yj","1920","1080","0","1","0","5f343de4d0c07630b7f90b92","","null","","","learningBlock2","","","","This is a bim:","null","","","","","",""
"image-keyboard-response","260","262489","0.0-7.0-1.4","LF","o7w146d4yj","1920","1080","0","1","0","5f343de4d0c07630b7f90b92","","null","","","","","","","learning/Slide85.JPG","null","","","","","",""
"html-keyboard-response","261","263491","0.0-7.0-2.4","LF","o7w146d4yj","1920","1080","0","1","0","5f343de4d0c07630b7f90b92","","null","","","learningBlock2","","","","<div style=""font-size:60px;""> </div>","null","LF","learning/Slide85.JPG","This is a bim:","","",""
"html-keyboard-response","262","264492","0.0-7.0-0.5","LF","o7w146d4yj","1920","1080","0","1","0","5f343de4d0c07630b7f90b92","","null","","","learningBlock2","","","","This is a tob:","null","","","","","",""
"image-keyboard-response","263","264819","0.0-7.0-1.5","LF","o7w146d4yj","1920","1080","0","1","0","5f343de4d0c07630b7f90b92","","null","","","","","","","learning/Slide86.JPG","null","","","","","",""
"html-keyboard-response","264","265822","0.0-7.0-2.5","LF","o7w146d4yj","1920","1080","0","1","0","5f343de4d0c07630b7f90b92","","null","","","learningBlock2","","","","<div style=""font-size:60px;""> </div>","null","LF","learning/Slide86.JPG","This is a tob:","","",""
"html-keyboard-response","265","266823","0.0-7.0-0.6","LF","o7w146d4yj","1920","1080","0","1","0","5f343de4d0c07630b7f90b92","","null","","","learningBlock2","","","","This is a wug:","null","","","","","",""
"image-keyboard-response","266","267150","0.0-7.0-1.6","LF","o7w146d4yj","1920","1080","0","1","0","5f343de4d0c07630b7f90b92","","null","","","","","","","learning/Slide87.JPG","null","","","","","",""
"html-keyboard-response","267","268153","0.0-7.0-2.6","LF","o7w146d4yj","1920","1080","0","1","0","5f343de4d0c07630b7f90b92","","null","","","learningBlock2","","","","<div style=""font-size:60px;""> </div>","null","LF","learning/Slide87.JPG","This is a wug:","","",""
"html-keyboard-response","268","269154","0.0-7.0-0.7","LF","o7w146d4yj","1920","1080","0","1","0","5f343de4d0c07630b7f90b92","","null","","","learningBlock2","","","","This is a tob:","null","","","","","",""
"image-keyboard-response","269","269481","0.0-7.0-1.7","LF","o7w146d4yj","1920","1080","0","1","0","5f343de4d0c07630b7f90b92","","null","","","","","","","learning/Slide88.JPG","null","","","","","",""
"html-keyboard-response","270","270483","0.0-7.0-2.7","LF","o7w146d4yj","1920","1080","0","1","0","5f343de4d0c07630b7f90b92","","null","","","learningBlock2","","","","<div style=""font-size:60px;""> </div>","null","LF","learning/Slide88.JPG","This is a tob:","","",""
"html-keyboard-response","271","271485","0.0-7.0-0.8","LF","o7w146d4yj","1920","1080","0","1","0","5f343de4d0c07630b7f90b92","","null","","","learningBlock2","","","","This is a bim:","null","","","","","",""
"image-keyboard-response","272","271811","0.0-7.0-1.8","LF","o7w146d4yj","1920","1080","0","1","0","5f343de4d0c07630b7f90b92","","null","","","","","","","learning/Slide89.JPG","null","","","","","",""
"html-keyboard-response","273","272812","0.0-7.0-2.8","LF","o7w146d4yj","1920","1080","0","1","0","5f343de4d0c07630b7f90b92","","null","","","learningBlock2","","","","<div style=""font-size:60px;""> </div>","null","LF","learning/Slide89.JPG","This is a bim:","","",""
"html-keyboard-response","274","273814","0.0-7.0-0.9","LF","o7w146d4yj","1920","1080","0","1","0","5f343de4d0c07630b7f90b92","","null","","","learningBlock2","","","","This is a dep:","null","","","","","",""
"image-keyboard-response","275","274141","0.0-7.0-1.9","LF","o7w146d4yj","1920","1080","0","1","0","5f343de4d0c07630b7f90b92","","null","","","","","","","learning/Slide90.JPG","null","","","","","",""
"html-keyboard-response","276","275143","0.0-7.0-2.9","LF","o7w146d4yj","1920","1080","0","1","0","5f343de4d0c07630b7f90b92","","null","","","learningBlock2","","","","<div style=""font-size:60px;""> </div>","null","LF","learning/Slide90.JPG","This is a dep:","","",""
"html-keyboard-response","277","276144","0.0-7.0-0.10","LF","o7w146d4yj","1920","1080","0","1","0","5f343de4d0c07630b7f90b92","","null","","","learningBlock2","","","","This is a wug:","null","","","","","",""
"image-keyboard-response","278","276471","0.0-7.0-1.10","LF","o7w146d4yj","1920","1080","0","1","0","5f343de4d0c07630b7f90b92","","null","","","","","","","learning/Slide91.JPG","null","","","","","",""
"html-keyboard-response","279","277472","0.0-7.0-2.10","LF","o7w146d4yj","1920","1080","0","1","0","5f343de4d0c07630b7f90b92","","null","","","learningBlock2","","","","<div style=""font-size:60px;""> </div>","null","LF","learning/Slide91.JPG","This is a wug:","","",""
"html-keyboard-response","280","278474","0.0-7.0-0.11","LF","o7w146d4yj","1920","1080","0","1","0","5f343de4d0c07630b7f90b92","","null","","","learningBlock2","","","","This is a tob:","null","","","","","",""
"image-keyboard-response","281","278801","0.0-7.0-1.11","LF","o7w146d4yj","1920","1080","0","1","0","5f343de4d0c07630b7f90b92","","null","","","","","","","learning/Slide92.JPG","null","","","","","",""
"html-keyboard-response","282","279803","0.0-7.0-2.11","LF","o7w146d4yj","1920","1080","0","1","0","5f343de4d0c07630b7f90b92","","null","","","learningBlock2","","","","<div style=""font-size:60px;""> </div>","null","LF","learning/Slide92.JPG","This is a tob:","","",""
"html-keyboard-response","283","280804","0.0-7.0-0.12","LF","o7w146d4yj","1920","1080","0","1","0","5f343de4d0c07630b7f90b92","","null","","","learningBlock2","","","","This is a bim:","null","","","","","",""
"image-keyboard-response","284","281131","0.0-7.0-1.12","LF","o7w146d4yj","1920","1080","0","1","0","5f343de4d0c07630b7f90b92","","null","","","","","","","learning/Slide93.JPG","null","","","","","",""
"html-keyboard-response","285","282133","0.0-7.0-2.12","LF","o7w146d4yj","1920","1080","0","1","0","5f343de4d0c07630b7f90b92","","null","","","learningBlock2","","","","<div style=""font-size:60px;""> </div>","null","LF","learning/Slide93.JPG","This is a bim:","","",""
"html-keyboard-response","286","283134","0.0-7.0-0.13","LF","o7w146d4yj","1920","1080","0","1","0","5f343de4d0c07630b7f90b92","","null","","","learningBlock2","","","","This is a tob:","null","","","","","",""
"image-keyboard-response","287","283462","0.0-7.0-1.13","LF","o7w146d4yj","1920","1080","0","1","0","5f343de4d0c07630b7f90b92","","null","","","","","","","learning/Slide94.JPG","null","","","","","",""
"html-keyboard-response","288","284464","0.0-7.0-2.13","LF","o7w146d4yj","1920","1080","0","1","0","5f343de4d0c07630b7f90b92","","null","","","learningBlock2","","","","<div style=""font-size:60px;""> </div>","null","LF","learning/Slide94.JPG","This is a tob:","","",""
"html-keyboard-response","289","285465","0.0-7.0-0.14","LF","o7w146d4yj","1920","1080","0","1","0","5f343de4d0c07630b7f90b92","","null","","","learningBlock2","","","","This is a wug:","null","","","","","",""
"image-keyboard-response","290","285793","0.0-7.0-1.14","LF","o7w146d4yj","1920","1080","0","1","0","5f343de4d0c07630b7f90b92","","null","","","","","","","learning/Slide95.JPG","null","","","","","",""
"html-keyboard-response","291","286847","0.0-7.0-2.14","LF","o7w146d4yj","1920","1080","0","1","0","5f343de4d0c07630b7f90b92","","null","","","learningBlock2","","","","<div style=""font-size:60px;""> </div>","null","LF","learning/Slide95.JPG","This is a wug:","","",""
"html-keyboard-response","292","287848","0.0-7.0-0.15","LF","o7w146d4yj","1920","1080","0","1","0","5f343de4d0c07630b7f90b92","","null","","","learningBlock2","","","","This is a tob:","null","","","","","",""
"image-keyboard-response","293","288176","0.0-7.0-1.15","LF","o7w146d4yj","1920","1080","0","1","0","5f343de4d0c07630b7f90b92","","null","","","","","","","learning/Slide96.JPG","null","","","","","",""
"html-keyboard-response","294","289178","0.0-7.0-2.15","LF","o7w146d4yj","1920","1080","0","1","0","5f343de4d0c07630b7f90b92","","null","","","learningBlock2","","","","<div style=""font-size:60px;""> </div>","null","LF","learning/Slide96.JPG","This is a tob:","","",""
"html-keyboard-response","295","290179","0.0-7.0-0.16","LF","o7w146d4yj","1920","1080","0","1","0","5f343de4d0c07630b7f90b92","","null","","","learningBlock2","","","","This is a dep:","null","","","","","",""
"image-keyboard-response","296","290508","0.0-7.0-1.16","LF","o7w146d4yj","1920","1080","0","1","0","5f343de4d0c07630b7f90b92","","null","","","","","","","learning/Slide97.JPG","null","","","","","",""
"html-keyboard-response","297","291514","0.0-7.0-2.16","LF","o7w146d4yj","1920","1080","0","1","0","5f343de4d0c07630b7f90b92","","null","","","learningBlock2","","","","<div style=""font-size:60px;""> </div>","null","LF","learning/Slide97.JPG","This is a dep:","","",""
"html-keyboard-response","298","292515","0.0-7.0-0.17","LF","o7w146d4yj","1920","1080","0","1","0","5f343de4d0c07630b7f90b92","","null","","","learningBlock2","","","","This is a bim:","null","","","","","",""
"image-keyboard-response","299","292842","0.0-7.0-1.17","LF","o7w146d4yj","1920","1080","0","1","0","5f343de4d0c07630b7f90b92","","null","","","","","","","learning/Slide98.JPG","null","","","","","",""
"html-keyboard-response","300","293844","0.0-7.0-2.17","LF","o7w146d4yj","1920","1080","0","1","0","5f343de4d0c07630b7f90b92","","null","","","learningBlock2","","","","<div style=""font-size:60px;""> </div>","null","LF","learning/Slide98.JPG","This is a bim:","","",""
"html-keyboard-response","301","294845","0.0-7.0-0.18","LF","o7w146d4yj","1920","1080","0","1","0","5f343de4d0c07630b7f90b92","","null","","","learningBlock2","","","","This is a dep:","null","","","","","",""
"image-keyboard-response","302","295172","0.0-7.0-1.18","LF","o7w146d4yj","1920","1080","0","1","0","5f343de4d0c07630b7f90b92","","null","","","","","","","learning/Slide99.JPG","null","","","","","",""
"html-keyboard-response","303","296173","0.0-7.0-2.18","LF","o7w146d4yj","1920","1080","0","1","0","5f343de4d0c07630b7f90b92","","null","","","learningBlock2","","","","<div style=""font-size:60px;""> </div>","null","LF","learning/Slide99.JPG","This is a dep:","","",""
"html-keyboard-response","304","297174","0.0-7.0-0.19","LF","o7w146d4yj","1920","1080","0","1","0","5f343de4d0c07630b7f90b92","","null","","","learningBlock2","","","","This is a bim:","null","","","","","",""
"image-keyboard-response","305","297501","0.0-7.0-1.19","LF","o7w146d4yj","1920","1080","0","1","0","5f343de4d0c07630b7f90b92","","null","","","","","","","learning/Slide100.JPG","null","","","","","",""
"html-keyboard-response","306","298503","0.0-7.0-2.19","LF","o7w146d4yj","1920","1080","0","1","0","5f343de4d0c07630b7f90b92","","null","","","learningBlock2","","","","<div style=""font-size:60px;""> </div>","null","LF","learning/Slide100.JPG","This is a bim:","","",""
"html-keyboard-response","307","299505","0.0-7.0-0.20","LF","o7w146d4yj","1920","1080","0","1","0","5f343de4d0c07630b7f90b92","","null","","","learningBlock2","","","","This is a tob:","null","","","","","",""
"image-keyboard-response","308","299832","0.0-7.0-1.20","LF","o7w146d4yj","1920","1080","0","1","0","5f343de4d0c07630b7f90b92","","null","","","","","","","learning/Slide101.JPG","null","","","","","",""
"html-keyboard-response","309","300834","0.0-7.0-2.20","LF","o7w146d4yj","1920","1080","0","1","0","5f343de4d0c07630b7f90b92","","null","","","learningBlock2","","","","<div style=""font-size:60px;""> </div>","null","LF","learning/Slide101.JPG","This is a tob:","","",""
"html-keyboard-response","310","301835","0.0-7.0-0.21","LF","o7w146d4yj","1920","1080","0","1","0","5f343de4d0c07630b7f90b92","","null","","","learningBlock2","","","","This is a bim:","null","","","","","",""
"image-keyboard-response","311","302162","0.0-7.0-1.21","LF","o7w146d4yj","1920","1080","0","1","0","5f343de4d0c07630b7f90b92","","null","","","","","","","learning/Slide102.JPG","null","","","","","",""
"html-keyboard-response","312","303164","0.0-7.0-2.21","LF","o7w146d4yj","1920","1080","0","1","0","5f343de4d0c07630b7f90b92","","null","","","learningBlock2","","","","<div style=""font-size:60px;""> </div>","null","LF","learning/Slide102.JPG","This is a bim:","","",""
"html-keyboard-response","313","304165","0.0-7.0-0.22","LF","o7w146d4yj","1920","1080","0","1","0","5f343de4d0c07630b7f90b92","","null","","","learningBlock2","","","","This is a dep:","null","","","","","",""
"image-keyboard-response","314","304492","0.0-7.0-1.22","LF","o7w146d4yj","1920","1080","0","1","0","5f343de4d0c07630b7f90b92","","null","","","","","","","learning/Slide103.JPG","null","","","","","",""
"html-keyboard-response","315","305494","0.0-7.0-2.22","LF","o7w146d4yj","1920","1080","0","1","0","5f343de4d0c07630b7f90b92","","null","","","learningBlock2","","","","<div style=""font-size:60px;""> </div>","null","LF","learning/Slide103.JPG","This is a dep:","","",""
"html-keyboard-response","316","306496","0.0-7.0-0.23","LF","o7w146d4yj","1920","1080","0","1","0","5f343de4d0c07630b7f90b92","","null","","","learningBlock2","","","","This is a tob:","null","","","","","",""
"image-keyboard-response","317","306825","0.0-7.0-1.23","LF","o7w146d4yj","1920","1080","0","1","0","5f343de4d0c07630b7f90b92","","null","","","","","","","learning/Slide104.JPG","null","","","","","",""
"html-keyboard-response","318","307827","0.0-7.0-2.23","LF","o7w146d4yj","1920","1080","0","1","0","5f343de4d0c07630b7f90b92","","null","","","learningBlock2","","","","<div style=""font-size:60px;""> </div>","null","LF","learning/Slide104.JPG","This is a tob:","","",""
"html-keyboard-response","319","308829","0.0-7.0-0.24","LF","o7w146d4yj","1920","1080","0","1","0","5f343de4d0c07630b7f90b92","","null","","","learningBlock2","","","","This is a dep:","null","","","","","",""
"image-keyboard-response","320","309156","0.0-7.0-1.24","LF","o7w146d4yj","1920","1080","0","1","0","5f343de4d0c07630b7f90b92","","null","","","","","","","learning/Slide105.JPG","null","","","","","",""
"html-keyboard-response","321","310158","0.0-7.0-2.24","LF","o7w146d4yj","1920","1080","0","1","0","5f343de4d0c07630b7f90b92","","null","","","learningBlock2","","","","<div style=""font-size:60px;""> </div>","null","LF","learning/Slide105.JPG","This is a dep:","","",""
"html-keyboard-response","322","311160","0.0-7.0-0.25","LF","o7w146d4yj","1920","1080","0","1","0","5f343de4d0c07630b7f90b92","","null","","","learningBlock2","","","","This is a wug:","null","","","","","",""
"image-keyboard-response","323","311492","0.0-7.0-1.25","LF","o7w146d4yj","1920","1080","0","1","0","5f343de4d0c07630b7f90b92","","null","","","","","","","learning/Slide106.JPG","null","","","","","",""
"html-keyboard-response","324","312494","0.0-7.0-2.25","LF","o7w146d4yj","1920","1080","0","1","0","5f343de4d0c07630b7f90b92","","null","","","learningBlock2","","","","<div style=""font-size:60px;""> </div>","null","LF","learning/Slide106.JPG","This is a wug:","","",""
"html-keyboard-response","325","313495","0.0-7.0-0.26","LF","o7w146d4yj","1920","1080","0","1","0","5f343de4d0c07630b7f90b92","","null","","","learningBlock2","","","","This is a bim:","null","","","","","",""
"image-keyboard-response","326","313822","0.0-7.0-1.26","LF","o7w146d4yj","1920","1080","0","1","0","5f343de4d0c07630b7f90b92","","null","","","","","","","learning/Slide107.JPG","null","","","","","",""
"html-keyboard-response","327","314825","0.0-7.0-2.26","LF","o7w146d4yj","1920","1080","0","1","0","5f343de4d0c07630b7f90b92","","null","","","learningBlock2","","","","<div style=""font-size:60px;""> </div>","null","LF","learning/Slide107.JPG","This is a bim:","","",""
"html-keyboard-response","328","315826","0.0-7.0-0.27","LF","o7w146d4yj","1920","1080","0","1","0","5f343de4d0c07630b7f90b92","","null","","","learningBlock2","","","","This is a dep:","null","","","","","",""
"image-keyboard-response","329","316153","0.0-7.0-1.27","LF","o7w146d4yj","1920","1080","0","1","0","5f343de4d0c07630b7f90b92","","null","","","","","","","learning/Slide108.JPG","null","","","","","",""
"html-keyboard-response","330","317155","0.0-7.0-2.27","LF","o7w146d4yj","1920","1080","0","1","0","5f343de4d0c07630b7f90b92","","null","","","learningBlock2","","","","<div style=""font-size:60px;""> </div>","null","LF","learning/Slide108.JPG","This is a dep:","","",""
"html-keyboard-response","331","318157","0.0-7.0-0.28","LF","o7w146d4yj","1920","1080","0","1","0","5f343de4d0c07630b7f90b92","","null","","","learningBlock2","","","","This is a wug:","null","","","","","",""
"image-keyboard-response","332","318486","0.0-7.0-1.28","LF","o7w146d4yj","1920","1080","0","1","0","5f343de4d0c07630b7f90b92","","null","","","","","","","learning/Slide109.JPG","null","","","","","",""
"html-keyboard-response","333","319488","0.0-7.0-2.28","LF","o7w146d4yj","1920","1080","0","1","0","5f343de4d0c07630b7f90b92","","null","","","learningBlock2","","","","<div style=""font-size:60px;""> </div>","null","LF","learning/Slide109.JPG","This is a wug:","","",""
"html-keyboard-response","334","320491","0.0-7.0-0.29","LF","o7w146d4yj","1920","1080","0","1","0","5f343de4d0c07630b7f90b92","","null","","","learningBlock2","","","","This is a bim:","null","","","","","",""
"image-keyboard-response","335","320818","0.0-7.0-1.29","LF","o7w146d4yj","1920","1080","0","1","0","5f343de4d0c07630b7f90b92","","null","","","","","","","learning/Slide110.JPG","null","","","","","",""
"html-keyboard-response","336","321820","0.0-7.0-2.29","LF","o7w146d4yj","1920","1080","0","1","0","5f343de4d0c07630b7f90b92","","null","","","learningBlock2","","","","<div style=""font-size:60px;""> </div>","null","LF","learning/Slide110.JPG","This is a bim:","","",""
"html-keyboard-response","337","322822","0.0-7.0-0.30","LF","o7w146d4yj","1920","1080","0","1","0","5f343de4d0c07630b7f90b92","","null","","","learningBlock2","","","","This is a tob:","null","","","","","",""
"image-keyboard-response","338","323150","0.0-7.0-1.30","LF","o7w146d4yj","1920","1080","0","1","0","5f343de4d0c07630b7f90b92","","null","","","","","","","learning/Slide111.JPG","null","","","","","",""
"html-keyboard-response","339","324153","0.0-7.0-2.30","LF","o7w146d4yj","1920","1080","0","1","0","5f343de4d0c07630b7f90b92","","null","","","learningBlock2","","","","<div style=""font-size:60px;""> </div>","null","LF","learning/Slide111.JPG","This is a tob:","","",""
"html-keyboard-response","340","325156","0.0-7.0-0.31","LF","o7w146d4yj","1920","1080","0","1","0","5f343de4d0c07630b7f90b92","","null","","","learningBlock2","","","","This is a wug:","null","","","","","",""
"image-keyboard-response","341","325483","0.0-7.0-1.31","LF","o7w146d4yj","1920","1080","0","1","0","5f343de4d0c07630b7f90b92","","null","","","","","","","learning/Slide112.JPG","null","","","","","",""
"html-keyboard-response","342","326484","0.0-7.0-2.31","LF","o7w146d4yj","1920","1080","0","1","0","5f343de4d0c07630b7f90b92","","null","","","learningBlock2","","","","<div style=""font-size:60px;""> </div>","null","LF","learning/Slide112.JPG","This is a wug:","","",""
"html-keyboard-response","343","327485","0.0-7.0-0.32","LF","o7w146d4yj","1920","1080","0","1","0","5f343de4d0c07630b7f90b92","","null","","","learningBlock2","","","","This is a tob:","null","","","","","",""
"image-keyboard-response","344","327813","0.0-7.0-1.32","LF","o7w146d4yj","1920","1080","0","1","0","5f343de4d0c07630b7f90b92","","null","","","","","","","learning/Slide113.JPG","null","","","","","",""
"html-keyboard-response","345","328814","0.0-7.0-2.32","LF","o7w146d4yj","1920","1080","0","1","0","5f343de4d0c07630b7f90b92","","null","","","learningBlock2","","","","<div style=""font-size:60px;""> </div>","null","LF","learning/Slide113.JPG","This is a tob:","","",""
"html-keyboard-response","346","329816","0.0-7.0-0.33","LF","o7w146d4yj","1920","1080","0","1","0","5f343de4d0c07630b7f90b92","","null","","","learningBlock2","","","","This is a wug:","null","","","","","",""
"image-keyboard-response","347","330142","0.0-7.0-1.33","LF","o7w146d4yj","1920","1080","0","1","0","5f343de4d0c07630b7f90b92","","null","","","","","","","learning/Slide114.JPG","null","","","","","",""
"html-keyboard-response","348","331144","0.0-7.0-2.33","LF","o7w146d4yj","1920","1080","0","1","0","5f343de4d0c07630b7f90b92","","null","","","learningBlock2","","","","<div style=""font-size:60px;""> </div>","null","LF","learning/Slide114.JPG","This is a wug:","","",""
"html-keyboard-response","349","332146","0.0-7.0-0.34","LF","o7w146d4yj","1920","1080","0","1","0","5f343de4d0c07630b7f90b92","","null","","","learningBlock2","","","","This is a bim:","null","","","","","",""
"image-keyboard-response","350","332472","0.0-7.0-1.34","LF","o7w146d4yj","1920","1080","0","1","0","5f343de4d0c07630b7f90b92","","null","","","","","","","learning/Slide115.JPG","null","","","","","",""
"html-keyboard-response","351","333474","0.0-7.0-2.34","LF","o7w146d4yj","1920","1080","0","1","0","5f343de4d0c07630b7f90b92","","null","","","learningBlock2","","","","<div style=""font-size:60px;""> </div>","null","LF","learning/Slide115.JPG","This is a bim:","","",""
"html-keyboard-response","352","334475","0.0-7.0-0.35","LF","o7w146d4yj","1920","1080","0","1","0","5f343de4d0c07630b7f90b92","","null","","","learningBlock2","","","","This is a dep:","null","","","","","",""
"image-keyboard-response","353","334802","0.0-7.0-1.35","LF","o7w146d4yj","1920","1080","0","1","0","5f343de4d0c07630b7f90b92","","null","","","","","","","learning/Slide116.JPG","null","","","","","",""
"html-keyboard-response","354","335803","0.0-7.0-2.35","LF","o7w146d4yj","1920","1080","0","1","0","5f343de4d0c07630b7f90b92","","null","","","learningBlock2","","","","<div style=""font-size:60px;""> </div>","null","LF","learning/Slide116.JPG","This is a dep:","","",""
"html-keyboard-response","355","336805","0.0-7.0-0.36","LF","o7w146d4yj","1920","1080","0","1","0","5f343de4d0c07630b7f90b92","","null","","","learningBlock2","","","","This is a tob:","null","","","","","",""
"image-keyboard-response","356","337132","0.0-7.0-1.36","LF","o7w146d4yj","1920","1080","0","1","0","5f343de4d0c07630b7f90b92","","null","","","","","","","learning/Slide117.JPG","null","","","","","",""
"html-keyboard-response","357","338134","0.0-7.0-2.36","LF","o7w146d4yj","1920","1080","0","1","0","5f343de4d0c07630b7f90b92","","null","","","learningBlock2","","","","<div style=""font-size:60px;""> </div>","null","LF","learning/Slide117.JPG","This is a tob:","","",""
"html-keyboard-response","358","339135","0.0-7.0-0.37","LF","o7w146d4yj","1920","1080","0","1","0","5f343de4d0c07630b7f90b92","","null","","","learningBlock2","","","","This is a dep:","null","","","","","",""
"image-keyboard-response","359","339462","0.0-7.0-1.37","LF","o7w146d4yj","1920","1080","0","1","0","5f343de4d0c07630b7f90b92","","null","","","","","","","learning/Slide118.JPG","null","","","","","",""
"html-keyboard-response","360","340464","0.0-7.0-2.37","LF","o7w146d4yj","1920","1080","0","1","0","5f343de4d0c07630b7f90b92","","null","","","learningBlock2","","","","<div style=""font-size:60px;""> </div>","null","LF","learning/Slide118.JPG","This is a dep:","","",""
"html-keyboard-response","361","341465","0.0-7.0-0.38","LF","o7w146d4yj","1920","1080","0","1","0","5f343de4d0c07630b7f90b92","","null","","","learningBlock2","","","","This is a wug:","null","","","","","",""
"image-keyboard-response","362","341792","0.0-7.0-1.38","LF","o7w146d4yj","1920","1080","0","1","0","5f343de4d0c07630b7f90b92","","null","","","","","","","learning/Slide119.JPG","null","","","","","",""
"html-keyboard-response","363","342794","0.0-7.0-2.38","LF","o7w146d4yj","1920","1080","0","1","0","5f343de4d0c07630b7f90b92","","null","","","learningBlock2","","","","<div style=""font-size:60px;""> </div>","null","LF","learning/Slide119.JPG","This is a wug:","","",""
"html-keyboard-response","364","343795","0.0-7.0-0.39","LF","o7w146d4yj","1920","1080","0","1","0","5f343de4d0c07630b7f90b92","","null","","","learningBlock2","","","","This is a dep:","null","","","","","",""
"image-keyboard-response","365","344123","0.0-7.0-1.39","LF","o7w146d4yj","1920","1080","0","1","0","5f343de4d0c07630b7f90b92","","null","","","","","","","learning/Slide120.JPG","null","","","","","",""
"html-keyboard-response","366","345125","0.0-7.0-2.39","LF","o7w146d4yj","1920","1080","0","1","0","5f343de4d0c07630b7f90b92","","null","","","learningBlock2","","","","<div style=""font-size:60px;""> </div>","null","LF","learning/Slide120.JPG","This is a dep:","","",""
"html-keyboard-response","367","346126","0.0-7.0-0.40","LF","o7w146d4yj","1920","1080","0","1","0","5f343de4d0c07630b7f90b92","","null","","","learningBlock2","","","","This is a bim:","null","","","","","",""
"image-keyboard-response","368","346453","0.0-7.0-1.40","LF","o7w146d4yj","1920","1080","0","1","0","5f343de4d0c07630b7f90b92","","null","","","","","","","learning/Slide121.JPG","null","","","","","",""
"html-keyboard-response","369","347454","0.0-7.0-2.40","LF","o7w146d4yj","1920","1080","0","1","0","5f343de4d0c07630b7f90b92","","null","","","learningBlock2","","","","<div style=""font-size:60px;""> </div>","null","LF","learning/Slide121.JPG","This is a bim:","","",""
"html-keyboard-response","370","348455","0.0-7.0-0.41","LF","o7w146d4yj","1920","1080","0","1","0","5f343de4d0c07630b7f90b92","","null","","","learningBlock2","","","","This is a wug:","null","","","","","",""
"image-keyboard-response","371","348782","0.0-7.0-1.41","LF","o7w146d4yj","1920","1080","0","1","0","5f343de4d0c07630b7f90b92","","null","","","","","","","learning/Slide122.JPG","null","","","","","",""
"html-keyboard-response","372","349784","0.0-7.0-2.41","LF","o7w146d4yj","1920","1080","0","1","0","5f343de4d0c07630b7f90b92","","null","","","learningBlock2","","","","<div style=""font-size:60px;""> </div>","null","LF","learning/Slide122.JPG","This is a wug:","","",""
"html-keyboard-response","373","350786","0.0-7.0-0.42","LF","o7w146d4yj","1920","1080","0","1","0","5f343de4d0c07630b7f90b92","","null","","","learningBlock2","","","","This is a bim:","null","","","","","",""
"image-keyboard-response","374","351112","0.0-7.0-1.42","LF","o7w146d4yj","1920","1080","0","1","0","5f343de4d0c07630b7f90b92","","null","","","","","","","learning/Slide123.JPG","null","","","","","",""
"html-keyboard-response","375","352117","0.0-7.0-2.42","LF","o7w146d4yj","1920","1080","0","1","0","5f343de4d0c07630b7f90b92","","null","","","learningBlock2","","","","<div style=""font-size:60px;""> </div>","null","LF","learning/Slide123.JPG","This is a bim:","","",""
"html-keyboard-response","376","353119","0.0-7.0-0.43","LF","o7w146d4yj","1920","1080","0","1","0","5f343de4d0c07630b7f90b92","","null","","","learningBlock2","","","","This is a tob:","null","","","","","",""
"image-keyboard-response","377","353447","0.0-7.0-1.43","LF","o7w146d4yj","1920","1080","0","1","0","5f343de4d0c07630b7f90b92","","null","","","","","","","learning/Slide124.JPG","null","","","","","",""
"html-keyboard-response","378","354448","0.0-7.0-2.43","LF","o7w146d4yj","1920","1080","0","1","0","5f343de4d0c07630b7f90b92","","null","","","learningBlock2","","","","<div style=""font-size:60px;""> </div>","null","LF","learning/Slide124.JPG","This is a tob:","","",""
"html-keyboard-response","379","355450","0.0-7.0-0.44","LF","o7w146d4yj","1920","1080","0","1","0","5f343de4d0c07630b7f90b92","","null","","","learningBlock2","","","","This is a bim:","null","","","","","",""
"image-keyboard-response","380","355777","0.0-7.0-1.44","LF","o7w146d4yj","1920","1080","0","1","0","5f343de4d0c07630b7f90b92","","null","","","","","","","learning/Slide125.JPG","null","","","","","",""
"html-keyboard-response","381","356779","0.0-7.0-2.44","LF","o7w146d4yj","1920","1080","0","1","0","5f343de4d0c07630b7f90b92","","null","","","learningBlock2","","","","<div style=""font-size:60px;""> </div>","null","LF","learning/Slide125.JPG","This is a bim:","","",""
"html-keyboard-response","382","357780","0.0-7.0-0.45","LF","o7w146d4yj","1920","1080","0","1","0","5f343de4d0c07630b7f90b92","","null","","","learningBlock2","","","","This is a tob:","null","","","","","",""
"image-keyboard-response","383","358108","0.0-7.0-1.45","LF","o7w146d4yj","1920","1080","0","1","0","5f343de4d0c07630b7f90b92","","null","","","","","","","learning/Slide126.JPG","null","","","","","",""
"html-keyboard-response","384","359110","0.0-7.0-2.45","LF","o7w146d4yj","1920","1080","0","1","0","5f343de4d0c07630b7f90b92","","null","","","learningBlock2","","","","<div style=""font-size:60px;""> </div>","null","LF","learning/Slide126.JPG","This is a tob:","","",""
"html-keyboard-response","385","360111","0.0-7.0-0.46","LF","o7w146d4yj","1920","1080","0","1","0","5f343de4d0c07630b7f90b92","","null","","","learningBlock2","","","","This is a dep:","null","","","","","",""
"image-keyboard-response","386","360439","0.0-7.0-1.46","LF","o7w146d4yj","1920","1080","0","1","0","5f343de4d0c07630b7f90b92","","null","","","","","","","learning/Slide127.JPG","null","","","","","",""
"html-keyboard-response","387","361441","0.0-7.0-2.46","LF","o7w146d4yj","1920","1080","0","1","0","5f343de4d0c07630b7f90b92","","null","","","learningBlock2","","","","<div style=""font-size:60px;""> </div>","null","LF","learning/Slide127.JPG","This is a dep:","","",""
"html-keyboard-response","388","362443","0.0-7.0-0.47","LF","o7w146d4yj","1920","1080","0","1","0","5f343de4d0c07630b7f90b92","","null","","","learningBlock2","","","","This is a wug:","null","","","","","",""
"image-keyboard-response","389","362771","0.0-7.0-1.47","LF","o7w146d4yj","1920","1080","0","1","0","5f343de4d0c07630b7f90b92","","null","","","","","","","learning/Slide128.JPG","null","","","","","",""
"html-keyboard-response","390","363773","0.0-7.0-2.47","LF","o7w146d4yj","1920","1080","0","1","0","5f343de4d0c07630b7f90b92","","null","","","learningBlock2","","","","<div style=""font-size:60px;""> </div>","null","LF","learning/Slide128.JPG","This is a wug:","","",""
"html-keyboard-response","391","364776","0.0-7.0-0.48","LF","o7w146d4yj","1920","1080","0","1","0","5f343de4d0c07630b7f90b92","","null","","","learningBlock2","","","","This is a tob:","null","","","","","",""
"image-keyboard-response","392","365103","0.0-7.0-1.48","LF","o7w146d4yj","1920","1080","0","1","0","5f343de4d0c07630b7f90b92","","null","","","","","","","learning/Slide129.JPG","null","","","","","",""
"html-keyboard-response","393","366107","0.0-7.0-2.48","LF","o7w146d4yj","1920","1080","0","1","0","5f343de4d0c07630b7f90b92","","null","","","learningBlock2","","","","<div style=""font-size:60px;""> </div>","null","LF","learning/Slide129.JPG","This is a tob:","","",""
"html-keyboard-response","394","367108","0.0-7.0-0.49","LF","o7w146d4yj","1920","1080","0","1","0","5f343de4d0c07630b7f90b92","","null","","","learningBlock2","","","","This is a wug:","null","","","","","",""
"image-keyboard-response","395","367435","0.0-7.0-1.49","LF","o7w146d4yj","1920","1080","0","1","0","5f343de4d0c07630b7f90b92","","null","","","","","","","learning/Slide130.JPG","null","","","","","",""
"html-keyboard-response","396","368437","0.0-7.0-2.49","LF","o7w146d4yj","1920","1080","0","1","0","5f343de4d0c07630b7f90b92","","null","","","learningBlock2","","","","<div style=""font-size:60px;""> </div>","null","LF","learning/Slide130.JPG","This is a wug:","","",""
"html-keyboard-response","397","369439","0.0-7.0-0.50","LF","o7w146d4yj","1920","1080","0","1","0","5f343de4d0c07630b7f90b92","","null","","","learningBlock2","","","","This is a bim:","null","","","","","",""
"image-keyboard-response","398","369766","0.0-7.0-1.50","LF","o7w146d4yj","1920","1080","0","1","0","5f343de4d0c07630b7f90b92","","null","","","","","","","learning/Slide131.JPG","null","","","","","",""
"html-keyboard-response","399","370767","0.0-7.0-2.50","LF","o7w146d4yj","1920","1080","0","1","0","5f343de4d0c07630b7f90b92","","null","","","learningBlock2","","","","<div style=""font-size:60px;""> </div>","null","LF","learning/Slide131.JPG","This is a bim:","","",""
"html-keyboard-response","400","371769","0.0-7.0-0.51","LF","o7w146d4yj","1920","1080","0","1","0","5f343de4d0c07630b7f90b92","","null","","","learningBlock2","","","","This is a dep:","null","","","","","",""
"image-keyboard-response","401","372095","0.0-7.0-1.51","LF","o7w146d4yj","1920","1080","0","1","0","5f343de4d0c07630b7f90b92","","null","","","","","","","learning/Slide132.JPG","null","","","","","",""
"html-keyboard-response","402","373097","0.0-7.0-2.51","LF","o7w146d4yj","1920","1080","0","1","0","5f343de4d0c07630b7f90b92","","null","","","learningBlock2","","","","<div style=""font-size:60px;""> </div>","null","LF","learning/Slide132.JPG","This is a dep:","","",""
"html-keyboard-response","403","374098","0.0-7.0-0.52","LF","o7w146d4yj","1920","1080","0","1","0","5f343de4d0c07630b7f90b92","","null","","","learningBlock2","","","","This is a tob:","null","","","","","",""
"image-keyboard-response","404","374429","0.0-7.0-1.52","LF","o7w146d4yj","1920","1080","0","1","0","5f343de4d0c07630b7f90b92","","null","","","","","","","learning/Slide133.JPG","null","","","","","",""
"html-keyboard-response","405","375431","0.0-7.0-2.52","LF","o7w146d4yj","1920","1080","0","1","0","5f343de4d0c07630b7f90b92","","null","","","learningBlock2","","","","<div style=""font-size:60px;""> </div>","null","LF","learning/Slide133.JPG","This is a tob:","","",""
"html-keyboard-response","406","376433","0.0-7.0-0.53","LF","o7w146d4yj","1920","1080","0","1","0","5f343de4d0c07630b7f90b92","","null","","","learningBlock2","","","","This is a dep:","null","","","","","",""
"image-keyboard-response","407","376761","0.0-7.0-1.53","LF","o7w146d4yj","1920","1080","0","1","0","5f343de4d0c07630b7f90b92","","null","","","","","","","learning/Slide134.JPG","null","","","","","",""
"html-keyboard-response","408","377763","0.0-7.0-2.53","LF","o7w146d4yj","1920","1080","0","1","0","5f343de4d0c07630b7f90b92","","null","","","learningBlock2","","","","<div style=""font-size:60px;""> </div>","null","LF","learning/Slide134.JPG","This is a dep:","","",""
"html-keyboard-response","409","378764","0.0-7.0-0.54","LF","o7w146d4yj","1920","1080","0","1","0","5f343de4d0c07630b7f90b92","","null","","","learningBlock2","","","","This is a tob:","null","","","","","",""
"image-keyboard-response","410","379091","0.0-7.0-1.54","LF","o7w146d4yj","1920","1080","0","1","0","5f343de4d0c07630b7f90b92","","null","","","","","","","learning/Slide135.JPG","null","","","","","",""
"html-keyboard-response","411","380093","0.0-7.0-2.54","LF","o7w146d4yj","1920","1080","0","1","0","5f343de4d0c07630b7f90b92","","null","","","learningBlock2","","","","<div style=""font-size:60px;""> </div>","null","LF","learning/Slide135.JPG","This is a tob:","","",""
"html-keyboard-response","412","381094","0.0-7.0-0.55","LF","o7w146d4yj","1920","1080","0","1","0","5f343de4d0c07630b7f90b92","","null","","","learningBlock2","","","","This is a wug:","null","","","","","",""
"image-keyboard-response","413","381421","0.0-7.0-1.55","LF","o7w146d4yj","1920","1080","0","1","0","5f343de4d0c07630b7f90b92","","null","","","","","","","learning/Slide136.JPG","null","","","","","",""
"html-keyboard-response","414","382422","0.0-7.0-2.55","LF","o7w146d4yj","1920","1080","0","1","0","5f343de4d0c07630b7f90b92","","null","","","learningBlock2","","","","<div style=""font-size:60px;""> </div>","null","LF","learning/Slide136.JPG","This is a wug:","","",""
"html-keyboard-response","415","383425","0.0-7.0-0.56","LF","o7w146d4yj","1920","1080","0","1","0","5f343de4d0c07630b7f90b92","","null","","","learningBlock2","","","","This is a tob:","null","","","","","",""
"image-keyboard-response","416","383752","0.0-7.0-1.56","LF","o7w146d4yj","1920","1080","0","1","0","5f343de4d0c07630b7f90b92","","null","","","","","","","learning/Slide137.JPG","null","","","","","",""
"html-keyboard-response","417","384754","0.0-7.0-2.56","LF","o7w146d4yj","1920","1080","0","1","0","5f343de4d0c07630b7f90b92","","null","","","learningBlock2","","","","<div style=""font-size:60px;""> </div>","null","LF","learning/Slide137.JPG","This is a tob:","","",""
"html-keyboard-response","418","385755","0.0-7.0-0.57","LF","o7w146d4yj","1920","1080","0","1","0","5f343de4d0c07630b7f90b92","","null","","","learningBlock2","","","","This is a bim:","null","","","","","",""
"image-keyboard-response","419","386083","0.0-7.0-1.57","LF","o7w146d4yj","1920","1080","0","1","0","5f343de4d0c07630b7f90b92","","null","","","","","","","learning/Slide138.JPG","null","","","","","",""
"html-keyboard-response","420","387085","0.0-7.0-2.57","LF","o7w146d4yj","1920","1080","0","1","0","5f343de4d0c07630b7f90b92","","null","","","learningBlock2","","","","<div style=""font-size:60px;""> </div>","null","LF","learning/Slide138.JPG","This is a bim:","","",""
"html-keyboard-response","421","388086","0.0-7.0-0.58","LF","o7w146d4yj","1920","1080","0","1","0","5f343de4d0c07630b7f90b92","","null","","","learningBlock2","","","","This is a wug:","null","","","","","",""
"image-keyboard-response","422","388413","0.0-7.0-1.58","LF","o7w146d4yj","1920","1080","0","1","0","5f343de4d0c07630b7f90b92","","null","","","","","","","learning/Slide139.JPG","null","","","","","",""
"html-keyboard-response","423","389416","0.0-7.0-2.58","LF","o7w146d4yj","1920","1080","0","1","0","5f343de4d0c07630b7f90b92","","null","","","learningBlock2","","","","<div style=""font-size:60px;""> </div>","null","LF","learning/Slide139.JPG","This is a wug:","","",""
"html-keyboard-response","424","390417","0.0-7.0-0.59","LF","o7w146d4yj","1920","1080","0","1","0","5f343de4d0c07630b7f90b92","","null","","","learningBlock2","","","","This is a dep:","null","","","","","",""
"image-keyboard-response","425","390744","0.0-7.0-1.59","LF","o7w146d4yj","1920","1080","0","1","0","5f343de4d0c07630b7f90b92","","null","","","","","","","learning/Slide140.JPG","null","","","","","",""
"html-keyboard-response","426","391745","0.0-7.0-2.59","LF","o7w146d4yj","1920","1080","0","1","0","5f343de4d0c07630b7f90b92","","null","","","learningBlock2","","","","<div style=""font-size:60px;""> </div>","null","LF","learning/Slide140.JPG","This is a dep:","","",""
"html-keyboard-response","427","392746","0.0-7.0-0.60","LF","o7w146d4yj","1920","1080","0","1","0","5f343de4d0c07630b7f90b92","","null","","","learningBlock2","","","","This is a tob:","null","","","","","",""
"image-keyboard-response","428","393074","0.0-7.0-1.60","LF","o7w146d4yj","1920","1080","0","1","0","5f343de4d0c07630b7f90b92","","null","","","","","","","learning/Slide141.JPG","null","","","","","",""
"html-keyboard-response","429","394075","0.0-7.0-2.60","LF","o7w146d4yj","1920","1080","0","1","0","5f343de4d0c07630b7f90b92","","null","","","learningBlock2","","","","<div style=""font-size:60px;""> </div>","null","LF","learning/Slide141.JPG","This is a tob:","","",""
"html-keyboard-response","430","395077","0.0-7.0-0.61","LF","o7w146d4yj","1920","1080","0","1","0","5f343de4d0c07630b7f90b92","","null","","","learningBlock2","","","","This is a wug:","null","","","","","",""
"image-keyboard-response","431","395403","0.0-7.0-1.61","LF","o7w146d4yj","1920","1080","0","1","0","5f343de4d0c07630b7f90b92","","null","","","","","","","learning/Slide142.JPG","null","","","","","",""
"html-keyboard-response","432","396404","0.0-7.0-2.61","LF","o7w146d4yj","1920","1080","0","1","0","5f343de4d0c07630b7f90b92","","null","","","learningBlock2","","","","<div style=""font-size:60px;""> </div>","null","LF","learning/Slide142.JPG","This is a wug:","","",""
"html-keyboard-response","433","397406","0.0-7.0-0.62","LF","o7w146d4yj","1920","1080","0","1","0","5f343de4d0c07630b7f90b92","","null","","","learningBlock2","","","","This is a bim:","null","","","","","",""
"image-keyboard-response","434","397732","0.0-7.0-1.62","LF","o7w146d4yj","1920","1080","0","1","0","5f343de4d0c07630b7f90b92","","null","","","","","","","learning/Slide143.JPG","null","","","","","",""
"html-keyboard-response","435","398734","0.0-7.0-2.62","LF","o7w146d4yj","1920","1080","0","1","0","5f343de4d0c07630b7f90b92","","null","","","learningBlock2","","","","<div style=""font-size:60px;""> </div>","null","LF","learning/Slide143.JPG","This is a bim:","","",""
"html-keyboard-response","436","399735","0.0-7.0-0.63","LF","o7w146d4yj","1920","1080","0","1","0","5f343de4d0c07630b7f90b92","","null","","","learningBlock2","","","","This is a dep:","null","","","","","",""
