"trial_type","trial_index","time_elapsed","internal_node_id","condition","subject","screen_width","screen_height","attention","distraction","conscientious","prolificID","success","rt","url","view_history","test_part","final_height_px","final_width_px","scale_factor","stimulus","key_press","learningType","presentedImage","presentedLabel","button_pressed","response","responses"
"pavlovia","0","227","0.0-0.0","FL","j07stgzsr2","1920","1080","0","1","0","5d77c0eb4a666c0019561a80","","","","","","","","","","","","","","","",""
"fullscreen","1","9508","0.0-1.0","FL","j07stgzsr2","1920","1080","0","1","0","5d77c0eb4a666c0019561a80","true","","","","","","","","","","","","","","",""
"external-html","2","48397","0.0-2.0-0.0","FL","j07stgzsr2","1920","1080","0","1","0","5d77c0eb4a666c0019561a80","","38841.305000009015","text/information_english.html","","","","","","","","","","","","",""
"external-html","3","56291","0.0-2.0-1.0","FL","j07stgzsr2","1920","1080","0","1","0","5d77c0eb4a666c0019561a80","","7831.9050000282","text/consent_english.html","","","","","","","","","","","","",""
"instructions","4","77673","0.0-3.0","FL","j07stgzsr2","1920","1080","0","1","0","5d77c0eb4a666c0019561a80","","NA","","[{""page_index"":0,""viewing_time"":1702.4550000205636},{""page_index"":1,""viewing_time"":19673.580000002403}]","instructions","","","","","","","","","","",""
"resize","5","184423","0.0-4.0","FL","j07stgzsr2","1920","1080","0","1","0","5d77c0eb4a666c0019561a80","","","","","","","479","3.0412698412698416","","","","","","","",""
"image-keyboard-response","6","184602","0.0-5.0-0.0","FL","j07stgzsr2","1920","1080","0","1","0","5d77c0eb4a666c0019561a80","","null","","","","","","","learning/Slide1.JPG","null","","","","","",""
"html-keyboard-response","7","185754","0.0-5.0-1.0","FL","j07stgzsr2","1920","1080","0","1","0","5d77c0eb4a666c0019561a80","","null","","","learningBlock1","","","","That was a tob.","null","","","","","",""
"html-keyboard-response","8","186755","0.0-5.0-2.0","FL","j07stgzsr2","1920","1080","0","1","0","5d77c0eb4a666c0019561a80","","null","","","learningBlock1","","","","<div style=""font-size:60px;""> </div>","null","FL","learning/Slide1.JPG","That was a tob.","","",""
"image-keyboard-response","9","186933","0.0-5.0-0.1","FL","j07stgzsr2","1920","1080","0","1","0","5d77c0eb4a666c0019561a80","","null","","","","","","","learning/Slide2.JPG","null","","","","","",""
"html-keyboard-response","10","188085","0.0-5.0-1.1","FL","j07stgzsr2","1920","1080","0","1","0","5d77c0eb4a666c0019561a80","","null","","","learningBlock1","","","","That was a wug.","null","","","","","",""
"html-keyboard-response","11","189087","0.0-5.0-2.1","FL","j07stgzsr2","1920","1080","0","1","0","5d77c0eb4a666c0019561a80","","null","","","learningBlock1","","","","<div style=""font-size:60px;""> </div>","null","FL","learning/Slide2.JPG","That was a wug.","","",""
"image-keyboard-response","12","189263","0.0-5.0-0.2","FL","j07stgzsr2","1920","1080","0","1","0","5d77c0eb4a666c0019561a80","","null","","","","","","","learning/Slide3.JPG","null","","","","","",""
"html-keyboard-response","13","190417","0.0-5.0-1.2","FL","j07stgzsr2","1920","1080","0","1","0","5d77c0eb4a666c0019561a80","","null","","","learningBlock1","","","","That was a bim.","null","","","","","",""
"html-keyboard-response","14","191419","0.0-5.0-2.2","FL","j07stgzsr2","1920","1080","0","1","0","5d77c0eb4a666c0019561a80","","null","","","learningBlock1","","","","<div style=""font-size:60px;""> </div>","null","FL","learning/Slide3.JPG","That was a bim.","","",""
"image-keyboard-response","15","191595","0.0-5.0-0.3","FL","j07stgzsr2","1920","1080","0","1","0","5d77c0eb4a666c0019561a80","","null","","","","","","","learning/Slide4.JPG","null","","","","","",""
"html-keyboard-response","16","192748","0.0-5.0-1.3","FL","j07stgzsr2","1920","1080","0","1","0","5d77c0eb4a666c0019561a80","","null","","","learningBlock1","","","","That was a dep.","null","","","","","",""
"html-keyboard-response","17","193749","0.0-5.0-2.3","FL","j07stgzsr2","1920","1080","0","1","0","5d77c0eb4a666c0019561a80","","null","","","learningBlock1","","","","<div style=""font-size:60px;""> </div>","null","FL","learning/Slide4.JPG","That was a dep.","","",""
"image-keyboard-response","18","193926","0.0-5.0-0.4","FL","j07stgzsr2","1920","1080","0","1","0","5d77c0eb4a666c0019561a80","","null","","","","","","","learning/Slide5.JPG","null","","","","","",""
"html-keyboard-response","19","195079","0.0-5.0-1.4","FL","j07stgzsr2","1920","1080","0","1","0","5d77c0eb4a666c0019561a80","","null","","","learningBlock1","","","","That was a wug.","null","","","","","",""
"html-keyboard-response","20","196080","0.0-5.0-2.4","FL","j07stgzsr2","1920","1080","0","1","0","5d77c0eb4a666c0019561a80","","null","","","learningBlock1","","","","<div style=""font-size:60px;""> </div>","null","FL","learning/Slide5.JPG","That was a wug.","","",""
"image-keyboard-response","21","196256","0.0-5.0-0.5","FL","j07stgzsr2","1920","1080","0","1","0","5d77c0eb4a666c0019561a80","","null","","","","","","","learning/Slide6.JPG","null","","","","","",""
"html-keyboard-response","22","197410","0.0-5.0-1.5","FL","j07stgzsr2","1920","1080","0","1","0","5d77c0eb4a666c0019561a80","","null","","","learningBlock1","","","","That was a dep.","null","","","","","",""
"html-keyboard-response","23","198411","0.0-5.0-2.5","FL","j07stgzsr2","1920","1080","0","1","0","5d77c0eb4a666c0019561a80","","null","","","learningBlock1","","","","<div style=""font-size:60px;""> </div>","null","FL","learning/Slide6.JPG","That was a dep.","","",""
"image-keyboard-response","24","198588","0.0-5.0-0.6","FL","j07stgzsr2","1920","1080","0","1","0","5d77c0eb4a666c0019561a80","","null","","","","","","","learning/Slide7.JPG","null","","","","","",""
"html-keyboard-response","25","199741","0.0-5.0-1.6","FL","j07stgzsr2","1920","1080","0","1","0","5d77c0eb4a666c0019561a80","","null","","","learningBlock1","","","","That was a wug.","null","","","","","",""
"html-keyboard-response","26","200754","0.0-5.0-2.6","FL","j07stgzsr2","1920","1080","0","1","0","5d77c0eb4a666c0019561a80","","null","","","learningBlock1","","","","<div style=""font-size:60px;""> </div>","null","FL","learning/Slide7.JPG","That was a wug.","","",""
"image-keyboard-response","27","200930","0.0-5.0-0.7","FL","j07stgzsr2","1920","1080","0","1","0","5d77c0eb4a666c0019561a80","","null","","","","","","","learning/Slide8.JPG","null","","","","","",""
"html-keyboard-response","28","202082","0.0-5.0-1.7","FL","j07stgzsr2","1920","1080","0","1","0","5d77c0eb4a666c0019561a80","","null","","","learningBlock1","","","","That was a bim.","null","","","","","",""
"html-keyboard-response","29","203084","0.0-5.0-2.7","FL","j07stgzsr2","1920","1080","0","1","0","5d77c0eb4a666c0019561a80","","null","","","learningBlock1","","","","<div style=""font-size:60px;""> </div>","null","FL","learning/Slide8.JPG","That was a bim.","","",""
"image-keyboard-response","30","203260","0.0-5.0-0.8","FL","j07stgzsr2","1920","1080","0","1","0","5d77c0eb4a666c0019561a80","","null","","","","","","","learning/Slide9.JPG","null","","","","","",""
"html-keyboard-response","31","204413","0.0-5.0-1.8","FL","j07stgzsr2","1920","1080","0","1","0","5d77c0eb4a666c0019561a80","","null","","","learningBlock1","","","","That was a wug.","null","","","","","",""
"html-keyboard-response","32","205413","0.0-5.0-2.8","FL","j07stgzsr2","1920","1080","0","1","0","5d77c0eb4a666c0019561a80","","null","","","learningBlock1","","","","<div style=""font-size:60px;""> </div>","null","FL","learning/Slide9.JPG","That was a wug.","","",""
"image-keyboard-response","33","205590","0.0-5.0-0.9","FL","j07stgzsr2","1920","1080","0","1","0","5d77c0eb4a666c0019561a80","","null","","","","","","","learning/Slide10.JPG","null","","","","","",""
"html-keyboard-response","34","206741","0.0-5.0-1.9","FL","j07stgzsr2","1920","1080","0","1","0","5d77c0eb4a666c0019561a80","","null","","","learningBlock1","","","","That was a dep.","null","","","","","",""
"html-keyboard-response","35","207743","0.0-5.0-2.9","FL","j07stgzsr2","1920","1080","0","1","0","5d77c0eb4a666c0019561a80","","null","","","learningBlock1","","","","<div style=""font-size:60px;""> </div>","null","FL","learning/Slide10.JPG","That was a dep.","","",""
"image-keyboard-response","36","207920","0.0-5.0-0.10","FL","j07stgzsr2","1920","1080","0","1","0","5d77c0eb4a666c0019561a80","","null","","","","","","","learning/Slide11.JPG","null","","","","","",""
"html-keyboard-response","37","209074","0.0-5.0-1.10","FL","j07stgzsr2","1920","1080","0","1","0","5d77c0eb4a666c0019561a80","","null","","","learningBlock1","","","","That was a tob.","null","","","","","",""
"html-keyboard-response","38","210075","0.0-5.0-2.10","FL","j07stgzsr2","1920","1080","0","1","0","5d77c0eb4a666c0019561a80","","null","","","learningBlock1","","","","<div style=""font-size:60px;""> </div>","null","FL","learning/Slide11.JPG","That was a tob.","","",""
"image-keyboard-response","39","210252","0.0-5.0-0.11","FL","j07stgzsr2","1920","1080","0","1","0","5d77c0eb4a666c0019561a80","","null","","","","","","","learning/Slide12.JPG","null","","","","","",""
"html-keyboard-response","40","211406","0.0-5.0-1.11","FL","j07stgzsr2","1920","1080","0","1","0","5d77c0eb4a666c0019561a80","","null","","","learningBlock1","","","","That was a dep.","null","","","","","",""
"html-keyboard-response","41","212408","0.0-5.0-2.11","FL","j07stgzsr2","1920","1080","0","1","0","5d77c0eb4a666c0019561a80","","null","","","learningBlock1","","","","<div style=""font-size:60px;""> </div>","null","FL","learning/Slide12.JPG","That was a dep.","","",""
"image-keyboard-response","42","212585","0.0-5.0-0.12","FL","j07stgzsr2","1920","1080","0","1","0","5d77c0eb4a666c0019561a80","","null","","","","","","","learning/Slide13.JPG","null","","","","","",""
"html-keyboard-response","43","213736","0.0-5.0-1.12","FL","j07stgzsr2","1920","1080","0","1","0","5d77c0eb4a666c0019561a80","","null","","","learningBlock1","","","","That was a bim.","null","","","","","",""
"html-keyboard-response","44","214738","0.0-5.0-2.12","FL","j07stgzsr2","1920","1080","0","1","0","5d77c0eb4a666c0019561a80","","null","","","learningBlock1","","","","<div style=""font-size:60px;""> </div>","null","FL","learning/Slide13.JPG","That was a bim.","","",""
"image-keyboard-response","45","214915","0.0-5.0-0.13","FL","j07stgzsr2","1920","1080","0","1","0","5d77c0eb4a666c0019561a80","","null","","","","","","","learning/Slide14.JPG","null","","","","","",""
"html-keyboard-response","46","216067","0.0-5.0-1.13","FL","j07stgzsr2","1920","1080","0","1","0","5d77c0eb4a666c0019561a80","","null","","","learningBlock1","","","","That was a wug.","null","","","","","",""
"html-keyboard-response","47","217068","0.0-5.0-2.13","FL","j07stgzsr2","1920","1080","0","1","0","5d77c0eb4a666c0019561a80","","null","","","learningBlock1","","","","<div style=""font-size:60px;""> </div>","null","FL","learning/Slide14.JPG","That was a wug.","","",""
"image-keyboard-response","48","217246","0.0-5.0-0.14","FL","j07stgzsr2","1920","1080","0","1","0","5d77c0eb4a666c0019561a80","","null","","","","","","","learning/Slide15.JPG","null","","","","","",""
"html-keyboard-response","49","218399","0.0-5.0-1.14","FL","j07stgzsr2","1920","1080","0","1","0","5d77c0eb4a666c0019561a80","","null","","","learningBlock1","","","","That was a tob.","null","","","","","",""
"html-keyboard-response","50","219401","0.0-5.0-2.14","FL","j07stgzsr2","1920","1080","0","1","0","5d77c0eb4a666c0019561a80","","null","","","learningBlock1","","","","<div style=""font-size:60px;""> </div>","null","FL","learning/Slide15.JPG","That was a tob.","","",""
"image-keyboard-response","51","219579","0.0-5.0-0.15","FL","j07stgzsr2","1920","1080","0","1","0","5d77c0eb4a666c0019561a80","","null","","","","","","","learning/Slide16.JPG","null","","","","","",""
"html-keyboard-response","52","220733","0.0-5.0-1.15","FL","j07stgzsr2","1920","1080","0","1","0","5d77c0eb4a666c0019561a80","","null","","","learningBlock1","","","","That was a dep.","null","","","","","",""
"html-keyboard-response","53","221734","0.0-5.0-2.15","FL","j07stgzsr2","1920","1080","0","1","0","5d77c0eb4a666c0019561a80","","null","","","learningBlock1","","","","<div style=""font-size:60px;""> </div>","null","FL","learning/Slide16.JPG","That was a dep.","","",""
"image-keyboard-response","54","221910","0.0-5.0-0.16","FL","j07stgzsr2","1920","1080","0","1","0","5d77c0eb4a666c0019561a80","","null","","","","","","","learning/Slide17.JPG","null","","","","","",""
"html-keyboard-response","55","223063","0.0-5.0-1.16","FL","j07stgzsr2","1920","1080","0","1","0","5d77c0eb4a666c0019561a80","","null","","","learningBlock1","","","","That was a bim.","null","","","","","",""
"html-keyboard-response","56","224064","0.0-5.0-2.16","FL","j07stgzsr2","1920","1080","0","1","0","5d77c0eb4a666c0019561a80","","null","","","learningBlock1","","","","<div style=""font-size:60px;""> </div>","null","FL","learning/Slide17.JPG","That was a bim.","","",""
"image-keyboard-response","57","224240","0.0-5.0-0.17","FL","j07stgzsr2","1920","1080","0","1","0","5d77c0eb4a666c0019561a80","","null","","","","","","","learning/Slide18.JPG","null","","","","","",""
"html-keyboard-response","58","225394","0.0-5.0-1.17","FL","j07stgzsr2","1920","1080","0","1","0","5d77c0eb4a666c0019561a80","","null","","","learningBlock1","","","","That was a tob.","null","","","","","",""
"html-keyboard-response","59","226396","0.0-5.0-2.17","FL","j07stgzsr2","1920","1080","0","1","0","5d77c0eb4a666c0019561a80","","null","","","learningBlock1","","","","<div style=""font-size:60px;""> </div>","null","FL","learning/Slide18.JPG","That was a tob.","","",""
"image-keyboard-response","60","226572","0.0-5.0-0.18","FL","j07stgzsr2","1920","1080","0","1","0","5d77c0eb4a666c0019561a80","","null","","","","","","","learning/Slide19.JPG","null","","","","","",""
"html-keyboard-response","61","227724","0.0-5.0-1.18","FL","j07stgzsr2","1920","1080","0","1","0","5d77c0eb4a666c0019561a80","","null","","","learningBlock1","","","","That was a wug.","null","","","","","",""
"html-keyboard-response","62","228727","0.0-5.0-2.18","FL","j07stgzsr2","1920","1080","0","1","0","5d77c0eb4a666c0019561a80","","null","","","learningBlock1","","","","<div style=""font-size:60px;""> </div>","null","FL","learning/Slide19.JPG","That was a wug.","","",""
"image-keyboard-response","63","228903","0.0-5.0-0.19","FL","j07stgzsr2","1920","1080","0","1","0","5d77c0eb4a666c0019561a80","","null","","","","","","","learning/Slide20.JPG","null","","","","","",""
"html-keyboard-response","64","230057","0.0-5.0-1.19","FL","j07stgzsr2","1920","1080","0","1","0","5d77c0eb4a666c0019561a80","","null","","","learningBlock1","","","","That was a bim.","null","","","","","",""
"html-keyboard-response","65","231059","0.0-5.0-2.19","FL","j07stgzsr2","1920","1080","0","1","0","5d77c0eb4a666c0019561a80","","null","","","learningBlock1","","","","<div style=""font-size:60px;""> </div>","null","FL","learning/Slide20.JPG","That was a bim.","","",""
"image-keyboard-response","66","231236","0.0-5.0-0.20","FL","j07stgzsr2","1920","1080","0","1","0","5d77c0eb4a666c0019561a80","","null","","","","","","","learning/Slide21.JPG","null","","","","","",""
"html-keyboard-response","67","232389","0.0-5.0-1.20","FL","j07stgzsr2","1920","1080","0","1","0","5d77c0eb4a666c0019561a80","","null","","","learningBlock1","","","","That was a dep.","null","","","","","",""
"html-keyboard-response","68","233391","0.0-5.0-2.20","FL","j07stgzsr2","1920","1080","0","1","0","5d77c0eb4a666c0019561a80","","null","","","learningBlock1","","","","<div style=""font-size:60px;""> </div>","null","FL","learning/Slide21.JPG","That was a dep.","","",""
"image-keyboard-response","69","233569","0.0-5.0-0.21","FL","j07stgzsr2","1920","1080","0","1","0","5d77c0eb4a666c0019561a80","","null","","","","","","","learning/Slide22.JPG","null","","","","","",""
"html-keyboard-response","70","234723","0.0-5.0-1.21","FL","j07stgzsr2","1920","1080","0","1","0","5d77c0eb4a666c0019561a80","","null","","","learningBlock1","","","","That was a bim.","null","","","","","",""
"html-keyboard-response","71","235724","0.0-5.0-2.21","FL","j07stgzsr2","1920","1080","0","1","0","5d77c0eb4a666c0019561a80","","null","","","learningBlock1","","","","<div style=""font-size:60px;""> </div>","null","FL","learning/Slide22.JPG","That was a bim.","","",""
"image-keyboard-response","72","235900","0.0-5.0-0.22","FL","j07stgzsr2","1920","1080","0","1","0","5d77c0eb4a666c0019561a80","","null","","","","","","","learning/Slide23.JPG","null","","","","","",""
"html-keyboard-response","73","237053","0.0-5.0-1.22","FL","j07stgzsr2","1920","1080","0","1","0","5d77c0eb4a666c0019561a80","","null","","","learningBlock1","","","","That was a tob.","null","","","","","",""
"html-keyboard-response","74","238055","0.0-5.0-2.22","FL","j07stgzsr2","1920","1080","0","1","0","5d77c0eb4a666c0019561a80","","null","","","learningBlock1","","","","<div style=""font-size:60px;""> </div>","null","FL","learning/Slide23.JPG","That was a tob.","","",""
"image-keyboard-response","75","238231","0.0-5.0-0.23","FL","j07stgzsr2","1920","1080","0","1","0","5d77c0eb4a666c0019561a80","","null","","","","","","","learning/Slide24.JPG","null","","","","","",""
"html-keyboard-response","76","239384","0.0-5.0-1.23","FL","j07stgzsr2","1920","1080","0","1","0","5d77c0eb4a666c0019561a80","","null","","","learningBlock1","","","","That was a wug.","null","","","","","",""
"html-keyboard-response","77","240385","0.0-5.0-2.23","FL","j07stgzsr2","1920","1080","0","1","0","5d77c0eb4a666c0019561a80","","null","","","learningBlock1","","","","<div style=""font-size:60px;""> </div>","null","FL","learning/Slide24.JPG","That was a wug.","","",""
"image-keyboard-response","78","240561","0.0-5.0-0.24","FL","j07stgzsr2","1920","1080","0","1","0","5d77c0eb4a666c0019561a80","","null","","","","","","","learning/Slide25.JPG","null","","","","","",""
"html-keyboard-response","79","241713","0.0-5.0-1.24","FL","j07stgzsr2","1920","1080","0","1","0","5d77c0eb4a666c0019561a80","","null","","","learningBlock1","","","","That was a dep.","null","","","","","",""
"html-keyboard-response","80","242715","0.0-5.0-2.24","FL","j07stgzsr2","1920","1080","0","1","0","5d77c0eb4a666c0019561a80","","null","","","learningBlock1","","","","<div style=""font-size:60px;""> </div>","null","FL","learning/Slide25.JPG","That was a dep.","","",""
"image-keyboard-response","81","242892","0.0-5.0-0.25","FL","j07stgzsr2","1920","1080","0","1","0","5d77c0eb4a666c0019561a80","","null","","","","","","","learning/Slide26.JPG","null","","","","","",""
"html-keyboard-response","82","244045","0.0-5.0-1.25","FL","j07stgzsr2","1920","1080","0","1","0","5d77c0eb4a666c0019561a80","","null","","","learningBlock1","","","","That was a wug.","null","","","","","",""
"html-keyboard-response","83","245046","0.0-5.0-2.25","FL","j07stgzsr2","1920","1080","0","1","0","5d77c0eb4a666c0019561a80","","null","","","learningBlock1","","","","<div style=""font-size:60px;""> </div>","null","FL","learning/Slide26.JPG","That was a wug.","","",""
"image-keyboard-response","84","245222","0.0-5.0-0.26","FL","j07stgzsr2","1920","1080","0","1","0","5d77c0eb4a666c0019561a80","","null","","","","","","","learning/Slide27.JPG","null","","","","","",""
"html-keyboard-response","85","246375","0.0-5.0-1.26","FL","j07stgzsr2","1920","1080","0","1","0","5d77c0eb4a666c0019561a80","","null","","","learningBlock1","","","","That was a bim.","null","","","","","",""
"html-keyboard-response","86","247377","0.0-5.0-2.26","FL","j07stgzsr2","1920","1080","0","1","0","5d77c0eb4a666c0019561a80","","null","","","learningBlock1","","","","<div style=""font-size:60px;""> </div>","null","FL","learning/Slide27.JPG","That was a bim.","","",""
"image-keyboard-response","87","247553","0.0-5.0-0.27","FL","j07stgzsr2","1920","1080","0","1","0","5d77c0eb4a666c0019561a80","","null","","","","","","","learning/Slide28.JPG","null","","","","","",""
"html-keyboard-response","88","248705","0.0-5.0-1.27","FL","j07stgzsr2","1920","1080","0","1","0","5d77c0eb4a666c0019561a80","","null","","","learningBlock1","","","","That was a dep.","null","","","","","",""
"html-keyboard-response","89","249706","0.0-5.0-2.27","FL","j07stgzsr2","1920","1080","0","1","0","5d77c0eb4a666c0019561a80","","null","","","learningBlock1","","","","<div style=""font-size:60px;""> </div>","null","FL","learning/Slide28.JPG","That was a dep.","","",""
"image-keyboard-response","90","249882","0.0-5.0-0.28","FL","j07stgzsr2","1920","1080","0","1","0","5d77c0eb4a666c0019561a80","","null","","","","","","","learning/Slide29.JPG","null","","","","","",""
"html-keyboard-response","91","251034","0.0-5.0-1.28","FL","j07stgzsr2","1920","1080","0","1","0","5d77c0eb4a666c0019561a80","","null","","","learningBlock1","","","","That was a tob.","null","","","","","",""
"html-keyboard-response","92","252036","0.0-5.0-2.28","FL","j07stgzsr2","1920","1080","0","1","0","5d77c0eb4a666c0019561a80","","null","","","learningBlock1","","","","<div style=""font-size:60px;""> </div>","null","FL","learning/Slide29.JPG","That was a tob.","","",""
"image-keyboard-response","93","252213","0.0-5.0-0.29","FL","j07stgzsr2","1920","1080","0","1","0","5d77c0eb4a666c0019561a80","","null","","","","","","","learning/Slide30.JPG","null","","","","","",""
"html-keyboard-response","94","253365","0.0-5.0-1.29","FL","j07stgzsr2","1920","1080","0","1","0","5d77c0eb4a666c0019561a80","","null","","","learningBlock1","","","","That was a dep.","null","","","","","",""
"html-keyboard-response","95","254367","0.0-5.0-2.29","FL","j07stgzsr2","1920","1080","0","1","0","5d77c0eb4a666c0019561a80","","null","","","learningBlock1","","","","<div style=""font-size:60px;""> </div>","null","FL","learning/Slide30.JPG","That was a dep.","","",""
"image-keyboard-response","96","254543","0.0-5.0-0.30","FL","j07stgzsr2","1920","1080","0","1","0","5d77c0eb4a666c0019561a80","","null","","","","","","","learning/Slide31.JPG","null","","","","","",""
"html-keyboard-response","97","255696","0.0-5.0-1.30","FL","j07stgzsr2","1920","1080","0","1","0","5d77c0eb4a666c0019561a80","","null","","","learningBlock1","","","","That was a wug.","null","","","","","",""
"html-keyboard-response","98","256698","0.0-5.0-2.30","FL","j07stgzsr2","1920","1080","0","1","0","5d77c0eb4a666c0019561a80","","null","","","learningBlock1","","","","<div style=""font-size:60px;""> </div>","null","FL","learning/Slide31.JPG","That was a wug.","","",""
"image-keyboard-response","99","256874","0.0-5.0-0.31","FL","j07stgzsr2","1920","1080","0","1","0","5d77c0eb4a666c0019561a80","","null","","","","","","","learning/Slide32.JPG","null","","","","","",""
"html-keyboard-response","100","258026","0.0-5.0-1.31","FL","j07stgzsr2","1920","1080","0","1","0","5d77c0eb4a666c0019561a80","","null","","","learningBlock1","","","","That was a tob.","null","","","","","",""
"html-keyboard-response","101","259027","0.0-5.0-2.31","FL","j07stgzsr2","1920","1080","0","1","0","5d77c0eb4a666c0019561a80","","null","","","learningBlock1","","","","<div style=""font-size:60px;""> </div>","null","FL","learning/Slide32.JPG","That was a tob.","","",""
"image-keyboard-response","102","259204","0.0-5.0-0.32","FL","j07stgzsr2","1920","1080","0","1","0","5d77c0eb4a666c0019561a80","","null","","","","","","","learning/Slide33.JPG","null","","","","","",""
"html-keyboard-response","103","260357","0.0-5.0-1.32","FL","j07stgzsr2","1920","1080","0","1","0","5d77c0eb4a666c0019561a80","","null","","","learningBlock1","","","","That was a bim.","null","","","","","",""
"html-keyboard-response","104","261359","0.0-5.0-2.32","FL","j07stgzsr2","1920","1080","0","1","0","5d77c0eb4a666c0019561a80","","null","","","learningBlock1","","","","<div style=""font-size:60px;""> </div>","null","FL","learning/Slide33.JPG","That was a bim.","","",""
"image-keyboard-response","105","261536","0.0-5.0-0.33","FL","j07stgzsr2","1920","1080","0","1","0","5d77c0eb4a666c0019561a80","","null","","","","","","","learning/Slide34.JPG","null","","","","","",""
"html-keyboard-response","106","262689","0.0-5.0-1.33","FL","j07stgzsr2","1920","1080","0","1","0","5d77c0eb4a666c0019561a80","","null","","","learningBlock1","","","","That was a tob.","null","","","","","",""
"html-keyboard-response","107","263690","0.0-5.0-2.33","FL","j07stgzsr2","1920","1080","0","1","0","5d77c0eb4a666c0019561a80","","null","","","learningBlock1","","","","<div style=""font-size:60px;""> </div>","null","FL","learning/Slide34.JPG","That was a tob.","","",""
"image-keyboard-response","108","263866","0.0-5.0-0.34","FL","j07stgzsr2","1920","1080","0","1","0","5d77c0eb4a666c0019561a80","","null","","","","","","","learning/Slide35.JPG","null","","","","","",""
"html-keyboard-response","109","265018","0.0-5.0-1.34","FL","j07stgzsr2","1920","1080","0","1","0","5d77c0eb4a666c0019561a80","","null","","","learningBlock1","","","","That was a bim.","null","","","","","",""
"html-keyboard-response","110","266019","0.0-5.0-2.34","FL","j07stgzsr2","1920","1080","0","1","0","5d77c0eb4a666c0019561a80","","null","","","learningBlock1","","","","<div style=""font-size:60px;""> </div>","null","FL","learning/Slide35.JPG","That was a bim.","","",""
"image-keyboard-response","111","266195","0.0-5.0-0.35","FL","j07stgzsr2","1920","1080","0","1","0","5d77c0eb4a666c0019561a80","","null","","","","","","","learning/Slide36.JPG","null","","","","","",""
"html-keyboard-response","112","267348","0.0-5.0-1.35","FL","j07stgzsr2","1920","1080","0","1","0","5d77c0eb4a666c0019561a80","","null","","","learningBlock1","","","","That was a dep.","null","","","","","",""
"html-keyboard-response","113","268349","0.0-5.0-2.35","FL","j07stgzsr2","1920","1080","0","1","0","5d77c0eb4a666c0019561a80","","null","","","learningBlock1","","","","<div style=""font-size:60px;""> </div>","null","FL","learning/Slide36.JPG","That was a dep.","","",""
"image-keyboard-response","114","268525","0.0-5.0-0.36","FL","j07stgzsr2","1920","1080","0","1","0","5d77c0eb4a666c0019561a80","","null","","","","","","","learning/Slide37.JPG","null","","","","","",""
"html-keyboard-response","115","269677","0.0-5.0-1.36","FL","j07stgzsr2","1920","1080","0","1","0","5d77c0eb4a666c0019561a80","","null","","","learningBlock1","","","","That was a tob.","null","","","","","",""
"html-keyboard-response","116","270679","0.0-5.0-2.36","FL","j07stgzsr2","1920","1080","0","1","0","5d77c0eb4a666c0019561a80","","null","","","learningBlock1","","","","<div style=""font-size:60px;""> </div>","null","FL","learning/Slide37.JPG","That was a tob.","","",""
"image-keyboard-response","117","270856","0.0-5.0-0.37","FL","j07stgzsr2","1920","1080","0","1","0","5d77c0eb4a666c0019561a80","","null","","","","","","","learning/Slide38.JPG","null","","","","","",""
"html-keyboard-response","118","272009","0.0-5.0-1.37","FL","j07stgzsr2","1920","1080","0","1","0","5d77c0eb4a666c0019561a80","","null","","","learningBlock1","","","","That was a wug.","null","","","","","",""
"html-keyboard-response","119","273010","0.0-5.0-2.37","FL","j07stgzsr2","1920","1080","0","1","0","5d77c0eb4a666c0019561a80","","null","","","learningBlock1","","","","<div style=""font-size:60px;""> </div>","null","FL","learning/Slide38.JPG","That was a wug.","","",""
"image-keyboard-response","120","273187","0.0-5.0-0.38","FL","j07stgzsr2","1920","1080","0","1","0","5d77c0eb4a666c0019561a80","","null","","","","","","","learning/Slide39.JPG","null","","","","","",""
"html-keyboard-response","121","274340","0.0-5.0-1.38","FL","j07stgzsr2","1920","1080","0","1","0","5d77c0eb4a666c0019561a80","","null","","","learningBlock1","","","","That was a bim.","null","","","","","",""
"html-keyboard-response","122","275342","0.0-5.0-2.38","FL","j07stgzsr2","1920","1080","0","1","0","5d77c0eb4a666c0019561a80","","null","","","learningBlock1","","","","<div style=""font-size:60px;""> </div>","null","FL","learning/Slide39.JPG","That was a bim.","","",""
"image-keyboard-response","123","275518","0.0-5.0-0.39","FL","j07stgzsr2","1920","1080","0","1","0","5d77c0eb4a666c0019561a80","","null","","","","","","","learning/Slide40.JPG","null","","","","","",""
"html-keyboard-response","124","276670","0.0-5.0-1.39","FL","j07stgzsr2","1920","1080","0","1","0","5d77c0eb4a666c0019561a80","","null","","","learningBlock1","","","","That was a tob.","null","","","","","",""
"html-keyboard-response","125","277671","0.0-5.0-2.39","FL","j07stgzsr2","1920","1080","0","1","0","5d77c0eb4a666c0019561a80","","null","","","learningBlock1","","","","<div style=""font-size:60px;""> </div>","null","FL","learning/Slide40.JPG","That was a tob.","","",""
"image-keyboard-response","126","277847","0.0-5.0-0.40","FL","j07stgzsr2","1920","1080","0","1","0","5d77c0eb4a666c0019561a80","","null","","","","","","","learning/Slide41.JPG","null","","","","","",""
"html-keyboard-response","127","278999","0.0-5.0-1.40","FL","j07stgzsr2","1920","1080","0","1","0","5d77c0eb4a666c0019561a80","","null","","","learningBlock1","","","","That was a bim.","null","","","","","",""
"html-keyboard-response","128","280000","0.0-5.0-2.40","FL","j07stgzsr2","1920","1080","0","1","0","5d77c0eb4a666c0019561a80","","null","","","learningBlock1","","","","<div style=""font-size:60px;""> </div>","null","FL","learning/Slide41.JPG","That was a bim.","","",""
"image-keyboard-response","129","280177","0.0-5.0-0.41","FL","j07stgzsr2","1920","1080","0","1","0","5d77c0eb4a666c0019561a80","","null","","","","","","","learning/Slide42.JPG","null","","","","","",""
"html-keyboard-response","130","281331","0.0-5.0-1.41","FL","j07stgzsr2","1920","1080","0","1","0","5d77c0eb4a666c0019561a80","","null","","","learningBlock1","","","","That was a dep.","null","","","","","",""
"html-keyboard-response","131","282332","0.0-5.0-2.41","FL","j07stgzsr2","1920","1080","0","1","0","5d77c0eb4a666c0019561a80","","null","","","learningBlock1","","","","<div style=""font-size:60px;""> </div>","null","FL","learning/Slide42.JPG","That was a dep.","","",""
"image-keyboard-response","132","282509","0.0-5.0-0.42","FL","j07stgzsr2","1920","1080","0","1","0","5d77c0eb4a666c0019561a80","","null","","","","","","","learning/Slide43.JPG","null","","","","","",""
"html-keyboard-response","133","283661","0.0-5.0-1.42","FL","j07stgzsr2","1920","1080","0","1","0","5d77c0eb4a666c0019561a80","","null","","","learningBlock1","","","","That was a wug.","null","","","","","",""
"html-keyboard-response","134","284672","0.0-5.0-2.42","FL","j07stgzsr2","1920","1080","0","1","0","5d77c0eb4a666c0019561a80","","null","","","learningBlock1","","","","<div style=""font-size:60px;""> </div>","null","FL","learning/Slide43.JPG","That was a wug.","","",""
"image-keyboard-response","135","284849","0.0-5.0-0.43","FL","j07stgzsr2","1920","1080","0","1","0","5d77c0eb4a666c0019561a80","","null","","","","","","","learning/Slide44.JPG","null","","","","","",""
"html-keyboard-response","136","286005","0.0-5.0-1.43","FL","j07stgzsr2","1920","1080","0","1","0","5d77c0eb4a666c0019561a80","","null","","","learningBlock1","","","","That was a bim.","null","","","","","",""
"html-keyboard-response","137","287006","0.0-5.0-2.43","FL","j07stgzsr2","1920","1080","0","1","0","5d77c0eb4a666c0019561a80","","null","","","learningBlock1","","","","<div style=""font-size:60px;""> </div>","null","FL","learning/Slide44.JPG","That was a bim.","","",""
"image-keyboard-response","138","287182","0.0-5.0-0.44","FL","j07stgzsr2","1920","1080","0","1","0","5d77c0eb4a666c0019561a80","","null","","","","","","","learning/Slide45.JPG","null","","","","","",""
"html-keyboard-response","139","288335","0.0-5.0-1.44","FL","j07stgzsr2","1920","1080","0","1","0","5d77c0eb4a666c0019561a80","","null","","","learningBlock1","","","","That was a wug.","null","","","","","",""
"html-keyboard-response","140","289336","0.0-5.0-2.44","FL","j07stgzsr2","1920","1080","0","1","0","5d77c0eb4a666c0019561a80","","null","","","learningBlock1","","","","<div style=""font-size:60px;""> </div>","null","FL","learning/Slide45.JPG","That was a wug.","","",""
"image-keyboard-response","141","289512","0.0-5.0-0.45","FL","j07stgzsr2","1920","1080","0","1","0","5d77c0eb4a666c0019561a80","","null","","","","","","","learning/Slide46.JPG","null","","","","","",""
"html-keyboard-response","142","290665","0.0-5.0-1.45","FL","j07stgzsr2","1920","1080","0","1","0","5d77c0eb4a666c0019561a80","","null","","","learningBlock1","","","","That was a dep.","null","","","","","",""
"html-keyboard-response","143","291666","0.0-5.0-2.45","FL","j07stgzsr2","1920","1080","0","1","0","5d77c0eb4a666c0019561a80","","null","","","learningBlock1","","","","<div style=""font-size:60px;""> </div>","null","FL","learning/Slide46.JPG","That was a dep.","","",""
"image-keyboard-response","144","291843","0.0-5.0-0.46","FL","j07stgzsr2","1920","1080","0","1","0","5d77c0eb4a666c0019561a80","","null","","","","","","","learning/Slide47.JPG","null","","","","","",""
"html-keyboard-response","145","292996","0.0-5.0-1.46","FL","j07stgzsr2","1920","1080","0","1","0","5d77c0eb4a666c0019561a80","","null","","","learningBlock1","","","","That was a tob.","null","","","","","",""
"html-keyboard-response","146","293996","0.0-5.0-2.46","FL","j07stgzsr2","1920","1080","0","1","0","5d77c0eb4a666c0019561a80","","null","","","learningBlock1","","","","<div style=""font-size:60px;""> </div>","null","FL","learning/Slide47.JPG","That was a tob.","","",""
"image-keyboard-response","147","294173","0.0-5.0-0.47","FL","j07stgzsr2","1920","1080","0","1","0","5d77c0eb4a666c0019561a80","","null","","","","","","","learning/Slide48.JPG","null","","","","","",""
"html-keyboard-response","148","295326","0.0-5.0-1.47","FL","j07stgzsr2","1920","1080","0","1","0","5d77c0eb4a666c0019561a80","","null","","","learningBlock1","","","","That was a bim.","null","","","","","",""
"html-keyboard-response","149","296328","0.0-5.0-2.47","FL","j07stgzsr2","1920","1080","0","1","0","5d77c0eb4a666c0019561a80","","null","","","learningBlock1","","","","<div style=""font-size:60px;""> </div>","null","FL","learning/Slide48.JPG","That was a bim.","","",""
"image-keyboard-response","150","296504","0.0-5.0-0.48","FL","j07stgzsr2","1920","1080","0","1","0","5d77c0eb4a666c0019561a80","","null","","","","","","","learning/Slide49.JPG","null","","","","","",""
"html-keyboard-response","151","297656","0.0-5.0-1.48","FL","j07stgzsr2","1920","1080","0","1","0","5d77c0eb4a666c0019561a80","","null","","","learningBlock1","","","","That was a dep.","null","","","","","",""
"html-keyboard-response","152","298657","0.0-5.0-2.48","FL","j07stgzsr2","1920","1080","0","1","0","5d77c0eb4a666c0019561a80","","null","","","learningBlock1","","","","<div style=""font-size:60px;""> </div>","null","FL","learning/Slide49.JPG","That was a dep.","","",""
"image-keyboard-response","153","298834","0.0-5.0-0.49","FL","j07stgzsr2","1920","1080","0","1","0","5d77c0eb4a666c0019561a80","","null","","","","","","","learning/Slide50.JPG","null","","","","","",""
"html-keyboard-response","154","299986","0.0-5.0-1.49","FL","j07stgzsr2","1920","1080","0","1","0","5d77c0eb4a666c0019561a80","","null","","","learningBlock1","","","","That was a tob.","null","","","","","",""
"html-keyboard-response","155","300987","0.0-5.0-2.49","FL","j07stgzsr2","1920","1080","0","1","0","5d77c0eb4a666c0019561a80","","null","","","learningBlock1","","","","<div style=""font-size:60px;""> </div>","null","FL","learning/Slide50.JPG","That was a tob.","","",""
"image-keyboard-response","156","301164","0.0-5.0-0.50","FL","j07stgzsr2","1920","1080","0","1","0","5d77c0eb4a666c0019561a80","","null","","","","","","","learning/Slide51.JPG","null","","","","","",""
"html-keyboard-response","157","302316","0.0-5.0-1.50","FL","j07stgzsr2","1920","1080","0","1","0","5d77c0eb4a666c0019561a80","","null","","","learningBlock1","","","","That was a bim.","null","","","","","",""
"html-keyboard-response","158","303318","0.0-5.0-2.50","FL","j07stgzsr2","1920","1080","0","1","0","5d77c0eb4a666c0019561a80","","null","","","learningBlock1","","","","<div style=""font-size:60px;""> </div>","null","FL","learning/Slide51.JPG","That was a bim.","","",""
"image-keyboard-response","159","303495","0.0-5.0-0.51","FL","j07stgzsr2","1920","1080","0","1","0","5d77c0eb4a666c0019561a80","","null","","","","","","","learning/Slide52.JPG","null","","","","","",""
"html-keyboard-response","160","304646","0.0-5.0-1.51","FL","j07stgzsr2","1920","1080","0","1","0","5d77c0eb4a666c0019561a80","","null","","","learningBlock1","","","","That was a wug.","null","","","","","",""
"html-keyboard-response","161","305648","0.0-5.0-2.51","FL","j07stgzsr2","1920","1080","0","1","0","5d77c0eb4a666c0019561a80","","null","","","learningBlock1","","","","<div style=""font-size:60px;""> </div>","null","FL","learning/Slide52.JPG","That was a wug.","","",""
"image-keyboard-response","162","305824","0.0-5.0-0.52","FL","j07stgzsr2","1920","1080","0","1","0","5d77c0eb4a666c0019561a80","","null","","","","","","","learning/Slide53.JPG","null","","","","","",""
"html-keyboard-response","163","306978","0.0-5.0-1.52","FL","j07stgzsr2","1920","1080","0","1","0","5d77c0eb4a666c0019561a80","","null","","","learningBlock1","","","","That was a tob.","null","","","","","",""
"html-keyboard-response","164","307979","0.0-5.0-2.52","FL","j07stgzsr2","1920","1080","0","1","0","5d77c0eb4a666c0019561a80","","null","","","learningBlock1","","","","<div style=""font-size:60px;""> </div>","null","FL","learning/Slide53.JPG","That was a tob.","","",""
"image-keyboard-response","165","308156","0.0-5.0-0.53","FL","j07stgzsr2","1920","1080","0","1","0","5d77c0eb4a666c0019561a80","","null","","","","","","","learning/Slide54.JPG","null","","","","","",""
"html-keyboard-response","166","309310","0.0-5.0-1.53","FL","j07stgzsr2","1920","1080","0","1","0","5d77c0eb4a666c0019561a80","","null","","","learningBlock1","","","","That was a dep.","null","","","","","",""
"html-keyboard-response","167","310312","0.0-5.0-2.53","FL","j07stgzsr2","1920","1080","0","1","0","5d77c0eb4a666c0019561a80","","null","","","learningBlock1","","","","<div style=""font-size:60px;""> </div>","null","FL","learning/Slide54.JPG","That was a dep.","","",""
"image-keyboard-response","168","310489","0.0-5.0-0.54","FL","j07stgzsr2","1920","1080","0","1","0","5d77c0eb4a666c0019561a80","","null","","","","","","","learning/Slide55.JPG","null","","","","","",""
"html-keyboard-response","169","311642","0.0-5.0-1.54","FL","j07stgzsr2","1920","1080","0","1","0","5d77c0eb4a666c0019561a80","","null","","","learningBlock1","","","","That was a bim.","null","","","","","",""
"html-keyboard-response","170","312644","0.0-5.0-2.54","FL","j07stgzsr2","1920","1080","0","1","0","5d77c0eb4a666c0019561a80","","null","","","learningBlock1","","","","<div style=""font-size:60px;""> </div>","null","FL","learning/Slide55.JPG","That was a bim.","","",""
"image-keyboard-response","171","312820","0.0-5.0-0.55","FL","j07stgzsr2","1920","1080","0","1","0","5d77c0eb4a666c0019561a80","","null","","","","","","","learning/Slide56.JPG","null","","","","","",""
"html-keyboard-response","172","313971","0.0-5.0-1.55","FL","j07stgzsr2","1920","1080","0","1","0","5d77c0eb4a666c0019561a80","","null","","","learningBlock1","","","","That was a tob.","null","","","","","",""
"html-keyboard-response","173","314972","0.0-5.0-2.55","FL","j07stgzsr2","1920","1080","0","1","0","5d77c0eb4a666c0019561a80","","null","","","learningBlock1","","","","<div style=""font-size:60px;""> </div>","null","FL","learning/Slide56.JPG","That was a tob.","","",""
"image-keyboard-response","174","315148","0.0-5.0-0.56","FL","j07stgzsr2","1920","1080","0","1","0","5d77c0eb4a666c0019561a80","","null","","","","","","","learning/Slide57.JPG","null","","","","","",""
"html-keyboard-response","175","316302","0.0-5.0-1.56","FL","j07stgzsr2","1920","1080","0","1","0","5d77c0eb4a666c0019561a80","","null","","","learningBlock1","","","","That was a dep.","null","","","","","",""
"html-keyboard-response","176","317303","0.0-5.0-2.56","FL","j07stgzsr2","1920","1080","0","1","0","5d77c0eb4a666c0019561a80","","null","","","learningBlock1","","","","<div style=""font-size:60px;""> </div>","null","FL","learning/Slide57.JPG","That was a dep.","","",""
"image-keyboard-response","177","317479","0.0-5.0-0.57","FL","j07stgzsr2","1920","1080","0","1","0","5d77c0eb4a666c0019561a80","","null","","","","","","","learning/Slide58.JPG","null","","","","","",""
"html-keyboard-response","178","318632","0.0-5.0-1.57","FL","j07stgzsr2","1920","1080","0","1","0","5d77c0eb4a666c0019561a80","","null","","","learningBlock1","","","","That was a wug.","null","","","","","",""
"html-keyboard-response","179","319633","0.0-5.0-2.57","FL","j07stgzsr2","1920","1080","0","1","0","5d77c0eb4a666c0019561a80","","null","","","learningBlock1","","","","<div style=""font-size:60px;""> </div>","null","FL","learning/Slide58.JPG","That was a wug.","","",""
"image-keyboard-response","180","319809","0.0-5.0-0.58","FL","j07stgzsr2","1920","1080","0","1","0","5d77c0eb4a666c0019561a80","","null","","","","","","","learning/Slide59.JPG","null","","","","","",""
"html-keyboard-response","181","320961","0.0-5.0-1.58","FL","j07stgzsr2","1920","1080","0","1","0","5d77c0eb4a666c0019561a80","","null","","","learningBlock1","","","","That was a dep.","null","","","","","",""
"html-keyboard-response","182","321963","0.0-5.0-2.58","FL","j07stgzsr2","1920","1080","0","1","0","5d77c0eb4a666c0019561a80","","null","","","learningBlock1","","","","<div style=""font-size:60px;""> </div>","null","FL","learning/Slide59.JPG","That was a dep.","","",""
"image-keyboard-response","183","322139","0.0-5.0-0.59","FL","j07stgzsr2","1920","1080","0","1","0","5d77c0eb4a666c0019561a80","","null","","","","","","","learning/Slide60.JPG","null","","","","","",""
"html-keyboard-response","184","323292","0.0-5.0-1.59","FL","j07stgzsr2","1920","1080","0","1","0","5d77c0eb4a666c0019561a80","","null","","","learningBlock1","","","","That was a wug.","null","","","","","",""
"html-keyboard-response","185","324294","0.0-5.0-2.59","FL","j07stgzsr2","1920","1080","0","1","0","5d77c0eb4a666c0019561a80","","null","","","learningBlock1","","","","<div style=""font-size:60px;""> </div>","null","FL","learning/Slide60.JPG","That was a wug.","","",""
"image-keyboard-response","186","324471","0.0-5.0-0.60","FL","j07stgzsr2","1920","1080","0","1","0","5d77c0eb4a666c0019561a80","","null","","","","","","","learning/Slide61.JPG","null","","","","","",""
"html-keyboard-response","187","325624","0.0-5.0-1.60","FL","j07stgzsr2","1920","1080","0","1","0","5d77c0eb4a666c0019561a80","","null","","","learningBlock1","","","","That was a bim.","null","","","","","",""
"html-keyboard-response","188","326626","0.0-5.0-2.60","FL","j07stgzsr2","1920","1080","0","1","0","5d77c0eb4a666c0019561a80","","null","","","learningBlock1","","","","<div style=""font-size:60px;""> </div>","null","FL","learning/Slide61.JPG","That was a bim.","","",""
"image-keyboard-response","189","326802","0.0-5.0-0.61","FL","j07stgzsr2","1920","1080","0","1","0","5d77c0eb4a666c0019561a80","","null","","","","","","","learning/Slide62.JPG","null","","","","","",""
"html-keyboard-response","190","327955","0.0-5.0-1.61","FL","j07stgzsr2","1920","1080","0","1","0","5d77c0eb4a666c0019561a80","","null","","","learningBlock1","","","","That was a dep.","null","","","","","",""
"html-keyboard-response","191","328957","0.0-5.0-2.61","FL","j07stgzsr2","1920","1080","0","1","0","5d77c0eb4a666c0019561a80","","null","","","learningBlock1","","","","<div style=""font-size:60px;""> </div>","null","FL","learning/Slide62.JPG","That was a dep.","","",""
"image-keyboard-response","192","329134","0.0-5.0-0.62","FL","j07stgzsr2","1920","1080","0","1","0","5d77c0eb4a666c0019561a80","","null","","","","","","","learning/Slide63.JPG","null","","","","","",""
"html-keyboard-response","193","330286","0.0-5.0-1.62","FL","j07stgzsr2","1920","1080","0","1","0","5d77c0eb4a666c0019561a80","","null","","","learningBlock1","","","","That was a bim.","null","","","","","",""
"html-keyboard-response","194","331288","0.0-5.0-2.62","FL","j07stgzsr2","1920","1080","0","1","0","5d77c0eb4a666c0019561a80","","null","","","learningBlock1","","","","<div style=""font-size:60px;""> </div>","null","FL","learning/Slide63.JPG","That was a bim.","","",""
"image-keyboard-response","195","331464","0.0-5.0-0.63","FL","j07stgzsr2","1920","1080","0","1","0","5d77c0eb4a666c0019561a80","","null","","","","","","","learning/Slide64.JPG","null","","","","","",""
"html-keyboard-response","196","332617","0.0-5.0-1.63","FL","j07stgzsr2","1920","1080","0","1","0","5d77c0eb4a666c0019561a80","","null","","","learningBlock1","","","","That was a tob.","null","","","","","",""
"html-keyboard-response","197","333619","0.0-5.0-2.63","FL","j07stgzsr2","1920","1080","0","1","0","5d77c0eb4a666c0019561a80","","null","","","learningBlock1","","","","<div style=""font-size:60px;""> </div>","null","FL","learning/Slide64.JPG","That was a tob.","","",""
"image-keyboard-response","198","333795","0.0-5.0-0.64","FL","j07stgzsr2","1920","1080","0","1","0","5d77c0eb4a666c0019561a80","","null","","","","","","","learning/Slide65.JPG","null","","","","","",""
"html-keyboard-response","199","334953","0.0-5.0-1.64","FL","j07stgzsr2","1920","1080","0","1","0","5d77c0eb4a666c0019561a80","","null","","","learningBlock1","","","","That was a wug.","null","","","","","",""
"html-keyboard-response","200","335956","0.0-5.0-2.64","FL","j07stgzsr2","1920","1080","0","1","0","5d77c0eb4a666c0019561a80","","null","","","learningBlock1","","","","<div style=""font-size:60px;""> </div>","null","FL","learning/Slide65.JPG","That was a wug.","","",""
"image-keyboard-response","201","336132","0.0-5.0-0.65","FL","j07stgzsr2","1920","1080","0","1","0","5d77c0eb4a666c0019561a80","","null","","","","","","","learning/Slide66.JPG","null","","","","","",""
"html-keyboard-response","202","337284","0.0-5.0-1.65","FL","j07stgzsr2","1920","1080","0","1","0","5d77c0eb4a666c0019561a80","","null","","","learningBlock1","","","","That was a dep.","null","","","","","",""
"html-keyboard-response","203","338285","0.0-5.0-2.65","FL","j07stgzsr2","1920","1080","0","1","0","5d77c0eb4a666c0019561a80","","null","","","learningBlock1","","","","<div style=""font-size:60px;""> </div>","null","FL","learning/Slide66.JPG","That was a dep.","","",""
"image-keyboard-response","204","338461","0.0-5.0-0.66","FL","j07stgzsr2","1920","1080","0","1","0","5d77c0eb4a666c0019561a80","","null","","","","","","","learning/Slide67.JPG","null","","","","","",""
"html-keyboard-response","205","339614","0.0-5.0-1.66","FL","j07stgzsr2","1920","1080","0","1","0","5d77c0eb4a666c0019561a80","","null","","","learningBlock1","","","","That was a tob.","null","","","","","",""
"html-keyboard-response","206","340615","0.0-5.0-2.66","FL","j07stgzsr2","1920","1080","0","1","0","5d77c0eb4a666c0019561a80","","null","","","learningBlock1","","","","<div style=""font-size:60px;""> </div>","null","FL","learning/Slide67.JPG","That was a tob.","","",""
"image-keyboard-response","207","340791","0.0-5.0-0.67","FL","j07stgzsr2","1920","1080","0","1","0","5d77c0eb4a666c0019561a80","","null","","","","","","","learning/Slide68.JPG","null","","","","","",""
"html-keyboard-response","208","341944","0.0-5.0-1.67","FL","j07stgzsr2","1920","1080","0","1","0","5d77c0eb4a666c0019561a80","","null","","","learningBlock1","","","","That was a wug.","null","","","","","",""
"html-keyboard-response","209","342946","0.0-5.0-2.67","FL","j07stgzsr2","1920","1080","0","1","0","5d77c0eb4a666c0019561a80","","null","","","learningBlock1","","","","<div style=""font-size:60px;""> </div>","null","FL","learning/Slide68.JPG","That was a wug.","","",""
"image-keyboard-response","210","343123","0.0-5.0-0.68","FL","j07stgzsr2","1920","1080","0","1","0","5d77c0eb4a666c0019561a80","","null","","","","","","","learning/Slide69.JPG","null","","","","","",""
"html-keyboard-response","211","344278","0.0-5.0-1.68","FL","j07stgzsr2","1920","1080","0","1","0","5d77c0eb4a666c0019561a80","","null","","","learningBlock1","","","","That was a tob.","null","","","","","",""
"html-keyboard-response","212","345279","0.0-5.0-2.68","FL","j07stgzsr2","1920","1080","0","1","0","5d77c0eb4a666c0019561a80","","null","","","learningBlock1","","","","<div style=""font-size:60px;""> </div>","null","FL","learning/Slide69.JPG","That was a tob.","","",""
"image-keyboard-response","213","345456","0.0-5.0-0.69","FL","j07stgzsr2","1920","1080","0","1","0","5d77c0eb4a666c0019561a80","","null","","","","","","","learning/Slide70.JPG","null","","","","","",""
"html-keyboard-response","214","346608","0.0-5.0-1.69","FL","j07stgzsr2","1920","1080","0","1","0","5d77c0eb4a666c0019561a80","","null","","","learningBlock1","","","","That was a dep.","null","","","","","",""
"html-keyboard-response","215","347610","0.0-5.0-2.69","FL","j07stgzsr2","1920","1080","0","1","0","5d77c0eb4a666c0019561a80","","null","","","learningBlock1","","","","<div style=""font-size:60px;""> </div>","null","FL","learning/Slide70.JPG","That was a dep.","","",""
"image-keyboard-response","216","347787","0.0-5.0-0.70","FL","j07stgzsr2","1920","1080","0","1","0","5d77c0eb4a666c0019561a80","","null","","","","","","","learning/Slide71.JPG","null","","","","","",""
"html-keyboard-response","217","348939","0.0-5.0-1.70","FL","j07stgzsr2","1920","1080","0","1","0","5d77c0eb4a666c0019561a80","","null","","","learningBlock1","","","","That was a wug.","null","","","","","",""
"html-keyboard-response","218","349940","0.0-5.0-2.70","FL","j07stgzsr2","1920","1080","0","1","0","5d77c0eb4a666c0019561a80","","null","","","learningBlock1","","","","<div style=""font-size:60px;""> </div>","null","FL","learning/Slide71.JPG","That was a wug.","","",""
"image-keyboard-response","219","350116","0.0-5.0-0.71","FL","j07stgzsr2","1920","1080","0","1","0","5d77c0eb4a666c0019561a80","","null","","","","","","","learning/Slide72.JPG","null","","","","","",""
"html-keyboard-response","220","351270","0.0-5.0-1.71","FL","j07stgzsr2","1920","1080","0","1","0","5d77c0eb4a666c0019561a80","","null","","","learningBlock1","","","","That was a bim.","null","","","","","",""
"html-keyboard-response","221","352272","0.0-5.0-2.71","FL","j07stgzsr2","1920","1080","0","1","0","5d77c0eb4a666c0019561a80","","null","","","learningBlock1","","","","<div style=""font-size:60px;""> </div>","null","FL","learning/Slide72.JPG","That was a bim.","","",""
"image-keyboard-response","222","352448","0.0-5.0-0.72","FL","j07stgzsr2","1920","1080","0","1","0","5d77c0eb4a666c0019561a80","","null","","","","","","","learning/Slide73.JPG","null","","","","","",""
"html-keyboard-response","223","353600","0.0-5.0-1.72","FL","j07stgzsr2","1920","1080","0","1","0","5d77c0eb4a666c0019561a80","","null","","","learningBlock1","","","","That was a wug.","null","","","","","",""
"html-keyboard-response","224","354602","0.0-5.0-2.72","FL","j07stgzsr2","1920","1080","0","1","0","5d77c0eb4a666c0019561a80","","null","","","learningBlock1","","","","<div style=""font-size:60px;""> </div>","null","FL","learning/Slide73.JPG","That was a wug.","","",""
"image-keyboard-response","225","354779","0.0-5.0-0.73","FL","j07stgzsr2","1920","1080","0","1","0","5d77c0eb4a666c0019561a80","","null","","","","","","","learning/Slide74.JPG","null","","","","","",""
"html-keyboard-response","226","355931","0.0-5.0-1.73","FL","j07stgzsr2","1920","1080","0","1","0","5d77c0eb4a666c0019561a80","","null","","","learningBlock1","","","","That was a dep.","null","","","","","",""
"html-keyboard-response","227","356932","0.0-5.0-2.73","FL","j07stgzsr2","1920","1080","0","1","0","5d77c0eb4a666c0019561a80","","null","","","learningBlock1","","","","<div style=""font-size:60px;""> </div>","null","FL","learning/Slide74.JPG","That was a dep.","","",""
"image-keyboard-response","228","357109","0.0-5.0-0.74","FL","j07stgzsr2","1920","1080","0","1","0","5d77c0eb4a666c0019561a80","","null","","","","","","","learning/Slide75.JPG","null","","","","","",""
"html-keyboard-response","229","358262","0.0-5.0-1.74","FL","j07stgzsr2","1920","1080","0","1","0","5d77c0eb4a666c0019561a80","","null","","","learningBlock1","","","","That was a tob.","null","","","","","",""
"html-keyboard-response","230","359263","0.0-5.0-2.74","FL","j07stgzsr2","1920","1080","0","1","0","5d77c0eb4a666c0019561a80","","null","","","learningBlock1","","","","<div style=""font-size:60px;""> </div>","null","FL","learning/Slide75.JPG","That was a tob.","","",""
"image-keyboard-response","231","359439","0.0-5.0-0.75","FL","j07stgzsr2","1920","1080","0","1","0","5d77c0eb4a666c0019561a80","","null","","","","","","","learning/Slide76.JPG","null","","","","","",""
"html-keyboard-response","232","360592","0.0-5.0-1.75","FL","j07stgzsr2","1920","1080","0","1","0","5d77c0eb4a666c0019561a80","","null","","","learningBlock1","","","","That was a bim.","null","","","","","",""
"html-keyboard-response","233","361593","0.0-5.0-2.75","FL","j07stgzsr2","1920","1080","0","1","0","5d77c0eb4a666c0019561a80","","null","","","learningBlock1","","","","<div style=""font-size:60px;""> </div>","null","FL","learning/Slide76.JPG","That was a bim.","","",""
"image-keyboard-response","234","361770","0.0-5.0-0.76","FL","j07stgzsr2","1920","1080","0","1","0","5d77c0eb4a666c0019561a80","","null","","","","","","","learning/Slide77.JPG","null","","","","","",""
"html-keyboard-response","235","362922","0.0-5.0-1.76","FL","j07stgzsr2","1920","1080","0","1","0","5d77c0eb4a666c0019561a80","","null","","","learningBlock1","","","","That was a tob.","null","","","","","",""
"html-keyboard-response","236","363923","0.0-5.0-2.76","FL","j07stgzsr2","1920","1080","0","1","0","5d77c0eb4a666c0019561a80","","null","","","learningBlock1","","","","<div style=""font-size:60px;""> </div>","null","FL","learning/Slide77.JPG","That was a tob.","","",""
"image-keyboard-response","237","364100","0.0-5.0-0.77","FL","j07stgzsr2","1920","1080","0","1","0","5d77c0eb4a666c0019561a80","","null","","","","","","","learning/Slide78.JPG","null","","","","","",""
"html-keyboard-response","238","365253","0.0-5.0-1.77","FL","j07stgzsr2","1920","1080","0","1","0","5d77c0eb4a666c0019561a80","","null","","","learningBlock1","","","","That was a wug.","null","","","","","",""
"html-keyboard-response","239","366254","0.0-5.0-2.77","FL","j07stgzsr2","1920","1080","0","1","0","5d77c0eb4a666c0019561a80","","null","","","learningBlock1","","","","<div style=""font-size:60px;""> </div>","null","FL","learning/Slide78.JPG","That was a wug.","","",""
"image-keyboard-response","240","366431","0.0-5.0-0.78","FL","j07stgzsr2","1920","1080","0","1","0","5d77c0eb4a666c0019561a80","","null","","","","","","","learning/Slide79.JPG","null","","","","","",""
"html-keyboard-response","241","367582","0.0-5.0-1.78","FL","j07stgzsr2","1920","1080","0","1","0","5d77c0eb4a666c0019561a80","","null","","","learningBlock1","","","","That was a bim.","null","","","","","",""
"html-keyboard-response","242","368583","0.0-5.0-2.78","FL","j07stgzsr2","1920","1080","0","1","0","5d77c0eb4a666c0019561a80","","null","","","learningBlock1","","","","<div style=""font-size:60px;""> </div>","null","FL","learning/Slide79.JPG","That was a bim.","","",""
"image-keyboard-response","243","368760","0.0-5.0-0.79","FL","j07stgzsr2","1920","1080","0","1","0","5d77c0eb4a666c0019561a80","","null","","","","","","","learning/Slide80.JPG","null","","","","","",""
"html-keyboard-response","244","369912","0.0-5.0-1.79","FL","j07stgzsr2","1920","1080","0","1","0","5d77c0eb4a666c0019561a80","","null","","","learningBlock1","","","","That was a tob.","null","","","","","",""
"html-keyboard-response","245","370914","0.0-5.0-2.79","FL","j07stgzsr2","1920","1080","0","1","0","5d77c0eb4a666c0019561a80","","null","","","learningBlock1","","","","<div style=""font-size:60px;""> </div>","null","FL","learning/Slide80.JPG","That was a tob.","","",""
"instructions","246","458941","0.0-6.0","FL","j07stgzsr2","1920","1080","0","1","0","5d77c0eb4a666c0019561a80","","NA","","[{""page_index"":0,""viewing_time"":88026.13499999279}]","instructions","","","","","","","","","","",""
"image-keyboard-response","247","459118","0.0-7.0-0.0","FL","j07stgzsr2","1920","1080","0","1","0","5d77c0eb4a666c0019561a80","","null","","","","","","","learning/Slide81.JPG","null","","","","","",""
"html-keyboard-response","248","460272","0.0-7.0-1.0","FL","j07stgzsr2","1920","1080","0","1","0","5d77c0eb4a666c0019561a80","","null","","","learningBlock2","","","","That was a wug.","null","","","","","",""
"html-keyboard-response","249","461273","0.0-7.0-2.0","FL","j07stgzsr2","1920","1080","0","1","0","5d77c0eb4a666c0019561a80","","null","","","learningBlock2","","","","<div style=""font-size:60px;""> </div>","null","FL","learning/Slide81.JPG","That was a wug.","","",""
"image-keyboard-response","250","461451","0.0-7.0-0.1","FL","j07stgzsr2","1920","1080","0","1","0","5d77c0eb4a666c0019561a80","","null","","","","","","","learning/Slide82.JPG","null","","","","","",""
"html-keyboard-response","251","462603","0.0-7.0-1.1","FL","j07stgzsr2","1920","1080","0","1","0","5d77c0eb4a666c0019561a80","","null","","","learningBlock2","","","","That was a bim.","null","","","","","",""
"html-keyboard-response","252","463605","0.0-7.0-2.1","FL","j07stgzsr2","1920","1080","0","1","0","5d77c0eb4a666c0019561a80","","null","","","learningBlock2","","","","<div style=""font-size:60px;""> </div>","null","FL","learning/Slide82.JPG","That was a bim.","","",""
"image-keyboard-response","253","463781","0.0-7.0-0.2","FL","j07stgzsr2","1920","1080","0","1","0","5d77c0eb4a666c0019561a80","","null","","","","","","","learning/Slide83.JPG","null","","","","","",""
"html-keyboard-response","254","464934","0.0-7.0-1.2","FL","j07stgzsr2","1920","1080","0","1","0","5d77c0eb4a666c0019561a80","","null","","","learningBlock2","","","","That was a wug.","null","","","","","",""
"html-keyboard-response","255","465935","0.0-7.0-2.2","FL","j07stgzsr2","1920","1080","0","1","0","5d77c0eb4a666c0019561a80","","null","","","learningBlock2","","","","<div style=""font-size:60px;""> </div>","null","FL","learning/Slide83.JPG","That was a wug.","","",""
"image-keyboard-response","256","466111","0.0-7.0-0.3","FL","j07stgzsr2","1920","1080","0","1","0","5d77c0eb4a666c0019561a80","","null","","","","","","","learning/Slide84.JPG","null","","","","","",""
"html-keyboard-response","257","467264","0.0-7.0-1.3","FL","j07stgzsr2","1920","1080","0","1","0","5d77c0eb4a666c0019561a80","","null","","","learningBlock2","","","","That was a dep.","null","","","","","",""
"html-keyboard-response","258","468266","0.0-7.0-2.3","FL","j07stgzsr2","1920","1080","0","1","0","5d77c0eb4a666c0019561a80","","null","","","learningBlock2","","","","<div style=""font-size:60px;""> </div>","null","FL","learning/Slide84.JPG","That was a dep.","","",""
"image-keyboard-response","259","468443","0.0-7.0-0.4","FL","j07stgzsr2","1920","1080","0","1","0","5d77c0eb4a666c0019561a80","","null","","","","","","","learning/Slide85.JPG","null","","","","","",""
"html-keyboard-response","260","469596","0.0-7.0-1.4","FL","j07stgzsr2","1920","1080","0","1","0","5d77c0eb4a666c0019561a80","","null","","","learningBlock2","","","","That was a bim.","null","","","","","",""
"html-keyboard-response","261","470597","0.0-7.0-2.4","FL","j07stgzsr2","1920","1080","0","1","0","5d77c0eb4a666c0019561a80","","null","","","learningBlock2","","","","<div style=""font-size:60px;""> </div>","null","FL","learning/Slide85.JPG","That was a bim.","","",""
"image-keyboard-response","262","470775","0.0-7.0-0.5","FL","j07stgzsr2","1920","1080","0","1","0","5d77c0eb4a666c0019561a80","","null","","","","","","","learning/Slide86.JPG","null","","","","","",""
"html-keyboard-response","263","471928","0.0-7.0-1.5","FL","j07stgzsr2","1920","1080","0","1","0","5d77c0eb4a666c0019561a80","","null","","","learningBlock2","","","","That was a tob.","null","","","","","",""
"html-keyboard-response","264","472930","0.0-7.0-2.5","FL","j07stgzsr2","1920","1080","0","1","0","5d77c0eb4a666c0019561a80","","null","","","learningBlock2","","","","<div style=""font-size:60px;""> </div>","null","FL","learning/Slide86.JPG","That was a tob.","","",""
"image-keyboard-response","265","473107","0.0-7.0-0.6","FL","j07stgzsr2","1920","1080","0","1","0","5d77c0eb4a666c0019561a80","","null","","","","","","","learning/Slide87.JPG","null","","","","","",""
"html-keyboard-response","266","474274","0.0-7.0-1.6","FL","j07stgzsr2","1920","1080","0","1","0","5d77c0eb4a666c0019561a80","","null","","","learningBlock2","","","","That was a wug.","null","","","","","",""
"html-keyboard-response","267","475276","0.0-7.0-2.6","FL","j07stgzsr2","1920","1080","0","1","0","5d77c0eb4a666c0019561a80","","null","","","learningBlock2","","","","<div style=""font-size:60px;""> </div>","null","FL","learning/Slide87.JPG","That was a wug.","","",""
"image-keyboard-response","268","475453","0.0-7.0-0.7","FL","j07stgzsr2","1920","1080","0","1","0","5d77c0eb4a666c0019561a80","","null","","","","","","","learning/Slide88.JPG","null","","","","","",""
"html-keyboard-response","269","476605","0.0-7.0-1.7","FL","j07stgzsr2","1920","1080","0","1","0","5d77c0eb4a666c0019561a80","","null","","","learningBlock2","","","","That was a tob.","null","","","","","",""
"html-keyboard-response","270","477606","0.0-7.0-2.7","FL","j07stgzsr2","1920","1080","0","1","0","5d77c0eb4a666c0019561a80","","null","","","learningBlock2","","","","<div style=""font-size:60px;""> </div>","null","FL","learning/Slide88.JPG","That was a tob.","","",""
"image-keyboard-response","271","477783","0.0-7.0-0.8","FL","j07stgzsr2","1920","1080","0","1","0","5d77c0eb4a666c0019561a80","","null","","","","","","","learning/Slide89.JPG","null","","","","","",""
"html-keyboard-response","272","478934","0.0-7.0-1.8","FL","j07stgzsr2","1920","1080","0","1","0","5d77c0eb4a666c0019561a80","","null","","","learningBlock2","","","","That was a bim.","null","","","","","",""
"html-keyboard-response","273","479936","0.0-7.0-2.8","FL","j07stgzsr2","1920","1080","0","1","0","5d77c0eb4a666c0019561a80","","null","","","learningBlock2","","","","<div style=""font-size:60px;""> </div>","null","FL","learning/Slide89.JPG","That was a bim.","","",""
"image-keyboard-response","274","480114","0.0-7.0-0.9","FL","j07stgzsr2","1920","1080","0","1","0","5d77c0eb4a666c0019561a80","","null","","","","","","","learning/Slide90.JPG","null","","","","","",""
"html-keyboard-response","275","481266","0.0-7.0-1.9","FL","j07stgzsr2","1920","1080","0","1","0","5d77c0eb4a666c0019561a80","","null","","","learningBlock2","","","","That was a dep.","null","","","","","",""
"html-keyboard-response","276","482267","0.0-7.0-2.9","FL","j07stgzsr2","1920","1080","0","1","0","5d77c0eb4a666c0019561a80","","null","","","learningBlock2","","","","<div style=""font-size:60px;""> </div>","null","FL","learning/Slide90.JPG","That was a dep.","","",""
"image-keyboard-response","277","482444","0.0-7.0-0.10","FL","j07stgzsr2","1920","1080","0","1","0","5d77c0eb4a666c0019561a80","","null","","","","","","","learning/Slide91.JPG","null","","","","","",""
"html-keyboard-response","278","483597","0.0-7.0-1.10","FL","j07stgzsr2","1920","1080","0","1","0","5d77c0eb4a666c0019561a80","","null","","","learningBlock2","","","","That was a wug.","null","","","","","",""
"html-keyboard-response","279","484598","0.0-7.0-2.10","FL","j07stgzsr2","1920","1080","0","1","0","5d77c0eb4a666c0019561a80","","null","","","learningBlock2","","","","<div style=""font-size:60px;""> </div>","null","FL","learning/Slide91.JPG","That was a wug.","","",""
"image-keyboard-response","280","484775","0.0-7.0-0.11","FL","j07stgzsr2","1920","1080","0","1","0","5d77c0eb4a666c0019561a80","","null","","","","","","","learning/Slide92.JPG","null","","","","","",""
"html-keyboard-response","281","485927","0.0-7.0-1.11","FL","j07stgzsr2","1920","1080","0","1","0","5d77c0eb4a666c0019561a80","","null","","","learningBlock2","","","","That was a tob.","null","","","","","",""
"html-keyboard-response","282","486929","0.0-7.0-2.11","FL","j07stgzsr2","1920","1080","0","1","0","5d77c0eb4a666c0019561a80","","null","","","learningBlock2","","","","<div style=""font-size:60px;""> </div>","null","FL","learning/Slide92.JPG","That was a tob.","","",""
"image-keyboard-response","283","487105","0.0-7.0-0.12","FL","j07stgzsr2","1920","1080","0","1","0","5d77c0eb4a666c0019561a80","","null","","","","","","","learning/Slide93.JPG","null","","","","","",""
"html-keyboard-response","284","488258","0.0-7.0-1.12","FL","j07stgzsr2","1920","1080","0","1","0","5d77c0eb4a666c0019561a80","","null","","","learningBlock2","","","","That was a bim.","null","","","","","",""
"html-keyboard-response","285","489260","0.0-7.0-2.12","FL","j07stgzsr2","1920","1080","0","1","0","5d77c0eb4a666c0019561a80","","null","","","learningBlock2","","","","<div style=""font-size:60px;""> </div>","null","FL","learning/Slide93.JPG","That was a bim.","","",""
"image-keyboard-response","286","489436","0.0-7.0-0.13","FL","j07stgzsr2","1920","1080","0","1","0","5d77c0eb4a666c0019561a80","","null","","","","","","","learning/Slide94.JPG","null","","","","","",""
"html-keyboard-response","287","490589","0.0-7.0-1.13","FL","j07stgzsr2","1920","1080","0","1","0","5d77c0eb4a666c0019561a80","","null","","","learningBlock2","","","","That was a tob.","null","","","","","",""
"html-keyboard-response","288","491590","0.0-7.0-2.13","FL","j07stgzsr2","1920","1080","0","1","0","5d77c0eb4a666c0019561a80","","null","","","learningBlock2","","","","<div style=""font-size:60px;""> </div>","null","FL","learning/Slide94.JPG","That was a tob.","","",""
"image-keyboard-response","289","491767","0.0-7.0-0.14","FL","j07stgzsr2","1920","1080","0","1","0","5d77c0eb4a666c0019561a80","","null","","","","","","","learning/Slide95.JPG","null","","","","","",""
"html-keyboard-response","290","492920","0.0-7.0-1.14","FL","j07stgzsr2","1920","1080","0","1","0","5d77c0eb4a666c0019561a80","","null","","","learningBlock2","","","","That was a wug.","null","","","","","",""
"html-keyboard-response","291","493920","0.0-7.0-2.14","FL","j07stgzsr2","1920","1080","0","1","0","5d77c0eb4a666c0019561a80","","null","","","learningBlock2","","","","<div style=""font-size:60px;""> </div>","null","FL","learning/Slide95.JPG","That was a wug.","","",""
"image-keyboard-response","292","494097","0.0-7.0-0.15","FL","j07stgzsr2","1920","1080","0","1","0","5d77c0eb4a666c0019561a80","","null","","","","","","","learning/Slide96.JPG","null","","","","","",""
"html-keyboard-response","293","495250","0.0-7.0-1.15","FL","j07stgzsr2","1920","1080","0","1","0","5d77c0eb4a666c0019561a80","","null","","","learningBlock2","","","","That was a tob.","null","","","","","",""
"html-keyboard-response","294","496251","0.0-7.0-2.15","FL","j07stgzsr2","1920","1080","0","1","0","5d77c0eb4a666c0019561a80","","null","","","learningBlock2","","","","<div style=""font-size:60px;""> </div>","null","FL","learning/Slide96.JPG","That was a tob.","","",""
"image-keyboard-response","295","496429","0.0-7.0-0.16","FL","j07stgzsr2","1920","1080","0","1","0","5d77c0eb4a666c0019561a80","","null","","","","","","","learning/Slide97.JPG","null","","","","","",""
"html-keyboard-response","296","497586","0.0-7.0-1.16","FL","j07stgzsr2","1920","1080","0","1","0","5d77c0eb4a666c0019561a80","","null","","","learningBlock2","","","","That was a dep.","null","","","","","",""
"html-keyboard-response","297","498587","0.0-7.0-2.16","FL","j07stgzsr2","1920","1080","0","1","0","5d77c0eb4a666c0019561a80","","null","","","learningBlock2","","","","<div style=""font-size:60px;""> </div>","null","FL","learning/Slide97.JPG","That was a dep.","","",""
"image-keyboard-response","298","498764","0.0-7.0-0.17","FL","j07stgzsr2","1920","1080","0","1","0","5d77c0eb4a666c0019561a80","","null","","","","","","","learning/Slide98.JPG","null","","","","","",""
"html-keyboard-response","299","499917","0.0-7.0-1.17","FL","j07stgzsr2","1920","1080","0","1","0","5d77c0eb4a666c0019561a80","","null","","","learningBlock2","","","","That was a bim.","null","","","","","",""
"html-keyboard-response","300","500919","0.0-7.0-2.17","FL","j07stgzsr2","1920","1080","0","1","0","5d77c0eb4a666c0019561a80","","null","","","learningBlock2","","","","<div style=""font-size:60px;""> </div>","null","FL","learning/Slide98.JPG","That was a bim.","","",""
"image-keyboard-response","301","501096","0.0-7.0-0.18","FL","j07stgzsr2","1920","1080","0","1","0","5d77c0eb4a666c0019561a80","","null","","","","","","","learning/Slide99.JPG","null","","","","","",""
"html-keyboard-response","302","502248","0.0-7.0-1.18","FL","j07stgzsr2","1920","1080","0","1","0","5d77c0eb4a666c0019561a80","","null","","","learningBlock2","","","","That was a dep.","null","","","","","",""
"html-keyboard-response","303","503250","0.0-7.0-2.18","FL","j07stgzsr2","1920","1080","0","1","0","5d77c0eb4a666c0019561a80","","null","","","learningBlock2","","","","<div style=""font-size:60px;""> </div>","null","FL","learning/Slide99.JPG","That was a dep.","","",""
"image-keyboard-response","304","503427","0.0-7.0-0.19","FL","j07stgzsr2","1920","1080","0","1","0","5d77c0eb4a666c0019561a80","","null","","","","","","","learning/Slide100.JPG","null","","","","","",""
"html-keyboard-response","305","504580","0.0-7.0-1.19","FL","j07stgzsr2","1920","1080","0","1","0","5d77c0eb4a666c0019561a80","","null","","","learningBlock2","","","","That was a bim.","null","","","","","",""
"html-keyboard-response","306","505582","0.0-7.0-2.19","FL","j07stgzsr2","1920","1080","0","1","0","5d77c0eb4a666c0019561a80","","null","","","learningBlock2","","","","<div style=""font-size:60px;""> </div>","null","FL","learning/Slide100.JPG","That was a bim.","","",""
"image-keyboard-response","307","505758","0.0-7.0-0.20","FL","j07stgzsr2","1920","1080","0","1","0","5d77c0eb4a666c0019561a80","","null","","","","","","","learning/Slide101.JPG","null","","","","","",""
"html-keyboard-response","308","506910","0.0-7.0-1.20","FL","j07stgzsr2","1920","1080","0","1","0","5d77c0eb4a666c0019561a80","","null","","","learningBlock2","","","","That was a tob.","null","","","","","",""
"html-keyboard-response","309","507911","0.0-7.0-2.20","FL","j07stgzsr2","1920","1080","0","1","0","5d77c0eb4a666c0019561a80","","null","","","learningBlock2","","","","<div style=""font-size:60px;""> </div>","null","FL","learning/Slide101.JPG","That was a tob.","","",""
"image-keyboard-response","310","508087","0.0-7.0-0.21","FL","j07stgzsr2","1920","1080","0","1","0","5d77c0eb4a666c0019561a80","","null","","","","","","","learning/Slide102.JPG","null","","","","","",""
"html-keyboard-response","311","509239","0.0-7.0-1.21","FL","j07stgzsr2","1920","1080","0","1","0","5d77c0eb4a666c0019561a80","","null","","","learningBlock2","","","","That was a bim.","null","","","","","",""
"html-keyboard-response","312","510240","0.0-7.0-2.21","FL","j07stgzsr2","1920","1080","0","1","0","5d77c0eb4a666c0019561a80","","null","","","learningBlock2","","","","<div style=""font-size:60px;""> </div>","null","FL","learning/Slide102.JPG","That was a bim.","","",""
"image-keyboard-response","313","510417","0.0-7.0-0.22","FL","j07stgzsr2","1920","1080","0","1","0","5d77c0eb4a666c0019561a80","","null","","","","","","","learning/Slide103.JPG","null","","","","","",""
"html-keyboard-response","314","511580","0.0-7.0-1.22","FL","j07stgzsr2","1920","1080","0","1","0","5d77c0eb4a666c0019561a80","","null","","","learningBlock2","","","","That was a dep.","null","","","","","",""
"html-keyboard-response","315","512582","0.0-7.0-2.22","FL","j07stgzsr2","1920","1080","0","1","0","5d77c0eb4a666c0019561a80","","null","","","learningBlock2","","","","<div style=""font-size:60px;""> </div>","null","FL","learning/Slide103.JPG","That was a dep.","","",""
"image-keyboard-response","316","512758","0.0-7.0-0.23","FL","j07stgzsr2","1920","1080","0","1","0","5d77c0eb4a666c0019561a80","","null","","","","","","","learning/Slide104.JPG","null","","","","","",""
"html-keyboard-response","317","513910","0.0-7.0-1.23","FL","j07stgzsr2","1920","1080","0","1","0","5d77c0eb4a666c0019561a80","","null","","","learningBlock2","","","","That was a tob.","null","","","","","",""
"html-keyboard-response","318","514911","0.0-7.0-2.23","FL","j07stgzsr2","1920","1080","0","1","0","5d77c0eb4a666c0019561a80","","null","","","learningBlock2","","","","<div style=""font-size:60px;""> </div>","null","FL","learning/Slide104.JPG","That was a tob.","","",""
"image-keyboard-response","319","515087","0.0-7.0-0.24","FL","j07stgzsr2","1920","1080","0","1","0","5d77c0eb4a666c0019561a80","","null","","","","","","","learning/Slide105.JPG","null","","","","","",""
"html-keyboard-response","320","516240","0.0-7.0-1.24","FL","j07stgzsr2","1920","1080","0","1","0","5d77c0eb4a666c0019561a80","","null","","","learningBlock2","","","","That was a dep.","null","","","","","",""
"html-keyboard-response","321","517242","0.0-7.0-2.24","FL","j07stgzsr2","1920","1080","0","1","0","5d77c0eb4a666c0019561a80","","null","","","learningBlock2","","","","<div style=""font-size:60px;""> </div>","null","FL","learning/Slide105.JPG","That was a dep.","","",""
"image-keyboard-response","322","517418","0.0-7.0-0.25","FL","j07stgzsr2","1920","1080","0","1","0","5d77c0eb4a666c0019561a80","","null","","","","","","","learning/Slide106.JPG","null","","","","","",""
"html-keyboard-response","323","518571","0.0-7.0-1.25","FL","j07stgzsr2","1920","1080","0","1","0","5d77c0eb4a666c0019561a80","","null","","","learningBlock2","","","","That was a wug.","null","","","","","",""
"html-keyboard-response","324","519572","0.0-7.0-2.25","FL","j07stgzsr2","1920","1080","0","1","0","5d77c0eb4a666c0019561a80","","null","","","learningBlock2","","","","<div style=""font-size:60px;""> </div>","null","FL","learning/Slide106.JPG","That was a wug.","","",""
"image-keyboard-response","325","519749","0.0-7.0-0.26","FL","j07stgzsr2","1920","1080","0","1","0","5d77c0eb4a666c0019561a80","","null","","","","","","","learning/Slide107.JPG","null","","","","","",""
"html-keyboard-response","326","520901","0.0-7.0-1.26","FL","j07stgzsr2","1920","1080","0","1","0","5d77c0eb4a666c0019561a80","","null","","","learningBlock2","","","","That was a bim.","null","","","","","",""
"html-keyboard-response","327","521902","0.0-7.0-2.26","FL","j07stgzsr2","1920","1080","0","1","0","5d77c0eb4a666c0019561a80","","null","","","learningBlock2","","","","<div style=""font-size:60px;""> </div>","null","FL","learning/Slide107.JPG","That was a bim.","","",""
"image-keyboard-response","328","522078","0.0-7.0-0.27","FL","j07stgzsr2","1920","1080","0","1","0","5d77c0eb4a666c0019561a80","","null","","","","","","","learning/Slide108.JPG","null","","","","","",""
"html-keyboard-response","329","523231","0.0-7.0-1.27","FL","j07stgzsr2","1920","1080","0","1","0","5d77c0eb4a666c0019561a80","","null","","","learningBlock2","","","","That was a dep.","null","","","","","",""
"html-keyboard-response","330","524232","0.0-7.0-2.27","FL","j07stgzsr2","1920","1080","0","1","0","5d77c0eb4a666c0019561a80","","null","","","learningBlock2","","","","<div style=""font-size:60px;""> </div>","null","FL","learning/Slide108.JPG","That was a dep.","","",""
"image-keyboard-response","331","524409","0.0-7.0-0.28","FL","j07stgzsr2","1920","1080","0","1","0","5d77c0eb4a666c0019561a80","","null","","","","","","","learning/Slide109.JPG","null","","","","","",""
"html-keyboard-response","332","525561","0.0-7.0-1.28","FL","j07stgzsr2","1920","1080","0","1","0","5d77c0eb4a666c0019561a80","","null","","","learningBlock2","","","","That was a wug.","null","","","","","",""
"html-keyboard-response","333","526563","0.0-7.0-2.28","FL","j07stgzsr2","1920","1080","0","1","0","5d77c0eb4a666c0019561a80","","null","","","learningBlock2","","","","<div style=""font-size:60px;""> </div>","null","FL","learning/Slide109.JPG","That was a wug.","","",""
"image-keyboard-response","334","526739","0.0-7.0-0.29","FL","j07stgzsr2","1920","1080","0","1","0","5d77c0eb4a666c0019561a80","","null","","","","","","","learning/Slide110.JPG","null","","","","","",""
"html-keyboard-response","335","527892","0.0-7.0-1.29","FL","j07stgzsr2","1920","1080","0","1","0","5d77c0eb4a666c0019561a80","","null","","","learningBlock2","","","","That was a bim.","null","","","","","",""
"html-keyboard-response","336","528893","0.0-7.0-2.29","FL","j07stgzsr2","1920","1080","0","1","0","5d77c0eb4a666c0019561a80","","null","","","learningBlock2","","","","<div style=""font-size:60px;""> </div>","null","FL","learning/Slide110.JPG","That was a bim.","","",""
"image-keyboard-response","337","529070","0.0-7.0-0.30","FL","j07stgzsr2","1920","1080","0","1","0","5d77c0eb4a666c0019561a80","","null","","","","","","","learning/Slide111.JPG","null","","","","","",""
"html-keyboard-response","338","530223","0.0-7.0-1.30","FL","j07stgzsr2","1920","1080","0","1","0","5d77c0eb4a666c0019561a80","","null","","","learningBlock2","","","","That was a tob.","null","","","","","",""
"html-keyboard-response","339","531224","0.0-7.0-2.30","FL","j07stgzsr2","1920","1080","0","1","0","5d77c0eb4a666c0019561a80","","null","","","learningBlock2","","","","<div style=""font-size:60px;""> </div>","null","FL","learning/Slide111.JPG","That was a tob.","","",""
"image-keyboard-response","340","531401","0.0-7.0-0.31","FL","j07stgzsr2","1920","1080","0","1","0","5d77c0eb4a666c0019561a80","","null","","","","","","","learning/Slide112.JPG","null","","","","","",""
"html-keyboard-response","341","532554","0.0-7.0-1.31","FL","j07stgzsr2","1920","1080","0","1","0","5d77c0eb4a666c0019561a80","","null","","","learningBlock2","","","","That was a wug.","null","","","","","",""
"html-keyboard-response","342","533555","0.0-7.0-2.31","FL","j07stgzsr2","1920","1080","0","1","0","5d77c0eb4a666c0019561a80","","null","","","learningBlock2","","","","<div style=""font-size:60px;""> </div>","null","FL","learning/Slide112.JPG","That was a wug.","","",""
"image-keyboard-response","343","533731","0.0-7.0-0.32","FL","j07stgzsr2","1920","1080","0","1","0","5d77c0eb4a666c0019561a80","","null","","","","","","","learning/Slide113.JPG","null","","","","","",""
"html-keyboard-response","344","534883","0.0-7.0-1.32","FL","j07stgzsr2","1920","1080","0","1","0","5d77c0eb4a666c0019561a80","","null","","","learningBlock2","","","","That was a tob.","null","","","","","",""
"html-keyboard-response","345","535885","0.0-7.0-2.32","FL","j07stgzsr2","1920","1080","0","1","0","5d77c0eb4a666c0019561a80","","null","","","learningBlock2","","","","<div style=""font-size:60px;""> </div>","null","FL","learning/Slide113.JPG","That was a tob.","","",""
"image-keyboard-response","346","536061","0.0-7.0-0.33","FL","j07stgzsr2","1920","1080","0","1","0","5d77c0eb4a666c0019561a80","","null","","","","","","","learning/Slide114.JPG","null","","","","","",""
"html-keyboard-response","347","537213","0.0-7.0-1.33","FL","j07stgzsr2","1920","1080","0","1","0","5d77c0eb4a666c0019561a80","","null","","","learningBlock2","","","","That was a wug.","null","","","","","",""
"html-keyboard-response","348","538215","0.0-7.0-2.33","FL","j07stgzsr2","1920","1080","0","1","0","5d77c0eb4a666c0019561a80","","null","","","learningBlock2","","","","<div style=""font-size:60px;""> </div>","null","FL","learning/Slide114.JPG","That was a wug.","","",""
"image-keyboard-response","349","538393","0.0-7.0-0.34","FL","j07stgzsr2","1920","1080","0","1","0","5d77c0eb4a666c0019561a80","","null","","","","","","","learning/Slide115.JPG","null","","","","","",""
"html-keyboard-response","350","539545","0.0-7.0-1.34","FL","j07stgzsr2","1920","1080","0","1","0","5d77c0eb4a666c0019561a80","","null","","","learningBlock2","","","","That was a bim.","null","","","","","",""
"html-keyboard-response","351","540547","0.0-7.0-2.34","FL","j07stgzsr2","1920","1080","0","1","0","5d77c0eb4a666c0019561a80","","null","","","learningBlock2","","","","<div style=""font-size:60px;""> </div>","null","FL","learning/Slide115.JPG","That was a bim.","","",""
"image-keyboard-response","352","540723","0.0-7.0-0.35","FL","j07stgzsr2","1920","1080","0","1","0","5d77c0eb4a666c0019561a80","","null","","","","","","","learning/Slide116.JPG","null","","","","","",""
"html-keyboard-response","353","541877","0.0-7.0-1.35","FL","j07stgzsr2","1920","1080","0","1","0","5d77c0eb4a666c0019561a80","","null","","","learningBlock2","","","","That was a dep.","null","","","","","",""
"html-keyboard-response","354","542879","0.0-7.0-2.35","FL","j07stgzsr2","1920","1080","0","1","0","5d77c0eb4a666c0019561a80","","null","","","learningBlock2","","","","<div style=""font-size:60px;""> </div>","null","FL","learning/Slide116.JPG","That was a dep.","","",""
"image-keyboard-response","355","543056","0.0-7.0-0.36","FL","j07stgzsr2","1920","1080","0","1","0","5d77c0eb4a666c0019561a80","","null","","","","","","","learning/Slide117.JPG","null","","","","","",""
"html-keyboard-response","356","544208","0.0-7.0-1.36","FL","j07stgzsr2","1920","1080","0","1","0","5d77c0eb4a666c0019561a80","","null","","","learningBlock2","","","","That was a tob.","null","","","","","",""
"html-keyboard-response","357","545210","0.0-7.0-2.36","FL","j07stgzsr2","1920","1080","0","1","0","5d77c0eb4a666c0019561a80","","null","","","learningBlock2","","","","<div style=""font-size:60px;""> </div>","null","FL","learning/Slide117.JPG","That was a tob.","","",""
"image-keyboard-response","358","545387","0.0-7.0-0.37","FL","j07stgzsr2","1920","1080","0","1","0","5d77c0eb4a666c0019561a80","","null","","","","","","","learning/Slide118.JPG","null","","","","","",""
"html-keyboard-response","359","546539","0.0-7.0-1.37","FL","j07stgzsr2","1920","1080","0","1","0","5d77c0eb4a666c0019561a80","","null","","","learningBlock2","","","","That was a dep.","null","","","","","",""
"html-keyboard-response","360","547540","0.0-7.0-2.37","FL","j07stgzsr2","1920","1080","0","1","0","5d77c0eb4a666c0019561a80","","null","","","learningBlock2","","","","<div style=""font-size:60px;""> </div>","null","FL","learning/Slide118.JPG","That was a dep.","","",""
"image-keyboard-response","361","547717","0.0-7.0-0.38","FL","j07stgzsr2","1920","1080","0","1","0","5d77c0eb4a666c0019561a80","","null","","","","","","","learning/Slide119.JPG","null","","","","","",""
"html-keyboard-response","362","548868","0.0-7.0-1.38","FL","j07stgzsr2","1920","1080","0","1","0","5d77c0eb4a666c0019561a80","","null","","","learningBlock2","","","","That was a wug.","null","","","","","",""
"html-keyboard-response","363","549869","0.0-7.0-2.38","FL","j07stgzsr2","1920","1080","0","1","0","5d77c0eb4a666c0019561a80","","null","","","learningBlock2","","","","<div style=""font-size:60px;""> </div>","null","FL","learning/Slide119.JPG","That was a wug.","","",""
"image-keyboard-response","364","550046","0.0-7.0-0.39","FL","j07stgzsr2","1920","1080","0","1","0","5d77c0eb4a666c0019561a80","","null","","","","","","","learning/Slide120.JPG","null","","","","","",""
"html-keyboard-response","365","551199","0.0-7.0-1.39","FL","j07stgzsr2","1920","1080","0","1","0","5d77c0eb4a666c0019561a80","","null","","","learningBlock2","","","","That was a dep.","null","","","","","",""
"html-keyboard-response","366","552201","0.0-7.0-2.39","FL","j07stgzsr2","1920","1080","0","1","0","5d77c0eb4a666c0019561a80","","null","","","learningBlock2","","","","<div style=""font-size:60px;""> </div>","null","FL","learning/Slide120.JPG","That was a dep.","","",""
"image-keyboard-response","367","552377","0.0-7.0-0.40","FL","j07stgzsr2","1920","1080","0","1","0","5d77c0eb4a666c0019561a80","","null","","","","","","","learning/Slide121.JPG","null","","","","","",""
"html-keyboard-response","368","553530","0.0-7.0-1.40","FL","j07stgzsr2","1920","1080","0","1","0","5d77c0eb4a666c0019561a80","","null","","","learningBlock2","","","","That was a bim.","null","","","","","",""
"html-keyboard-response","369","554532","0.0-7.0-2.40","FL","j07stgzsr2","1920","1080","0","1","0","5d77c0eb4a666c0019561a80","","null","","","learningBlock2","","","","<div style=""font-size:60px;""> </div>","null","FL","learning/Slide121.JPG","That was a bim.","","",""
"image-keyboard-response","370","554708","0.0-7.0-0.41","FL","j07stgzsr2","1920","1080","0","1","0","5d77c0eb4a666c0019561a80","","null","","","","","","","learning/Slide122.JPG","null","","","","","",""
"html-keyboard-response","371","555860","0.0-7.0-1.41","FL","j07stgzsr2","1920","1080","0","1","0","5d77c0eb4a666c0019561a80","","null","","","learningBlock2","","","","That was a wug.","null","","","","","",""
"html-keyboard-response","372","556861","0.0-7.0-2.41","FL","j07stgzsr2","1920","1080","0","1","0","5d77c0eb4a666c0019561a80","","null","","","learningBlock2","","","","<div style=""font-size:60px;""> </div>","null","FL","learning/Slide122.JPG","That was a wug.","","",""
"image-keyboard-response","373","557037","0.0-7.0-0.42","FL","j07stgzsr2","1920","1080","0","1","0","5d77c0eb4a666c0019561a80","","null","","","","","","","learning/Slide123.JPG","null","","","","","",""
"html-keyboard-response","374","558190","0.0-7.0-1.42","FL","j07stgzsr2","1920","1080","0","1","0","5d77c0eb4a666c0019561a80","","null","","","learningBlock2","","","","That was a bim.","null","","","","","",""
"html-keyboard-response","375","559191","0.0-7.0-2.42","FL","j07stgzsr2","1920","1080","0","1","0","5d77c0eb4a666c0019561a80","","null","","","learningBlock2","","","","<div style=""font-size:60px;""> </div>","null","FL","learning/Slide123.JPG","That was a bim.","","",""
"image-keyboard-response","376","559368","0.0-7.0-0.43","FL","j07stgzsr2","1920","1080","0","1","0","5d77c0eb4a666c0019561a80","","null","","","","","","","learning/Slide124.JPG","null","","","","","",""
"html-keyboard-response","377","560520","0.0-7.0-1.43","FL","j07stgzsr2","1920","1080","0","1","0","5d77c0eb4a666c0019561a80","","null","","","learningBlock2","","","","That was a tob.","null","","","","","",""
"html-keyboard-response","378","561521","0.0-7.0-2.43","FL","j07stgzsr2","1920","1080","0","1","0","5d77c0eb4a666c0019561a80","","null","","","learningBlock2","","","","<div style=""font-size:60px;""> </div>","null","FL","learning/Slide124.JPG","That was a tob.","","",""
"image-keyboard-response","379","561697","0.0-7.0-0.44","FL","j07stgzsr2","1920","1080","0","1","0","5d77c0eb4a666c0019561a80","","null","","","","","","","learning/Slide125.JPG","null","","","","","",""
"html-keyboard-response","380","562849","0.0-7.0-1.44","FL","j07stgzsr2","1920","1080","0","1","0","5d77c0eb4a666c0019561a80","","null","","","learningBlock2","","","","That was a bim.","null","","","","","",""
"html-keyboard-response","381","563850","0.0-7.0-2.44","FL","j07stgzsr2","1920","1080","0","1","0","5d77c0eb4a666c0019561a80","","null","","","learningBlock2","","","","<div style=""font-size:60px;""> </div>","null","FL","learning/Slide125.JPG","That was a bim.","","",""
"image-keyboard-response","382","564027","0.0-7.0-0.45","FL","j07stgzsr2","1920","1080","0","1","0","5d77c0eb4a666c0019561a80","","null","","","","","","","learning/Slide126.JPG","null","","","","","",""
"html-keyboard-response","383","565181","0.0-7.0-1.45","FL","j07stgzsr2","1920","1080","0","1","0","5d77c0eb4a666c0019561a80","","null","","","learningBlock2","","","","That was a tob.","null","","","","","",""
"html-keyboard-response","384","566182","0.0-7.0-2.45","FL","j07stgzsr2","1920","1080","0","1","0","5d77c0eb4a666c0019561a80","","null","","","learningBlock2","","","","<div style=""font-size:60px;""> </div>","null","FL","learning/Slide126.JPG","That was a tob.","","",""
"image-keyboard-response","385","566360","0.0-7.0-0.46","FL","j07stgzsr2","1920","1080","0","1","0","5d77c0eb4a666c0019561a80","","null","","","","","","","learning/Slide127.JPG","null","","","","","",""
"html-keyboard-response","386","567513","0.0-7.0-1.46","FL","j07stgzsr2","1920","1080","0","1","0","5d77c0eb4a666c0019561a80","","null","","","learningBlock2","","","","That was a dep.","null","","","","","",""
"html-keyboard-response","387","568514","0.0-7.0-2.46","FL","j07stgzsr2","1920","1080","0","1","0","5d77c0eb4a666c0019561a80","","null","","","learningBlock2","","","","<div style=""font-size:60px;""> </div>","null","FL","learning/Slide127.JPG","That was a dep.","","",""
"image-keyboard-response","388","568690","0.0-7.0-0.47","FL","j07stgzsr2","1920","1080","0","1","0","5d77c0eb4a666c0019561a80","","null","","","","","","","learning/Slide128.JPG","null","","","","","",""
"html-keyboard-response","389","569842","0.0-7.0-1.47","FL","j07stgzsr2","1920","1080","0","1","0","5d77c0eb4a666c0019561a80","","null","","","learningBlock2","","","","That was a wug.","null","","","","","",""
"html-keyboard-response","390","570843","0.0-7.0-2.47","FL","j07stgzsr2","1920","1080","0","1","0","5d77c0eb4a666c0019561a80","","null","","","learningBlock2","","","","<div style=""font-size:60px;""> </div>","null","FL","learning/Slide128.JPG","That was a wug.","","",""
"image-keyboard-response","391","571020","0.0-7.0-0.48","FL","j07stgzsr2","1920","1080","0","1","0","5d77c0eb4a666c0019561a80","","null","","","","","","","learning/Slide129.JPG","null","","","","","",""
"html-keyboard-response","392","572173","0.0-7.0-1.48","FL","j07stgzsr2","1920","1080","0","1","0","5d77c0eb4a666c0019561a80","","null","","","learningBlock2","","","","That was a tob.","null","","","","","",""
"html-keyboard-response","393","573175","0.0-7.0-2.48","FL","j07stgzsr2","1920","1080","0","1","0","5d77c0eb4a666c0019561a80","","null","","","learningBlock2","","","","<div style=""font-size:60px;""> </div>","null","FL","learning/Slide129.JPG","That was a tob.","","",""
"image-keyboard-response","394","573352","0.0-7.0-0.49","FL","j07stgzsr2","1920","1080","0","1","0","5d77c0eb4a666c0019561a80","","null","","","","","","","learning/Slide130.JPG","null","","","","","",""
"html-keyboard-response","395","574504","0.0-7.0-1.49","FL","j07stgzsr2","1920","1080","0","1","0","5d77c0eb4a666c0019561a80","","null","","","learningBlock2","","","","That was a wug.","null","","","","","",""
"html-keyboard-response","396","575506","0.0-7.0-2.49","FL","j07stgzsr2","1920","1080","0","1","0","5d77c0eb4a666c0019561a80","","null","","","learningBlock2","","","","<div style=""font-size:60px;""> </div>","null","FL","learning/Slide130.JPG","That was a wug.","","",""
"image-keyboard-response","397","575682","0.0-7.0-0.50","FL","j07stgzsr2","1920","1080","0","1","0","5d77c0eb4a666c0019561a80","","null","","","","","","","learning/Slide131.JPG","null","","","","","",""
"html-keyboard-response","398","576834","0.0-7.0-1.50","FL","j07stgzsr2","1920","1080","0","1","0","5d77c0eb4a666c0019561a80","","null","","","learningBlock2","","","","That was a bim.","null","","","","","",""
"html-keyboard-response","399","577836","0.0-7.0-2.50","FL","j07stgzsr2","1920","1080","0","1","0","5d77c0eb4a666c0019561a80","","null","","","learningBlock2","","","","<div style=""font-size:60px;""> </div>","null","FL","learning/Slide131.JPG","That was a bim.","","",""
"image-keyboard-response","400","578012","0.0-7.0-0.51","FL","j07stgzsr2","1920","1080","0","1","0","5d77c0eb4a666c0019561a80","","null","","","","","","","learning/Slide132.JPG","null","","","","","",""
"html-keyboard-response","401","579165","0.0-7.0-1.51","FL","j07stgzsr2","1920","1080","0","1","0","5d77c0eb4a666c0019561a80","","null","","","learningBlock2","","","","That was a dep.","null","","","","","",""
"html-keyboard-response","402","580166","0.0-7.0-2.51","FL","j07stgzsr2","1920","1080","0","1","0","5d77c0eb4a666c0019561a80","","null","","","learningBlock2","","","","<div style=""font-size:60px;""> </div>","null","FL","learning/Slide132.JPG","That was a dep.","","",""
"image-keyboard-response","403","580343","0.0-7.0-0.52","FL","j07stgzsr2","1920","1080","0","1","0","5d77c0eb4a666c0019561a80","","null","","","","","","","learning/Slide133.JPG","null","","","","","",""
"html-keyboard-response","404","581498","0.0-7.0-1.52","FL","j07stgzsr2","1920","1080","0","1","0","5d77c0eb4a666c0019561a80","","null","","","learningBlock2","","","","That was a tob.","null","","","","","",""
"html-keyboard-response","405","582499","0.0-7.0-2.52","FL","j07stgzsr2","1920","1080","0","1","0","5d77c0eb4a666c0019561a80","","null","","","learningBlock2","","","","<div style=""font-size:60px;""> </div>","null","FL","learning/Slide133.JPG","That was a tob.","","",""
"image-keyboard-response","406","582676","0.0-7.0-0.53","FL","j07stgzsr2","1920","1080","0","1","0","5d77c0eb4a666c0019561a80","","null","","","","","","","learning/Slide134.JPG","null","","","","","",""
"html-keyboard-response","407","583829","0.0-7.0-1.53","FL","j07stgzsr2","1920","1080","0","1","0","5d77c0eb4a666c0019561a80","","null","","","learningBlock2","","","","That was a dep.","null","","","","","",""
"html-keyboard-response","408","584830","0.0-7.0-2.53","FL","j07stgzsr2","1920","1080","0","1","0","5d77c0eb4a666c0019561a80","","null","","","learningBlock2","","","","<div style=""font-size:60px;""> </div>","null","FL","learning/Slide134.JPG","That was a dep.","","",""
"image-keyboard-response","409","585007","0.0-7.0-0.54","FL","j07stgzsr2","1920","1080","0","1","0","5d77c0eb4a666c0019561a80","","null","","","","","","","learning/Slide135.JPG","null","","","","","",""
"html-keyboard-response","410","586159","0.0-7.0-1.54","FL","j07stgzsr2","1920","1080","0","1","0","5d77c0eb4a666c0019561a80","","null","","","learningBlock2","","","","That was a tob.","null","","","","","",""
"html-keyboard-response","411","587160","0.0-7.0-2.54","FL","j07stgzsr2","1920","1080","0","1","0","5d77c0eb4a666c0019561a80","","null","","","learningBlock2","","","","<div style=""font-size:60px;""> </div>","null","FL","learning/Slide135.JPG","That was a tob.","","",""
"image-keyboard-response","412","587338","0.0-7.0-0.55","FL","j07stgzsr2","1920","1080","0","1","0","5d77c0eb4a666c0019561a80","","null","","","","","","","learning/Slide136.JPG","null","","","","","",""
"html-keyboard-response","413","588490","0.0-7.0-1.55","FL","j07stgzsr2","1920","1080","0","1","0","5d77c0eb4a666c0019561a80","","null","","","learningBlock2","","","","That was a wug.","null","","","","","",""
"html-keyboard-response","414","589492","0.0-7.0-2.55","FL","j07stgzsr2","1920","1080","0","1","0","5d77c0eb4a666c0019561a80","","null","","","learningBlock2","","","","<div style=""font-size:60px;""> </div>","null","FL","learning/Slide136.JPG","That was a wug.","","",""
"image-keyboard-response","415","589668","0.0-7.0-0.56","FL","j07stgzsr2","1920","1080","0","1","0","5d77c0eb4a666c0019561a80","","null","","","","","","","learning/Slide137.JPG","null","","","","","",""
"html-keyboard-response","416","590821","0.0-7.0-1.56","FL","j07stgzsr2","1920","1080","0","1","0","5d77c0eb4a666c0019561a80","","null","","","learningBlock2","","","","That was a tob.","null","","","","","",""
"html-keyboard-response","417","591823","0.0-7.0-2.56","FL","j07stgzsr2","1920","1080","0","1","0","5d77c0eb4a666c0019561a80","","null","","","learningBlock2","","","","<div style=""font-size:60px;""> </div>","null","FL","learning/Slide137.JPG","That was a tob.","","",""
"image-keyboard-response","418","592000","0.0-7.0-0.57","FL","j07stgzsr2","1920","1080","0","1","0","5d77c0eb4a666c0019561a80","","null","","","","","","","learning/Slide138.JPG","null","","","","","",""
"html-keyboard-response","419","593153","0.0-7.0-1.57","FL","j07stgzsr2","1920","1080","0","1","0","5d77c0eb4a666c0019561a80","","null","","","learningBlock2","","","","That was a bim.","null","","","","","",""
"html-keyboard-response","420","594155","0.0-7.0-2.57","FL","j07stgzsr2","1920","1080","0","1","0","5d77c0eb4a666c0019561a80","","null","","","learningBlock2","","","","<div style=""font-size:60px;""> </div>","null","FL","learning/Slide138.JPG","That was a bim.","","",""
"image-keyboard-response","421","594332","0.0-7.0-0.58","FL","j07stgzsr2","1920","1080","0","1","0","5d77c0eb4a666c0019561a80","","null","","","","","","","learning/Slide139.JPG","null","","","","","",""
"html-keyboard-response","422","595485","0.0-7.0-1.58","FL","j07stgzsr2","1920","1080","0","1","0","5d77c0eb4a666c0019561a80","","null","","","learningBlock2","","","","That was a wug.","null","","","","","",""
"html-keyboard-response","423","596486","0.0-7.0-2.58","FL","j07stgzsr2","1920","1080","0","1","0","5d77c0eb4a666c0019561a80","","null","","","learningBlock2","","","","<div style=""font-size:60px;""> </div>","null","FL","learning/Slide139.JPG","That was a wug.","","",""
"image-keyboard-response","424","596662","0.0-7.0-0.59","FL","j07stgzsr2","1920","1080","0","1","0","5d77c0eb4a666c0019561a80","","null","","","","","","","learning/Slide140.JPG","null","","","","","",""
"html-keyboard-response","425","597814","0.0-7.0-1.59","FL","j07stgzsr2","1920","1080","0","1","0","5d77c0eb4a666c0019561a80","","null","","","learningBlock2","","","","That was a dep.","null","","","","","",""
"html-keyboard-response","426","598816","0.0-7.0-2.59","FL","j07stgzsr2","1920","1080","0","1","0","5d77c0eb4a666c0019561a80","","null","","","learningBlock2","","","","<div style=""font-size:60px;""> </div>","null","FL","learning/Slide140.JPG","That was a dep.","","",""
"image-keyboard-response","427","598992","0.0-7.0-0.60","FL","j07stgzsr2","1920","1080","0","1","0","5d77c0eb4a666c0019561a80","","null","","","","","","","learning/Slide141.JPG","null","","","","","",""
"html-keyboard-response","428","600145","0.0-7.0-1.60","FL","j07stgzsr2","1920","1080","0","1","0","5d77c0eb4a666c0019561a80","","null","","","learningBlock2","","","","That was a tob.","null","","","","","",""
"html-keyboard-response","429","601161","0.0-7.0-2.60","FL","j07stgzsr2","1920","1080","0","1","0","5d77c0eb4a666c0019561a80","","null","","","learningBlock2","","","","<div style=""font-size:60px;""> </div>","null","FL","learning/Slide141.JPG","That was a tob.","","",""
"image-keyboard-response","430","601339","0.0-7.0-0.61","FL","j07stgzsr2","1920","1080","0","1","0","5d77c0eb4a666c0019561a80","","null","","","","","","","learning/Slide142.JPG","null","","","","","",""
"html-keyboard-response","431","602493","0.0-7.0-1.61","FL","j07stgzsr2","1920","1080","0","1","0","5d77c0eb4a666c0019561a80","","null","","","learningBlock2","","","","That was a wug.","null","","","","","",""
"html-keyboard-response","432","603493","0.0-7.0-2.61","FL","j07stgzsr2","1920","1080","0","1","0","5d77c0eb4a666c0019561a80","","null","","","learningBlock2","","","","<div style=""font-size:60px;""> </div>","null","FL","learning/Slide142.JPG","That was a wug.","","",""
"image-keyboard-response","433","603670","0.0-7.0-0.62","FL","j07stgzsr2","1920","1080","0","1","0","5d77c0eb4a666c0019561a80","","null","","","","","","","learning/Slide143.JPG","null","","","","","",""
"html-keyboard-response","434","604822","0.0-7.0-1.62","FL","j07stgzsr2","1920","1080","0","1","0","5d77c0eb4a666c0019561a80","","null","","","learningBlock2","","","","That was a bim.","null","","","","","",""
