"trial_type","trial_index","time_elapsed","internal_node_id","condition","subject","screen_width","screen_height","attention","distraction","conscientious","prolificID","success","rt","url","view_history","test_part","final_height_px","final_width_px","scale_factor","stimulus","key_press","learningType","presentedImage","presentedLabel","button_pressed","response","responses"
"pavlovia","0","18","0.0-0.0","FL","q3zadoj47e","1920","1080","0","1","0","5e47ad846c3d4425c60ccbe5","","","","","","","","","","","","","","","",""
"fullscreen","1","17259","0.0-1.0","FL","q3zadoj47e","1920","1080","0","1","0","5e47ad846c3d4425c60ccbe5","true","","","","","","","","","","","","","","",""
"external-html","2","29043","0.0-2.0-0.0","FL","q3zadoj47e","1920","1080","0","1","0","5e47ad846c3d4425c60ccbe5","","11679.409999998825","text/information_english.html","","","","","","","","","","","","",""
"external-html","3","34460","0.0-2.0-1.0","FL","q3zadoj47e","1920","1080","0","1","0","5e47ad846c3d4425c60ccbe5","","5314.405000000988","text/consent_english.html","","","","","","","","","","","","",""
"instructions","4","44812","0.0-3.0","FL","q3zadoj47e","1920","1080","0","1","0","5e47ad846c3d4425c60ccbe5","","NA","","[{""page_index"":0,""viewing_time"":1438.1400000002031},{""page_index"":1,""viewing_time"":8911.695000000691}]","instructions","","","","","","","","","","",""
"resize","5","77947","0.0-4.0","FL","q3zadoj47e","1920","1080","0","1","0","5e47ad846c3d4425c60ccbe5","","","","","","","346","2.196825396825397","","","","","","","",""
"image-keyboard-response","6","78125","0.0-5.0-0.0","FL","q3zadoj47e","1920","1080","0","1","0","5e47ad846c3d4425c60ccbe5","","null","","","","","","","learning/Slide1.JPG","null","","","","","",""
"html-keyboard-response","7","79299","0.0-5.0-1.0","FL","q3zadoj47e","1920","1080","0","1","0","5e47ad846c3d4425c60ccbe5","","null","","","learningBlock1","","","","That was a tob.","null","","","","","",""
"html-keyboard-response","8","80316","0.0-5.0-2.0","FL","q3zadoj47e","1920","1080","0","1","0","5e47ad846c3d4425c60ccbe5","","null","","","learningBlock1","","","","<div style=""font-size:60px;""> </div>","null","FL","learning/Slide1.JPG","That was a tob.","","",""
"image-keyboard-response","9","80504","0.0-5.0-0.1","FL","q3zadoj47e","1920","1080","0","1","0","5e47ad846c3d4425c60ccbe5","","null","","","","","","","learning/Slide2.JPG","null","","","","","",""
"html-keyboard-response","10","81665","0.0-5.0-1.1","FL","q3zadoj47e","1920","1080","0","1","0","5e47ad846c3d4425c60ccbe5","","null","","","learningBlock1","","","","That was a wug.","null","","","","","",""
"html-keyboard-response","11","82682","0.0-5.0-2.1","FL","q3zadoj47e","1920","1080","0","1","0","5e47ad846c3d4425c60ccbe5","","null","","","learningBlock1","","","","<div style=""font-size:60px;""> </div>","null","FL","learning/Slide2.JPG","That was a wug.","","",""
"image-keyboard-response","12","82870","0.0-5.0-0.2","FL","q3zadoj47e","1920","1080","0","1","0","5e47ad846c3d4425c60ccbe5","","null","","","","","","","learning/Slide3.JPG","null","","","","","",""
"html-keyboard-response","13","84029","0.0-5.0-1.2","FL","q3zadoj47e","1920","1080","0","1","0","5e47ad846c3d4425c60ccbe5","","null","","","learningBlock1","","","","That was a bim.","null","","","","","",""
"html-keyboard-response","14","85033","0.0-5.0-2.2","FL","q3zadoj47e","1920","1080","0","1","0","5e47ad846c3d4425c60ccbe5","","null","","","learningBlock1","","","","<div style=""font-size:60px;""> </div>","null","FL","learning/Slide3.JPG","That was a bim.","","",""
"image-keyboard-response","15","85220","0.0-5.0-0.3","FL","q3zadoj47e","1920","1080","0","1","0","5e47ad846c3d4425c60ccbe5","","null","","","","","","","learning/Slide4.JPG","null","","","","","",""
"html-keyboard-response","16","86381","0.0-5.0-1.3","FL","q3zadoj47e","1920","1080","0","1","0","5e47ad846c3d4425c60ccbe5","","null","","","learningBlock1","","","","That was a dep.","null","","","","","",""
"html-keyboard-response","17","87383","0.0-5.0-2.3","FL","q3zadoj47e","1920","1080","0","1","0","5e47ad846c3d4425c60ccbe5","","null","","","learningBlock1","","","","<div style=""font-size:60px;""> </div>","null","FL","learning/Slide4.JPG","That was a dep.","","",""
"image-keyboard-response","18","87570","0.0-5.0-0.4","FL","q3zadoj47e","1920","1080","0","1","0","5e47ad846c3d4425c60ccbe5","","null","","","","","","","learning/Slide5.JPG","null","","","","","",""
"html-keyboard-response","19","88731","0.0-5.0-1.4","FL","q3zadoj47e","1920","1080","0","1","0","5e47ad846c3d4425c60ccbe5","","null","","","learningBlock1","","","","That was a wug.","null","","","","","",""
"html-keyboard-response","20","89733","0.0-5.0-2.4","FL","q3zadoj47e","1920","1080","0","1","0","5e47ad846c3d4425c60ccbe5","","null","","","learningBlock1","","","","<div style=""font-size:60px;""> </div>","null","FL","learning/Slide5.JPG","That was a wug.","","",""
"image-keyboard-response","21","89921","0.0-5.0-0.5","FL","q3zadoj47e","1920","1080","0","1","0","5e47ad846c3d4425c60ccbe5","","null","","","","","","","learning/Slide6.JPG","null","","","","","",""
"html-keyboard-response","22","91080","0.0-5.0-1.5","FL","q3zadoj47e","1920","1080","0","1","0","5e47ad846c3d4425c60ccbe5","","null","","","learningBlock1","","","","That was a dep.","null","","","","","",""
"html-keyboard-response","23","92083","0.0-5.0-2.5","FL","q3zadoj47e","1920","1080","0","1","0","5e47ad846c3d4425c60ccbe5","","null","","","learningBlock1","","","","<div style=""font-size:60px;""> </div>","null","FL","learning/Slide6.JPG","That was a dep.","","",""
"image-keyboard-response","24","92270","0.0-5.0-0.6","FL","q3zadoj47e","1920","1080","0","1","0","5e47ad846c3d4425c60ccbe5","","null","","","","","","","learning/Slide7.JPG","null","","","","","",""
"html-keyboard-response","25","93432","0.0-5.0-1.6","FL","q3zadoj47e","1920","1080","0","1","0","5e47ad846c3d4425c60ccbe5","","null","","","learningBlock1","","","","That was a wug.","null","","","","","",""
"html-keyboard-response","26","94449","0.0-5.0-2.6","FL","q3zadoj47e","1920","1080","0","1","0","5e47ad846c3d4425c60ccbe5","","null","","","learningBlock1","","","","<div style=""font-size:60px;""> </div>","null","FL","learning/Slide7.JPG","That was a wug.","","",""
"image-keyboard-response","27","94639","0.0-5.0-0.7","FL","q3zadoj47e","1920","1080","0","1","0","5e47ad846c3d4425c60ccbe5","","null","","","","","","","learning/Slide8.JPG","null","","","","","",""
"html-keyboard-response","28","95814","0.0-5.0-1.7","FL","q3zadoj47e","1920","1080","0","1","0","5e47ad846c3d4425c60ccbe5","","null","","","learningBlock1","","","","That was a bim.","null","","","","","",""
"html-keyboard-response","29","96816","0.0-5.0-2.7","FL","q3zadoj47e","1920","1080","0","1","0","5e47ad846c3d4425c60ccbe5","","null","","","learningBlock1","","","","<div style=""font-size:60px;""> </div>","null","FL","learning/Slide8.JPG","That was a bim.","","",""
"image-keyboard-response","30","97003","0.0-5.0-0.8","FL","q3zadoj47e","1920","1080","0","1","0","5e47ad846c3d4425c60ccbe5","","null","","","","","","","learning/Slide9.JPG","null","","","","","",""
"html-keyboard-response","31","98165","0.0-5.0-1.8","FL","q3zadoj47e","1920","1080","0","1","0","5e47ad846c3d4425c60ccbe5","","null","","","learningBlock1","","","","That was a wug.","null","","","","","",""
"html-keyboard-response","32","99170","0.0-5.0-2.8","FL","q3zadoj47e","1920","1080","0","1","0","5e47ad846c3d4425c60ccbe5","","null","","","learningBlock1","","","","<div style=""font-size:60px;""> </div>","null","FL","learning/Slide9.JPG","That was a wug.","","",""
"image-keyboard-response","33","99353","0.0-5.0-0.9","FL","q3zadoj47e","1920","1080","0","1","0","5e47ad846c3d4425c60ccbe5","","null","","","","","","","learning/Slide10.JPG","null","","","","","",""
"html-keyboard-response","34","100513","0.0-5.0-1.9","FL","q3zadoj47e","1920","1080","0","1","0","5e47ad846c3d4425c60ccbe5","","null","","","learningBlock1","","","","That was a dep.","null","","","","","",""
"html-keyboard-response","35","101517","0.0-5.0-2.9","FL","q3zadoj47e","1920","1080","0","1","0","5e47ad846c3d4425c60ccbe5","","null","","","learningBlock1","","","","<div style=""font-size:60px;""> </div>","null","FL","learning/Slide10.JPG","That was a dep.","","",""
"image-keyboard-response","36","101705","0.0-5.0-0.10","FL","q3zadoj47e","1920","1080","0","1","0","5e47ad846c3d4425c60ccbe5","","null","","","","","","","learning/Slide11.JPG","null","","","","","",""
"html-keyboard-response","37","102865","0.0-5.0-1.10","FL","q3zadoj47e","1920","1080","0","1","0","5e47ad846c3d4425c60ccbe5","","null","","","learningBlock1","","","","That was a tob.","null","","","","","",""
"html-keyboard-response","38","103882","0.0-5.0-2.10","FL","q3zadoj47e","1920","1080","0","1","0","5e47ad846c3d4425c60ccbe5","","null","","","learningBlock1","","","","<div style=""font-size:60px;""> </div>","null","FL","learning/Slide11.JPG","That was a tob.","","",""
"image-keyboard-response","39","104070","0.0-5.0-0.11","FL","q3zadoj47e","1920","1080","0","1","0","5e47ad846c3d4425c60ccbe5","","null","","","","","","","learning/Slide12.JPG","null","","","","","",""
"html-keyboard-response","40","105233","0.0-5.0-1.11","FL","q3zadoj47e","1920","1080","0","1","0","5e47ad846c3d4425c60ccbe5","","null","","","learningBlock1","","","","That was a dep.","null","","","","","",""
"html-keyboard-response","41","106249","0.0-5.0-2.11","FL","q3zadoj47e","1920","1080","0","1","0","5e47ad846c3d4425c60ccbe5","","null","","","learningBlock1","","","","<div style=""font-size:60px;""> </div>","null","FL","learning/Slide12.JPG","That was a dep.","","",""
"image-keyboard-response","42","106437","0.0-5.0-0.12","FL","q3zadoj47e","1920","1080","0","1","0","5e47ad846c3d4425c60ccbe5","","null","","","","","","","learning/Slide13.JPG","null","","","","","",""
"html-keyboard-response","43","107598","0.0-5.0-1.12","FL","q3zadoj47e","1920","1080","0","1","0","5e47ad846c3d4425c60ccbe5","","null","","","learningBlock1","","","","That was a bim.","null","","","","","",""
"html-keyboard-response","44","108615","0.0-5.0-2.12","FL","q3zadoj47e","1920","1080","0","1","0","5e47ad846c3d4425c60ccbe5","","null","","","learningBlock1","","","","<div style=""font-size:60px;""> </div>","null","FL","learning/Slide13.JPG","That was a bim.","","",""
"image-keyboard-response","45","108803","0.0-5.0-0.13","FL","q3zadoj47e","1920","1080","0","1","0","5e47ad846c3d4425c60ccbe5","","null","","","","","","","learning/Slide14.JPG","null","","","","","",""
"html-keyboard-response","46","109965","0.0-5.0-1.13","FL","q3zadoj47e","1920","1080","0","1","0","5e47ad846c3d4425c60ccbe5","","null","","","learningBlock1","","","","That was a wug.","null","","","","","",""
"html-keyboard-response","47","110982","0.0-5.0-2.13","FL","q3zadoj47e","1920","1080","0","1","0","5e47ad846c3d4425c60ccbe5","","null","","","learningBlock1","","","","<div style=""font-size:60px;""> </div>","null","FL","learning/Slide14.JPG","That was a wug.","","",""
"image-keyboard-response","48","111170","0.0-5.0-0.14","FL","q3zadoj47e","1920","1080","0","1","0","5e47ad846c3d4425c60ccbe5","","null","","","","","","","learning/Slide15.JPG","null","","","","","",""
"html-keyboard-response","49","112331","0.0-5.0-1.14","FL","q3zadoj47e","1920","1080","0","1","0","5e47ad846c3d4425c60ccbe5","","null","","","learningBlock1","","","","That was a tob.","null","","","","","",""
"html-keyboard-response","50","113333","0.0-5.0-2.14","FL","q3zadoj47e","1920","1080","0","1","0","5e47ad846c3d4425c60ccbe5","","null","","","learningBlock1","","","","<div style=""font-size:60px;""> </div>","null","FL","learning/Slide15.JPG","That was a tob.","","",""
"image-keyboard-response","51","113510","0.0-5.0-0.15","FL","q3zadoj47e","1920","1080","0","1","0","5e47ad846c3d4425c60ccbe5","","null","","","","","","","learning/Slide16.JPG","null","","","","","",""
"html-keyboard-response","52","114665","0.0-5.0-1.15","FL","q3zadoj47e","1920","1080","0","1","0","5e47ad846c3d4425c60ccbe5","","null","","","learningBlock1","","","","That was a dep.","null","","","","","",""
"html-keyboard-response","53","115682","0.0-5.0-2.15","FL","q3zadoj47e","1920","1080","0","1","0","5e47ad846c3d4425c60ccbe5","","null","","","learningBlock1","","","","<div style=""font-size:60px;""> </div>","null","FL","learning/Slide16.JPG","That was a dep.","","",""
"image-keyboard-response","54","115871","0.0-5.0-0.16","FL","q3zadoj47e","1920","1080","0","1","0","5e47ad846c3d4425c60ccbe5","","null","","","","","","","learning/Slide17.JPG","null","","","","","",""
"html-keyboard-response","55","117049","0.0-5.0-1.16","FL","q3zadoj47e","1920","1080","0","1","0","5e47ad846c3d4425c60ccbe5","","null","","","learningBlock1","","","","That was a bim.","null","","","","","",""
"html-keyboard-response","56","118066","0.0-5.0-2.16","FL","q3zadoj47e","1920","1080","0","1","0","5e47ad846c3d4425c60ccbe5","","null","","","learningBlock1","","","","<div style=""font-size:60px;""> </div>","null","FL","learning/Slide17.JPG","That was a bim.","","",""
"image-keyboard-response","57","118254","0.0-5.0-0.17","FL","q3zadoj47e","1920","1080","0","1","0","5e47ad846c3d4425c60ccbe5","","null","","","","","","","learning/Slide18.JPG","null","","","","","",""
"html-keyboard-response","58","119414","0.0-5.0-1.17","FL","q3zadoj47e","1920","1080","0","1","0","5e47ad846c3d4425c60ccbe5","","null","","","learningBlock1","","","","That was a tob.","null","","","","","",""
"html-keyboard-response","59","120433","0.0-5.0-2.17","FL","q3zadoj47e","1920","1080","0","1","0","5e47ad846c3d4425c60ccbe5","","null","","","learningBlock1","","","","<div style=""font-size:60px;""> </div>","null","FL","learning/Slide18.JPG","That was a tob.","","",""
"image-keyboard-response","60","120621","0.0-5.0-0.18","FL","q3zadoj47e","1920","1080","0","1","0","5e47ad846c3d4425c60ccbe5","","null","","","","","","","learning/Slide19.JPG","null","","","","","",""
"html-keyboard-response","61","121800","0.0-5.0-1.18","FL","q3zadoj47e","1920","1080","0","1","0","5e47ad846c3d4425c60ccbe5","","null","","","learningBlock1","","","","That was a wug.","null","","","","","",""
"html-keyboard-response","62","122816","0.0-5.0-2.18","FL","q3zadoj47e","1920","1080","0","1","0","5e47ad846c3d4425c60ccbe5","","null","","","learningBlock1","","","","<div style=""font-size:60px;""> </div>","null","FL","learning/Slide19.JPG","That was a wug.","","",""
"image-keyboard-response","63","123004","0.0-5.0-0.19","FL","q3zadoj47e","1920","1080","0","1","0","5e47ad846c3d4425c60ccbe5","","null","","","","","","","learning/Slide20.JPG","null","","","","","",""
"html-keyboard-response","64","124164","0.0-5.0-1.19","FL","q3zadoj47e","1920","1080","0","1","0","5e47ad846c3d4425c60ccbe5","","null","","","learningBlock1","","","","That was a bim.","null","","","","","",""
"html-keyboard-response","65","125169","0.0-5.0-2.19","FL","q3zadoj47e","1920","1080","0","1","0","5e47ad846c3d4425c60ccbe5","","null","","","learningBlock1","","","","<div style=""font-size:60px;""> </div>","null","FL","learning/Slide20.JPG","That was a bim.","","",""
"image-keyboard-response","66","125353","0.0-5.0-0.20","FL","q3zadoj47e","1920","1080","0","1","0","5e47ad846c3d4425c60ccbe5","","null","","","","","","","learning/Slide21.JPG","null","","","","","",""
"html-keyboard-response","67","126513","0.0-5.0-1.20","FL","q3zadoj47e","1920","1080","0","1","0","5e47ad846c3d4425c60ccbe5","","null","","","learningBlock1","","","","That was a dep.","null","","","","","",""
"html-keyboard-response","68","127516","0.0-5.0-2.20","FL","q3zadoj47e","1920","1080","0","1","0","5e47ad846c3d4425c60ccbe5","","null","","","learningBlock1","","","","<div style=""font-size:60px;""> </div>","null","FL","learning/Slide21.JPG","That was a dep.","","",""
"image-keyboard-response","69","127703","0.0-5.0-0.21","FL","q3zadoj47e","1920","1080","0","1","0","5e47ad846c3d4425c60ccbe5","","null","","","","","","","learning/Slide22.JPG","null","","","","","",""
"html-keyboard-response","70","128860","0.0-5.0-1.21","FL","q3zadoj47e","1920","1080","0","1","0","5e47ad846c3d4425c60ccbe5","","null","","","learningBlock1","","","","That was a bim.","null","","","","","",""
"html-keyboard-response","71","129865","0.0-5.0-2.21","FL","q3zadoj47e","1920","1080","0","1","0","5e47ad846c3d4425c60ccbe5","","null","","","learningBlock1","","","","<div style=""font-size:60px;""> </div>","null","FL","learning/Slide22.JPG","That was a bim.","","",""
"image-keyboard-response","72","130053","0.0-5.0-0.22","FL","q3zadoj47e","1920","1080","0","1","0","5e47ad846c3d4425c60ccbe5","","null","","","","","","","learning/Slide23.JPG","null","","","","","",""
"html-keyboard-response","73","131215","0.0-5.0-1.22","FL","q3zadoj47e","1920","1080","0","1","0","5e47ad846c3d4425c60ccbe5","","null","","","learningBlock1","","","","That was a tob.","null","","","","","",""
"html-keyboard-response","74","132232","0.0-5.0-2.22","FL","q3zadoj47e","1920","1080","0","1","0","5e47ad846c3d4425c60ccbe5","","null","","","learningBlock1","","","","<div style=""font-size:60px;""> </div>","null","FL","learning/Slide23.JPG","That was a tob.","","",""
"image-keyboard-response","75","132420","0.0-5.0-0.23","FL","q3zadoj47e","1920","1080","0","1","0","5e47ad846c3d4425c60ccbe5","","null","","","","","","","learning/Slide24.JPG","null","","","","","",""
"html-keyboard-response","76","133581","0.0-5.0-1.23","FL","q3zadoj47e","1920","1080","0","1","0","5e47ad846c3d4425c60ccbe5","","null","","","learningBlock1","","","","That was a wug.","null","","","","","",""
"html-keyboard-response","77","134582","0.0-5.0-2.23","FL","q3zadoj47e","1920","1080","0","1","0","5e47ad846c3d4425c60ccbe5","","null","","","learningBlock1","","","","<div style=""font-size:60px;""> </div>","null","FL","learning/Slide24.JPG","That was a wug.","","",""
"image-keyboard-response","78","134770","0.0-5.0-0.24","FL","q3zadoj47e","1920","1080","0","1","0","5e47ad846c3d4425c60ccbe5","","null","","","","","","","learning/Slide25.JPG","null","","","","","",""
"html-keyboard-response","79","135930","0.0-5.0-1.24","FL","q3zadoj47e","1920","1080","0","1","0","5e47ad846c3d4425c60ccbe5","","null","","","learningBlock1","","","","That was a dep.","null","","","","","",""
"html-keyboard-response","80","136932","0.0-5.0-2.24","FL","q3zadoj47e","1920","1080","0","1","0","5e47ad846c3d4425c60ccbe5","","null","","","learningBlock1","","","","<div style=""font-size:60px;""> </div>","null","FL","learning/Slide25.JPG","That was a dep.","","",""
"image-keyboard-response","81","137120","0.0-5.0-0.25","FL","q3zadoj47e","1920","1080","0","1","0","5e47ad846c3d4425c60ccbe5","","null","","","","","","","learning/Slide26.JPG","null","","","","","",""
"html-keyboard-response","82","138280","0.0-5.0-1.25","FL","q3zadoj47e","1920","1080","0","1","0","5e47ad846c3d4425c60ccbe5","","null","","","learningBlock1","","","","That was a wug.","null","","","","","",""
"html-keyboard-response","83","139300","0.0-5.0-2.25","FL","q3zadoj47e","1920","1080","0","1","0","5e47ad846c3d4425c60ccbe5","","null","","","learningBlock1","","","","<div style=""font-size:60px;""> </div>","null","FL","learning/Slide26.JPG","That was a wug.","","",""
"image-keyboard-response","84","139487","0.0-5.0-0.26","FL","q3zadoj47e","1920","1080","0","1","0","5e47ad846c3d4425c60ccbe5","","null","","","","","","","learning/Slide27.JPG","null","","","","","",""
"html-keyboard-response","85","140664","0.0-5.0-1.26","FL","q3zadoj47e","1920","1080","0","1","0","5e47ad846c3d4425c60ccbe5","","null","","","learningBlock1","","","","That was a bim.","null","","","","","",""
"html-keyboard-response","86","141681","0.0-5.0-2.26","FL","q3zadoj47e","1920","1080","0","1","0","5e47ad846c3d4425c60ccbe5","","null","","","learningBlock1","","","","<div style=""font-size:60px;""> </div>","null","FL","learning/Slide27.JPG","That was a bim.","","",""
"image-keyboard-response","87","141870","0.0-5.0-0.27","FL","q3zadoj47e","1920","1080","0","1","0","5e47ad846c3d4425c60ccbe5","","null","","","","","","","learning/Slide28.JPG","null","","","","","",""
"html-keyboard-response","88","143032","0.0-5.0-1.27","FL","q3zadoj47e","1920","1080","0","1","0","5e47ad846c3d4425c60ccbe5","","null","","","learningBlock1","","","","That was a dep.","null","","","","","",""
"html-keyboard-response","89","144049","0.0-5.0-2.27","FL","q3zadoj47e","1920","1080","0","1","0","5e47ad846c3d4425c60ccbe5","","null","","","learningBlock1","","","","<div style=""font-size:60px;""> </div>","null","FL","learning/Slide28.JPG","That was a dep.","","",""
"image-keyboard-response","90","144237","0.0-5.0-0.28","FL","q3zadoj47e","1920","1080","0","1","0","5e47ad846c3d4425c60ccbe5","","null","","","","","","","learning/Slide29.JPG","null","","","","","",""
"html-keyboard-response","91","145397","0.0-5.0-1.28","FL","q3zadoj47e","1920","1080","0","1","0","5e47ad846c3d4425c60ccbe5","","null","","","learningBlock1","","","","That was a tob.","null","","","","","",""
"html-keyboard-response","92","146415","0.0-5.0-2.28","FL","q3zadoj47e","1920","1080","0","1","0","5e47ad846c3d4425c60ccbe5","","null","","","learningBlock1","","","","<div style=""font-size:60px;""> </div>","null","FL","learning/Slide29.JPG","That was a tob.","","",""
"image-keyboard-response","93","146602","0.0-5.0-0.29","FL","q3zadoj47e","1920","1080","0","1","0","5e47ad846c3d4425c60ccbe5","","null","","","","","","","learning/Slide30.JPG","null","","","","","",""
"html-keyboard-response","94","147764","0.0-5.0-1.29","FL","q3zadoj47e","1920","1080","0","1","0","5e47ad846c3d4425c60ccbe5","","null","","","learningBlock1","","","","That was a dep.","null","","","","","",""
"html-keyboard-response","95","148765","0.0-5.0-2.29","FL","q3zadoj47e","1920","1080","0","1","0","5e47ad846c3d4425c60ccbe5","","null","","","learningBlock1","","","","<div style=""font-size:60px;""> </div>","null","FL","learning/Slide30.JPG","That was a dep.","","",""
"image-keyboard-response","96","148952","0.0-5.0-0.30","FL","q3zadoj47e","1920","1080","0","1","0","5e47ad846c3d4425c60ccbe5","","null","","","","","","","learning/Slide31.JPG","null","","","","","",""
"html-keyboard-response","97","150118","0.0-5.0-1.30","FL","q3zadoj47e","1920","1080","0","1","0","5e47ad846c3d4425c60ccbe5","","null","","","learningBlock1","","","","That was a wug.","null","","","","","",""
"html-keyboard-response","98","151131","0.0-5.0-2.30","FL","q3zadoj47e","1920","1080","0","1","0","5e47ad846c3d4425c60ccbe5","","null","","","learningBlock1","","","","<div style=""font-size:60px;""> </div>","null","FL","learning/Slide31.JPG","That was a wug.","","",""
"image-keyboard-response","99","151322","0.0-5.0-0.31","FL","q3zadoj47e","1920","1080","0","1","0","5e47ad846c3d4425c60ccbe5","","null","","","","","","","learning/Slide32.JPG","null","","","","","",""
"html-keyboard-response","100","152490","0.0-5.0-1.31","FL","q3zadoj47e","1920","1080","0","1","0","5e47ad846c3d4425c60ccbe5","","null","","","learningBlock1","","","","That was a tob.","null","","","","","",""
"html-keyboard-response","101","153498","0.0-5.0-2.31","FL","q3zadoj47e","1920","1080","0","1","0","5e47ad846c3d4425c60ccbe5","","null","","","learningBlock1","","","","<div style=""font-size:60px;""> </div>","null","FL","learning/Slide32.JPG","That was a tob.","","",""
"image-keyboard-response","102","153688","0.0-5.0-0.32","FL","q3zadoj47e","1920","1080","0","1","0","5e47ad846c3d4425c60ccbe5","","null","","","","","","","learning/Slide33.JPG","null","","","","","",""
"html-keyboard-response","103","154864","0.0-5.0-1.32","FL","q3zadoj47e","1920","1080","0","1","0","5e47ad846c3d4425c60ccbe5","","null","","","learningBlock1","","","","That was a bim.","null","","","","","",""
"html-keyboard-response","104","155882","0.0-5.0-2.32","FL","q3zadoj47e","1920","1080","0","1","0","5e47ad846c3d4425c60ccbe5","","null","","","learningBlock1","","","","<div style=""font-size:60px;""> </div>","null","FL","learning/Slide33.JPG","That was a bim.","","",""
"image-keyboard-response","105","156071","0.0-5.0-0.33","FL","q3zadoj47e","1920","1080","0","1","0","5e47ad846c3d4425c60ccbe5","","null","","","","","","","learning/Slide34.JPG","null","","","","","",""
"html-keyboard-response","106","157246","0.0-5.0-1.33","FL","q3zadoj47e","1920","1080","0","1","0","5e47ad846c3d4425c60ccbe5","","null","","","learningBlock1","","","","That was a tob.","null","","","","","",""
"html-keyboard-response","107","158248","0.0-5.0-2.33","FL","q3zadoj47e","1920","1080","0","1","0","5e47ad846c3d4425c60ccbe5","","null","","","learningBlock1","","","","<div style=""font-size:60px;""> </div>","null","FL","learning/Slide34.JPG","That was a tob.","","",""
"image-keyboard-response","108","158437","0.0-5.0-0.34","FL","q3zadoj47e","1920","1080","0","1","0","5e47ad846c3d4425c60ccbe5","","null","","","","","","","learning/Slide35.JPG","null","","","","","",""
"html-keyboard-response","109","159615","0.0-5.0-1.34","FL","q3zadoj47e","1920","1080","0","1","0","5e47ad846c3d4425c60ccbe5","","null","","","learningBlock1","","","","That was a bim.","null","","","","","",""
"html-keyboard-response","110","160633","0.0-5.0-2.34","FL","q3zadoj47e","1920","1080","0","1","0","5e47ad846c3d4425c60ccbe5","","null","","","learningBlock1","","","","<div style=""font-size:60px;""> </div>","null","FL","learning/Slide35.JPG","That was a bim.","","",""
"image-keyboard-response","111","160821","0.0-5.0-0.35","FL","q3zadoj47e","1920","1080","0","1","0","5e47ad846c3d4425c60ccbe5","","null","","","","","","","learning/Slide36.JPG","null","","","","","",""
"html-keyboard-response","112","161980","0.0-5.0-1.35","FL","q3zadoj47e","1920","1080","0","1","0","5e47ad846c3d4425c60ccbe5","","null","","","learningBlock1","","","","That was a dep.","null","","","","","",""
"html-keyboard-response","113","162984","0.0-5.0-2.35","FL","q3zadoj47e","1920","1080","0","1","0","5e47ad846c3d4425c60ccbe5","","null","","","learningBlock1","","","","<div style=""font-size:60px;""> </div>","null","FL","learning/Slide36.JPG","That was a dep.","","",""
"image-keyboard-response","114","163170","0.0-5.0-0.36","FL","q3zadoj47e","1920","1080","0","1","0","5e47ad846c3d4425c60ccbe5","","null","","","","","","","learning/Slide37.JPG","null","","","","","",""
"html-keyboard-response","115","164331","0.0-5.0-1.36","FL","q3zadoj47e","1920","1080","0","1","0","5e47ad846c3d4425c60ccbe5","","null","","","learningBlock1","","","","That was a tob.","null","","","","","",""
"html-keyboard-response","116","165347","0.0-5.0-2.36","FL","q3zadoj47e","1920","1080","0","1","0","5e47ad846c3d4425c60ccbe5","","null","","","learningBlock1","","","","<div style=""font-size:60px;""> </div>","null","FL","learning/Slide37.JPG","That was a tob.","","",""
"image-keyboard-response","117","165541","0.0-5.0-0.37","FL","q3zadoj47e","1920","1080","0","1","0","5e47ad846c3d4425c60ccbe5","","null","","","","","","","learning/Slide38.JPG","null","","","","","",""
"html-keyboard-response","118","166714","0.0-5.0-1.37","FL","q3zadoj47e","1920","1080","0","1","0","5e47ad846c3d4425c60ccbe5","","null","","","learningBlock1","","","","That was a wug.","null","","","","","",""
"html-keyboard-response","119","167732","0.0-5.0-2.37","FL","q3zadoj47e","1920","1080","0","1","0","5e47ad846c3d4425c60ccbe5","","null","","","learningBlock1","","","","<div style=""font-size:60px;""> </div>","null","FL","learning/Slide38.JPG","That was a wug.","","",""
"image-keyboard-response","120","167920","0.0-5.0-0.38","FL","q3zadoj47e","1920","1080","0","1","0","5e47ad846c3d4425c60ccbe5","","null","","","","","","","learning/Slide39.JPG","null","","","","","",""
"html-keyboard-response","121","169080","0.0-5.0-1.38","FL","q3zadoj47e","1920","1080","0","1","0","5e47ad846c3d4425c60ccbe5","","null","","","learningBlock1","","","","That was a bim.","null","","","","","",""
"html-keyboard-response","122","170093","0.0-5.0-2.38","FL","q3zadoj47e","1920","1080","0","1","0","5e47ad846c3d4425c60ccbe5","","null","","","learningBlock1","","","","<div style=""font-size:60px;""> </div>","null","FL","learning/Slide39.JPG","That was a bim.","","",""
"image-keyboard-response","123","170270","0.0-5.0-0.39","FL","q3zadoj47e","1920","1080","0","1","0","5e47ad846c3d4425c60ccbe5","","null","","","","","","","learning/Slide40.JPG","null","","","","","",""
"html-keyboard-response","124","171447","0.0-5.0-1.39","FL","q3zadoj47e","1920","1080","0","1","0","5e47ad846c3d4425c60ccbe5","","null","","","learningBlock1","","","","That was a tob.","null","","","","","",""
"html-keyboard-response","125","172465","0.0-5.0-2.39","FL","q3zadoj47e","1920","1080","0","1","0","5e47ad846c3d4425c60ccbe5","","null","","","learningBlock1","","","","<div style=""font-size:60px;""> </div>","null","FL","learning/Slide40.JPG","That was a tob.","","",""
"image-keyboard-response","126","172653","0.0-5.0-0.40","FL","q3zadoj47e","1920","1080","0","1","0","5e47ad846c3d4425c60ccbe5","","null","","","","","","","learning/Slide41.JPG","null","","","","","",""
"html-keyboard-response","127","173809","0.0-5.0-1.40","FL","q3zadoj47e","1920","1080","0","1","0","5e47ad846c3d4425c60ccbe5","","null","","","learningBlock1","","","","That was a bim.","null","","","","","",""
"html-keyboard-response","128","174815","0.0-5.0-2.40","FL","q3zadoj47e","1920","1080","0","1","0","5e47ad846c3d4425c60ccbe5","","null","","","learningBlock1","","","","<div style=""font-size:60px;""> </div>","null","FL","learning/Slide41.JPG","That was a bim.","","",""
"image-keyboard-response","129","175002","0.0-5.0-0.41","FL","q3zadoj47e","1920","1080","0","1","0","5e47ad846c3d4425c60ccbe5","","null","","","","","","","learning/Slide42.JPG","null","","","","","",""
"html-keyboard-response","130","176164","0.0-5.0-1.41","FL","q3zadoj47e","1920","1080","0","1","0","5e47ad846c3d4425c60ccbe5","","null","","","learningBlock1","","","","That was a dep.","null","","","","","",""
"html-keyboard-response","131","177182","0.0-5.0-2.41","FL","q3zadoj47e","1920","1080","0","1","0","5e47ad846c3d4425c60ccbe5","","null","","","learningBlock1","","","","<div style=""font-size:60px;""> </div>","null","FL","learning/Slide42.JPG","That was a dep.","","",""
"image-keyboard-response","132","177370","0.0-5.0-0.42","FL","q3zadoj47e","1920","1080","0","1","0","5e47ad846c3d4425c60ccbe5","","null","","","","","","","learning/Slide43.JPG","null","","","","","",""
"html-keyboard-response","133","178530","0.0-5.0-1.42","FL","q3zadoj47e","1920","1080","0","1","0","5e47ad846c3d4425c60ccbe5","","null","","","learningBlock1","","","","That was a wug.","null","","","","","",""
"html-keyboard-response","134","179546","0.0-5.0-2.42","FL","q3zadoj47e","1920","1080","0","1","0","5e47ad846c3d4425c60ccbe5","","null","","","learningBlock1","","","","<div style=""font-size:60px;""> </div>","null","FL","learning/Slide43.JPG","That was a wug.","","",""
"image-keyboard-response","135","179737","0.0-5.0-0.43","FL","q3zadoj47e","1920","1080","0","1","0","5e47ad846c3d4425c60ccbe5","","null","","","","","","","learning/Slide44.JPG","null","","","","","",""
"html-keyboard-response","136","180900","0.0-5.0-1.43","FL","q3zadoj47e","1920","1080","0","1","0","5e47ad846c3d4425c60ccbe5","","null","","","learningBlock1","","","","That was a bim.","null","","","","","",""
"html-keyboard-response","137","181916","0.0-5.0-2.43","FL","q3zadoj47e","1920","1080","0","1","0","5e47ad846c3d4425c60ccbe5","","null","","","learningBlock1","","","","<div style=""font-size:60px;""> </div>","null","FL","learning/Slide44.JPG","That was a bim.","","",""
"image-keyboard-response","138","182104","0.0-5.0-0.44","FL","q3zadoj47e","1920","1080","0","1","0","5e47ad846c3d4425c60ccbe5","","null","","","","","","","learning/Slide45.JPG","null","","","","","",""
"html-keyboard-response","139","183264","0.0-5.0-1.44","FL","q3zadoj47e","1920","1080","0","1","0","5e47ad846c3d4425c60ccbe5","","null","","","learningBlock1","","","","That was a wug.","null","","","","","",""
"html-keyboard-response","140","184267","0.0-5.0-2.44","FL","q3zadoj47e","1920","1080","0","1","0","5e47ad846c3d4425c60ccbe5","","null","","","learningBlock1","","","","<div style=""font-size:60px;""> </div>","null","FL","learning/Slide45.JPG","That was a wug.","","",""
"image-keyboard-response","141","184454","0.0-5.0-0.45","FL","q3zadoj47e","1920","1080","0","1","0","5e47ad846c3d4425c60ccbe5","","null","","","","","","","learning/Slide46.JPG","null","","","","","",""
"html-keyboard-response","142","185615","0.0-5.0-1.45","FL","q3zadoj47e","1920","1080","0","1","0","5e47ad846c3d4425c60ccbe5","","null","","","learningBlock1","","","","That was a dep.","null","","","","","",""
"html-keyboard-response","143","186633","0.0-5.0-2.45","FL","q3zadoj47e","1920","1080","0","1","0","5e47ad846c3d4425c60ccbe5","","null","","","learningBlock1","","","","<div style=""font-size:60px;""> </div>","null","FL","learning/Slide46.JPG","That was a dep.","","",""
"image-keyboard-response","144","186821","0.0-5.0-0.46","FL","q3zadoj47e","1920","1080","0","1","0","5e47ad846c3d4425c60ccbe5","","null","","","","","","","learning/Slide47.JPG","null","","","","","",""
"html-keyboard-response","145","187998","0.0-5.0-1.46","FL","q3zadoj47e","1920","1080","0","1","0","5e47ad846c3d4425c60ccbe5","","null","","","learningBlock1","","","","That was a tob.","null","","","","","",""
"html-keyboard-response","146","189016","0.0-5.0-2.46","FL","q3zadoj47e","1920","1080","0","1","0","5e47ad846c3d4425c60ccbe5","","null","","","learningBlock1","","","","<div style=""font-size:60px;""> </div>","null","FL","learning/Slide47.JPG","That was a tob.","","",""
"image-keyboard-response","147","189204","0.0-5.0-0.47","FL","q3zadoj47e","1920","1080","0","1","0","5e47ad846c3d4425c60ccbe5","","null","","","","","","","learning/Slide48.JPG","null","","","","","",""
"html-keyboard-response","148","190365","0.0-5.0-1.47","FL","q3zadoj47e","1920","1080","0","1","0","5e47ad846c3d4425c60ccbe5","","null","","","learningBlock1","","","","That was a bim.","null","","","","","",""
"html-keyboard-response","149","191382","0.0-5.0-2.47","FL","q3zadoj47e","1920","1080","0","1","0","5e47ad846c3d4425c60ccbe5","","null","","","learningBlock1","","","","<div style=""font-size:60px;""> </div>","null","FL","learning/Slide48.JPG","That was a bim.","","",""
"image-keyboard-response","150","191570","0.0-5.0-0.48","FL","q3zadoj47e","1920","1080","0","1","0","5e47ad846c3d4425c60ccbe5","","null","","","","","","","learning/Slide49.JPG","null","","","","","",""
"html-keyboard-response","151","192732","0.0-5.0-1.48","FL","q3zadoj47e","1920","1080","0","1","0","5e47ad846c3d4425c60ccbe5","","null","","","learningBlock1","","","","That was a dep.","null","","","","","",""
"html-keyboard-response","152","193748","0.0-5.0-2.48","FL","q3zadoj47e","1920","1080","0","1","0","5e47ad846c3d4425c60ccbe5","","null","","","learningBlock1","","","","<div style=""font-size:60px;""> </div>","null","FL","learning/Slide49.JPG","That was a dep.","","",""
"image-keyboard-response","153","193938","0.0-5.0-0.49","FL","q3zadoj47e","1920","1080","0","1","0","5e47ad846c3d4425c60ccbe5","","null","","","","","","","learning/Slide50.JPG","null","","","","","",""
"html-keyboard-response","154","195098","0.0-5.0-1.49","FL","q3zadoj47e","1920","1080","0","1","0","5e47ad846c3d4425c60ccbe5","","null","","","learningBlock1","","","","That was a tob.","null","","","","","",""
"html-keyboard-response","155","196115","0.0-5.0-2.49","FL","q3zadoj47e","1920","1080","0","1","0","5e47ad846c3d4425c60ccbe5","","null","","","learningBlock1","","","","<div style=""font-size:60px;""> </div>","null","FL","learning/Slide50.JPG","That was a tob.","","",""
"image-keyboard-response","156","196304","0.0-5.0-0.50","FL","q3zadoj47e","1920","1080","0","1","0","5e47ad846c3d4425c60ccbe5","","null","","","","","","","learning/Slide51.JPG","null","","","","","",""
"html-keyboard-response","157","197464","0.0-5.0-1.50","FL","q3zadoj47e","1920","1080","0","1","0","5e47ad846c3d4425c60ccbe5","","null","","","learningBlock1","","","","That was a bim.","null","","","","","",""
"html-keyboard-response","158","198469","0.0-5.0-2.50","FL","q3zadoj47e","1920","1080","0","1","0","5e47ad846c3d4425c60ccbe5","","null","","","learningBlock1","","","","<div style=""font-size:60px;""> </div>","null","FL","learning/Slide51.JPG","That was a bim.","","",""
"image-keyboard-response","159","198655","0.0-5.0-0.51","FL","q3zadoj47e","1920","1080","0","1","0","5e47ad846c3d4425c60ccbe5","","null","","","","","","","learning/Slide52.JPG","null","","","","","",""
"html-keyboard-response","160","199832","0.0-5.0-1.51","FL","q3zadoj47e","1920","1080","0","1","0","5e47ad846c3d4425c60ccbe5","","null","","","learningBlock1","","","","That was a wug.","null","","","","","",""
"html-keyboard-response","161","200834","0.0-5.0-2.51","FL","q3zadoj47e","1920","1080","0","1","0","5e47ad846c3d4425c60ccbe5","","null","","","learningBlock1","","","","<div style=""font-size:60px;""> </div>","null","FL","learning/Slide52.JPG","That was a wug.","","",""
"image-keyboard-response","162","201023","0.0-5.0-0.52","FL","q3zadoj47e","1920","1080","0","1","0","5e47ad846c3d4425c60ccbe5","","null","","","","","","","learning/Slide53.JPG","null","","","","","",""
"html-keyboard-response","163","202198","0.0-5.0-1.52","FL","q3zadoj47e","1920","1080","0","1","0","5e47ad846c3d4425c60ccbe5","","null","","","learningBlock1","","","","That was a tob.","null","","","","","",""
"html-keyboard-response","164","203200","0.0-5.0-2.52","FL","q3zadoj47e","1920","1080","0","1","0","5e47ad846c3d4425c60ccbe5","","null","","","learningBlock1","","","","<div style=""font-size:60px;""> </div>","null","FL","learning/Slide53.JPG","That was a tob.","","",""
"image-keyboard-response","165","203387","0.0-5.0-0.53","FL","q3zadoj47e","1920","1080","0","1","0","5e47ad846c3d4425c60ccbe5","","null","","","","","","","learning/Slide54.JPG","null","","","","","",""
"html-keyboard-response","166","204553","0.0-5.0-1.53","FL","q3zadoj47e","1920","1080","0","1","0","5e47ad846c3d4425c60ccbe5","","null","","","learningBlock1","","","","That was a dep.","null","","","","","",""
"html-keyboard-response","167","205565","0.0-5.0-2.53","FL","q3zadoj47e","1920","1080","0","1","0","5e47ad846c3d4425c60ccbe5","","null","","","learningBlock1","","","","<div style=""font-size:60px;""> </div>","null","FL","learning/Slide54.JPG","That was a dep.","","",""
"image-keyboard-response","168","205754","0.0-5.0-0.54","FL","q3zadoj47e","1920","1080","0","1","0","5e47ad846c3d4425c60ccbe5","","null","","","","","","","learning/Slide55.JPG","null","","","","","",""
"html-keyboard-response","169","206916","0.0-5.0-1.54","FL","q3zadoj47e","1920","1080","0","1","0","5e47ad846c3d4425c60ccbe5","","null","","","learningBlock1","","","","That was a bim.","null","","","","","",""
"html-keyboard-response","170","207921","0.0-5.0-2.54","FL","q3zadoj47e","1920","1080","0","1","0","5e47ad846c3d4425c60ccbe5","","null","","","learningBlock1","","","","<div style=""font-size:60px;""> </div>","null","FL","learning/Slide55.JPG","That was a bim.","","",""
"image-keyboard-response","171","208104","0.0-5.0-0.55","FL","q3zadoj47e","1920","1080","0","1","0","5e47ad846c3d4425c60ccbe5","","null","","","","","","","learning/Slide56.JPG","null","","","","","",""
"html-keyboard-response","172","209266","0.0-5.0-1.55","FL","q3zadoj47e","1920","1080","0","1","0","5e47ad846c3d4425c60ccbe5","","null","","","learningBlock1","","","","That was a tob.","null","","","","","",""
"html-keyboard-response","173","210283","0.0-5.0-2.55","FL","q3zadoj47e","1920","1080","0","1","0","5e47ad846c3d4425c60ccbe5","","null","","","learningBlock1","","","","<div style=""font-size:60px;""> </div>","null","FL","learning/Slide56.JPG","That was a tob.","","",""
"image-keyboard-response","174","210471","0.0-5.0-0.56","FL","q3zadoj47e","1920","1080","0","1","0","5e47ad846c3d4425c60ccbe5","","null","","","","","","","learning/Slide57.JPG","null","","","","","",""
"html-keyboard-response","175","211631","0.0-5.0-1.56","FL","q3zadoj47e","1920","1080","0","1","0","5e47ad846c3d4425c60ccbe5","","null","","","learningBlock1","","","","That was a dep.","null","","","","","",""
"html-keyboard-response","176","212633","0.0-5.0-2.56","FL","q3zadoj47e","1920","1080","0","1","0","5e47ad846c3d4425c60ccbe5","","null","","","learningBlock1","","","","<div style=""font-size:60px;""> </div>","null","FL","learning/Slide57.JPG","That was a dep.","","",""
"image-keyboard-response","177","212820","0.0-5.0-0.57","FL","q3zadoj47e","1920","1080","0","1","0","5e47ad846c3d4425c60ccbe5","","null","","","","","","","learning/Slide58.JPG","null","","","","","",""
"html-keyboard-response","178","213983","0.0-5.0-1.57","FL","q3zadoj47e","1920","1080","0","1","0","5e47ad846c3d4425c60ccbe5","","null","","","learningBlock1","","","","That was a wug.","null","","","","","",""
"html-keyboard-response","179","214999","0.0-5.0-2.57","FL","q3zadoj47e","1920","1080","0","1","0","5e47ad846c3d4425c60ccbe5","","null","","","learningBlock1","","","","<div style=""font-size:60px;""> </div>","null","FL","learning/Slide58.JPG","That was a wug.","","",""
"image-keyboard-response","180","215187","0.0-5.0-0.58","FL","q3zadoj47e","1920","1080","0","1","0","5e47ad846c3d4425c60ccbe5","","null","","","","","","","learning/Slide59.JPG","null","","","","","",""
"html-keyboard-response","181","216347","0.0-5.0-1.58","FL","q3zadoj47e","1920","1080","0","1","0","5e47ad846c3d4425c60ccbe5","","null","","","learningBlock1","","","","That was a dep.","null","","","","","",""
"html-keyboard-response","182","217351","0.0-5.0-2.58","FL","q3zadoj47e","1920","1080","0","1","0","5e47ad846c3d4425c60ccbe5","","null","","","learningBlock1","","","","<div style=""font-size:60px;""> </div>","null","FL","learning/Slide59.JPG","That was a dep.","","",""
"image-keyboard-response","183","217540","0.0-5.0-0.59","FL","q3zadoj47e","1920","1080","0","1","0","5e47ad846c3d4425c60ccbe5","","null","","","","","","","learning/Slide60.JPG","null","","","","","",""
"html-keyboard-response","184","218699","0.0-5.0-1.59","FL","q3zadoj47e","1920","1080","0","1","0","5e47ad846c3d4425c60ccbe5","","null","","","learningBlock1","","","","That was a wug.","null","","","","","",""
"html-keyboard-response","185","219711","0.0-5.0-2.59","FL","q3zadoj47e","1920","1080","0","1","0","5e47ad846c3d4425c60ccbe5","","null","","","learningBlock1","","","","<div style=""font-size:60px;""> </div>","null","FL","learning/Slide60.JPG","That was a wug.","","",""
"image-keyboard-response","186","219890","0.0-5.0-0.60","FL","q3zadoj47e","1920","1080","0","1","0","5e47ad846c3d4425c60ccbe5","","null","","","","","","","learning/Slide61.JPG","null","","","","","",""
"html-keyboard-response","187","221066","0.0-5.0-1.60","FL","q3zadoj47e","1920","1080","0","1","0","5e47ad846c3d4425c60ccbe5","","null","","","learningBlock1","","","","That was a bim.","null","","","","","",""
"html-keyboard-response","188","222082","0.0-5.0-2.60","FL","q3zadoj47e","1920","1080","0","1","0","5e47ad846c3d4425c60ccbe5","","null","","","learningBlock1","","","","<div style=""font-size:60px;""> </div>","null","FL","learning/Slide61.JPG","That was a bim.","","",""
"image-keyboard-response","189","222270","0.0-5.0-0.61","FL","q3zadoj47e","1920","1080","0","1","0","5e47ad846c3d4425c60ccbe5","","null","","","","","","","learning/Slide62.JPG","null","","","","","",""
"html-keyboard-response","190","223431","0.0-5.0-1.61","FL","q3zadoj47e","1920","1080","0","1","0","5e47ad846c3d4425c60ccbe5","","null","","","learningBlock1","","","","That was a dep.","null","","","","","",""
"html-keyboard-response","191","224435","0.0-5.0-2.61","FL","q3zadoj47e","1920","1080","0","1","0","5e47ad846c3d4425c60ccbe5","","null","","","learningBlock1","","","","<div style=""font-size:60px;""> </div>","null","FL","learning/Slide62.JPG","That was a dep.","","",""
"image-keyboard-response","192","224621","0.0-5.0-0.62","FL","q3zadoj47e","1920","1080","0","1","0","5e47ad846c3d4425c60ccbe5","","null","","","","","","","learning/Slide63.JPG","null","","","","","",""
"html-keyboard-response","193","225783","0.0-5.0-1.62","FL","q3zadoj47e","1920","1080","0","1","0","5e47ad846c3d4425c60ccbe5","","null","","","learningBlock1","","","","That was a bim.","null","","","","","",""
"html-keyboard-response","194","226799","0.0-5.0-2.62","FL","q3zadoj47e","1920","1080","0","1","0","5e47ad846c3d4425c60ccbe5","","null","","","learningBlock1","","","","<div style=""font-size:60px;""> </div>","null","FL","learning/Slide63.JPG","That was a bim.","","",""
"image-keyboard-response","195","226988","0.0-5.0-0.63","FL","q3zadoj47e","1920","1080","0","1","0","5e47ad846c3d4425c60ccbe5","","null","","","","","","","learning/Slide64.JPG","null","","","","","",""
"html-keyboard-response","196","228148","0.0-5.0-1.63","FL","q3zadoj47e","1920","1080","0","1","0","5e47ad846c3d4425c60ccbe5","","null","","","learningBlock1","","","","That was a tob.","null","","","","","",""
"html-keyboard-response","197","229167","0.0-5.0-2.63","FL","q3zadoj47e","1920","1080","0","1","0","5e47ad846c3d4425c60ccbe5","","null","","","learningBlock1","","","","<div style=""font-size:60px;""> </div>","null","FL","learning/Slide64.JPG","That was a tob.","","",""
"image-keyboard-response","198","229354","0.0-5.0-0.64","FL","q3zadoj47e","1920","1080","0","1","0","5e47ad846c3d4425c60ccbe5","","null","","","","","","","learning/Slide65.JPG","null","","","","","",""
"html-keyboard-response","199","230515","0.0-5.0-1.64","FL","q3zadoj47e","1920","1080","0","1","0","5e47ad846c3d4425c60ccbe5","","null","","","learningBlock1","","","","That was a wug.","null","","","","","",""
"html-keyboard-response","200","231532","0.0-5.0-2.64","FL","q3zadoj47e","1920","1080","0","1","0","5e47ad846c3d4425c60ccbe5","","null","","","learningBlock1","","","","<div style=""font-size:60px;""> </div>","null","FL","learning/Slide65.JPG","That was a wug.","","",""
"image-keyboard-response","201","231720","0.0-5.0-0.65","FL","q3zadoj47e","1920","1080","0","1","0","5e47ad846c3d4425c60ccbe5","","null","","","","","","","learning/Slide66.JPG","null","","","","","",""
"html-keyboard-response","202","232880","0.0-5.0-1.65","FL","q3zadoj47e","1920","1080","0","1","0","5e47ad846c3d4425c60ccbe5","","null","","","learningBlock1","","","","That was a dep.","null","","","","","",""
"html-keyboard-response","203","233900","0.0-5.0-2.65","FL","q3zadoj47e","1920","1080","0","1","0","5e47ad846c3d4425c60ccbe5","","null","","","learningBlock1","","","","<div style=""font-size:60px;""> </div>","null","FL","learning/Slide66.JPG","That was a dep.","","",""
"image-keyboard-response","204","234089","0.0-5.0-0.66","FL","q3zadoj47e","1920","1080","0","1","0","5e47ad846c3d4425c60ccbe5","","null","","","","","","","learning/Slide67.JPG","null","","","","","",""
"html-keyboard-response","205","235265","0.0-5.0-1.66","FL","q3zadoj47e","1920","1080","0","1","0","5e47ad846c3d4425c60ccbe5","","null","","","learningBlock1","","","","That was a tob.","null","","","","","",""
"html-keyboard-response","206","236282","0.0-5.0-2.66","FL","q3zadoj47e","1920","1080","0","1","0","5e47ad846c3d4425c60ccbe5","","null","","","learningBlock1","","","","<div style=""font-size:60px;""> </div>","null","FL","learning/Slide67.JPG","That was a tob.","","",""
"image-keyboard-response","207","236471","0.0-5.0-0.67","FL","q3zadoj47e","1920","1080","0","1","0","5e47ad846c3d4425c60ccbe5","","null","","","","","","","learning/Slide68.JPG","null","","","","","",""
"html-keyboard-response","208","237632","0.0-5.0-1.67","FL","q3zadoj47e","1920","1080","0","1","0","5e47ad846c3d4425c60ccbe5","","null","","","learningBlock1","","","","That was a wug.","null","","","","","",""
"html-keyboard-response","209","238651","0.0-5.0-2.67","FL","q3zadoj47e","1920","1080","0","1","0","5e47ad846c3d4425c60ccbe5","","null","","","learningBlock1","","","","<div style=""font-size:60px;""> </div>","null","FL","learning/Slide68.JPG","That was a wug.","","",""
"image-keyboard-response","210","238838","0.0-5.0-0.68","FL","q3zadoj47e","1920","1080","0","1","0","5e47ad846c3d4425c60ccbe5","","null","","","","","","","learning/Slide69.JPG","null","","","","","",""
"html-keyboard-response","211","239998","0.0-5.0-1.68","FL","q3zadoj47e","1920","1080","0","1","0","5e47ad846c3d4425c60ccbe5","","null","","","learningBlock1","","","","That was a tob.","null","","","","","",""
"html-keyboard-response","212","241001","0.0-5.0-2.68","FL","q3zadoj47e","1920","1080","0","1","0","5e47ad846c3d4425c60ccbe5","","null","","","learningBlock1","","","","<div style=""font-size:60px;""> </div>","null","FL","learning/Slide69.JPG","That was a tob.","","",""
"image-keyboard-response","213","241186","0.0-5.0-0.69","FL","q3zadoj47e","1920","1080","0","1","0","5e47ad846c3d4425c60ccbe5","","null","","","","","","","learning/Slide70.JPG","null","","","","","",""
"html-keyboard-response","214","242348","0.0-5.0-1.69","FL","q3zadoj47e","1920","1080","0","1","0","5e47ad846c3d4425c60ccbe5","","null","","","learningBlock1","","","","That was a dep.","null","","","","","",""
"html-keyboard-response","215","243365","0.0-5.0-2.69","FL","q3zadoj47e","1920","1080","0","1","0","5e47ad846c3d4425c60ccbe5","","null","","","learningBlock1","","","","<div style=""font-size:60px;""> </div>","null","FL","learning/Slide70.JPG","That was a dep.","","",""
"image-keyboard-response","216","243554","0.0-5.0-0.70","FL","q3zadoj47e","1920","1080","0","1","0","5e47ad846c3d4425c60ccbe5","","null","","","","","","","learning/Slide71.JPG","null","","","","","",""
"html-keyboard-response","217","244714","0.0-5.0-1.70","FL","q3zadoj47e","1920","1080","0","1","0","5e47ad846c3d4425c60ccbe5","","null","","","learningBlock1","","","","That was a wug.","null","","","","","",""
"html-keyboard-response","218","245717","0.0-5.0-2.70","FL","q3zadoj47e","1920","1080","0","1","0","5e47ad846c3d4425c60ccbe5","","null","","","learningBlock1","","","","<div style=""font-size:60px;""> </div>","null","FL","learning/Slide71.JPG","That was a wug.","","",""
"image-keyboard-response","219","245903","0.0-5.0-0.71","FL","q3zadoj47e","1920","1080","0","1","0","5e47ad846c3d4425c60ccbe5","","null","","","","","","","learning/Slide72.JPG","null","","","","","",""
"html-keyboard-response","220","247063","0.0-5.0-1.71","FL","q3zadoj47e","1920","1080","0","1","0","5e47ad846c3d4425c60ccbe5","","null","","","learningBlock1","","","","That was a bim.","null","","","","","",""
"html-keyboard-response","221","248066","0.0-5.0-2.71","FL","q3zadoj47e","1920","1080","0","1","0","5e47ad846c3d4425c60ccbe5","","null","","","learningBlock1","","","","<div style=""font-size:60px;""> </div>","null","FL","learning/Slide72.JPG","That was a bim.","","",""
"image-keyboard-response","222","248254","0.0-5.0-0.72","FL","q3zadoj47e","1920","1080","0","1","0","5e47ad846c3d4425c60ccbe5","","null","","","","","","","learning/Slide73.JPG","null","","","","","",""
"html-keyboard-response","223","249421","0.0-5.0-1.72","FL","q3zadoj47e","1920","1080","0","1","0","5e47ad846c3d4425c60ccbe5","","null","","","learningBlock1","","","","That was a wug.","null","","","","","",""
"html-keyboard-response","224","250432","0.0-5.0-2.72","FL","q3zadoj47e","1920","1080","0","1","0","5e47ad846c3d4425c60ccbe5","","null","","","learningBlock1","","","","<div style=""font-size:60px;""> </div>","null","FL","learning/Slide73.JPG","That was a wug.","","",""
"image-keyboard-response","225","250620","0.0-5.0-0.73","FL","q3zadoj47e","1920","1080","0","1","0","5e47ad846c3d4425c60ccbe5","","null","","","","","","","learning/Slide74.JPG","null","","","","","",""
"html-keyboard-response","226","251781","0.0-5.0-1.73","FL","q3zadoj47e","1920","1080","0","1","0","5e47ad846c3d4425c60ccbe5","","null","","","learningBlock1","","","","That was a dep.","null","","","","","",""
"html-keyboard-response","227","252798","0.0-5.0-2.73","FL","q3zadoj47e","1920","1080","0","1","0","5e47ad846c3d4425c60ccbe5","","null","","","learningBlock1","","","","<div style=""font-size:60px;""> </div>","null","FL","learning/Slide74.JPG","That was a dep.","","",""
"image-keyboard-response","228","252987","0.0-5.0-0.74","FL","q3zadoj47e","1920","1080","0","1","0","5e47ad846c3d4425c60ccbe5","","null","","","","","","","learning/Slide75.JPG","null","","","","","",""
"html-keyboard-response","229","254148","0.0-5.0-1.74","FL","q3zadoj47e","1920","1080","0","1","0","5e47ad846c3d4425c60ccbe5","","null","","","learningBlock1","","","","That was a tob.","null","","","","","",""
"html-keyboard-response","230","255165","0.0-5.0-2.74","FL","q3zadoj47e","1920","1080","0","1","0","5e47ad846c3d4425c60ccbe5","","null","","","learningBlock1","","","","<div style=""font-size:60px;""> </div>","null","FL","learning/Slide75.JPG","That was a tob.","","",""
"image-keyboard-response","231","255354","0.0-5.0-0.75","FL","q3zadoj47e","1920","1080","0","1","0","5e47ad846c3d4425c60ccbe5","","null","","","","","","","learning/Slide76.JPG","null","","","","","",""
"html-keyboard-response","232","256531","0.0-5.0-1.75","FL","q3zadoj47e","1920","1080","0","1","0","5e47ad846c3d4425c60ccbe5","","null","","","learningBlock1","","","","That was a bim.","null","","","","","",""
"html-keyboard-response","233","257533","0.0-5.0-2.75","FL","q3zadoj47e","1920","1080","0","1","0","5e47ad846c3d4425c60ccbe5","","null","","","learningBlock1","","","","<div style=""font-size:60px;""> </div>","null","FL","learning/Slide76.JPG","That was a bim.","","",""
"image-keyboard-response","234","257720","0.0-5.0-0.76","FL","q3zadoj47e","1920","1080","0","1","0","5e47ad846c3d4425c60ccbe5","","null","","","","","","","learning/Slide77.JPG","null","","","","","",""
"html-keyboard-response","235","258881","0.0-5.0-1.76","FL","q3zadoj47e","1920","1080","0","1","0","5e47ad846c3d4425c60ccbe5","","null","","","learningBlock1","","","","That was a tob.","null","","","","","",""
"html-keyboard-response","236","259899","0.0-5.0-2.76","FL","q3zadoj47e","1920","1080","0","1","0","5e47ad846c3d4425c60ccbe5","","null","","","learningBlock1","","","","<div style=""font-size:60px;""> </div>","null","FL","learning/Slide77.JPG","That was a tob.","","",""
"image-keyboard-response","237","260087","0.0-5.0-0.77","FL","q3zadoj47e","1920","1080","0","1","0","5e47ad846c3d4425c60ccbe5","","null","","","","","","","learning/Slide78.JPG","null","","","","","",""
"html-keyboard-response","238","261248","0.0-5.0-1.77","FL","q3zadoj47e","1920","1080","0","1","0","5e47ad846c3d4425c60ccbe5","","null","","","learningBlock1","","","","That was a wug.","null","","","","","",""
"html-keyboard-response","239","262265","0.0-5.0-2.77","FL","q3zadoj47e","1920","1080","0","1","0","5e47ad846c3d4425c60ccbe5","","null","","","learningBlock1","","","","<div style=""font-size:60px;""> </div>","null","FL","learning/Slide78.JPG","That was a wug.","","",""
"image-keyboard-response","240","262453","0.0-5.0-0.78","FL","q3zadoj47e","1920","1080","0","1","0","5e47ad846c3d4425c60ccbe5","","null","","","","","","","learning/Slide79.JPG","null","","","","","",""
"html-keyboard-response","241","263616","0.0-5.0-1.78","FL","q3zadoj47e","1920","1080","0","1","0","5e47ad846c3d4425c60ccbe5","","null","","","learningBlock1","","","","That was a bim.","null","","","","","",""
"html-keyboard-response","242","264620","0.0-5.0-2.78","FL","q3zadoj47e","1920","1080","0","1","0","5e47ad846c3d4425c60ccbe5","","null","","","learningBlock1","","","","<div style=""font-size:60px;""> </div>","null","FL","learning/Slide79.JPG","That was a bim.","","",""
"image-keyboard-response","243","264801","0.0-5.0-0.79","FL","q3zadoj47e","1920","1080","0","1","0","5e47ad846c3d4425c60ccbe5","","null","","","","","","","learning/Slide80.JPG","null","","","","","",""
"html-keyboard-response","244","265965","0.0-5.0-1.79","FL","q3zadoj47e","1920","1080","0","1","0","5e47ad846c3d4425c60ccbe5","","null","","","learningBlock1","","","","That was a tob.","null","","","","","",""
"html-keyboard-response","245","266983","0.0-5.0-2.79","FL","q3zadoj47e","1920","1080","0","1","0","5e47ad846c3d4425c60ccbe5","","null","","","learningBlock1","","","","<div style=""font-size:60px;""> </div>","null","FL","learning/Slide80.JPG","That was a tob.","","",""
"instructions","246","297931","0.0-6.0","FL","q3zadoj47e","1920","1080","0","1","0","5e47ad846c3d4425c60ccbe5","","NA","","[{""page_index"":0,""viewing_time"":30946.820000000997}]","instructions","","","","","","","","","","",""
"image-keyboard-response","247","298123","0.0-7.0-0.0","FL","q3zadoj47e","1920","1080","0","1","0","5e47ad846c3d4425c60ccbe5","","null","","","","","","","learning/Slide81.JPG","null","","","","","",""
"html-keyboard-response","248","299298","0.0-7.0-1.0","FL","q3zadoj47e","1920","1080","0","1","0","5e47ad846c3d4425c60ccbe5","","null","","","learningBlock2","","","","That was a wug.","null","","","","","",""
"html-keyboard-response","249","300315","0.0-7.0-2.0","FL","q3zadoj47e","1920","1080","0","1","0","5e47ad846c3d4425c60ccbe5","","null","","","learningBlock2","","","","<div style=""font-size:60px;""> </div>","null","FL","learning/Slide81.JPG","That was a wug.","","",""
"image-keyboard-response","250","300507","0.0-7.0-0.1","FL","q3zadoj47e","1920","1080","0","1","0","5e47ad846c3d4425c60ccbe5","","null","","","","","","","learning/Slide82.JPG","null","","","","","",""
"html-keyboard-response","251","301682","0.0-7.0-1.1","FL","q3zadoj47e","1920","1080","0","1","0","5e47ad846c3d4425c60ccbe5","","null","","","learningBlock2","","","","That was a bim.","null","","","","","",""
"html-keyboard-response","252","302699","0.0-7.0-2.1","FL","q3zadoj47e","1920","1080","0","1","0","5e47ad846c3d4425c60ccbe5","","null","","","learningBlock2","","","","<div style=""font-size:60px;""> </div>","null","FL","learning/Slide82.JPG","That was a bim.","","",""
"image-keyboard-response","253","302890","0.0-7.0-0.2","FL","q3zadoj47e","1920","1080","0","1","0","5e47ad846c3d4425c60ccbe5","","null","","","","","","","learning/Slide83.JPG","null","","","","","",""
"html-keyboard-response","254","304065","0.0-7.0-1.2","FL","q3zadoj47e","1920","1080","0","1","0","5e47ad846c3d4425c60ccbe5","","null","","","learningBlock2","","","","That was a wug.","null","","","","","",""
"html-keyboard-response","255","305082","0.0-7.0-2.2","FL","q3zadoj47e","1920","1080","0","1","0","5e47ad846c3d4425c60ccbe5","","null","","","learningBlock2","","","","<div style=""font-size:60px;""> </div>","null","FL","learning/Slide83.JPG","That was a wug.","","",""
"image-keyboard-response","256","305270","0.0-7.0-0.3","FL","q3zadoj47e","1920","1080","0","1","0","5e47ad846c3d4425c60ccbe5","","null","","","","","","","learning/Slide84.JPG","null","","","","","",""
"html-keyboard-response","257","306432","0.0-7.0-1.3","FL","q3zadoj47e","1920","1080","0","1","0","5e47ad846c3d4425c60ccbe5","","null","","","learningBlock2","","","","That was a dep.","null","","","","","",""
"html-keyboard-response","258","307434","0.0-7.0-2.3","FL","q3zadoj47e","1920","1080","0","1","0","5e47ad846c3d4425c60ccbe5","","null","","","learningBlock2","","","","<div style=""font-size:60px;""> </div>","null","FL","learning/Slide84.JPG","That was a dep.","","",""
"image-keyboard-response","259","307620","0.0-7.0-0.4","FL","q3zadoj47e","1920","1080","0","1","0","5e47ad846c3d4425c60ccbe5","","null","","","","","","","learning/Slide85.JPG","null","","","","","",""
"html-keyboard-response","260","308781","0.0-7.0-1.4","FL","q3zadoj47e","1920","1080","0","1","0","5e47ad846c3d4425c60ccbe5","","null","","","learningBlock2","","","","That was a bim.","null","","","","","",""
"html-keyboard-response","261","309785","0.0-7.0-2.4","FL","q3zadoj47e","1920","1080","0","1","0","5e47ad846c3d4425c60ccbe5","","null","","","learningBlock2","","","","<div style=""font-size:60px;""> </div>","null","FL","learning/Slide85.JPG","That was a bim.","","",""
"image-keyboard-response","262","309972","0.0-7.0-0.5","FL","q3zadoj47e","1920","1080","0","1","0","5e47ad846c3d4425c60ccbe5","","null","","","","","","","learning/Slide86.JPG","null","","","","","",""
"html-keyboard-response","263","311149","0.0-7.0-1.5","FL","q3zadoj47e","1920","1080","0","1","0","5e47ad846c3d4425c60ccbe5","","null","","","learningBlock2","","","","That was a tob.","null","","","","","",""
"html-keyboard-response","264","312167","0.0-7.0-2.5","FL","q3zadoj47e","1920","1080","0","1","0","5e47ad846c3d4425c60ccbe5","","null","","","learningBlock2","","","","<div style=""font-size:60px;""> </div>","null","FL","learning/Slide86.JPG","That was a tob.","","",""
"image-keyboard-response","265","312354","0.0-7.0-0.6","FL","q3zadoj47e","1920","1080","0","1","0","5e47ad846c3d4425c60ccbe5","","null","","","","","","","learning/Slide87.JPG","null","","","","","",""
"html-keyboard-response","266","313515","0.0-7.0-1.6","FL","q3zadoj47e","1920","1080","0","1","0","5e47ad846c3d4425c60ccbe5","","null","","","learningBlock2","","","","That was a wug.","null","","","","","",""
"html-keyboard-response","267","314533","0.0-7.0-2.6","FL","q3zadoj47e","1920","1080","0","1","0","5e47ad846c3d4425c60ccbe5","","null","","","learningBlock2","","","","<div style=""font-size:60px;""> </div>","null","FL","learning/Slide87.JPG","That was a wug.","","",""
"image-keyboard-response","268","314720","0.0-7.0-0.7","FL","q3zadoj47e","1920","1080","0","1","0","5e47ad846c3d4425c60ccbe5","","null","","","","","","","learning/Slide88.JPG","null","","","","","",""
"html-keyboard-response","269","315881","0.0-7.0-1.7","FL","q3zadoj47e","1920","1080","0","1","0","5e47ad846c3d4425c60ccbe5","","null","","","learningBlock2","","","","That was a tob.","null","","","","","",""
"html-keyboard-response","270","316884","0.0-7.0-2.7","FL","q3zadoj47e","1920","1080","0","1","0","5e47ad846c3d4425c60ccbe5","","null","","","learningBlock2","","","","<div style=""font-size:60px;""> </div>","null","FL","learning/Slide88.JPG","That was a tob.","","",""
"image-keyboard-response","271","317071","0.0-7.0-0.8","FL","q3zadoj47e","1920","1080","0","1","0","5e47ad846c3d4425c60ccbe5","","null","","","","","","","learning/Slide89.JPG","null","","","","","",""
"html-keyboard-response","272","318233","0.0-7.0-1.8","FL","q3zadoj47e","1920","1080","0","1","0","5e47ad846c3d4425c60ccbe5","","null","","","learningBlock2","","","","That was a bim.","null","","","","","",""
"html-keyboard-response","273","319249","0.0-7.0-2.8","FL","q3zadoj47e","1920","1080","0","1","0","5e47ad846c3d4425c60ccbe5","","null","","","learningBlock2","","","","<div style=""font-size:60px;""> </div>","null","FL","learning/Slide89.JPG","That was a bim.","","",""
"image-keyboard-response","274","319437","0.0-7.0-0.9","FL","q3zadoj47e","1920","1080","0","1","0","5e47ad846c3d4425c60ccbe5","","null","","","","","","","learning/Slide90.JPG","null","","","","","",""
"html-keyboard-response","275","320599","0.0-7.0-1.9","FL","q3zadoj47e","1920","1080","0","1","0","5e47ad846c3d4425c60ccbe5","","null","","","learningBlock2","","","","That was a dep.","null","","","","","",""
"html-keyboard-response","276","321600","0.0-7.0-2.9","FL","q3zadoj47e","1920","1080","0","1","0","5e47ad846c3d4425c60ccbe5","","null","","","learningBlock2","","","","<div style=""font-size:60px;""> </div>","null","FL","learning/Slide90.JPG","That was a dep.","","",""
"image-keyboard-response","277","321787","0.0-7.0-0.10","FL","q3zadoj47e","1920","1080","0","1","0","5e47ad846c3d4425c60ccbe5","","null","","","","","","","learning/Slide91.JPG","null","","","","","",""
"html-keyboard-response","278","322949","0.0-7.0-1.10","FL","q3zadoj47e","1920","1080","0","1","0","5e47ad846c3d4425c60ccbe5","","null","","","learningBlock2","","","","That was a wug.","null","","","","","",""
"html-keyboard-response","279","323966","0.0-7.0-2.10","FL","q3zadoj47e","1920","1080","0","1","0","5e47ad846c3d4425c60ccbe5","","null","","","learningBlock2","","","","<div style=""font-size:60px;""> </div>","null","FL","learning/Slide91.JPG","That was a wug.","","",""
"image-keyboard-response","280","324154","0.0-7.0-0.11","FL","q3zadoj47e","1920","1080","0","1","0","5e47ad846c3d4425c60ccbe5","","null","","","","","","","learning/Slide92.JPG","null","","","","","",""
"html-keyboard-response","281","325315","0.0-7.0-1.11","FL","q3zadoj47e","1920","1080","0","1","0","5e47ad846c3d4425c60ccbe5","","null","","","learningBlock2","","","","That was a tob.","null","","","","","",""
"html-keyboard-response","282","326318","0.0-7.0-2.11","FL","q3zadoj47e","1920","1080","0","1","0","5e47ad846c3d4425c60ccbe5","","null","","","learningBlock2","","","","<div style=""font-size:60px;""> </div>","null","FL","learning/Slide92.JPG","That was a tob.","","",""
"image-keyboard-response","283","326504","0.0-7.0-0.12","FL","q3zadoj47e","1920","1080","0","1","0","5e47ad846c3d4425c60ccbe5","","null","","","","","","","learning/Slide93.JPG","null","","","","","",""
"html-keyboard-response","284","327664","0.0-7.0-1.12","FL","q3zadoj47e","1920","1080","0","1","0","5e47ad846c3d4425c60ccbe5","","null","","","learningBlock2","","","","That was a bim.","null","","","","","",""
"html-keyboard-response","285","328666","0.0-7.0-2.12","FL","q3zadoj47e","1920","1080","0","1","0","5e47ad846c3d4425c60ccbe5","","null","","","learningBlock2","","","","<div style=""font-size:60px;""> </div>","null","FL","learning/Slide93.JPG","That was a bim.","","",""
"image-keyboard-response","286","328856","0.0-7.0-0.13","FL","q3zadoj47e","1920","1080","0","1","0","5e47ad846c3d4425c60ccbe5","","null","","","","","","","learning/Slide94.JPG","null","","","","","",""
"html-keyboard-response","287","330031","0.0-7.0-1.13","FL","q3zadoj47e","1920","1080","0","1","0","5e47ad846c3d4425c60ccbe5","","null","","","learningBlock2","","","","That was a tob.","null","","","","","",""
"html-keyboard-response","288","331036","0.0-7.0-2.13","FL","q3zadoj47e","1920","1080","0","1","0","5e47ad846c3d4425c60ccbe5","","null","","","learningBlock2","","","","<div style=""font-size:60px;""> </div>","null","FL","learning/Slide94.JPG","That was a tob.","","",""
"image-keyboard-response","289","331221","0.0-7.0-0.14","FL","q3zadoj47e","1920","1080","0","1","0","5e47ad846c3d4425c60ccbe5","","null","","","","","","","learning/Slide95.JPG","null","","","","","",""
"html-keyboard-response","290","332382","0.0-7.0-1.14","FL","q3zadoj47e","1920","1080","0","1","0","5e47ad846c3d4425c60ccbe5","","null","","","learningBlock2","","","","That was a wug.","null","","","","","",""
"html-keyboard-response","291","333400","0.0-7.0-2.14","FL","q3zadoj47e","1920","1080","0","1","0","5e47ad846c3d4425c60ccbe5","","null","","","learningBlock2","","","","<div style=""font-size:60px;""> </div>","null","FL","learning/Slide95.JPG","That was a wug.","","",""
"image-keyboard-response","292","333587","0.0-7.0-0.15","FL","q3zadoj47e","1920","1080","0","1","0","5e47ad846c3d4425c60ccbe5","","null","","","","","","","learning/Slide96.JPG","null","","","","","",""
"html-keyboard-response","293","334748","0.0-7.0-1.15","FL","q3zadoj47e","1920","1080","0","1","0","5e47ad846c3d4425c60ccbe5","","null","","","learningBlock2","","","","That was a tob.","null","","","","","",""
"html-keyboard-response","294","335750","0.0-7.0-2.15","FL","q3zadoj47e","1920","1080","0","1","0","5e47ad846c3d4425c60ccbe5","","null","","","learningBlock2","","","","<div style=""font-size:60px;""> </div>","null","FL","learning/Slide96.JPG","That was a tob.","","",""
"image-keyboard-response","295","335940","0.0-7.0-0.16","FL","q3zadoj47e","1920","1080","0","1","0","5e47ad846c3d4425c60ccbe5","","null","","","","","","","learning/Slide97.JPG","null","","","","","",""
"html-keyboard-response","296","337116","0.0-7.0-1.16","FL","q3zadoj47e","1920","1080","0","1","0","5e47ad846c3d4425c60ccbe5","","null","","","learningBlock2","","","","That was a dep.","null","","","","","",""
"html-keyboard-response","297","338133","0.0-7.0-2.16","FL","q3zadoj47e","1920","1080","0","1","0","5e47ad846c3d4425c60ccbe5","","null","","","learningBlock2","","","","<div style=""font-size:60px;""> </div>","null","FL","learning/Slide97.JPG","That was a dep.","","",""
"image-keyboard-response","298","338321","0.0-7.0-0.17","FL","q3zadoj47e","1920","1080","0","1","0","5e47ad846c3d4425c60ccbe5","","null","","","","","","","learning/Slide98.JPG","null","","","","","",""
"html-keyboard-response","299","339481","0.0-7.0-1.17","FL","q3zadoj47e","1920","1080","0","1","0","5e47ad846c3d4425c60ccbe5","","null","","","learningBlock2","","","","That was a bim.","null","","","","","",""
"html-keyboard-response","300","340485","0.0-7.0-2.17","FL","q3zadoj47e","1920","1080","0","1","0","5e47ad846c3d4425c60ccbe5","","null","","","learningBlock2","","","","<div style=""font-size:60px;""> </div>","null","FL","learning/Slide98.JPG","That was a bim.","","",""
"image-keyboard-response","301","340671","0.0-7.0-0.18","FL","q3zadoj47e","1920","1080","0","1","0","5e47ad846c3d4425c60ccbe5","","null","","","","","","","learning/Slide99.JPG","null","","","","","",""
"html-keyboard-response","302","341849","0.0-7.0-1.18","FL","q3zadoj47e","1920","1080","0","1","0","5e47ad846c3d4425c60ccbe5","","null","","","learningBlock2","","","","That was a dep.","null","","","","","",""
"html-keyboard-response","303","342865","0.0-7.0-2.18","FL","q3zadoj47e","1920","1080","0","1","0","5e47ad846c3d4425c60ccbe5","","null","","","learningBlock2","","","","<div style=""font-size:60px;""> </div>","null","FL","learning/Slide99.JPG","That was a dep.","","",""
"image-keyboard-response","304","343054","0.0-7.0-0.19","FL","q3zadoj47e","1920","1080","0","1","0","5e47ad846c3d4425c60ccbe5","","null","","","","","","","learning/Slide100.JPG","null","","","","","",""
"html-keyboard-response","305","344216","0.0-7.0-1.19","FL","q3zadoj47e","1920","1080","0","1","0","5e47ad846c3d4425c60ccbe5","","null","","","learningBlock2","","","","That was a bim.","null","","","","","",""
"html-keyboard-response","306","345230","0.0-7.0-2.19","FL","q3zadoj47e","1920","1080","0","1","0","5e47ad846c3d4425c60ccbe5","","null","","","learningBlock2","","","","<div style=""font-size:60px;""> </div>","null","FL","learning/Slide100.JPG","That was a bim.","","",""
"image-keyboard-response","307","345409","0.0-7.0-0.20","FL","q3zadoj47e","1920","1080","0","1","0","5e47ad846c3d4425c60ccbe5","","null","","","","","","","learning/Slide101.JPG","null","","","","","",""
"html-keyboard-response","308","346585","0.0-7.0-1.20","FL","q3zadoj47e","1920","1080","0","1","0","5e47ad846c3d4425c60ccbe5","","null","","","learningBlock2","","","","That was a tob.","null","","","","","",""
"html-keyboard-response","309","347599","0.0-7.0-2.20","FL","q3zadoj47e","1920","1080","0","1","0","5e47ad846c3d4425c60ccbe5","","null","","","learningBlock2","","","","<div style=""font-size:60px;""> </div>","null","FL","learning/Slide101.JPG","That was a tob.","","",""
"image-keyboard-response","310","347787","0.0-7.0-0.21","FL","q3zadoj47e","1920","1080","0","1","0","5e47ad846c3d4425c60ccbe5","","null","","","","","","","learning/Slide102.JPG","null","","","","","",""
"html-keyboard-response","311","348949","0.0-7.0-1.21","FL","q3zadoj47e","1920","1080","0","1","0","5e47ad846c3d4425c60ccbe5","","null","","","learningBlock2","","","","That was a bim.","null","","","","","",""
"html-keyboard-response","312","349951","0.0-7.0-2.21","FL","q3zadoj47e","1920","1080","0","1","0","5e47ad846c3d4425c60ccbe5","","null","","","learningBlock2","","","","<div style=""font-size:60px;""> </div>","null","FL","learning/Slide102.JPG","That was a bim.","","",""
"image-keyboard-response","313","350139","0.0-7.0-0.22","FL","q3zadoj47e","1920","1080","0","1","0","5e47ad846c3d4425c60ccbe5","","null","","","","","","","learning/Slide103.JPG","null","","","","","",""
"html-keyboard-response","314","351298","0.0-7.0-1.22","FL","q3zadoj47e","1920","1080","0","1","0","5e47ad846c3d4425c60ccbe5","","null","","","learningBlock2","","","","That was a dep.","null","","","","","",""
"html-keyboard-response","315","352316","0.0-7.0-2.22","FL","q3zadoj47e","1920","1080","0","1","0","5e47ad846c3d4425c60ccbe5","","null","","","learningBlock2","","","","<div style=""font-size:60px;""> </div>","null","FL","learning/Slide103.JPG","That was a dep.","","",""
"image-keyboard-response","316","352504","0.0-7.0-0.23","FL","q3zadoj47e","1920","1080","0","1","0","5e47ad846c3d4425c60ccbe5","","null","","","","","","","learning/Slide104.JPG","null","","","","","",""
"html-keyboard-response","317","353665","0.0-7.0-1.23","FL","q3zadoj47e","1920","1080","0","1","0","5e47ad846c3d4425c60ccbe5","","null","","","learningBlock2","","","","That was a tob.","null","","","","","",""
"html-keyboard-response","318","354669","0.0-7.0-2.23","FL","q3zadoj47e","1920","1080","0","1","0","5e47ad846c3d4425c60ccbe5","","null","","","learningBlock2","","","","<div style=""font-size:60px;""> </div>","null","FL","learning/Slide104.JPG","That was a tob.","","",""
"image-keyboard-response","319","354855","0.0-7.0-0.24","FL","q3zadoj47e","1920","1080","0","1","0","5e47ad846c3d4425c60ccbe5","","null","","","","","","","learning/Slide105.JPG","null","","","","","",""
"html-keyboard-response","320","356032","0.0-7.0-1.24","FL","q3zadoj47e","1920","1080","0","1","0","5e47ad846c3d4425c60ccbe5","","null","","","learningBlock2","","","","That was a dep.","null","","","","","",""
"html-keyboard-response","321","357049","0.0-7.0-2.24","FL","q3zadoj47e","1920","1080","0","1","0","5e47ad846c3d4425c60ccbe5","","null","","","learningBlock2","","","","<div style=""font-size:60px;""> </div>","null","FL","learning/Slide105.JPG","That was a dep.","","",""
"image-keyboard-response","322","357237","0.0-7.0-0.25","FL","q3zadoj47e","1920","1080","0","1","0","5e47ad846c3d4425c60ccbe5","","null","","","","","","","learning/Slide106.JPG","null","","","","","",""
"html-keyboard-response","323","358397","0.0-7.0-1.25","FL","q3zadoj47e","1920","1080","0","1","0","5e47ad846c3d4425c60ccbe5","","null","","","learningBlock2","","","","That was a wug.","null","","","","","",""
"html-keyboard-response","324","359400","0.0-7.0-2.25","FL","q3zadoj47e","1920","1080","0","1","0","5e47ad846c3d4425c60ccbe5","","null","","","learningBlock2","","","","<div style=""font-size:60px;""> </div>","null","FL","learning/Slide106.JPG","That was a wug.","","",""
"image-keyboard-response","325","359587","0.0-7.0-0.26","FL","q3zadoj47e","1920","1080","0","1","0","5e47ad846c3d4425c60ccbe5","","null","","","","","","","learning/Slide107.JPG","null","","","","","",""
"html-keyboard-response","326","360748","0.0-7.0-1.26","FL","q3zadoj47e","1920","1080","0","1","0","5e47ad846c3d4425c60ccbe5","","null","","","learningBlock2","","","","That was a bim.","null","","","","","",""
"html-keyboard-response","327","361749","0.0-7.0-2.26","FL","q3zadoj47e","1920","1080","0","1","0","5e47ad846c3d4425c60ccbe5","","null","","","learningBlock2","","","","<div style=""font-size:60px;""> </div>","null","FL","learning/Slide107.JPG","That was a bim.","","",""
"image-keyboard-response","328","361937","0.0-7.0-0.27","FL","q3zadoj47e","1920","1080","0","1","0","5e47ad846c3d4425c60ccbe5","","null","","","","","","","learning/Slide108.JPG","null","","","","","",""
"html-keyboard-response","329","363098","0.0-7.0-1.27","FL","q3zadoj47e","1920","1080","0","1","0","5e47ad846c3d4425c60ccbe5","","null","","","learningBlock2","","","","That was a dep.","null","","","","","",""
"html-keyboard-response","330","364116","0.0-7.0-2.27","FL","q3zadoj47e","1920","1080","0","1","0","5e47ad846c3d4425c60ccbe5","","null","","","learningBlock2","","","","<div style=""font-size:60px;""> </div>","null","FL","learning/Slide108.JPG","That was a dep.","","",""
"image-keyboard-response","331","364306","0.0-7.0-0.28","FL","q3zadoj47e","1920","1080","0","1","0","5e47ad846c3d4425c60ccbe5","","null","","","","","","","learning/Slide109.JPG","null","","","","","",""
"html-keyboard-response","332","365481","0.0-7.0-1.28","FL","q3zadoj47e","1920","1080","0","1","0","5e47ad846c3d4425c60ccbe5","","null","","","learningBlock2","","","","That was a wug.","null","","","","","",""
"html-keyboard-response","333","366499","0.0-7.0-2.28","FL","q3zadoj47e","1920","1080","0","1","0","5e47ad846c3d4425c60ccbe5","","null","","","learningBlock2","","","","<div style=""font-size:60px;""> </div>","null","FL","learning/Slide109.JPG","That was a wug.","","",""
"image-keyboard-response","334","366687","0.0-7.0-0.29","FL","q3zadoj47e","1920","1080","0","1","0","5e47ad846c3d4425c60ccbe5","","null","","","","","","","learning/Slide110.JPG","null","","","","","",""
"html-keyboard-response","335","367848","0.0-7.0-1.29","FL","q3zadoj47e","1920","1080","0","1","0","5e47ad846c3d4425c60ccbe5","","null","","","learningBlock2","","","","That was a bim.","null","","","","","",""
"html-keyboard-response","336","368852","0.0-7.0-2.29","FL","q3zadoj47e","1920","1080","0","1","0","5e47ad846c3d4425c60ccbe5","","null","","","learningBlock2","","","","<div style=""font-size:60px;""> </div>","null","FL","learning/Slide110.JPG","That was a bim.","","",""
"image-keyboard-response","337","369039","0.0-7.0-0.30","FL","q3zadoj47e","1920","1080","0","1","0","5e47ad846c3d4425c60ccbe5","","null","","","","","","","learning/Slide111.JPG","null","","","","","",""
"html-keyboard-response","338","370208","0.0-7.0-1.30","FL","q3zadoj47e","1920","1080","0","1","0","5e47ad846c3d4425c60ccbe5","","null","","","learningBlock2","","","","That was a tob.","null","","","","","",""
"html-keyboard-response","339","371216","0.0-7.0-2.30","FL","q3zadoj47e","1920","1080","0","1","0","5e47ad846c3d4425c60ccbe5","","null","","","learningBlock2","","","","<div style=""font-size:60px;""> </div>","null","FL","learning/Slide111.JPG","That was a tob.","","",""
"image-keyboard-response","340","371403","0.0-7.0-0.31","FL","q3zadoj47e","1920","1080","0","1","0","5e47ad846c3d4425c60ccbe5","","null","","","","","","","learning/Slide112.JPG","null","","","","","",""
"html-keyboard-response","341","372564","0.0-7.0-1.31","FL","q3zadoj47e","1920","1080","0","1","0","5e47ad846c3d4425c60ccbe5","","null","","","learningBlock2","","","","That was a wug.","null","","","","","",""
"html-keyboard-response","342","373566","0.0-7.0-2.31","FL","q3zadoj47e","1920","1080","0","1","0","5e47ad846c3d4425c60ccbe5","","null","","","learningBlock2","","","","<div style=""font-size:60px;""> </div>","null","FL","learning/Slide112.JPG","That was a wug.","","",""
"image-keyboard-response","343","373753","0.0-7.0-0.32","FL","q3zadoj47e","1920","1080","0","1","0","5e47ad846c3d4425c60ccbe5","","null","","","","","","","learning/Slide113.JPG","null","","","","","",""
"html-keyboard-response","344","374914","0.0-7.0-1.32","FL","q3zadoj47e","1920","1080","0","1","0","5e47ad846c3d4425c60ccbe5","","null","","","learningBlock2","","","","That was a tob.","null","","","","","",""
"html-keyboard-response","345","375917","0.0-7.0-2.32","FL","q3zadoj47e","1920","1080","0","1","0","5e47ad846c3d4425c60ccbe5","","null","","","learningBlock2","","","","<div style=""font-size:60px;""> </div>","null","FL","learning/Slide113.JPG","That was a tob.","","",""
"image-keyboard-response","346","376105","0.0-7.0-0.33","FL","q3zadoj47e","1920","1080","0","1","0","5e47ad846c3d4425c60ccbe5","","null","","","","","","","learning/Slide114.JPG","null","","","","","",""
"html-keyboard-response","347","377281","0.0-7.0-1.33","FL","q3zadoj47e","1920","1080","0","1","0","5e47ad846c3d4425c60ccbe5","","null","","","learningBlock2","","","","That was a wug.","null","","","","","",""
"html-keyboard-response","348","378300","0.0-7.0-2.33","FL","q3zadoj47e","1920","1080","0","1","0","5e47ad846c3d4425c60ccbe5","","null","","","learningBlock2","","","","<div style=""font-size:60px;""> </div>","null","FL","learning/Slide114.JPG","That was a wug.","","",""
"image-keyboard-response","349","378486","0.0-7.0-0.34","FL","q3zadoj47e","1920","1080","0","1","0","5e47ad846c3d4425c60ccbe5","","null","","","","","","","learning/Slide115.JPG","null","","","","","",""
"html-keyboard-response","350","379647","0.0-7.0-1.34","FL","q3zadoj47e","1920","1080","0","1","0","5e47ad846c3d4425c60ccbe5","","null","","","learningBlock2","","","","That was a bim.","null","","","","","",""
"html-keyboard-response","351","380649","0.0-7.0-2.34","FL","q3zadoj47e","1920","1080","0","1","0","5e47ad846c3d4425c60ccbe5","","null","","","learningBlock2","","","","<div style=""font-size:60px;""> </div>","null","FL","learning/Slide115.JPG","That was a bim.","","",""
"image-keyboard-response","352","380836","0.0-7.0-0.35","FL","q3zadoj47e","1920","1080","0","1","0","5e47ad846c3d4425c60ccbe5","","null","","","","","","","learning/Slide116.JPG","null","","","","","",""
"html-keyboard-response","353","381997","0.0-7.0-1.35","FL","q3zadoj47e","1920","1080","0","1","0","5e47ad846c3d4425c60ccbe5","","null","","","learningBlock2","","","","That was a dep.","null","","","","","",""
"html-keyboard-response","354","383014","0.0-7.0-2.35","FL","q3zadoj47e","1920","1080","0","1","0","5e47ad846c3d4425c60ccbe5","","null","","","learningBlock2","","","","<div style=""font-size:60px;""> </div>","null","FL","learning/Slide116.JPG","That was a dep.","","",""
"image-keyboard-response","355","383203","0.0-7.0-0.36","FL","q3zadoj47e","1920","1080","0","1","0","5e47ad846c3d4425c60ccbe5","","null","","","","","","","learning/Slide117.JPG","null","","","","","",""
"html-keyboard-response","356","384356","0.0-7.0-1.36","FL","q3zadoj47e","1920","1080","0","1","0","5e47ad846c3d4425c60ccbe5","","null","","","learningBlock2","","","","That was a tob.","null","","","","","",""
"html-keyboard-response","357","385365","0.0-7.0-2.36","FL","q3zadoj47e","1920","1080","0","1","0","5e47ad846c3d4425c60ccbe5","","null","","","learningBlock2","","","","<div style=""font-size:60px;""> </div>","null","FL","learning/Slide117.JPG","That was a tob.","","",""
"image-keyboard-response","358","385553","0.0-7.0-0.37","FL","q3zadoj47e","1920","1080","0","1","0","5e47ad846c3d4425c60ccbe5","","null","","","","","","","learning/Slide118.JPG","null","","","","","",""
"html-keyboard-response","359","386714","0.0-7.0-1.37","FL","q3zadoj47e","1920","1080","0","1","0","5e47ad846c3d4425c60ccbe5","","null","","","learningBlock2","","","","That was a dep.","null","","","","","",""
"html-keyboard-response","360","387731","0.0-7.0-2.37","FL","q3zadoj47e","1920","1080","0","1","0","5e47ad846c3d4425c60ccbe5","","null","","","learningBlock2","","","","<div style=""font-size:60px;""> </div>","null","FL","learning/Slide118.JPG","That was a dep.","","",""
"image-keyboard-response","361","387919","0.0-7.0-0.38","FL","q3zadoj47e","1920","1080","0","1","0","5e47ad846c3d4425c60ccbe5","","null","","","","","","","learning/Slide119.JPG","null","","","","","",""
"html-keyboard-response","362","389083","0.0-7.0-1.38","FL","q3zadoj47e","1920","1080","0","1","0","5e47ad846c3d4425c60ccbe5","","null","","","learningBlock2","","","","That was a wug.","null","","","","","",""
"html-keyboard-response","363","390097","0.0-7.0-2.38","FL","q3zadoj47e","1920","1080","0","1","0","5e47ad846c3d4425c60ccbe5","","null","","","learningBlock2","","","","<div style=""font-size:60px;""> </div>","null","FL","learning/Slide119.JPG","That was a wug.","","",""
"image-keyboard-response","364","390286","0.0-7.0-0.39","FL","q3zadoj47e","1920","1080","0","1","0","5e47ad846c3d4425c60ccbe5","","null","","","","","","","learning/Slide120.JPG","null","","","","","",""
"html-keyboard-response","365","391448","0.0-7.0-1.39","FL","q3zadoj47e","1920","1080","0","1","0","5e47ad846c3d4425c60ccbe5","","null","","","learningBlock2","","","","That was a dep.","null","","","","","",""
"html-keyboard-response","366","392450","0.0-7.0-2.39","FL","q3zadoj47e","1920","1080","0","1","0","5e47ad846c3d4425c60ccbe5","","null","","","learningBlock2","","","","<div style=""font-size:60px;""> </div>","null","FL","learning/Slide120.JPG","That was a dep.","","",""
"image-keyboard-response","367","392637","0.0-7.0-0.40","FL","q3zadoj47e","1920","1080","0","1","0","5e47ad846c3d4425c60ccbe5","","null","","","","","","","learning/Slide121.JPG","null","","","","","",""
"html-keyboard-response","368","393797","0.0-7.0-1.40","FL","q3zadoj47e","1920","1080","0","1","0","5e47ad846c3d4425c60ccbe5","","null","","","learningBlock2","","","","That was a bim.","null","","","","","",""
"html-keyboard-response","369","394812","0.0-7.0-2.40","FL","q3zadoj47e","1920","1080","0","1","0","5e47ad846c3d4425c60ccbe5","","null","","","learningBlock2","","","","<div style=""font-size:60px;""> </div>","null","FL","learning/Slide121.JPG","That was a bim.","","",""
"image-keyboard-response","370","395006","0.0-7.0-0.41","FL","q3zadoj47e","1920","1080","0","1","0","5e47ad846c3d4425c60ccbe5","","null","","","","","","","learning/Slide122.JPG","null","","","","","",""
"html-keyboard-response","371","396181","0.0-7.0-1.41","FL","q3zadoj47e","1920","1080","0","1","0","5e47ad846c3d4425c60ccbe5","","null","","","learningBlock2","","","","That was a wug.","null","","","","","",""
"html-keyboard-response","372","397183","0.0-7.0-2.41","FL","q3zadoj47e","1920","1080","0","1","0","5e47ad846c3d4425c60ccbe5","","null","","","learningBlock2","","","","<div style=""font-size:60px;""> </div>","null","FL","learning/Slide122.JPG","That was a wug.","","",""
"image-keyboard-response","373","397369","0.0-7.0-0.42","FL","q3zadoj47e","1920","1080","0","1","0","5e47ad846c3d4425c60ccbe5","","null","","","","","","","learning/Slide123.JPG","null","","","","","",""
"html-keyboard-response","374","398531","0.0-7.0-1.42","FL","q3zadoj47e","1920","1080","0","1","0","5e47ad846c3d4425c60ccbe5","","null","","","learningBlock2","","","","That was a bim.","null","","","","","",""
"html-keyboard-response","375","399538","0.0-7.0-2.42","FL","q3zadoj47e","1920","1080","0","1","0","5e47ad846c3d4425c60ccbe5","","null","","","learningBlock2","","","","<div style=""font-size:60px;""> </div>","null","FL","learning/Slide123.JPG","That was a bim.","","",""
"image-keyboard-response","376","399721","0.0-7.0-0.43","FL","q3zadoj47e","1920","1080","0","1","0","5e47ad846c3d4425c60ccbe5","","null","","","","","","","learning/Slide124.JPG","null","","","","","",""
"html-keyboard-response","377","400898","0.0-7.0-1.43","FL","q3zadoj47e","1920","1080","0","1","0","5e47ad846c3d4425c60ccbe5","","null","","","learningBlock2","","","","That was a tob.","null","","","","","",""
"html-keyboard-response","378","401915","0.0-7.0-2.43","FL","q3zadoj47e","1920","1080","0","1","0","5e47ad846c3d4425c60ccbe5","","null","","","learningBlock2","","","","<div style=""font-size:60px;""> </div>","null","FL","learning/Slide124.JPG","That was a tob.","","",""
"image-keyboard-response","379","402104","0.0-7.0-0.44","FL","q3zadoj47e","1920","1080","0","1","0","5e47ad846c3d4425c60ccbe5","","null","","","","","","","learning/Slide125.JPG","null","","","","","",""
"html-keyboard-response","380","403264","0.0-7.0-1.44","FL","q3zadoj47e","1920","1080","0","1","0","5e47ad846c3d4425c60ccbe5","","null","","","learningBlock2","","","","That was a bim.","null","","","","","",""
"html-keyboard-response","381","404267","0.0-7.0-2.44","FL","q3zadoj47e","1920","1080","0","1","0","5e47ad846c3d4425c60ccbe5","","null","","","learningBlock2","","","","<div style=""font-size:60px;""> </div>","null","FL","learning/Slide125.JPG","That was a bim.","","",""
"image-keyboard-response","382","404453","0.0-7.0-0.45","FL","q3zadoj47e","1920","1080","0","1","0","5e47ad846c3d4425c60ccbe5","","null","","","","","","","learning/Slide126.JPG","null","","","","","",""
"html-keyboard-response","383","405615","0.0-7.0-1.45","FL","q3zadoj47e","1920","1080","0","1","0","5e47ad846c3d4425c60ccbe5","","null","","","learningBlock2","","","","That was a tob.","null","","","","","",""
"html-keyboard-response","384","406633","0.0-7.0-2.45","FL","q3zadoj47e","1920","1080","0","1","0","5e47ad846c3d4425c60ccbe5","","null","","","learningBlock2","","","","<div style=""font-size:60px;""> </div>","null","FL","learning/Slide126.JPG","That was a tob.","","",""
"image-keyboard-response","385","406822","0.0-7.0-0.46","FL","q3zadoj47e","1920","1080","0","1","0","5e47ad846c3d4425c60ccbe5","","null","","","","","","","learning/Slide127.JPG","null","","","","","",""
"html-keyboard-response","386","407997","0.0-7.0-1.46","FL","q3zadoj47e","1920","1080","0","1","0","5e47ad846c3d4425c60ccbe5","","null","","","learningBlock2","","","","That was a dep.","null","","","","","",""
"html-keyboard-response","387","409014","0.0-7.0-2.46","FL","q3zadoj47e","1920","1080","0","1","0","5e47ad846c3d4425c60ccbe5","","null","","","learningBlock2","","","","<div style=""font-size:60px;""> </div>","null","FL","learning/Slide127.JPG","That was a dep.","","",""
"image-keyboard-response","388","409203","0.0-7.0-0.47","FL","q3zadoj47e","1920","1080","0","1","0","5e47ad846c3d4425c60ccbe5","","null","","","","","","","learning/Slide128.JPG","null","","","","","",""
"html-keyboard-response","389","410357","0.0-7.0-1.47","FL","q3zadoj47e","1920","1080","0","1","0","5e47ad846c3d4425c60ccbe5","","null","","","learningBlock2","","","","That was a wug.","null","","","","","",""
"html-keyboard-response","390","411364","0.0-7.0-2.47","FL","q3zadoj47e","1920","1080","0","1","0","5e47ad846c3d4425c60ccbe5","","null","","","learningBlock2","","","","<div style=""font-size:60px;""> </div>","null","FL","learning/Slide128.JPG","That was a wug.","","",""
"image-keyboard-response","391","411552","0.0-7.0-0.48","FL","q3zadoj47e","1920","1080","0","1","0","5e47ad846c3d4425c60ccbe5","","null","","","","","","","learning/Slide129.JPG","null","","","","","",""
"html-keyboard-response","392","412714","0.0-7.0-1.48","FL","q3zadoj47e","1920","1080","0","1","0","5e47ad846c3d4425c60ccbe5","","null","","","learningBlock2","","","","That was a tob.","null","","","","","",""
"html-keyboard-response","393","413730","0.0-7.0-2.48","FL","q3zadoj47e","1920","1080","0","1","0","5e47ad846c3d4425c60ccbe5","","null","","","learningBlock2","","","","<div style=""font-size:60px;""> </div>","null","FL","learning/Slide129.JPG","That was a tob.","","",""
"image-keyboard-response","394","413920","0.0-7.0-0.49","FL","q3zadoj47e","1920","1080","0","1","0","5e47ad846c3d4425c60ccbe5","","null","","","","","","","learning/Slide130.JPG","null","","","","","",""
"html-keyboard-response","395","415081","0.0-7.0-1.49","FL","q3zadoj47e","1920","1080","0","1","0","5e47ad846c3d4425c60ccbe5","","null","","","learningBlock2","","","","That was a wug.","null","","","","","",""
"html-keyboard-response","396","416098","0.0-7.0-2.49","FL","q3zadoj47e","1920","1080","0","1","0","5e47ad846c3d4425c60ccbe5","","null","","","learningBlock2","","","","<div style=""font-size:60px;""> </div>","null","FL","learning/Slide130.JPG","That was a wug.","","",""
"image-keyboard-response","397","416286","0.0-7.0-0.50","FL","q3zadoj47e","1920","1080","0","1","0","5e47ad846c3d4425c60ccbe5","","null","","","","","","","learning/Slide131.JPG","null","","","","","",""
"html-keyboard-response","398","417447","0.0-7.0-1.50","FL","q3zadoj47e","1920","1080","0","1","0","5e47ad846c3d4425c60ccbe5","","null","","","learningBlock2","","","","That was a bim.","null","","","","","",""
"html-keyboard-response","399","418465","0.0-7.0-2.50","FL","q3zadoj47e","1920","1080","0","1","0","5e47ad846c3d4425c60ccbe5","","null","","","learningBlock2","","","","<div style=""font-size:60px;""> </div>","null","FL","learning/Slide131.JPG","That was a bim.","","",""
"image-keyboard-response","400","418654","0.0-7.0-0.51","FL","q3zadoj47e","1920","1080","0","1","0","5e47ad846c3d4425c60ccbe5","","null","","","","","","","learning/Slide132.JPG","null","","","","","",""
"html-keyboard-response","401","419814","0.0-7.0-1.51","FL","q3zadoj47e","1920","1080","0","1","0","5e47ad846c3d4425c60ccbe5","","null","","","learningBlock2","","","","That was a dep.","null","","","","","",""
"html-keyboard-response","402","420816","0.0-7.0-2.51","FL","q3zadoj47e","1920","1080","0","1","0","5e47ad846c3d4425c60ccbe5","","null","","","learningBlock2","","","","<div style=""font-size:60px;""> </div>","null","FL","learning/Slide132.JPG","That was a dep.","","",""
"image-keyboard-response","403","421004","0.0-7.0-0.52","FL","q3zadoj47e","1920","1080","0","1","0","5e47ad846c3d4425c60ccbe5","","null","","","","","","","learning/Slide133.JPG","null","","","","","",""
"html-keyboard-response","404","422166","0.0-7.0-1.52","FL","q3zadoj47e","1920","1080","0","1","0","5e47ad846c3d4425c60ccbe5","","null","","","learningBlock2","","","","That was a tob.","null","","","","","",""
"html-keyboard-response","405","423182","0.0-7.0-2.52","FL","q3zadoj47e","1920","1080","0","1","0","5e47ad846c3d4425c60ccbe5","","null","","","learningBlock2","","","","<div style=""font-size:60px;""> </div>","null","FL","learning/Slide133.JPG","That was a tob.","","",""
"image-keyboard-response","406","423371","0.0-7.0-0.53","FL","q3zadoj47e","1920","1080","0","1","0","5e47ad846c3d4425c60ccbe5","","null","","","","","","","learning/Slide134.JPG","null","","","","","",""
"html-keyboard-response","407","424549","0.0-7.0-1.53","FL","q3zadoj47e","1920","1080","0","1","0","5e47ad846c3d4425c60ccbe5","","null","","","learningBlock2","","","","That was a dep.","null","","","","","",""
"html-keyboard-response","408","425564","0.0-7.0-2.53","FL","q3zadoj47e","1920","1080","0","1","0","5e47ad846c3d4425c60ccbe5","","null","","","learningBlock2","","","","<div style=""font-size:60px;""> </div>","null","FL","learning/Slide134.JPG","That was a dep.","","",""
"image-keyboard-response","409","425753","0.0-7.0-0.54","FL","q3zadoj47e","1920","1080","0","1","0","5e47ad846c3d4425c60ccbe5","","null","","","","","","","learning/Slide135.JPG","null","","","","","",""
"html-keyboard-response","410","426914","0.0-7.0-1.54","FL","q3zadoj47e","1920","1080","0","1","0","5e47ad846c3d4425c60ccbe5","","null","","","learningBlock2","","","","That was a tob.","null","","","","","",""
"html-keyboard-response","411","427917","0.0-7.0-2.54","FL","q3zadoj47e","1920","1080","0","1","0","5e47ad846c3d4425c60ccbe5","","null","","","learningBlock2","","","","<div style=""font-size:60px;""> </div>","null","FL","learning/Slide135.JPG","That was a tob.","","",""
"image-keyboard-response","412","428103","0.0-7.0-0.55","FL","q3zadoj47e","1920","1080","0","1","0","5e47ad846c3d4425c60ccbe5","","null","","","","","","","learning/Slide136.JPG","null","","","","","",""
"html-keyboard-response","413","429264","0.0-7.0-1.55","FL","q3zadoj47e","1920","1080","0","1","0","5e47ad846c3d4425c60ccbe5","","null","","","learningBlock2","","","","That was a wug.","null","","","","","",""
"html-keyboard-response","414","430266","0.0-7.0-2.55","FL","q3zadoj47e","1920","1080","0","1","0","5e47ad846c3d4425c60ccbe5","","null","","","learningBlock2","","","","<div style=""font-size:60px;""> </div>","null","FL","learning/Slide136.JPG","That was a wug.","","",""
"image-keyboard-response","415","430453","0.0-7.0-0.56","FL","q3zadoj47e","1920","1080","0","1","0","5e47ad846c3d4425c60ccbe5","","null","","","","","","","learning/Slide137.JPG","null","","","","","",""
"html-keyboard-response","416","431614","0.0-7.0-1.56","FL","q3zadoj47e","1920","1080","0","1","0","5e47ad846c3d4425c60ccbe5","","null","","","learningBlock2","","","","That was a tob.","null","","","","","",""
"html-keyboard-response","417","432616","0.0-7.0-2.56","FL","q3zadoj47e","1920","1080","0","1","0","5e47ad846c3d4425c60ccbe5","","null","","","learningBlock2","","","","<div style=""font-size:60px;""> </div>","null","FL","learning/Slide137.JPG","That was a tob.","","",""
"image-keyboard-response","418","432803","0.0-7.0-0.57","FL","q3zadoj47e","1920","1080","0","1","0","5e47ad846c3d4425c60ccbe5","","null","","","","","","","learning/Slide138.JPG","null","","","","","",""
"html-keyboard-response","419","433964","0.0-7.0-1.57","FL","q3zadoj47e","1920","1080","0","1","0","5e47ad846c3d4425c60ccbe5","","null","","","learningBlock2","","","","That was a bim.","null","","","","","",""
"html-keyboard-response","420","434981","0.0-7.0-2.57","FL","q3zadoj47e","1920","1080","0","1","0","5e47ad846c3d4425c60ccbe5","","null","","","learningBlock2","","","","<div style=""font-size:60px;""> </div>","null","FL","learning/Slide138.JPG","That was a bim.","","",""
"image-keyboard-response","421","435169","0.0-7.0-0.58","FL","q3zadoj47e","1920","1080","0","1","0","5e47ad846c3d4425c60ccbe5","","null","","","","","","","learning/Slide139.JPG","null","","","","","",""
"html-keyboard-response","422","436331","0.0-7.0-1.58","FL","q3zadoj47e","1920","1080","0","1","0","5e47ad846c3d4425c60ccbe5","","null","","","learningBlock2","","","","That was a wug.","null","","","","","",""
"html-keyboard-response","423","437348","0.0-7.0-2.58","FL","q3zadoj47e","1920","1080","0","1","0","5e47ad846c3d4425c60ccbe5","","null","","","learningBlock2","","","","<div style=""font-size:60px;""> </div>","null","FL","learning/Slide139.JPG","That was a wug.","","",""
"image-keyboard-response","424","437537","0.0-7.0-0.59","FL","q3zadoj47e","1920","1080","0","1","0","5e47ad846c3d4425c60ccbe5","","null","","","","","","","learning/Slide140.JPG","null","","","","","",""
"html-keyboard-response","425","438715","0.0-7.0-1.59","FL","q3zadoj47e","1920","1080","0","1","0","5e47ad846c3d4425c60ccbe5","","null","","","learningBlock2","","","","That was a dep.","null","","","","","",""
"html-keyboard-response","426","439731","0.0-7.0-2.59","FL","q3zadoj47e","1920","1080","0","1","0","5e47ad846c3d4425c60ccbe5","","null","","","learningBlock2","","","","<div style=""font-size:60px;""> </div>","null","FL","learning/Slide140.JPG","That was a dep.","","",""
"image-keyboard-response","427","439919","0.0-7.0-0.60","FL","q3zadoj47e","1920","1080","0","1","0","5e47ad846c3d4425c60ccbe5","","null","","","","","","","learning/Slide141.JPG","null","","","","","",""
"html-keyboard-response","428","441081","0.0-7.0-1.60","FL","q3zadoj47e","1920","1080","0","1","0","5e47ad846c3d4425c60ccbe5","","null","","","learningBlock2","","","","That was a tob.","null","","","","","",""
"html-keyboard-response","429","442083","0.0-7.0-2.60","FL","q3zadoj47e","1920","1080","0","1","0","5e47ad846c3d4425c60ccbe5","","null","","","learningBlock2","","","","<div style=""font-size:60px;""> </div>","null","FL","learning/Slide141.JPG","That was a tob.","","",""
"image-keyboard-response","430","442270","0.0-7.0-0.61","FL","q3zadoj47e","1920","1080","0","1","0","5e47ad846c3d4425c60ccbe5","","null","","","","","","","learning/Slide142.JPG","null","","","","","",""
"html-keyboard-response","431","443432","0.0-7.0-1.61","FL","q3zadoj47e","1920","1080","0","1","0","5e47ad846c3d4425c60ccbe5","","null","","","learningBlock2","","","","That was a wug.","null","","","","","",""
"html-keyboard-response","432","444450","0.0-7.0-2.61","FL","q3zadoj47e","1920","1080","0","1","0","5e47ad846c3d4425c60ccbe5","","null","","","learningBlock2","","","","<div style=""font-size:60px;""> </div>","null","FL","learning/Slide142.JPG","That was a wug.","","",""
"image-keyboard-response","433","444638","0.0-7.0-0.62","FL","q3zadoj47e","1920","1080","0","1","0","5e47ad846c3d4425c60ccbe5","","null","","","","","","","learning/Slide143.JPG","null","","","","","",""
"html-keyboard-response","434","445797","0.0-7.0-1.62","FL","q3zadoj47e","1920","1080","0","1","0","5e47ad846c3d4425c60ccbe5","","null","","","learningBlock2","","","","That was a bim.","null","","","","","",""
