"trial_type","trial_index","time_elapsed","internal_node_id","condition","subject","screen_width","screen_height","attention","distraction","conscientious","prolificID","success","rt","url","view_history","test_part","final_height_px","final_width_px","scale_factor","stimulus","key_press","learningType","presentedImage","presentedLabel","button_pressed","response","responses"
"pavlovia","0","309","0.0-0.0","FL","cpd84kvzmq","1366","768","0","1","0","5ed63a6d50ece703aa7bffb9","","","","","","","","","","","","","","","",""
"fullscreen","1","10098","0.0-1.0","FL","cpd84kvzmq","1366","768","0","1","0","5ed63a6d50ece703aa7bffb9","true","","","","","","","","","","","","","","",""
"external-html","2","66467","0.0-2.0-0.0","FL","cpd84kvzmq","1366","768","0","1","0","5ed63a6d50ece703aa7bffb9","","55892.1500002034","text/information_english.html","","","","","","","","","","","","",""
"external-html","3","94697","0.0-2.0-1.0","FL","cpd84kvzmq","1366","768","0","1","0","5ed63a6d50ece703aa7bffb9","","27454.149999888614","text/consent_english.html","","","","","","","","","","","","",""
"instructions","4","116370","0.0-3.0","FL","cpd84kvzmq","1366","768","0","1","0","5ed63a6d50ece703aa7bffb9","","NA","","[{""page_index"":0,""viewing_time"":5951.745000202209},{""page_index"":1,""viewing_time"":15716.439999872819}]","instructions","","","","","","","","","","",""
"resize","5","187878","0.0-4.0","FL","cpd84kvzmq","1366","768","0","1","0","5ed63a6d50ece703aa7bffb9","","","","","","","342","2.1714285714285713","","","","","","","",""
"image-keyboard-response","6","188064","0.0-5.0-0.0","FL","cpd84kvzmq","1366","768","0","1","0","5ed63a6d50ece703aa7bffb9","","null","","","","","","","learning/Slide1.JPG","null","","","","","",""
"html-keyboard-response","7","189223","0.0-5.0-1.0","FL","cpd84kvzmq","1366","768","0","1","0","5ed63a6d50ece703aa7bffb9","","null","","","learningBlock1","","","","That was a tob.","null","","","","","",""
"html-keyboard-response","8","190228","0.0-5.0-2.0","FL","cpd84kvzmq","1366","768","0","1","0","5ed63a6d50ece703aa7bffb9","","null","","","learningBlock1","","","","<div style=""font-size:60px;""> </div>","null","FL","learning/Slide1.JPG","That was a tob.","","",""
"image-keyboard-response","9","190408","0.0-5.0-0.1","FL","cpd84kvzmq","1366","768","0","1","0","5ed63a6d50ece703aa7bffb9","","null","","","","","","","learning/Slide2.JPG","null","","","","","",""
"html-keyboard-response","10","191564","0.0-5.0-1.1","FL","cpd84kvzmq","1366","768","0","1","0","5ed63a6d50ece703aa7bffb9","","null","","","learningBlock1","","","","That was a wug.","null","","","","","",""
"html-keyboard-response","11","192569","0.0-5.0-2.1","FL","cpd84kvzmq","1366","768","0","1","0","5ed63a6d50ece703aa7bffb9","","null","","","learningBlock1","","","","<div style=""font-size:60px;""> </div>","null","FL","learning/Slide2.JPG","That was a wug.","","",""
"image-keyboard-response","12","192749","0.0-5.0-0.2","FL","cpd84kvzmq","1366","768","0","1","0","5ed63a6d50ece703aa7bffb9","","null","","","","","","","learning/Slide3.JPG","null","","","","","",""
"html-keyboard-response","13","193909","0.0-5.0-1.2","FL","cpd84kvzmq","1366","768","0","1","0","5ed63a6d50ece703aa7bffb9","","null","","","learningBlock1","","","","That was a bim.","null","","","","","",""
"html-keyboard-response","14","194913","0.0-5.0-2.2","FL","cpd84kvzmq","1366","768","0","1","0","5ed63a6d50ece703aa7bffb9","","null","","","learningBlock1","","","","<div style=""font-size:60px;""> </div>","null","FL","learning/Slide3.JPG","That was a bim.","","",""
"image-keyboard-response","15","195094","0.0-5.0-0.3","FL","cpd84kvzmq","1366","768","0","1","0","5ed63a6d50ece703aa7bffb9","","null","","","","","","","learning/Slide4.JPG","null","","","","","",""
"html-keyboard-response","16","196251","0.0-5.0-1.3","FL","cpd84kvzmq","1366","768","0","1","0","5ed63a6d50ece703aa7bffb9","","null","","","learningBlock1","","","","That was a dep.","null","","","","","",""
"html-keyboard-response","17","197255","0.0-5.0-2.3","FL","cpd84kvzmq","1366","768","0","1","0","5ed63a6d50ece703aa7bffb9","","null","","","learningBlock1","","","","<div style=""font-size:60px;""> </div>","null","FL","learning/Slide4.JPG","That was a dep.","","",""
"image-keyboard-response","18","197435","0.0-5.0-0.4","FL","cpd84kvzmq","1366","768","0","1","0","5ed63a6d50ece703aa7bffb9","","null","","","","","","","learning/Slide5.JPG","null","","","","","",""
"html-keyboard-response","19","198592","0.0-5.0-1.4","FL","cpd84kvzmq","1366","768","0","1","0","5ed63a6d50ece703aa7bffb9","","null","","","learningBlock1","","","","That was a wug.","null","","","","","",""
"html-keyboard-response","20","199596","0.0-5.0-2.4","FL","cpd84kvzmq","1366","768","0","1","0","5ed63a6d50ece703aa7bffb9","","null","","","learningBlock1","","","","<div style=""font-size:60px;""> </div>","null","FL","learning/Slide5.JPG","That was a wug.","","",""
"image-keyboard-response","21","199775","0.0-5.0-0.5","FL","cpd84kvzmq","1366","768","0","1","0","5ed63a6d50ece703aa7bffb9","","null","","","","","","","learning/Slide6.JPG","null","","","","","",""
"html-keyboard-response","22","200936","0.0-5.0-1.5","FL","cpd84kvzmq","1366","768","0","1","0","5ed63a6d50ece703aa7bffb9","","null","","","learningBlock1","","","","That was a dep.","null","","","","","",""
"html-keyboard-response","23","201941","0.0-5.0-2.5","FL","cpd84kvzmq","1366","768","0","1","0","5ed63a6d50ece703aa7bffb9","","null","","","learningBlock1","","","","<div style=""font-size:60px;""> </div>","null","FL","learning/Slide6.JPG","That was a dep.","","",""
"image-keyboard-response","24","202122","0.0-5.0-0.6","FL","cpd84kvzmq","1366","768","0","1","0","5ed63a6d50ece703aa7bffb9","","null","","","","","","","learning/Slide7.JPG","null","","","","","",""
"html-keyboard-response","25","203281","0.0-5.0-1.6","FL","cpd84kvzmq","1366","768","0","1","0","5ed63a6d50ece703aa7bffb9","","null","","","learningBlock1","","","","That was a wug.","null","","","","","",""
"html-keyboard-response","26","204284","0.0-5.0-2.6","FL","cpd84kvzmq","1366","768","0","1","0","5ed63a6d50ece703aa7bffb9","","null","","","learningBlock1","","","","<div style=""font-size:60px;""> </div>","null","FL","learning/Slide7.JPG","That was a wug.","","",""
"image-keyboard-response","27","204463","0.0-5.0-0.7","FL","cpd84kvzmq","1366","768","0","1","0","5ed63a6d50ece703aa7bffb9","","null","","","","","","","learning/Slide8.JPG","null","","","","","",""
"html-keyboard-response","28","205620","0.0-5.0-1.7","FL","cpd84kvzmq","1366","768","0","1","0","5ed63a6d50ece703aa7bffb9","","null","","","learningBlock1","","","","That was a bim.","null","","","","","",""
"html-keyboard-response","29","206626","0.0-5.0-2.7","FL","cpd84kvzmq","1366","768","0","1","0","5ed63a6d50ece703aa7bffb9","","null","","","learningBlock1","","","","<div style=""font-size:60px;""> </div>","null","FL","learning/Slide8.JPG","That was a bim.","","",""
"image-keyboard-response","30","206807","0.0-5.0-0.8","FL","cpd84kvzmq","1366","768","0","1","0","5ed63a6d50ece703aa7bffb9","","null","","","","","","","learning/Slide9.JPG","null","","","","","",""
"html-keyboard-response","31","207963","0.0-5.0-1.8","FL","cpd84kvzmq","1366","768","0","1","0","5ed63a6d50ece703aa7bffb9","","null","","","learningBlock1","","","","That was a wug.","null","","","","","",""
"html-keyboard-response","32","208968","0.0-5.0-2.8","FL","cpd84kvzmq","1366","768","0","1","0","5ed63a6d50ece703aa7bffb9","","null","","","learningBlock1","","","","<div style=""font-size:60px;""> </div>","null","FL","learning/Slide9.JPG","That was a wug.","","",""
"image-keyboard-response","33","209149","0.0-5.0-0.9","FL","cpd84kvzmq","1366","768","0","1","0","5ed63a6d50ece703aa7bffb9","","null","","","","","","","learning/Slide10.JPG","null","","","","","",""
"html-keyboard-response","34","210305","0.0-5.0-1.9","FL","cpd84kvzmq","1366","768","0","1","0","5ed63a6d50ece703aa7bffb9","","null","","","learningBlock1","","","","That was a dep.","null","","","","","",""
"html-keyboard-response","35","211308","0.0-5.0-2.9","FL","cpd84kvzmq","1366","768","0","1","0","5ed63a6d50ece703aa7bffb9","","null","","","learningBlock1","","","","<div style=""font-size:60px;""> </div>","null","FL","learning/Slide10.JPG","That was a dep.","","",""
"image-keyboard-response","36","211486","0.0-5.0-0.10","FL","cpd84kvzmq","1366","768","0","1","0","5ed63a6d50ece703aa7bffb9","","null","","","","","","","learning/Slide11.JPG","null","","","","","",""
"html-keyboard-response","37","212643","0.0-5.0-1.10","FL","cpd84kvzmq","1366","768","0","1","0","5ed63a6d50ece703aa7bffb9","","null","","","learningBlock1","","","","That was a tob.","null","","","","","",""
"html-keyboard-response","38","213648","0.0-5.0-2.10","FL","cpd84kvzmq","1366","768","0","1","0","5ed63a6d50ece703aa7bffb9","","null","","","learningBlock1","","","","<div style=""font-size:60px;""> </div>","null","FL","learning/Slide11.JPG","That was a tob.","","",""
"image-keyboard-response","39","213830","0.0-5.0-0.11","FL","cpd84kvzmq","1366","768","0","1","0","5ed63a6d50ece703aa7bffb9","","null","","","","","","","learning/Slide12.JPG","null","","","","","",""
"html-keyboard-response","40","214990","0.0-5.0-1.11","FL","cpd84kvzmq","1366","768","0","1","0","5ed63a6d50ece703aa7bffb9","","null","","","learningBlock1","","","","That was a dep.","null","","","","","",""
"html-keyboard-response","41","215997","0.0-5.0-2.11","FL","cpd84kvzmq","1366","768","0","1","0","5ed63a6d50ece703aa7bffb9","","null","","","learningBlock1","","","","<div style=""font-size:60px;""> </div>","null","FL","learning/Slide12.JPG","That was a dep.","","",""
"image-keyboard-response","42","216177","0.0-5.0-0.12","FL","cpd84kvzmq","1366","768","0","1","0","5ed63a6d50ece703aa7bffb9","","null","","","","","","","learning/Slide13.JPG","null","","","","","",""
"html-keyboard-response","43","217333","0.0-5.0-1.12","FL","cpd84kvzmq","1366","768","0","1","0","5ed63a6d50ece703aa7bffb9","","null","","","learningBlock1","","","","That was a bim.","null","","","","","",""
"html-keyboard-response","44","218337","0.0-5.0-2.12","FL","cpd84kvzmq","1366","768","0","1","0","5ed63a6d50ece703aa7bffb9","","null","","","learningBlock1","","","","<div style=""font-size:60px;""> </div>","null","FL","learning/Slide13.JPG","That was a bim.","","",""
"image-keyboard-response","45","218514","0.0-5.0-0.13","FL","cpd84kvzmq","1366","768","0","1","0","5ed63a6d50ece703aa7bffb9","","null","","","","","","","learning/Slide14.JPG","null","","","","","",""
"html-keyboard-response","46","219672","0.0-5.0-1.13","FL","cpd84kvzmq","1366","768","0","1","0","5ed63a6d50ece703aa7bffb9","","null","","","learningBlock1","","","","That was a wug.","null","","","","","",""
"html-keyboard-response","47","220677","0.0-5.0-2.13","FL","cpd84kvzmq","1366","768","0","1","0","5ed63a6d50ece703aa7bffb9","","null","","","learningBlock1","","","","<div style=""font-size:60px;""> </div>","null","FL","learning/Slide14.JPG","That was a wug.","","",""
"image-keyboard-response","48","220859","0.0-5.0-0.14","FL","cpd84kvzmq","1366","768","0","1","0","5ed63a6d50ece703aa7bffb9","","null","","","","","","","learning/Slide15.JPG","null","","","","","",""
"html-keyboard-response","49","222017","0.0-5.0-1.14","FL","cpd84kvzmq","1366","768","0","1","0","5ed63a6d50ece703aa7bffb9","","null","","","learningBlock1","","","","That was a tob.","null","","","","","",""
"html-keyboard-response","50","223020","0.0-5.0-2.14","FL","cpd84kvzmq","1366","768","0","1","0","5ed63a6d50ece703aa7bffb9","","null","","","learningBlock1","","","","<div style=""font-size:60px;""> </div>","null","FL","learning/Slide15.JPG","That was a tob.","","",""
"image-keyboard-response","51","223200","0.0-5.0-0.15","FL","cpd84kvzmq","1366","768","0","1","0","5ed63a6d50ece703aa7bffb9","","null","","","","","","","learning/Slide16.JPG","null","","","","","",""
"html-keyboard-response","52","224356","0.0-5.0-1.15","FL","cpd84kvzmq","1366","768","0","1","0","5ed63a6d50ece703aa7bffb9","","null","","","learningBlock1","","","","That was a dep.","null","","","","","",""
"html-keyboard-response","53","225361","0.0-5.0-2.15","FL","cpd84kvzmq","1366","768","0","1","0","5ed63a6d50ece703aa7bffb9","","null","","","learningBlock1","","","","<div style=""font-size:60px;""> </div>","null","FL","learning/Slide16.JPG","That was a dep.","","",""
"image-keyboard-response","54","225542","0.0-5.0-0.16","FL","cpd84kvzmq","1366","768","0","1","0","5ed63a6d50ece703aa7bffb9","","null","","","","","","","learning/Slide17.JPG","null","","","","","",""
"html-keyboard-response","55","226698","0.0-5.0-1.16","FL","cpd84kvzmq","1366","768","0","1","0","5ed63a6d50ece703aa7bffb9","","null","","","learningBlock1","","","","That was a bim.","null","","","","","",""
"html-keyboard-response","56","227704","0.0-5.0-2.16","FL","cpd84kvzmq","1366","768","0","1","0","5ed63a6d50ece703aa7bffb9","","null","","","learningBlock1","","","","<div style=""font-size:60px;""> </div>","null","FL","learning/Slide17.JPG","That was a bim.","","",""
"image-keyboard-response","57","227884","0.0-5.0-0.17","FL","cpd84kvzmq","1366","768","0","1","0","5ed63a6d50ece703aa7bffb9","","null","","","","","","","learning/Slide18.JPG","null","","","","","",""
"html-keyboard-response","58","229041","0.0-5.0-1.17","FL","cpd84kvzmq","1366","768","0","1","0","5ed63a6d50ece703aa7bffb9","","null","","","learningBlock1","","","","That was a tob.","null","","","","","",""
"html-keyboard-response","59","230045","0.0-5.0-2.17","FL","cpd84kvzmq","1366","768","0","1","0","5ed63a6d50ece703aa7bffb9","","null","","","learningBlock1","","","","<div style=""font-size:60px;""> </div>","null","FL","learning/Slide18.JPG","That was a tob.","","",""
"image-keyboard-response","60","230227","0.0-5.0-0.18","FL","cpd84kvzmq","1366","768","0","1","0","5ed63a6d50ece703aa7bffb9","","null","","","","","","","learning/Slide19.JPG","null","","","","","",""
"html-keyboard-response","61","231385","0.0-5.0-1.18","FL","cpd84kvzmq","1366","768","0","1","0","5ed63a6d50ece703aa7bffb9","","null","","","learningBlock1","","","","That was a wug.","null","","","","","",""
"html-keyboard-response","62","232389","0.0-5.0-2.18","FL","cpd84kvzmq","1366","768","0","1","0","5ed63a6d50ece703aa7bffb9","","null","","","learningBlock1","","","","<div style=""font-size:60px;""> </div>","null","FL","learning/Slide19.JPG","That was a wug.","","",""
"image-keyboard-response","63","232570","0.0-5.0-0.19","FL","cpd84kvzmq","1366","768","0","1","0","5ed63a6d50ece703aa7bffb9","","null","","","","","","","learning/Slide20.JPG","null","","","","","",""
"html-keyboard-response","64","233729","0.0-5.0-1.19","FL","cpd84kvzmq","1366","768","0","1","0","5ed63a6d50ece703aa7bffb9","","null","","","learningBlock1","","","","That was a bim.","null","","","","","",""
"html-keyboard-response","65","234732","0.0-5.0-2.19","FL","cpd84kvzmq","1366","768","0","1","0","5ed63a6d50ece703aa7bffb9","","null","","","learningBlock1","","","","<div style=""font-size:60px;""> </div>","null","FL","learning/Slide20.JPG","That was a bim.","","",""
"image-keyboard-response","66","234916","0.0-5.0-0.20","FL","cpd84kvzmq","1366","768","0","1","0","5ed63a6d50ece703aa7bffb9","","null","","","","","","","learning/Slide21.JPG","null","","","","","",""
"html-keyboard-response","67","236076","0.0-5.0-1.20","FL","cpd84kvzmq","1366","768","0","1","0","5ed63a6d50ece703aa7bffb9","","null","","","learningBlock1","","","","That was a dep.","null","","","","","",""
"html-keyboard-response","68","237082","0.0-5.0-2.20","FL","cpd84kvzmq","1366","768","0","1","0","5ed63a6d50ece703aa7bffb9","","null","","","learningBlock1","","","","<div style=""font-size:60px;""> </div>","null","FL","learning/Slide21.JPG","That was a dep.","","",""
"image-keyboard-response","69","237267","0.0-5.0-0.21","FL","cpd84kvzmq","1366","768","0","1","0","5ed63a6d50ece703aa7bffb9","","null","","","","","","","learning/Slide22.JPG","null","","","","","",""
"html-keyboard-response","70","238424","0.0-5.0-1.21","FL","cpd84kvzmq","1366","768","0","1","0","5ed63a6d50ece703aa7bffb9","","null","","","learningBlock1","","","","That was a bim.","null","","","","","",""
"html-keyboard-response","71","239430","0.0-5.0-2.21","FL","cpd84kvzmq","1366","768","0","1","0","5ed63a6d50ece703aa7bffb9","","null","","","learningBlock1","","","","<div style=""font-size:60px;""> </div>","null","FL","learning/Slide22.JPG","That was a bim.","","",""
"image-keyboard-response","72","239610","0.0-5.0-0.22","FL","cpd84kvzmq","1366","768","0","1","0","5ed63a6d50ece703aa7bffb9","","null","","","","","","","learning/Slide23.JPG","null","","","","","",""
"html-keyboard-response","73","240770","0.0-5.0-1.22","FL","cpd84kvzmq","1366","768","0","1","0","5ed63a6d50ece703aa7bffb9","","null","","","learningBlock1","","","","That was a tob.","null","","","","","",""
"html-keyboard-response","74","241775","0.0-5.0-2.22","FL","cpd84kvzmq","1366","768","0","1","0","5ed63a6d50ece703aa7bffb9","","null","","","learningBlock1","","","","<div style=""font-size:60px;""> </div>","null","FL","learning/Slide23.JPG","That was a tob.","","",""
"image-keyboard-response","75","241977","0.0-5.0-0.23","FL","cpd84kvzmq","1366","768","0","1","0","5ed63a6d50ece703aa7bffb9","","null","","","","","","","learning/Slide24.JPG","null","","","","","",""
"html-keyboard-response","76","243130","0.0-5.0-1.23","FL","cpd84kvzmq","1366","768","0","1","0","5ed63a6d50ece703aa7bffb9","","null","","","learningBlock1","","","","That was a wug.","null","","","","","",""
"html-keyboard-response","77","244132","0.0-5.0-2.23","FL","cpd84kvzmq","1366","768","0","1","0","5ed63a6d50ece703aa7bffb9","","null","","","learningBlock1","","","","<div style=""font-size:60px;""> </div>","null","FL","learning/Slide24.JPG","That was a wug.","","",""
"image-keyboard-response","78","244311","0.0-5.0-0.24","FL","cpd84kvzmq","1366","768","0","1","0","5ed63a6d50ece703aa7bffb9","","null","","","","","","","learning/Slide25.JPG","null","","","","","",""
"html-keyboard-response","79","245470","0.0-5.0-1.24","FL","cpd84kvzmq","1366","768","0","1","0","5ed63a6d50ece703aa7bffb9","","null","","","learningBlock1","","","","That was a dep.","null","","","","","",""
"html-keyboard-response","80","246474","0.0-5.0-2.24","FL","cpd84kvzmq","1366","768","0","1","0","5ed63a6d50ece703aa7bffb9","","null","","","learningBlock1","","","","<div style=""font-size:60px;""> </div>","null","FL","learning/Slide25.JPG","That was a dep.","","",""
"image-keyboard-response","81","246656","0.0-5.0-0.25","FL","cpd84kvzmq","1366","768","0","1","0","5ed63a6d50ece703aa7bffb9","","null","","","","","","","learning/Slide26.JPG","null","","","","","",""
"html-keyboard-response","82","247813","0.0-5.0-1.25","FL","cpd84kvzmq","1366","768","0","1","0","5ed63a6d50ece703aa7bffb9","","null","","","learningBlock1","","","","That was a wug.","null","","","","","",""
"html-keyboard-response","83","248816","0.0-5.0-2.25","FL","cpd84kvzmq","1366","768","0","1","0","5ed63a6d50ece703aa7bffb9","","null","","","learningBlock1","","","","<div style=""font-size:60px;""> </div>","null","FL","learning/Slide26.JPG","That was a wug.","","",""
"image-keyboard-response","84","248997","0.0-5.0-0.26","FL","cpd84kvzmq","1366","768","0","1","0","5ed63a6d50ece703aa7bffb9","","null","","","","","","","learning/Slide27.JPG","null","","","","","",""
"html-keyboard-response","85","250154","0.0-5.0-1.26","FL","cpd84kvzmq","1366","768","0","1","0","5ed63a6d50ece703aa7bffb9","","null","","","learningBlock1","","","","That was a bim.","null","","","","","",""
"html-keyboard-response","86","251158","0.0-5.0-2.26","FL","cpd84kvzmq","1366","768","0","1","0","5ed63a6d50ece703aa7bffb9","","null","","","learningBlock1","","","","<div style=""font-size:60px;""> </div>","null","FL","learning/Slide27.JPG","That was a bim.","","",""
"image-keyboard-response","87","251339","0.0-5.0-0.27","FL","cpd84kvzmq","1366","768","0","1","0","5ed63a6d50ece703aa7bffb9","","null","","","","","","","learning/Slide28.JPG","null","","","","","",""
"html-keyboard-response","88","252497","0.0-5.0-1.27","FL","cpd84kvzmq","1366","768","0","1","0","5ed63a6d50ece703aa7bffb9","","null","","","learningBlock1","","","","That was a dep.","null","","","","","",""
"html-keyboard-response","89","253502","0.0-5.0-2.27","FL","cpd84kvzmq","1366","768","0","1","0","5ed63a6d50ece703aa7bffb9","","null","","","learningBlock1","","","","<div style=""font-size:60px;""> </div>","null","FL","learning/Slide28.JPG","That was a dep.","","",""
"image-keyboard-response","90","253684","0.0-5.0-0.28","FL","cpd84kvzmq","1366","768","0","1","0","5ed63a6d50ece703aa7bffb9","","null","","","","","","","learning/Slide29.JPG","null","","","","","",""
"html-keyboard-response","91","254845","0.0-5.0-1.28","FL","cpd84kvzmq","1366","768","0","1","0","5ed63a6d50ece703aa7bffb9","","null","","","learningBlock1","","","","That was a tob.","null","","","","","",""
"html-keyboard-response","92","255849","0.0-5.0-2.28","FL","cpd84kvzmq","1366","768","0","1","0","5ed63a6d50ece703aa7bffb9","","null","","","learningBlock1","","","","<div style=""font-size:60px;""> </div>","null","FL","learning/Slide29.JPG","That was a tob.","","",""
"image-keyboard-response","93","256029","0.0-5.0-0.29","FL","cpd84kvzmq","1366","768","0","1","0","5ed63a6d50ece703aa7bffb9","","null","","","","","","","learning/Slide30.JPG","null","","","","","",""
"html-keyboard-response","94","257187","0.0-5.0-1.29","FL","cpd84kvzmq","1366","768","0","1","0","5ed63a6d50ece703aa7bffb9","","null","","","learningBlock1","","","","That was a dep.","null","","","","","",""
"html-keyboard-response","95","258193","0.0-5.0-2.29","FL","cpd84kvzmq","1366","768","0","1","0","5ed63a6d50ece703aa7bffb9","","null","","","learningBlock1","","","","<div style=""font-size:60px;""> </div>","null","FL","learning/Slide30.JPG","That was a dep.","","",""
"image-keyboard-response","96","258373","0.0-5.0-0.30","FL","cpd84kvzmq","1366","768","0","1","0","5ed63a6d50ece703aa7bffb9","","null","","","","","","","learning/Slide31.JPG","null","","","","","",""
"html-keyboard-response","97","259531","0.0-5.0-1.30","FL","cpd84kvzmq","1366","768","0","1","0","5ed63a6d50ece703aa7bffb9","","null","","","learningBlock1","","","","That was a wug.","null","","","","","",""
"html-keyboard-response","98","260535","0.0-5.0-2.30","FL","cpd84kvzmq","1366","768","0","1","0","5ed63a6d50ece703aa7bffb9","","null","","","learningBlock1","","","","<div style=""font-size:60px;""> </div>","null","FL","learning/Slide31.JPG","That was a wug.","","",""
"image-keyboard-response","99","260715","0.0-5.0-0.31","FL","cpd84kvzmq","1366","768","0","1","0","5ed63a6d50ece703aa7bffb9","","null","","","","","","","learning/Slide32.JPG","null","","","","","",""
"html-keyboard-response","100","261874","0.0-5.0-1.31","FL","cpd84kvzmq","1366","768","0","1","0","5ed63a6d50ece703aa7bffb9","","null","","","learningBlock1","","","","That was a tob.","null","","","","","",""
"html-keyboard-response","101","262879","0.0-5.0-2.31","FL","cpd84kvzmq","1366","768","0","1","0","5ed63a6d50ece703aa7bffb9","","null","","","learningBlock1","","","","<div style=""font-size:60px;""> </div>","null","FL","learning/Slide32.JPG","That was a tob.","","",""
"image-keyboard-response","102","263060","0.0-5.0-0.32","FL","cpd84kvzmq","1366","768","0","1","0","5ed63a6d50ece703aa7bffb9","","null","","","","","","","learning/Slide33.JPG","null","","","","","",""
"html-keyboard-response","103","264221","0.0-5.0-1.32","FL","cpd84kvzmq","1366","768","0","1","0","5ed63a6d50ece703aa7bffb9","","null","","","learningBlock1","","","","That was a bim.","null","","","","","",""
"html-keyboard-response","104","265226","0.0-5.0-2.32","FL","cpd84kvzmq","1366","768","0","1","0","5ed63a6d50ece703aa7bffb9","","null","","","learningBlock1","","","","<div style=""font-size:60px;""> </div>","null","FL","learning/Slide33.JPG","That was a bim.","","",""
"image-keyboard-response","105","265406","0.0-5.0-0.33","FL","cpd84kvzmq","1366","768","0","1","0","5ed63a6d50ece703aa7bffb9","","null","","","","","","","learning/Slide34.JPG","null","","","","","",""
"html-keyboard-response","106","266563","0.0-5.0-1.33","FL","cpd84kvzmq","1366","768","0","1","0","5ed63a6d50ece703aa7bffb9","","null","","","learningBlock1","","","","That was a tob.","null","","","","","",""
"html-keyboard-response","107","267566","0.0-5.0-2.33","FL","cpd84kvzmq","1366","768","0","1","0","5ed63a6d50ece703aa7bffb9","","null","","","learningBlock1","","","","<div style=""font-size:60px;""> </div>","null","FL","learning/Slide34.JPG","That was a tob.","","",""
"image-keyboard-response","108","267744","0.0-5.0-0.34","FL","cpd84kvzmq","1366","768","0","1","0","5ed63a6d50ece703aa7bffb9","","null","","","","","","","learning/Slide35.JPG","null","","","","","",""
"html-keyboard-response","109","268900","0.0-5.0-1.34","FL","cpd84kvzmq","1366","768","0","1","0","5ed63a6d50ece703aa7bffb9","","null","","","learningBlock1","","","","That was a bim.","null","","","","","",""
"html-keyboard-response","110","269905","0.0-5.0-2.34","FL","cpd84kvzmq","1366","768","0","1","0","5ed63a6d50ece703aa7bffb9","","null","","","learningBlock1","","","","<div style=""font-size:60px;""> </div>","null","FL","learning/Slide35.JPG","That was a bim.","","",""
"image-keyboard-response","111","270085","0.0-5.0-0.35","FL","cpd84kvzmq","1366","768","0","1","0","5ed63a6d50ece703aa7bffb9","","null","","","","","","","learning/Slide36.JPG","null","","","","","",""
"html-keyboard-response","112","271242","0.0-5.0-1.35","FL","cpd84kvzmq","1366","768","0","1","0","5ed63a6d50ece703aa7bffb9","","null","","","learningBlock1","","","","That was a dep.","null","","","","","",""
"html-keyboard-response","113","272245","0.0-5.0-2.35","FL","cpd84kvzmq","1366","768","0","1","0","5ed63a6d50ece703aa7bffb9","","null","","","learningBlock1","","","","<div style=""font-size:60px;""> </div>","null","FL","learning/Slide36.JPG","That was a dep.","","",""
"image-keyboard-response","114","272423","0.0-5.0-0.36","FL","cpd84kvzmq","1366","768","0","1","0","5ed63a6d50ece703aa7bffb9","","null","","","","","","","learning/Slide37.JPG","null","","","","","",""
"html-keyboard-response","115","273581","0.0-5.0-1.36","FL","cpd84kvzmq","1366","768","0","1","0","5ed63a6d50ece703aa7bffb9","","null","","","learningBlock1","","","","That was a tob.","null","","","","","",""
"html-keyboard-response","116","274586","0.0-5.0-2.36","FL","cpd84kvzmq","1366","768","0","1","0","5ed63a6d50ece703aa7bffb9","","null","","","learningBlock1","","","","<div style=""font-size:60px;""> </div>","null","FL","learning/Slide37.JPG","That was a tob.","","",""
"image-keyboard-response","117","274767","0.0-5.0-0.37","FL","cpd84kvzmq","1366","768","0","1","0","5ed63a6d50ece703aa7bffb9","","null","","","","","","","learning/Slide38.JPG","null","","","","","",""
"html-keyboard-response","118","275929","0.0-5.0-1.37","FL","cpd84kvzmq","1366","768","0","1","0","5ed63a6d50ece703aa7bffb9","","null","","","learningBlock1","","","","That was a wug.","null","","","","","",""
"html-keyboard-response","119","276935","0.0-5.0-2.37","FL","cpd84kvzmq","1366","768","0","1","0","5ed63a6d50ece703aa7bffb9","","null","","","learningBlock1","","","","<div style=""font-size:60px;""> </div>","null","FL","learning/Slide38.JPG","That was a wug.","","",""
"image-keyboard-response","120","277113","0.0-5.0-0.38","FL","cpd84kvzmq","1366","768","0","1","0","5ed63a6d50ece703aa7bffb9","","null","","","","","","","learning/Slide39.JPG","null","","","","","",""
"html-keyboard-response","121","278270","0.0-5.0-1.38","FL","cpd84kvzmq","1366","768","0","1","0","5ed63a6d50ece703aa7bffb9","","null","","","learningBlock1","","","","That was a bim.","null","","","","","",""
"html-keyboard-response","122","279274","0.0-5.0-2.38","FL","cpd84kvzmq","1366","768","0","1","0","5ed63a6d50ece703aa7bffb9","","null","","","learningBlock1","","","","<div style=""font-size:60px;""> </div>","null","FL","learning/Slide39.JPG","That was a bim.","","",""
"image-keyboard-response","123","279455","0.0-5.0-0.39","FL","cpd84kvzmq","1366","768","0","1","0","5ed63a6d50ece703aa7bffb9","","null","","","","","","","learning/Slide40.JPG","null","","","","","",""
"html-keyboard-response","124","280612","0.0-5.0-1.39","FL","cpd84kvzmq","1366","768","0","1","0","5ed63a6d50ece703aa7bffb9","","null","","","learningBlock1","","","","That was a tob.","null","","","","","",""
"html-keyboard-response","125","281615","0.0-5.0-2.39","FL","cpd84kvzmq","1366","768","0","1","0","5ed63a6d50ece703aa7bffb9","","null","","","learningBlock1","","","","<div style=""font-size:60px;""> </div>","null","FL","learning/Slide40.JPG","That was a tob.","","",""
"image-keyboard-response","126","281795","0.0-5.0-0.40","FL","cpd84kvzmq","1366","768","0","1","0","5ed63a6d50ece703aa7bffb9","","null","","","","","","","learning/Slide41.JPG","null","","","","","",""
"html-keyboard-response","127","282956","0.0-5.0-1.40","FL","cpd84kvzmq","1366","768","0","1","0","5ed63a6d50ece703aa7bffb9","","null","","","learningBlock1","","","","That was a bim.","null","","","","","",""
"html-keyboard-response","128","283961","0.0-5.0-2.40","FL","cpd84kvzmq","1366","768","0","1","0","5ed63a6d50ece703aa7bffb9","","null","","","learningBlock1","","","","<div style=""font-size:60px;""> </div>","null","FL","learning/Slide41.JPG","That was a bim.","","",""
"image-keyboard-response","129","284142","0.0-5.0-0.41","FL","cpd84kvzmq","1366","768","0","1","0","5ed63a6d50ece703aa7bffb9","","null","","","","","","","learning/Slide42.JPG","null","","","","","",""
"html-keyboard-response","130","285304","0.0-5.0-1.41","FL","cpd84kvzmq","1366","768","0","1","0","5ed63a6d50ece703aa7bffb9","","null","","","learningBlock1","","","","That was a dep.","null","","","","","",""
"html-keyboard-response","131","286310","0.0-5.0-2.41","FL","cpd84kvzmq","1366","768","0","1","0","5ed63a6d50ece703aa7bffb9","","null","","","learningBlock1","","","","<div style=""font-size:60px;""> </div>","null","FL","learning/Slide42.JPG","That was a dep.","","",""
"image-keyboard-response","132","286487","0.0-5.0-0.42","FL","cpd84kvzmq","1366","768","0","1","0","5ed63a6d50ece703aa7bffb9","","null","","","","","","","learning/Slide43.JPG","null","","","","","",""
"html-keyboard-response","133","287645","0.0-5.0-1.42","FL","cpd84kvzmq","1366","768","0","1","0","5ed63a6d50ece703aa7bffb9","","null","","","learningBlock1","","","","That was a wug.","null","","","","","",""
"html-keyboard-response","134","288648","0.0-5.0-2.42","FL","cpd84kvzmq","1366","768","0","1","0","5ed63a6d50ece703aa7bffb9","","null","","","learningBlock1","","","","<div style=""font-size:60px;""> </div>","null","FL","learning/Slide43.JPG","That was a wug.","","",""
"image-keyboard-response","135","288826","0.0-5.0-0.43","FL","cpd84kvzmq","1366","768","0","1","0","5ed63a6d50ece703aa7bffb9","","null","","","","","","","learning/Slide44.JPG","null","","","","","",""
"html-keyboard-response","136","289981","0.0-5.0-1.43","FL","cpd84kvzmq","1366","768","0","1","0","5ed63a6d50ece703aa7bffb9","","null","","","learningBlock1","","","","That was a bim.","null","","","","","",""
"html-keyboard-response","137","290985","0.0-5.0-2.43","FL","cpd84kvzmq","1366","768","0","1","0","5ed63a6d50ece703aa7bffb9","","null","","","learningBlock1","","","","<div style=""font-size:60px;""> </div>","null","FL","learning/Slide44.JPG","That was a bim.","","",""
"image-keyboard-response","138","291165","0.0-5.0-0.44","FL","cpd84kvzmq","1366","768","0","1","0","5ed63a6d50ece703aa7bffb9","","null","","","","","","","learning/Slide45.JPG","null","","","","","",""
"html-keyboard-response","139","292326","0.0-5.0-1.44","FL","cpd84kvzmq","1366","768","0","1","0","5ed63a6d50ece703aa7bffb9","","null","","","learningBlock1","","","","That was a wug.","null","","","","","",""
"html-keyboard-response","140","293331","0.0-5.0-2.44","FL","cpd84kvzmq","1366","768","0","1","0","5ed63a6d50ece703aa7bffb9","","null","","","learningBlock1","","","","<div style=""font-size:60px;""> </div>","null","FL","learning/Slide45.JPG","That was a wug.","","",""
"image-keyboard-response","141","293510","0.0-5.0-0.45","FL","cpd84kvzmq","1366","768","0","1","0","5ed63a6d50ece703aa7bffb9","","null","","","","","","","learning/Slide46.JPG","null","","","","","",""
"html-keyboard-response","142","294669","0.0-5.0-1.45","FL","cpd84kvzmq","1366","768","0","1","0","5ed63a6d50ece703aa7bffb9","","null","","","learningBlock1","","","","That was a dep.","null","","","","","",""
"html-keyboard-response","143","295673","0.0-5.0-2.45","FL","cpd84kvzmq","1366","768","0","1","0","5ed63a6d50ece703aa7bffb9","","null","","","learningBlock1","","","","<div style=""font-size:60px;""> </div>","null","FL","learning/Slide46.JPG","That was a dep.","","",""
"image-keyboard-response","144","295854","0.0-5.0-0.46","FL","cpd84kvzmq","1366","768","0","1","0","5ed63a6d50ece703aa7bffb9","","null","","","","","","","learning/Slide47.JPG","null","","","","","",""
"html-keyboard-response","145","297011","0.0-5.0-1.46","FL","cpd84kvzmq","1366","768","0","1","0","5ed63a6d50ece703aa7bffb9","","null","","","learningBlock1","","","","That was a tob.","null","","","","","",""
"html-keyboard-response","146","298016","0.0-5.0-2.46","FL","cpd84kvzmq","1366","768","0","1","0","5ed63a6d50ece703aa7bffb9","","null","","","learningBlock1","","","","<div style=""font-size:60px;""> </div>","null","FL","learning/Slide47.JPG","That was a tob.","","",""
"image-keyboard-response","147","298198","0.0-5.0-0.47","FL","cpd84kvzmq","1366","768","0","1","0","5ed63a6d50ece703aa7bffb9","","null","","","","","","","learning/Slide48.JPG","null","","","","","",""
"html-keyboard-response","148","299361","0.0-5.0-1.47","FL","cpd84kvzmq","1366","768","0","1","0","5ed63a6d50ece703aa7bffb9","","null","","","learningBlock1","","","","That was a bim.","null","","","","","",""
"html-keyboard-response","149","300365","0.0-5.0-2.47","FL","cpd84kvzmq","1366","768","0","1","0","5ed63a6d50ece703aa7bffb9","","null","","","learningBlock1","","","","<div style=""font-size:60px;""> </div>","null","FL","learning/Slide48.JPG","That was a bim.","","",""
"image-keyboard-response","150","300546","0.0-5.0-0.48","FL","cpd84kvzmq","1366","768","0","1","0","5ed63a6d50ece703aa7bffb9","","null","","","","","","","learning/Slide49.JPG","null","","","","","",""
"html-keyboard-response","151","301707","0.0-5.0-1.48","FL","cpd84kvzmq","1366","768","0","1","0","5ed63a6d50ece703aa7bffb9","","null","","","learningBlock1","","","","That was a dep.","null","","","","","",""
"html-keyboard-response","152","302714","0.0-5.0-2.48","FL","cpd84kvzmq","1366","768","0","1","0","5ed63a6d50ece703aa7bffb9","","null","","","learningBlock1","","","","<div style=""font-size:60px;""> </div>","null","FL","learning/Slide49.JPG","That was a dep.","","",""
"image-keyboard-response","153","302893","0.0-5.0-0.49","FL","cpd84kvzmq","1366","768","0","1","0","5ed63a6d50ece703aa7bffb9","","null","","","","","","","learning/Slide50.JPG","null","","","","","",""
"html-keyboard-response","154","304050","0.0-5.0-1.49","FL","cpd84kvzmq","1366","768","0","1","0","5ed63a6d50ece703aa7bffb9","","null","","","learningBlock1","","","","That was a tob.","null","","","","","",""
"html-keyboard-response","155","305053","0.0-5.0-2.49","FL","cpd84kvzmq","1366","768","0","1","0","5ed63a6d50ece703aa7bffb9","","null","","","learningBlock1","","","","<div style=""font-size:60px;""> </div>","null","FL","learning/Slide50.JPG","That was a tob.","","",""
"image-keyboard-response","156","305235","0.0-5.0-0.50","FL","cpd84kvzmq","1366","768","0","1","0","5ed63a6d50ece703aa7bffb9","","null","","","","","","","learning/Slide51.JPG","null","","","","","",""
"html-keyboard-response","157","306390","0.0-5.0-1.50","FL","cpd84kvzmq","1366","768","0","1","0","5ed63a6d50ece703aa7bffb9","","null","","","learningBlock1","","","","That was a bim.","null","","","","","",""
"html-keyboard-response","158","307392","0.0-5.0-2.50","FL","cpd84kvzmq","1366","768","0","1","0","5ed63a6d50ece703aa7bffb9","","null","","","learningBlock1","","","","<div style=""font-size:60px;""> </div>","null","FL","learning/Slide51.JPG","That was a bim.","","",""
"image-keyboard-response","159","307574","0.0-5.0-0.51","FL","cpd84kvzmq","1366","768","0","1","0","5ed63a6d50ece703aa7bffb9","","null","","","","","","","learning/Slide52.JPG","null","","","","","",""
"html-keyboard-response","160","308730","0.0-5.0-1.51","FL","cpd84kvzmq","1366","768","0","1","0","5ed63a6d50ece703aa7bffb9","","null","","","learningBlock1","","","","That was a wug.","null","","","","","",""
"html-keyboard-response","161","309736","0.0-5.0-2.51","FL","cpd84kvzmq","1366","768","0","1","0","5ed63a6d50ece703aa7bffb9","","null","","","learningBlock1","","","","<div style=""font-size:60px;""> </div>","null","FL","learning/Slide52.JPG","That was a wug.","","",""
"image-keyboard-response","162","309915","0.0-5.0-0.52","FL","cpd84kvzmq","1366","768","0","1","0","5ed63a6d50ece703aa7bffb9","","null","","","","","","","learning/Slide53.JPG","null","","","","","",""
"html-keyboard-response","163","311073","0.0-5.0-1.52","FL","cpd84kvzmq","1366","768","0","1","0","5ed63a6d50ece703aa7bffb9","","null","","","learningBlock1","","","","That was a tob.","null","","","","","",""
"html-keyboard-response","164","312076","0.0-5.0-2.52","FL","cpd84kvzmq","1366","768","0","1","0","5ed63a6d50ece703aa7bffb9","","null","","","learningBlock1","","","","<div style=""font-size:60px;""> </div>","null","FL","learning/Slide53.JPG","That was a tob.","","",""
"image-keyboard-response","165","312256","0.0-5.0-0.53","FL","cpd84kvzmq","1366","768","0","1","0","5ed63a6d50ece703aa7bffb9","","null","","","","","","","learning/Slide54.JPG","null","","","","","",""
"html-keyboard-response","166","313412","0.0-5.0-1.53","FL","cpd84kvzmq","1366","768","0","1","0","5ed63a6d50ece703aa7bffb9","","null","","","learningBlock1","","","","That was a dep.","null","","","","","",""
"html-keyboard-response","167","314415","0.0-5.0-2.53","FL","cpd84kvzmq","1366","768","0","1","0","5ed63a6d50ece703aa7bffb9","","null","","","learningBlock1","","","","<div style=""font-size:60px;""> </div>","null","FL","learning/Slide54.JPG","That was a dep.","","",""
"image-keyboard-response","168","314596","0.0-5.0-0.54","FL","cpd84kvzmq","1366","768","0","1","0","5ed63a6d50ece703aa7bffb9","","null","","","","","","","learning/Slide55.JPG","null","","","","","",""
"html-keyboard-response","169","315753","0.0-5.0-1.54","FL","cpd84kvzmq","1366","768","0","1","0","5ed63a6d50ece703aa7bffb9","","null","","","learningBlock1","","","","That was a bim.","null","","","","","",""
"html-keyboard-response","170","316756","0.0-5.0-2.54","FL","cpd84kvzmq","1366","768","0","1","0","5ed63a6d50ece703aa7bffb9","","null","","","learningBlock1","","","","<div style=""font-size:60px;""> </div>","null","FL","learning/Slide55.JPG","That was a bim.","","",""
"image-keyboard-response","171","316934","0.0-5.0-0.55","FL","cpd84kvzmq","1366","768","0","1","0","5ed63a6d50ece703aa7bffb9","","null","","","","","","","learning/Slide56.JPG","null","","","","","",""
"html-keyboard-response","172","318095","0.0-5.0-1.55","FL","cpd84kvzmq","1366","768","0","1","0","5ed63a6d50ece703aa7bffb9","","null","","","learningBlock1","","","","That was a tob.","null","","","","","",""
"html-keyboard-response","173","319100","0.0-5.0-2.55","FL","cpd84kvzmq","1366","768","0","1","0","5ed63a6d50ece703aa7bffb9","","null","","","learningBlock1","","","","<div style=""font-size:60px;""> </div>","null","FL","learning/Slide56.JPG","That was a tob.","","",""
"image-keyboard-response","174","319281","0.0-5.0-0.56","FL","cpd84kvzmq","1366","768","0","1","0","5ed63a6d50ece703aa7bffb9","","null","","","","","","","learning/Slide57.JPG","null","","","","","",""
"html-keyboard-response","175","320437","0.0-5.0-1.56","FL","cpd84kvzmq","1366","768","0","1","0","5ed63a6d50ece703aa7bffb9","","null","","","learningBlock1","","","","That was a dep.","null","","","","","",""
"html-keyboard-response","176","321441","0.0-5.0-2.56","FL","cpd84kvzmq","1366","768","0","1","0","5ed63a6d50ece703aa7bffb9","","null","","","learningBlock1","","","","<div style=""font-size:60px;""> </div>","null","FL","learning/Slide57.JPG","That was a dep.","","",""
"image-keyboard-response","177","321621","0.0-5.0-0.57","FL","cpd84kvzmq","1366","768","0","1","0","5ed63a6d50ece703aa7bffb9","","null","","","","","","","learning/Slide58.JPG","null","","","","","",""
"html-keyboard-response","178","322780","0.0-5.0-1.57","FL","cpd84kvzmq","1366","768","0","1","0","5ed63a6d50ece703aa7bffb9","","null","","","learningBlock1","","","","That was a wug.","null","","","","","",""
"html-keyboard-response","179","323785","0.0-5.0-2.57","FL","cpd84kvzmq","1366","768","0","1","0","5ed63a6d50ece703aa7bffb9","","null","","","learningBlock1","","","","<div style=""font-size:60px;""> </div>","null","FL","learning/Slide58.JPG","That was a wug.","","",""
"image-keyboard-response","180","323966","0.0-5.0-0.58","FL","cpd84kvzmq","1366","768","0","1","0","5ed63a6d50ece703aa7bffb9","","null","","","","","","","learning/Slide59.JPG","null","","","","","",""
"html-keyboard-response","181","325124","0.0-5.0-1.58","FL","cpd84kvzmq","1366","768","0","1","0","5ed63a6d50ece703aa7bffb9","","null","","","learningBlock1","","","","That was a dep.","null","","","","","",""
"html-keyboard-response","182","326128","0.0-5.0-2.58","FL","cpd84kvzmq","1366","768","0","1","0","5ed63a6d50ece703aa7bffb9","","null","","","learningBlock1","","","","<div style=""font-size:60px;""> </div>","null","FL","learning/Slide59.JPG","That was a dep.","","",""
"image-keyboard-response","183","326310","0.0-5.0-0.59","FL","cpd84kvzmq","1366","768","0","1","0","5ed63a6d50ece703aa7bffb9","","null","","","","","","","learning/Slide60.JPG","null","","","","","",""
"html-keyboard-response","184","327467","0.0-5.0-1.59","FL","cpd84kvzmq","1366","768","0","1","0","5ed63a6d50ece703aa7bffb9","","null","","","learningBlock1","","","","That was a wug.","null","","","","","",""
"html-keyboard-response","185","328471","0.0-5.0-2.59","FL","cpd84kvzmq","1366","768","0","1","0","5ed63a6d50ece703aa7bffb9","","null","","","learningBlock1","","","","<div style=""font-size:60px;""> </div>","null","FL","learning/Slide60.JPG","That was a wug.","","",""
"image-keyboard-response","186","328651","0.0-5.0-0.60","FL","cpd84kvzmq","1366","768","0","1","0","5ed63a6d50ece703aa7bffb9","","null","","","","","","","learning/Slide61.JPG","null","","","","","",""
"html-keyboard-response","187","329809","0.0-5.0-1.60","FL","cpd84kvzmq","1366","768","0","1","0","5ed63a6d50ece703aa7bffb9","","null","","","learningBlock1","","","","That was a bim.","null","","","","","",""
"html-keyboard-response","188","330813","0.0-5.0-2.60","FL","cpd84kvzmq","1366","768","0","1","0","5ed63a6d50ece703aa7bffb9","","null","","","learningBlock1","","","","<div style=""font-size:60px;""> </div>","null","FL","learning/Slide61.JPG","That was a bim.","","",""
"image-keyboard-response","189","330994","0.0-5.0-0.61","FL","cpd84kvzmq","1366","768","0","1","0","5ed63a6d50ece703aa7bffb9","","null","","","","","","","learning/Slide62.JPG","null","","","","","",""
"html-keyboard-response","190","332152","0.0-5.0-1.61","FL","cpd84kvzmq","1366","768","0","1","0","5ed63a6d50ece703aa7bffb9","","null","","","learningBlock1","","","","That was a dep.","null","","","","","",""
"html-keyboard-response","191","333156","0.0-5.0-2.61","FL","cpd84kvzmq","1366","768","0","1","0","5ed63a6d50ece703aa7bffb9","","null","","","learningBlock1","","","","<div style=""font-size:60px;""> </div>","null","FL","learning/Slide62.JPG","That was a dep.","","",""
"image-keyboard-response","192","333338","0.0-5.0-0.62","FL","cpd84kvzmq","1366","768","0","1","0","5ed63a6d50ece703aa7bffb9","","null","","","","","","","learning/Slide63.JPG","null","","","","","",""
"html-keyboard-response","193","334500","0.0-5.0-1.62","FL","cpd84kvzmq","1366","768","0","1","0","5ed63a6d50ece703aa7bffb9","","null","","","learningBlock1","","","","That was a bim.","null","","","","","",""
"html-keyboard-response","194","335506","0.0-5.0-2.62","FL","cpd84kvzmq","1366","768","0","1","0","5ed63a6d50ece703aa7bffb9","","null","","","learningBlock1","","","","<div style=""font-size:60px;""> </div>","null","FL","learning/Slide63.JPG","That was a bim.","","",""
"image-keyboard-response","195","335686","0.0-5.0-0.63","FL","cpd84kvzmq","1366","768","0","1","0","5ed63a6d50ece703aa7bffb9","","null","","","","","","","learning/Slide64.JPG","null","","","","","",""
"html-keyboard-response","196","336843","0.0-5.0-1.63","FL","cpd84kvzmq","1366","768","0","1","0","5ed63a6d50ece703aa7bffb9","","null","","","learningBlock1","","","","That was a tob.","null","","","","","",""
"html-keyboard-response","197","337848","0.0-5.0-2.63","FL","cpd84kvzmq","1366","768","0","1","0","5ed63a6d50ece703aa7bffb9","","null","","","learningBlock1","","","","<div style=""font-size:60px;""> </div>","null","FL","learning/Slide64.JPG","That was a tob.","","",""
"image-keyboard-response","198","338027","0.0-5.0-0.64","FL","cpd84kvzmq","1366","768","0","1","0","5ed63a6d50ece703aa7bffb9","","null","","","","","","","learning/Slide65.JPG","null","","","","","",""
"html-keyboard-response","199","339186","0.0-5.0-1.64","FL","cpd84kvzmq","1366","768","0","1","0","5ed63a6d50ece703aa7bffb9","","null","","","learningBlock1","","","","That was a wug.","null","","","","","",""
"html-keyboard-response","200","340190","0.0-5.0-2.64","FL","cpd84kvzmq","1366","768","0","1","0","5ed63a6d50ece703aa7bffb9","","null","","","learningBlock1","","","","<div style=""font-size:60px;""> </div>","null","FL","learning/Slide65.JPG","That was a wug.","","",""
"image-keyboard-response","201","340370","0.0-5.0-0.65","FL","cpd84kvzmq","1366","768","0","1","0","5ed63a6d50ece703aa7bffb9","","null","","","","","","","learning/Slide66.JPG","null","","","","","",""
"html-keyboard-response","202","341528","0.0-5.0-1.65","FL","cpd84kvzmq","1366","768","0","1","0","5ed63a6d50ece703aa7bffb9","","null","","","learningBlock1","","","","That was a dep.","null","","","","","",""
"html-keyboard-response","203","342532","0.0-5.0-2.65","FL","cpd84kvzmq","1366","768","0","1","0","5ed63a6d50ece703aa7bffb9","","null","","","learningBlock1","","","","<div style=""font-size:60px;""> </div>","null","FL","learning/Slide66.JPG","That was a dep.","","",""
"image-keyboard-response","204","342712","0.0-5.0-0.66","FL","cpd84kvzmq","1366","768","0","1","0","5ed63a6d50ece703aa7bffb9","","null","","","","","","","learning/Slide67.JPG","null","","","","","",""
"html-keyboard-response","205","343870","0.0-5.0-1.66","FL","cpd84kvzmq","1366","768","0","1","0","5ed63a6d50ece703aa7bffb9","","null","","","learningBlock1","","","","That was a tob.","null","","","","","",""
"html-keyboard-response","206","344876","0.0-5.0-2.66","FL","cpd84kvzmq","1366","768","0","1","0","5ed63a6d50ece703aa7bffb9","","null","","","learningBlock1","","","","<div style=""font-size:60px;""> </div>","null","FL","learning/Slide67.JPG","That was a tob.","","",""
"image-keyboard-response","207","345056","0.0-5.0-0.67","FL","cpd84kvzmq","1366","768","0","1","0","5ed63a6d50ece703aa7bffb9","","null","","","","","","","learning/Slide68.JPG","null","","","","","",""
"html-keyboard-response","208","346213","0.0-5.0-1.67","FL","cpd84kvzmq","1366","768","0","1","0","5ed63a6d50ece703aa7bffb9","","null","","","learningBlock1","","","","That was a wug.","null","","","","","",""
"html-keyboard-response","209","347216","0.0-5.0-2.67","FL","cpd84kvzmq","1366","768","0","1","0","5ed63a6d50ece703aa7bffb9","","null","","","learningBlock1","","","","<div style=""font-size:60px;""> </div>","null","FL","learning/Slide68.JPG","That was a wug.","","",""
"image-keyboard-response","210","347397","0.0-5.0-0.68","FL","cpd84kvzmq","1366","768","0","1","0","5ed63a6d50ece703aa7bffb9","","null","","","","","","","learning/Slide69.JPG","null","","","","","",""
"html-keyboard-response","211","348555","0.0-5.0-1.68","FL","cpd84kvzmq","1366","768","0","1","0","5ed63a6d50ece703aa7bffb9","","null","","","learningBlock1","","","","That was a tob.","null","","","","","",""
"html-keyboard-response","212","349561","0.0-5.0-2.68","FL","cpd84kvzmq","1366","768","0","1","0","5ed63a6d50ece703aa7bffb9","","null","","","learningBlock1","","","","<div style=""font-size:60px;""> </div>","null","FL","learning/Slide69.JPG","That was a tob.","","",""
"image-keyboard-response","213","349740","0.0-5.0-0.69","FL","cpd84kvzmq","1366","768","0","1","0","5ed63a6d50ece703aa7bffb9","","null","","","","","","","learning/Slide70.JPG","null","","","","","",""
"html-keyboard-response","214","350897","0.0-5.0-1.69","FL","cpd84kvzmq","1366","768","0","1","0","5ed63a6d50ece703aa7bffb9","","null","","","learningBlock1","","","","That was a dep.","null","","","","","",""
"html-keyboard-response","215","351902","0.0-5.0-2.69","FL","cpd84kvzmq","1366","768","0","1","0","5ed63a6d50ece703aa7bffb9","","null","","","learningBlock1","","","","<div style=""font-size:60px;""> </div>","null","FL","learning/Slide70.JPG","That was a dep.","","",""
"image-keyboard-response","216","352083","0.0-5.0-0.70","FL","cpd84kvzmq","1366","768","0","1","0","5ed63a6d50ece703aa7bffb9","","null","","","","","","","learning/Slide71.JPG","null","","","","","",""
"html-keyboard-response","217","353242","0.0-5.0-1.70","FL","cpd84kvzmq","1366","768","0","1","0","5ed63a6d50ece703aa7bffb9","","null","","","learningBlock1","","","","That was a wug.","null","","","","","",""
"html-keyboard-response","218","354245","0.0-5.0-2.70","FL","cpd84kvzmq","1366","768","0","1","0","5ed63a6d50ece703aa7bffb9","","null","","","learningBlock1","","","","<div style=""font-size:60px;""> </div>","null","FL","learning/Slide71.JPG","That was a wug.","","",""
"image-keyboard-response","219","354423","0.0-5.0-0.71","FL","cpd84kvzmq","1366","768","0","1","0","5ed63a6d50ece703aa7bffb9","","null","","","","","","","learning/Slide72.JPG","null","","","","","",""
"html-keyboard-response","220","355584","0.0-5.0-1.71","FL","cpd84kvzmq","1366","768","0","1","0","5ed63a6d50ece703aa7bffb9","","null","","","learningBlock1","","","","That was a bim.","null","","","","","",""
"html-keyboard-response","221","356589","0.0-5.0-2.71","FL","cpd84kvzmq","1366","768","0","1","0","5ed63a6d50ece703aa7bffb9","","null","","","learningBlock1","","","","<div style=""font-size:60px;""> </div>","null","FL","learning/Slide72.JPG","That was a bim.","","",""
"image-keyboard-response","222","356771","0.0-5.0-0.72","FL","cpd84kvzmq","1366","768","0","1","0","5ed63a6d50ece703aa7bffb9","","null","","","","","","","learning/Slide73.JPG","null","","","","","",""
"html-keyboard-response","223","357932","0.0-5.0-1.72","FL","cpd84kvzmq","1366","768","0","1","0","5ed63a6d50ece703aa7bffb9","","null","","","learningBlock1","","","","That was a wug.","null","","","","","",""
"html-keyboard-response","224","358937","0.0-5.0-2.72","FL","cpd84kvzmq","1366","768","0","1","0","5ed63a6d50ece703aa7bffb9","","null","","","learningBlock1","","","","<div style=""font-size:60px;""> </div>","null","FL","learning/Slide73.JPG","That was a wug.","","",""
"image-keyboard-response","225","359118","0.0-5.0-0.73","FL","cpd84kvzmq","1366","768","0","1","0","5ed63a6d50ece703aa7bffb9","","null","","","","","","","learning/Slide74.JPG","null","","","","","",""
"html-keyboard-response","226","360274","0.0-5.0-1.73","FL","cpd84kvzmq","1366","768","0","1","0","5ed63a6d50ece703aa7bffb9","","null","","","learningBlock1","","","","That was a dep.","null","","","","","",""
"html-keyboard-response","227","361280","0.0-5.0-2.73","FL","cpd84kvzmq","1366","768","0","1","0","5ed63a6d50ece703aa7bffb9","","null","","","learningBlock1","","","","<div style=""font-size:60px;""> </div>","null","FL","learning/Slide74.JPG","That was a dep.","","",""
"image-keyboard-response","228","361459","0.0-5.0-0.74","FL","cpd84kvzmq","1366","768","0","1","0","5ed63a6d50ece703aa7bffb9","","null","","","","","","","learning/Slide75.JPG","null","","","","","",""
"html-keyboard-response","229","362619","0.0-5.0-1.74","FL","cpd84kvzmq","1366","768","0","1","0","5ed63a6d50ece703aa7bffb9","","null","","","learningBlock1","","","","That was a tob.","null","","","","","",""
"html-keyboard-response","230","363624","0.0-5.0-2.74","FL","cpd84kvzmq","1366","768","0","1","0","5ed63a6d50ece703aa7bffb9","","null","","","learningBlock1","","","","<div style=""font-size:60px;""> </div>","null","FL","learning/Slide75.JPG","That was a tob.","","",""
"image-keyboard-response","231","363802","0.0-5.0-0.75","FL","cpd84kvzmq","1366","768","0","1","0","5ed63a6d50ece703aa7bffb9","","null","","","","","","","learning/Slide76.JPG","null","","","","","",""
"html-keyboard-response","232","364960","0.0-5.0-1.75","FL","cpd84kvzmq","1366","768","0","1","0","5ed63a6d50ece703aa7bffb9","","null","","","learningBlock1","","","","That was a bim.","null","","","","","",""
"html-keyboard-response","233","365965","0.0-5.0-2.75","FL","cpd84kvzmq","1366","768","0","1","0","5ed63a6d50ece703aa7bffb9","","null","","","learningBlock1","","","","<div style=""font-size:60px;""> </div>","null","FL","learning/Slide76.JPG","That was a bim.","","",""
"image-keyboard-response","234","366147","0.0-5.0-0.76","FL","cpd84kvzmq","1366","768","0","1","0","5ed63a6d50ece703aa7bffb9","","null","","","","","","","learning/Slide77.JPG","null","","","","","",""
"html-keyboard-response","235","367305","0.0-5.0-1.76","FL","cpd84kvzmq","1366","768","0","1","0","5ed63a6d50ece703aa7bffb9","","null","","","learningBlock1","","","","That was a tob.","null","","","","","",""
"html-keyboard-response","236","368309","0.0-5.0-2.76","FL","cpd84kvzmq","1366","768","0","1","0","5ed63a6d50ece703aa7bffb9","","null","","","learningBlock1","","","","<div style=""font-size:60px;""> </div>","null","FL","learning/Slide77.JPG","That was a tob.","","",""
"image-keyboard-response","237","368488","0.0-5.0-0.77","FL","cpd84kvzmq","1366","768","0","1","0","5ed63a6d50ece703aa7bffb9","","null","","","","","","","learning/Slide78.JPG","null","","","","","",""
"html-keyboard-response","238","369646","0.0-5.0-1.77","FL","cpd84kvzmq","1366","768","0","1","0","5ed63a6d50ece703aa7bffb9","","null","","","learningBlock1","","","","That was a wug.","null","","","","","",""
"html-keyboard-response","239","370649","0.0-5.0-2.77","FL","cpd84kvzmq","1366","768","0","1","0","5ed63a6d50ece703aa7bffb9","","null","","","learningBlock1","","","","<div style=""font-size:60px;""> </div>","null","FL","learning/Slide78.JPG","That was a wug.","","",""
"image-keyboard-response","240","370827","0.0-5.0-0.78","FL","cpd84kvzmq","1366","768","0","1","0","5ed63a6d50ece703aa7bffb9","","null","","","","","","","learning/Slide79.JPG","null","","","","","",""
"html-keyboard-response","241","371985","0.0-5.0-1.78","FL","cpd84kvzmq","1366","768","0","1","0","5ed63a6d50ece703aa7bffb9","","null","","","learningBlock1","","","","That was a bim.","null","","","","","",""
"html-keyboard-response","242","372987","0.0-5.0-2.78","FL","cpd84kvzmq","1366","768","0","1","0","5ed63a6d50ece703aa7bffb9","","null","","","learningBlock1","","","","<div style=""font-size:60px;""> </div>","null","FL","learning/Slide79.JPG","That was a bim.","","",""
"image-keyboard-response","243","373169","0.0-5.0-0.79","FL","cpd84kvzmq","1366","768","0","1","0","5ed63a6d50ece703aa7bffb9","","null","","","","","","","learning/Slide80.JPG","null","","","","","",""
"html-keyboard-response","244","374327","0.0-5.0-1.79","FL","cpd84kvzmq","1366","768","0","1","0","5ed63a6d50ece703aa7bffb9","","null","","","learningBlock1","","","","That was a tob.","null","","","","","",""
"html-keyboard-response","245","375330","0.0-5.0-2.79","FL","cpd84kvzmq","1366","768","0","1","0","5ed63a6d50ece703aa7bffb9","","null","","","learningBlock1","","","","<div style=""font-size:60px;""> </div>","null","FL","learning/Slide80.JPG","That was a tob.","","",""
"instructions","246","418059","0.0-6.0","FL","cpd84kvzmq","1366","768","0","1","0","5ed63a6d50ece703aa7bffb9","","NA","","[{""page_index"":0,""viewing_time"":42727.845000103116}]","instructions","","","","","","","","","","",""
"image-keyboard-response","247","418238","0.0-7.0-0.0","FL","cpd84kvzmq","1366","768","0","1","0","5ed63a6d50ece703aa7bffb9","","null","","","","","","","learning/Slide81.JPG","null","","","","","",""
"html-keyboard-response","248","419395","0.0-7.0-1.0","FL","cpd84kvzmq","1366","768","0","1","0","5ed63a6d50ece703aa7bffb9","","null","","","learningBlock2","","","","That was a wug.","null","","","","","",""
"html-keyboard-response","249","420399","0.0-7.0-2.0","FL","cpd84kvzmq","1366","768","0","1","0","5ed63a6d50ece703aa7bffb9","","null","","","learningBlock2","","","","<div style=""font-size:60px;""> </div>","null","FL","learning/Slide81.JPG","That was a wug.","","",""
"image-keyboard-response","250","420577","0.0-7.0-0.1","FL","cpd84kvzmq","1366","768","0","1","0","5ed63a6d50ece703aa7bffb9","","null","","","","","","","learning/Slide82.JPG","null","","","","","",""
"html-keyboard-response","251","421734","0.0-7.0-1.1","FL","cpd84kvzmq","1366","768","0","1","0","5ed63a6d50ece703aa7bffb9","","null","","","learningBlock2","","","","That was a bim.","null","","","","","",""
"html-keyboard-response","252","422739","0.0-7.0-2.1","FL","cpd84kvzmq","1366","768","0","1","0","5ed63a6d50ece703aa7bffb9","","null","","","learningBlock2","","","","<div style=""font-size:60px;""> </div>","null","FL","learning/Slide82.JPG","That was a bim.","","",""
"image-keyboard-response","253","422920","0.0-7.0-0.2","FL","cpd84kvzmq","1366","768","0","1","0","5ed63a6d50ece703aa7bffb9","","null","","","","","","","learning/Slide83.JPG","null","","","","","",""
"html-keyboard-response","254","424081","0.0-7.0-1.2","FL","cpd84kvzmq","1366","768","0","1","0","5ed63a6d50ece703aa7bffb9","","null","","","learningBlock2","","","","That was a wug.","null","","","","","",""
"html-keyboard-response","255","425086","0.0-7.0-2.2","FL","cpd84kvzmq","1366","768","0","1","0","5ed63a6d50ece703aa7bffb9","","null","","","learningBlock2","","","","<div style=""font-size:60px;""> </div>","null","FL","learning/Slide83.JPG","That was a wug.","","",""
"image-keyboard-response","256","425265","0.0-7.0-0.3","FL","cpd84kvzmq","1366","768","0","1","0","5ed63a6d50ece703aa7bffb9","","null","","","","","","","learning/Slide84.JPG","null","","","","","",""
"html-keyboard-response","257","426423","0.0-7.0-1.3","FL","cpd84kvzmq","1366","768","0","1","0","5ed63a6d50ece703aa7bffb9","","null","","","learningBlock2","","","","That was a dep.","null","","","","","",""
"html-keyboard-response","258","427430","0.0-7.0-2.3","FL","cpd84kvzmq","1366","768","0","1","0","5ed63a6d50ece703aa7bffb9","","null","","","learningBlock2","","","","<div style=""font-size:60px;""> </div>","null","FL","learning/Slide84.JPG","That was a dep.","","",""
"image-keyboard-response","259","427611","0.0-7.0-0.4","FL","cpd84kvzmq","1366","768","0","1","0","5ed63a6d50ece703aa7bffb9","","null","","","","","","","learning/Slide85.JPG","null","","","","","",""
"html-keyboard-response","260","428771","0.0-7.0-1.4","FL","cpd84kvzmq","1366","768","0","1","0","5ed63a6d50ece703aa7bffb9","","null","","","learningBlock2","","","","That was a bim.","null","","","","","",""
"html-keyboard-response","261","429777","0.0-7.0-2.4","FL","cpd84kvzmq","1366","768","0","1","0","5ed63a6d50ece703aa7bffb9","","null","","","learningBlock2","","","","<div style=""font-size:60px;""> </div>","null","FL","learning/Slide85.JPG","That was a bim.","","",""
"image-keyboard-response","262","429956","0.0-7.0-0.5","FL","cpd84kvzmq","1366","768","0","1","0","5ed63a6d50ece703aa7bffb9","","null","","","","","","","learning/Slide86.JPG","null","","","","","",""
"html-keyboard-response","263","431114","0.0-7.0-1.5","FL","cpd84kvzmq","1366","768","0","1","0","5ed63a6d50ece703aa7bffb9","","null","","","learningBlock2","","","","That was a tob.","null","","","","","",""
"html-keyboard-response","264","432120","0.0-7.0-2.5","FL","cpd84kvzmq","1366","768","0","1","0","5ed63a6d50ece703aa7bffb9","","null","","","learningBlock2","","","","<div style=""font-size:60px;""> </div>","null","FL","learning/Slide86.JPG","That was a tob.","","",""
"image-keyboard-response","265","432300","0.0-7.0-0.6","FL","cpd84kvzmq","1366","768","0","1","0","5ed63a6d50ece703aa7bffb9","","null","","","","","","","learning/Slide87.JPG","null","","","","","",""
"html-keyboard-response","266","433457","0.0-7.0-1.6","FL","cpd84kvzmq","1366","768","0","1","0","5ed63a6d50ece703aa7bffb9","","null","","","learningBlock2","","","","That was a wug.","null","","","","","",""
"html-keyboard-response","267","434463","0.0-7.0-2.6","FL","cpd84kvzmq","1366","768","0","1","0","5ed63a6d50ece703aa7bffb9","","null","","","learningBlock2","","","","<div style=""font-size:60px;""> </div>","null","FL","learning/Slide87.JPG","That was a wug.","","",""
"image-keyboard-response","268","434641","0.0-7.0-0.7","FL","cpd84kvzmq","1366","768","0","1","0","5ed63a6d50ece703aa7bffb9","","null","","","","","","","learning/Slide88.JPG","null","","","","","",""
"html-keyboard-response","269","435800","0.0-7.0-1.7","FL","cpd84kvzmq","1366","768","0","1","0","5ed63a6d50ece703aa7bffb9","","null","","","learningBlock2","","","","That was a tob.","null","","","","","",""
"html-keyboard-response","270","436805","0.0-7.0-2.7","FL","cpd84kvzmq","1366","768","0","1","0","5ed63a6d50ece703aa7bffb9","","null","","","learningBlock2","","","","<div style=""font-size:60px;""> </div>","null","FL","learning/Slide88.JPG","That was a tob.","","",""
"image-keyboard-response","271","436985","0.0-7.0-0.8","FL","cpd84kvzmq","1366","768","0","1","0","5ed63a6d50ece703aa7bffb9","","null","","","","","","","learning/Slide89.JPG","null","","","","","",""
"html-keyboard-response","272","438143","0.0-7.0-1.8","FL","cpd84kvzmq","1366","768","0","1","0","5ed63a6d50ece703aa7bffb9","","null","","","learningBlock2","","","","That was a bim.","null","","","","","",""
"html-keyboard-response","273","439147","0.0-7.0-2.8","FL","cpd84kvzmq","1366","768","0","1","0","5ed63a6d50ece703aa7bffb9","","null","","","learningBlock2","","","","<div style=""font-size:60px;""> </div>","null","FL","learning/Slide89.JPG","That was a bim.","","",""
"image-keyboard-response","274","439325","0.0-7.0-0.9","FL","cpd84kvzmq","1366","768","0","1","0","5ed63a6d50ece703aa7bffb9","","null","","","","","","","learning/Slide90.JPG","null","","","","","",""
"html-keyboard-response","275","440486","0.0-7.0-1.9","FL","cpd84kvzmq","1366","768","0","1","0","5ed63a6d50ece703aa7bffb9","","null","","","learningBlock2","","","","That was a dep.","null","","","","","",""
"html-keyboard-response","276","441488","0.0-7.0-2.9","FL","cpd84kvzmq","1366","768","0","1","0","5ed63a6d50ece703aa7bffb9","","null","","","learningBlock2","","","","<div style=""font-size:60px;""> </div>","null","FL","learning/Slide90.JPG","That was a dep.","","",""
"image-keyboard-response","277","441669","0.0-7.0-0.10","FL","cpd84kvzmq","1366","768","0","1","0","5ed63a6d50ece703aa7bffb9","","null","","","","","","","learning/Slide91.JPG","null","","","","","",""
"html-keyboard-response","278","442828","0.0-7.0-1.10","FL","cpd84kvzmq","1366","768","0","1","0","5ed63a6d50ece703aa7bffb9","","null","","","learningBlock2","","","","That was a wug.","null","","","","","",""
"html-keyboard-response","279","443830","0.0-7.0-2.10","FL","cpd84kvzmq","1366","768","0","1","0","5ed63a6d50ece703aa7bffb9","","null","","","learningBlock2","","","","<div style=""font-size:60px;""> </div>","null","FL","learning/Slide91.JPG","That was a wug.","","",""
"image-keyboard-response","280","444009","0.0-7.0-0.11","FL","cpd84kvzmq","1366","768","0","1","0","5ed63a6d50ece703aa7bffb9","","null","","","","","","","learning/Slide92.JPG","null","","","","","",""
"html-keyboard-response","281","445167","0.0-7.0-1.11","FL","cpd84kvzmq","1366","768","0","1","0","5ed63a6d50ece703aa7bffb9","","null","","","learningBlock2","","","","That was a tob.","null","","","","","",""
"html-keyboard-response","282","446171","0.0-7.0-2.11","FL","cpd84kvzmq","1366","768","0","1","0","5ed63a6d50ece703aa7bffb9","","null","","","learningBlock2","","","","<div style=""font-size:60px;""> </div>","null","FL","learning/Slide92.JPG","That was a tob.","","",""
"image-keyboard-response","283","446351","0.0-7.0-0.12","FL","cpd84kvzmq","1366","768","0","1","0","5ed63a6d50ece703aa7bffb9","","null","","","","","","","learning/Slide93.JPG","null","","","","","",""
"html-keyboard-response","284","447507","0.0-7.0-1.12","FL","cpd84kvzmq","1366","768","0","1","0","5ed63a6d50ece703aa7bffb9","","null","","","learningBlock2","","","","That was a bim.","null","","","","","",""
"html-keyboard-response","285","448510","0.0-7.0-2.12","FL","cpd84kvzmq","1366","768","0","1","0","5ed63a6d50ece703aa7bffb9","","null","","","learningBlock2","","","","<div style=""font-size:60px;""> </div>","null","FL","learning/Slide93.JPG","That was a bim.","","",""
"image-keyboard-response","286","448692","0.0-7.0-0.13","FL","cpd84kvzmq","1366","768","0","1","0","5ed63a6d50ece703aa7bffb9","","null","","","","","","","learning/Slide94.JPG","null","","","","","",""
"html-keyboard-response","287","449850","0.0-7.0-1.13","FL","cpd84kvzmq","1366","768","0","1","0","5ed63a6d50ece703aa7bffb9","","null","","","learningBlock2","","","","That was a tob.","null","","","","","",""
"html-keyboard-response","288","450856","0.0-7.0-2.13","FL","cpd84kvzmq","1366","768","0","1","0","5ed63a6d50ece703aa7bffb9","","null","","","learningBlock2","","","","<div style=""font-size:60px;""> </div>","null","FL","learning/Slide94.JPG","That was a tob.","","",""
"image-keyboard-response","289","451034","0.0-7.0-0.14","FL","cpd84kvzmq","1366","768","0","1","0","5ed63a6d50ece703aa7bffb9","","null","","","","","","","learning/Slide95.JPG","null","","","","","",""
"html-keyboard-response","290","452193","0.0-7.0-1.14","FL","cpd84kvzmq","1366","768","0","1","0","5ed63a6d50ece703aa7bffb9","","null","","","learningBlock2","","","","That was a wug.","null","","","","","",""
"html-keyboard-response","291","453198","0.0-7.0-2.14","FL","cpd84kvzmq","1366","768","0","1","0","5ed63a6d50ece703aa7bffb9","","null","","","learningBlock2","","","","<div style=""font-size:60px;""> </div>","null","FL","learning/Slide95.JPG","That was a wug.","","",""
"image-keyboard-response","292","453379","0.0-7.0-0.15","FL","cpd84kvzmq","1366","768","0","1","0","5ed63a6d50ece703aa7bffb9","","null","","","","","","","learning/Slide96.JPG","null","","","","","",""
"html-keyboard-response","293","454542","0.0-7.0-1.15","FL","cpd84kvzmq","1366","768","0","1","0","5ed63a6d50ece703aa7bffb9","","null","","","learningBlock2","","","","That was a tob.","null","","","","","",""
"html-keyboard-response","294","455547","0.0-7.0-2.15","FL","cpd84kvzmq","1366","768","0","1","0","5ed63a6d50ece703aa7bffb9","","null","","","learningBlock2","","","","<div style=""font-size:60px;""> </div>","null","FL","learning/Slide96.JPG","That was a tob.","","",""
"image-keyboard-response","295","455727","0.0-7.0-0.16","FL","cpd84kvzmq","1366","768","0","1","0","5ed63a6d50ece703aa7bffb9","","null","","","","","","","learning/Slide97.JPG","null","","","","","",""
"html-keyboard-response","296","456881","0.0-7.0-1.16","FL","cpd84kvzmq","1366","768","0","1","0","5ed63a6d50ece703aa7bffb9","","null","","","learningBlock2","","","","That was a dep.","null","","","","","",""
"html-keyboard-response","297","457885","0.0-7.0-2.16","FL","cpd84kvzmq","1366","768","0","1","0","5ed63a6d50ece703aa7bffb9","","null","","","learningBlock2","","","","<div style=""font-size:60px;""> </div>","null","FL","learning/Slide97.JPG","That was a dep.","","",""
"image-keyboard-response","298","458063","0.0-7.0-0.17","FL","cpd84kvzmq","1366","768","0","1","0","5ed63a6d50ece703aa7bffb9","","null","","","","","","","learning/Slide98.JPG","null","","","","","",""
"html-keyboard-response","299","459222","0.0-7.0-1.17","FL","cpd84kvzmq","1366","768","0","1","0","5ed63a6d50ece703aa7bffb9","","null","","","learningBlock2","","","","That was a bim.","null","","","","","",""
"html-keyboard-response","300","460226","0.0-7.0-2.17","FL","cpd84kvzmq","1366","768","0","1","0","5ed63a6d50ece703aa7bffb9","","null","","","learningBlock2","","","","<div style=""font-size:60px;""> </div>","null","FL","learning/Slide98.JPG","That was a bim.","","",""
"image-keyboard-response","301","460407","0.0-7.0-0.18","FL","cpd84kvzmq","1366","768","0","1","0","5ed63a6d50ece703aa7bffb9","","null","","","","","","","learning/Slide99.JPG","null","","","","","",""
"html-keyboard-response","302","461562","0.0-7.0-1.18","FL","cpd84kvzmq","1366","768","0","1","0","5ed63a6d50ece703aa7bffb9","","null","","","learningBlock2","","","","That was a dep.","null","","","","","",""
"html-keyboard-response","303","462566","0.0-7.0-2.18","FL","cpd84kvzmq","1366","768","0","1","0","5ed63a6d50ece703aa7bffb9","","null","","","learningBlock2","","","","<div style=""font-size:60px;""> </div>","null","FL","learning/Slide99.JPG","That was a dep.","","",""
"image-keyboard-response","304","462747","0.0-7.0-0.19","FL","cpd84kvzmq","1366","768","0","1","0","5ed63a6d50ece703aa7bffb9","","null","","","","","","","learning/Slide100.JPG","null","","","","","",""
"html-keyboard-response","305","463906","0.0-7.0-1.19","FL","cpd84kvzmq","1366","768","0","1","0","5ed63a6d50ece703aa7bffb9","","null","","","learningBlock2","","","","That was a bim.","null","","","","","",""
"html-keyboard-response","306","464911","0.0-7.0-2.19","FL","cpd84kvzmq","1366","768","0","1","0","5ed63a6d50ece703aa7bffb9","","null","","","learningBlock2","","","","<div style=""font-size:60px;""> </div>","null","FL","learning/Slide100.JPG","That was a bim.","","",""
"image-keyboard-response","307","465090","0.0-7.0-0.20","FL","cpd84kvzmq","1366","768","0","1","0","5ed63a6d50ece703aa7bffb9","","null","","","","","","","learning/Slide101.JPG","null","","","","","",""
"html-keyboard-response","308","466250","0.0-7.0-1.20","FL","cpd84kvzmq","1366","768","0","1","0","5ed63a6d50ece703aa7bffb9","","null","","","learningBlock2","","","","That was a tob.","null","","","","","",""
"html-keyboard-response","309","467254","0.0-7.0-2.20","FL","cpd84kvzmq","1366","768","0","1","0","5ed63a6d50ece703aa7bffb9","","null","","","learningBlock2","","","","<div style=""font-size:60px;""> </div>","null","FL","learning/Slide101.JPG","That was a tob.","","",""
"image-keyboard-response","310","467436","0.0-7.0-0.21","FL","cpd84kvzmq","1366","768","0","1","0","5ed63a6d50ece703aa7bffb9","","null","","","","","","","learning/Slide102.JPG","null","","","","","",""
"html-keyboard-response","311","468598","0.0-7.0-1.21","FL","cpd84kvzmq","1366","768","0","1","0","5ed63a6d50ece703aa7bffb9","","null","","","learningBlock2","","","","That was a bim.","null","","","","","",""
"html-keyboard-response","312","469602","0.0-7.0-2.21","FL","cpd84kvzmq","1366","768","0","1","0","5ed63a6d50ece703aa7bffb9","","null","","","learningBlock2","","","","<div style=""font-size:60px;""> </div>","null","FL","learning/Slide102.JPG","That was a bim.","","",""
"image-keyboard-response","313","469781","0.0-7.0-0.22","FL","cpd84kvzmq","1366","768","0","1","0","5ed63a6d50ece703aa7bffb9","","null","","","","","","","learning/Slide103.JPG","null","","","","","",""
"html-keyboard-response","314","470940","0.0-7.0-1.22","FL","cpd84kvzmq","1366","768","0","1","0","5ed63a6d50ece703aa7bffb9","","null","","","learningBlock2","","","","That was a dep.","null","","","","","",""
"html-keyboard-response","315","471945","0.0-7.0-2.22","FL","cpd84kvzmq","1366","768","0","1","0","5ed63a6d50ece703aa7bffb9","","null","","","learningBlock2","","","","<div style=""font-size:60px;""> </div>","null","FL","learning/Slide103.JPG","That was a dep.","","",""
"image-keyboard-response","316","472127","0.0-7.0-0.23","FL","cpd84kvzmq","1366","768","0","1","0","5ed63a6d50ece703aa7bffb9","","null","","","","","","","learning/Slide104.JPG","null","","","","","",""
"html-keyboard-response","317","473287","0.0-7.0-1.23","FL","cpd84kvzmq","1366","768","0","1","0","5ed63a6d50ece703aa7bffb9","","null","","","learningBlock2","","","","That was a tob.","null","","","","","",""
"html-keyboard-response","318","474290","0.0-7.0-2.23","FL","cpd84kvzmq","1366","768","0","1","0","5ed63a6d50ece703aa7bffb9","","null","","","learningBlock2","","","","<div style=""font-size:60px;""> </div>","null","FL","learning/Slide104.JPG","That was a tob.","","",""
"image-keyboard-response","319","474467","0.0-7.0-0.24","FL","cpd84kvzmq","1366","768","0","1","0","5ed63a6d50ece703aa7bffb9","","null","","","","","","","learning/Slide105.JPG","null","","","","","",""
"html-keyboard-response","320","475621","0.0-7.0-1.24","FL","cpd84kvzmq","1366","768","0","1","0","5ed63a6d50ece703aa7bffb9","","null","","","learningBlock2","","","","That was a dep.","null","","","","","",""
"html-keyboard-response","321","476625","0.0-7.0-2.24","FL","cpd84kvzmq","1366","768","0","1","0","5ed63a6d50ece703aa7bffb9","","null","","","learningBlock2","","","","<div style=""font-size:60px;""> </div>","null","FL","learning/Slide105.JPG","That was a dep.","","",""
"image-keyboard-response","322","476804","0.0-7.0-0.25","FL","cpd84kvzmq","1366","768","0","1","0","5ed63a6d50ece703aa7bffb9","","null","","","","","","","learning/Slide106.JPG","null","","","","","",""
"html-keyboard-response","323","477962","0.0-7.0-1.25","FL","cpd84kvzmq","1366","768","0","1","0","5ed63a6d50ece703aa7bffb9","","null","","","learningBlock2","","","","That was a wug.","null","","","","","",""
"html-keyboard-response","324","478968","0.0-7.0-2.25","FL","cpd84kvzmq","1366","768","0","1","0","5ed63a6d50ece703aa7bffb9","","null","","","learningBlock2","","","","<div style=""font-size:60px;""> </div>","null","FL","learning/Slide106.JPG","That was a wug.","","",""
"image-keyboard-response","325","479148","0.0-7.0-0.26","FL","cpd84kvzmq","1366","768","0","1","0","5ed63a6d50ece703aa7bffb9","","null","","","","","","","learning/Slide107.JPG","null","","","","","",""
"html-keyboard-response","326","480306","0.0-7.0-1.26","FL","cpd84kvzmq","1366","768","0","1","0","5ed63a6d50ece703aa7bffb9","","null","","","learningBlock2","","","","That was a bim.","null","","","","","",""
"html-keyboard-response","327","481310","0.0-7.0-2.26","FL","cpd84kvzmq","1366","768","0","1","0","5ed63a6d50ece703aa7bffb9","","null","","","learningBlock2","","","","<div style=""font-size:60px;""> </div>","null","FL","learning/Slide107.JPG","That was a bim.","","",""
"image-keyboard-response","328","481492","0.0-7.0-0.27","FL","cpd84kvzmq","1366","768","0","1","0","5ed63a6d50ece703aa7bffb9","","null","","","","","","","learning/Slide108.JPG","null","","","","","",""
"html-keyboard-response","329","482654","0.0-7.0-1.27","FL","cpd84kvzmq","1366","768","0","1","0","5ed63a6d50ece703aa7bffb9","","null","","","learningBlock2","","","","That was a dep.","null","","","","","",""
"html-keyboard-response","330","483659","0.0-7.0-2.27","FL","cpd84kvzmq","1366","768","0","1","0","5ed63a6d50ece703aa7bffb9","","null","","","learningBlock2","","","","<div style=""font-size:60px;""> </div>","null","FL","learning/Slide108.JPG","That was a dep.","","",""
"image-keyboard-response","331","483840","0.0-7.0-0.28","FL","cpd84kvzmq","1366","768","0","1","0","5ed63a6d50ece703aa7bffb9","","null","","","","","","","learning/Slide109.JPG","null","","","","","",""
"html-keyboard-response","332","484997","0.0-7.0-1.28","FL","cpd84kvzmq","1366","768","0","1","0","5ed63a6d50ece703aa7bffb9","","null","","","learningBlock2","","","","That was a wug.","null","","","","","",""
"html-keyboard-response","333","486003","0.0-7.0-2.28","FL","cpd84kvzmq","1366","768","0","1","0","5ed63a6d50ece703aa7bffb9","","null","","","learningBlock2","","","","<div style=""font-size:60px;""> </div>","null","FL","learning/Slide109.JPG","That was a wug.","","",""
"image-keyboard-response","334","486183","0.0-7.0-0.29","FL","cpd84kvzmq","1366","768","0","1","0","5ed63a6d50ece703aa7bffb9","","null","","","","","","","learning/Slide110.JPG","null","","","","","",""
"html-keyboard-response","335","487339","0.0-7.0-1.29","FL","cpd84kvzmq","1366","768","0","1","0","5ed63a6d50ece703aa7bffb9","","null","","","learningBlock2","","","","That was a bim.","null","","","","","",""
"html-keyboard-response","336","488344","0.0-7.0-2.29","FL","cpd84kvzmq","1366","768","0","1","0","5ed63a6d50ece703aa7bffb9","","null","","","learningBlock2","","","","<div style=""font-size:60px;""> </div>","null","FL","learning/Slide110.JPG","That was a bim.","","",""
"image-keyboard-response","337","488524","0.0-7.0-0.30","FL","cpd84kvzmq","1366","768","0","1","0","5ed63a6d50ece703aa7bffb9","","null","","","","","","","learning/Slide111.JPG","null","","","","","",""
"html-keyboard-response","338","489682","0.0-7.0-1.30","FL","cpd84kvzmq","1366","768","0","1","0","5ed63a6d50ece703aa7bffb9","","null","","","learningBlock2","","","","That was a tob.","null","","","","","",""
"html-keyboard-response","339","490687","0.0-7.0-2.30","FL","cpd84kvzmq","1366","768","0","1","0","5ed63a6d50ece703aa7bffb9","","null","","","learningBlock2","","","","<div style=""font-size:60px;""> </div>","null","FL","learning/Slide111.JPG","That was a tob.","","",""
"image-keyboard-response","340","490868","0.0-7.0-0.31","FL","cpd84kvzmq","1366","768","0","1","0","5ed63a6d50ece703aa7bffb9","","null","","","","","","","learning/Slide112.JPG","null","","","","","",""
"html-keyboard-response","341","492022","0.0-7.0-1.31","FL","cpd84kvzmq","1366","768","0","1","0","5ed63a6d50ece703aa7bffb9","","null","","","learningBlock2","","","","That was a wug.","null","","","","","",""
"html-keyboard-response","342","493028","0.0-7.0-2.31","FL","cpd84kvzmq","1366","768","0","1","0","5ed63a6d50ece703aa7bffb9","","null","","","learningBlock2","","","","<div style=""font-size:60px;""> </div>","null","FL","learning/Slide112.JPG","That was a wug.","","",""
"image-keyboard-response","343","493209","0.0-7.0-0.32","FL","cpd84kvzmq","1366","768","0","1","0","5ed63a6d50ece703aa7bffb9","","null","","","","","","","learning/Slide113.JPG","null","","","","","",""
"html-keyboard-response","344","494367","0.0-7.0-1.32","FL","cpd84kvzmq","1366","768","0","1","0","5ed63a6d50ece703aa7bffb9","","null","","","learningBlock2","","","","That was a tob.","null","","","","","",""
"html-keyboard-response","345","495372","0.0-7.0-2.32","FL","cpd84kvzmq","1366","768","0","1","0","5ed63a6d50ece703aa7bffb9","","null","","","learningBlock2","","","","<div style=""font-size:60px;""> </div>","null","FL","learning/Slide113.JPG","That was a tob.","","",""
"image-keyboard-response","346","495553","0.0-7.0-0.33","FL","cpd84kvzmq","1366","768","0","1","0","5ed63a6d50ece703aa7bffb9","","null","","","","","","","learning/Slide114.JPG","null","","","","","",""
"html-keyboard-response","347","496710","0.0-7.0-1.33","FL","cpd84kvzmq","1366","768","0","1","0","5ed63a6d50ece703aa7bffb9","","null","","","learningBlock2","","","","That was a wug.","null","","","","","",""
"html-keyboard-response","348","497714","0.0-7.0-2.33","FL","cpd84kvzmq","1366","768","0","1","0","5ed63a6d50ece703aa7bffb9","","null","","","learningBlock2","","","","<div style=""font-size:60px;""> </div>","null","FL","learning/Slide114.JPG","That was a wug.","","",""
"image-keyboard-response","349","497892","0.0-7.0-0.34","FL","cpd84kvzmq","1366","768","0","1","0","5ed63a6d50ece703aa7bffb9","","null","","","","","","","learning/Slide115.JPG","null","","","","","",""
"html-keyboard-response","350","499053","0.0-7.0-1.34","FL","cpd84kvzmq","1366","768","0","1","0","5ed63a6d50ece703aa7bffb9","","null","","","learningBlock2","","","","That was a bim.","null","","","","","",""
"html-keyboard-response","351","500058","0.0-7.0-2.34","FL","cpd84kvzmq","1366","768","0","1","0","5ed63a6d50ece703aa7bffb9","","null","","","learningBlock2","","","","<div style=""font-size:60px;""> </div>","null","FL","learning/Slide115.JPG","That was a bim.","","",""
"image-keyboard-response","352","500238","0.0-7.0-0.35","FL","cpd84kvzmq","1366","768","0","1","0","5ed63a6d50ece703aa7bffb9","","null","","","","","","","learning/Slide116.JPG","null","","","","","",""
"html-keyboard-response","353","501392","0.0-7.0-1.35","FL","cpd84kvzmq","1366","768","0","1","0","5ed63a6d50ece703aa7bffb9","","null","","","learningBlock2","","","","That was a dep.","null","","","","","",""
"html-keyboard-response","354","502394","0.0-7.0-2.35","FL","cpd84kvzmq","1366","768","0","1","0","5ed63a6d50ece703aa7bffb9","","null","","","learningBlock2","","","","<div style=""font-size:60px;""> </div>","null","FL","learning/Slide116.JPG","That was a dep.","","",""
"image-keyboard-response","355","502571","0.0-7.0-0.36","FL","cpd84kvzmq","1366","768","0","1","0","5ed63a6d50ece703aa7bffb9","","null","","","","","","","learning/Slide117.JPG","null","","","","","",""
"html-keyboard-response","356","503732","0.0-7.0-1.36","FL","cpd84kvzmq","1366","768","0","1","0","5ed63a6d50ece703aa7bffb9","","null","","","learningBlock2","","","","That was a tob.","null","","","","","",""
"html-keyboard-response","357","504735","0.0-7.0-2.36","FL","cpd84kvzmq","1366","768","0","1","0","5ed63a6d50ece703aa7bffb9","","null","","","learningBlock2","","","","<div style=""font-size:60px;""> </div>","null","FL","learning/Slide117.JPG","That was a tob.","","",""
"image-keyboard-response","358","504917","0.0-7.0-0.37","FL","cpd84kvzmq","1366","768","0","1","0","5ed63a6d50ece703aa7bffb9","","null","","","","","","","learning/Slide118.JPG","null","","","","","",""
"html-keyboard-response","359","506075","0.0-7.0-1.37","FL","cpd84kvzmq","1366","768","0","1","0","5ed63a6d50ece703aa7bffb9","","null","","","learningBlock2","","","","That was a dep.","null","","","","","",""
"html-keyboard-response","360","507077","0.0-7.0-2.37","FL","cpd84kvzmq","1366","768","0","1","0","5ed63a6d50ece703aa7bffb9","","null","","","learningBlock2","","","","<div style=""font-size:60px;""> </div>","null","FL","learning/Slide118.JPG","That was a dep.","","",""
"image-keyboard-response","361","507256","0.0-7.0-0.38","FL","cpd84kvzmq","1366","768","0","1","0","5ed63a6d50ece703aa7bffb9","","null","","","","","","","learning/Slide119.JPG","null","","","","","",""
"html-keyboard-response","362","508415","0.0-7.0-1.38","FL","cpd84kvzmq","1366","768","0","1","0","5ed63a6d50ece703aa7bffb9","","null","","","learningBlock2","","","","That was a wug.","null","","","","","",""
"html-keyboard-response","363","509418","0.0-7.0-2.38","FL","cpd84kvzmq","1366","768","0","1","0","5ed63a6d50ece703aa7bffb9","","null","","","learningBlock2","","","","<div style=""font-size:60px;""> </div>","null","FL","learning/Slide119.JPG","That was a wug.","","",""
"image-keyboard-response","364","509597","0.0-7.0-0.39","FL","cpd84kvzmq","1366","768","0","1","0","5ed63a6d50ece703aa7bffb9","","null","","","","","","","learning/Slide120.JPG","null","","","","","",""
"html-keyboard-response","365","510751","0.0-7.0-1.39","FL","cpd84kvzmq","1366","768","0","1","0","5ed63a6d50ece703aa7bffb9","","null","","","learningBlock2","","","","That was a dep.","null","","","","","",""
"html-keyboard-response","366","511754","0.0-7.0-2.39","FL","cpd84kvzmq","1366","768","0","1","0","5ed63a6d50ece703aa7bffb9","","null","","","learningBlock2","","","","<div style=""font-size:60px;""> </div>","null","FL","learning/Slide120.JPG","That was a dep.","","",""
"image-keyboard-response","367","511935","0.0-7.0-0.40","FL","cpd84kvzmq","1366","768","0","1","0","5ed63a6d50ece703aa7bffb9","","null","","","","","","","learning/Slide121.JPG","null","","","","","",""
"html-keyboard-response","368","513094","0.0-7.0-1.40","FL","cpd84kvzmq","1366","768","0","1","0","5ed63a6d50ece703aa7bffb9","","null","","","learningBlock2","","","","That was a bim.","null","","","","","",""
"html-keyboard-response","369","514097","0.0-7.0-2.40","FL","cpd84kvzmq","1366","768","0","1","0","5ed63a6d50ece703aa7bffb9","","null","","","learningBlock2","","","","<div style=""font-size:60px;""> </div>","null","FL","learning/Slide121.JPG","That was a bim.","","",""
"image-keyboard-response","370","514276","0.0-7.0-0.41","FL","cpd84kvzmq","1366","768","0","1","0","5ed63a6d50ece703aa7bffb9","","null","","","","","","","learning/Slide122.JPG","null","","","","","",""
"html-keyboard-response","371","515435","0.0-7.0-1.41","FL","cpd84kvzmq","1366","768","0","1","0","5ed63a6d50ece703aa7bffb9","","null","","","learningBlock2","","","","That was a wug.","null","","","","","",""
"html-keyboard-response","372","516438","0.0-7.0-2.41","FL","cpd84kvzmq","1366","768","0","1","0","5ed63a6d50ece703aa7bffb9","","null","","","learningBlock2","","","","<div style=""font-size:60px;""> </div>","null","FL","learning/Slide122.JPG","That was a wug.","","",""
"image-keyboard-response","373","516616","0.0-7.0-0.42","FL","cpd84kvzmq","1366","768","0","1","0","5ed63a6d50ece703aa7bffb9","","null","","","","","","","learning/Slide123.JPG","null","","","","","",""
"html-keyboard-response","374","517777","0.0-7.0-1.42","FL","cpd84kvzmq","1366","768","0","1","0","5ed63a6d50ece703aa7bffb9","","null","","","learningBlock2","","","","That was a bim.","null","","","","","",""
"html-keyboard-response","375","518780","0.0-7.0-2.42","FL","cpd84kvzmq","1366","768","0","1","0","5ed63a6d50ece703aa7bffb9","","null","","","learningBlock2","","","","<div style=""font-size:60px;""> </div>","null","FL","learning/Slide123.JPG","That was a bim.","","",""
"image-keyboard-response","376","518961","0.0-7.0-0.43","FL","cpd84kvzmq","1366","768","0","1","0","5ed63a6d50ece703aa7bffb9","","null","","","","","","","learning/Slide124.JPG","null","","","","","",""
"html-keyboard-response","377","520119","0.0-7.0-1.43","FL","cpd84kvzmq","1366","768","0","1","0","5ed63a6d50ece703aa7bffb9","","null","","","learningBlock2","","","","That was a tob.","null","","","","","",""
"html-keyboard-response","378","521123","0.0-7.0-2.43","FL","cpd84kvzmq","1366","768","0","1","0","5ed63a6d50ece703aa7bffb9","","null","","","learningBlock2","","","","<div style=""font-size:60px;""> </div>","null","FL","learning/Slide124.JPG","That was a tob.","","",""
"image-keyboard-response","379","521304","0.0-7.0-0.44","FL","cpd84kvzmq","1366","768","0","1","0","5ed63a6d50ece703aa7bffb9","","null","","","","","","","learning/Slide125.JPG","null","","","","","",""
"html-keyboard-response","380","522462","0.0-7.0-1.44","FL","cpd84kvzmq","1366","768","0","1","0","5ed63a6d50ece703aa7bffb9","","null","","","learningBlock2","","","","That was a bim.","null","","","","","",""
"html-keyboard-response","381","523468","0.0-7.0-2.44","FL","cpd84kvzmq","1366","768","0","1","0","5ed63a6d50ece703aa7bffb9","","null","","","learningBlock2","","","","<div style=""font-size:60px;""> </div>","null","FL","learning/Slide125.JPG","That was a bim.","","",""
"image-keyboard-response","382","523649","0.0-7.0-0.45","FL","cpd84kvzmq","1366","768","0","1","0","5ed63a6d50ece703aa7bffb9","","null","","","","","","","learning/Slide126.JPG","null","","","","","",""
"html-keyboard-response","383","524805","0.0-7.0-1.45","FL","cpd84kvzmq","1366","768","0","1","0","5ed63a6d50ece703aa7bffb9","","null","","","learningBlock2","","","","That was a tob.","null","","","","","",""
"html-keyboard-response","384","525810","0.0-7.0-2.45","FL","cpd84kvzmq","1366","768","0","1","0","5ed63a6d50ece703aa7bffb9","","null","","","learningBlock2","","","","<div style=""font-size:60px;""> </div>","null","FL","learning/Slide126.JPG","That was a tob.","","",""
"image-keyboard-response","385","525992","0.0-7.0-0.46","FL","cpd84kvzmq","1366","768","0","1","0","5ed63a6d50ece703aa7bffb9","","null","","","","","","","learning/Slide127.JPG","null","","","","","",""
"html-keyboard-response","386","527150","0.0-7.0-1.46","FL","cpd84kvzmq","1366","768","0","1","0","5ed63a6d50ece703aa7bffb9","","null","","","learningBlock2","","","","That was a dep.","null","","","","","",""
"html-keyboard-response","387","528156","0.0-7.0-2.46","FL","cpd84kvzmq","1366","768","0","1","0","5ed63a6d50ece703aa7bffb9","","null","","","learningBlock2","","","","<div style=""font-size:60px;""> </div>","null","FL","learning/Slide127.JPG","That was a dep.","","",""
"image-keyboard-response","388","528338","0.0-7.0-0.47","FL","cpd84kvzmq","1366","768","0","1","0","5ed63a6d50ece703aa7bffb9","","null","","","","","","","learning/Slide128.JPG","null","","","","","",""
"html-keyboard-response","389","529494","0.0-7.0-1.47","FL","cpd84kvzmq","1366","768","0","1","0","5ed63a6d50ece703aa7bffb9","","null","","","learningBlock2","","","","That was a wug.","null","","","","","",""
"html-keyboard-response","390","530498","0.0-7.0-2.47","FL","cpd84kvzmq","1366","768","0","1","0","5ed63a6d50ece703aa7bffb9","","null","","","learningBlock2","","","","<div style=""font-size:60px;""> </div>","null","FL","learning/Slide128.JPG","That was a wug.","","",""
"image-keyboard-response","391","530676","0.0-7.0-0.48","FL","cpd84kvzmq","1366","768","0","1","0","5ed63a6d50ece703aa7bffb9","","null","","","","","","","learning/Slide129.JPG","null","","","","","",""
"html-keyboard-response","392","531835","0.0-7.0-1.48","FL","cpd84kvzmq","1366","768","0","1","0","5ed63a6d50ece703aa7bffb9","","null","","","learningBlock2","","","","That was a tob.","null","","","","","",""
"html-keyboard-response","393","532838","0.0-7.0-2.48","FL","cpd84kvzmq","1366","768","0","1","0","5ed63a6d50ece703aa7bffb9","","null","","","learningBlock2","","","","<div style=""font-size:60px;""> </div>","null","FL","learning/Slide129.JPG","That was a tob.","","",""
"image-keyboard-response","394","533019","0.0-7.0-0.49","FL","cpd84kvzmq","1366","768","0","1","0","5ed63a6d50ece703aa7bffb9","","null","","","","","","","learning/Slide130.JPG","null","","","","","",""
"html-keyboard-response","395","534181","0.0-7.0-1.49","FL","cpd84kvzmq","1366","768","0","1","0","5ed63a6d50ece703aa7bffb9","","null","","","learningBlock2","","","","That was a wug.","null","","","","","",""
"html-keyboard-response","396","535186","0.0-7.0-2.49","FL","cpd84kvzmq","1366","768","0","1","0","5ed63a6d50ece703aa7bffb9","","null","","","learningBlock2","","","","<div style=""font-size:60px;""> </div>","null","FL","learning/Slide130.JPG","That was a wug.","","",""
"image-keyboard-response","397","535367","0.0-7.0-0.50","FL","cpd84kvzmq","1366","768","0","1","0","5ed63a6d50ece703aa7bffb9","","null","","","","","","","learning/Slide131.JPG","null","","","","","",""
"html-keyboard-response","398","536527","0.0-7.0-1.50","FL","cpd84kvzmq","1366","768","0","1","0","5ed63a6d50ece703aa7bffb9","","null","","","learningBlock2","","","","That was a bim.","null","","","","","",""
"html-keyboard-response","399","537530","0.0-7.0-2.50","FL","cpd84kvzmq","1366","768","0","1","0","5ed63a6d50ece703aa7bffb9","","null","","","learningBlock2","","","","<div style=""font-size:60px;""> </div>","null","FL","learning/Slide131.JPG","That was a bim.","","",""
"image-keyboard-response","400","537708","0.0-7.0-0.51","FL","cpd84kvzmq","1366","768","0","1","0","5ed63a6d50ece703aa7bffb9","","null","","","","","","","learning/Slide132.JPG","null","","","","","",""
"html-keyboard-response","401","538867","0.0-7.0-1.51","FL","cpd84kvzmq","1366","768","0","1","0","5ed63a6d50ece703aa7bffb9","","null","","","learningBlock2","","","","That was a dep.","null","","","","","",""
"html-keyboard-response","402","539871","0.0-7.0-2.51","FL","cpd84kvzmq","1366","768","0","1","0","5ed63a6d50ece703aa7bffb9","","null","","","learningBlock2","","","","<div style=""font-size:60px;""> </div>","null","FL","learning/Slide132.JPG","That was a dep.","","",""
"image-keyboard-response","403","540052","0.0-7.0-0.52","FL","cpd84kvzmq","1366","768","0","1","0","5ed63a6d50ece703aa7bffb9","","null","","","","","","","learning/Slide133.JPG","null","","","","","",""
"html-keyboard-response","404","541215","0.0-7.0-1.52","FL","cpd84kvzmq","1366","768","0","1","0","5ed63a6d50ece703aa7bffb9","","null","","","learningBlock2","","","","That was a tob.","null","","","","","",""
"html-keyboard-response","405","542219","0.0-7.0-2.52","FL","cpd84kvzmq","1366","768","0","1","0","5ed63a6d50ece703aa7bffb9","","null","","","learningBlock2","","","","<div style=""font-size:60px;""> </div>","null","FL","learning/Slide133.JPG","That was a tob.","","",""
"image-keyboard-response","406","542397","0.0-7.0-0.53","FL","cpd84kvzmq","1366","768","0","1","0","5ed63a6d50ece703aa7bffb9","","null","","","","","","","learning/Slide134.JPG","null","","","","","",""
"html-keyboard-response","407","543558","0.0-7.0-1.53","FL","cpd84kvzmq","1366","768","0","1","0","5ed63a6d50ece703aa7bffb9","","null","","","learningBlock2","","","","That was a dep.","null","","","","","",""
"html-keyboard-response","408","544564","0.0-7.0-2.53","FL","cpd84kvzmq","1366","768","0","1","0","5ed63a6d50ece703aa7bffb9","","null","","","learningBlock2","","","","<div style=""font-size:60px;""> </div>","null","FL","learning/Slide134.JPG","That was a dep.","","",""
"image-keyboard-response","409","544743","0.0-7.0-0.54","FL","cpd84kvzmq","1366","768","0","1","0","5ed63a6d50ece703aa7bffb9","","null","","","","","","","learning/Slide135.JPG","null","","","","","",""
"html-keyboard-response","410","545903","0.0-7.0-1.54","FL","cpd84kvzmq","1366","768","0","1","0","5ed63a6d50ece703aa7bffb9","","null","","","learningBlock2","","","","That was a tob.","null","","","","","",""
"html-keyboard-response","411","546906","0.0-7.0-2.54","FL","cpd84kvzmq","1366","768","0","1","0","5ed63a6d50ece703aa7bffb9","","null","","","learningBlock2","","","","<div style=""font-size:60px;""> </div>","null","FL","learning/Slide135.JPG","That was a tob.","","",""
"image-keyboard-response","412","547086","0.0-7.0-0.55","FL","cpd84kvzmq","1366","768","0","1","0","5ed63a6d50ece703aa7bffb9","","null","","","","","","","learning/Slide136.JPG","null","","","","","",""
"html-keyboard-response","413","548243","0.0-7.0-1.55","FL","cpd84kvzmq","1366","768","0","1","0","5ed63a6d50ece703aa7bffb9","","null","","","learningBlock2","","","","That was a wug.","null","","","","","",""
"html-keyboard-response","414","549247","0.0-7.0-2.55","FL","cpd84kvzmq","1366","768","0","1","0","5ed63a6d50ece703aa7bffb9","","null","","","learningBlock2","","","","<div style=""font-size:60px;""> </div>","null","FL","learning/Slide136.JPG","That was a wug.","","",""
"image-keyboard-response","415","549427","0.0-7.0-0.56","FL","cpd84kvzmq","1366","768","0","1","0","5ed63a6d50ece703aa7bffb9","","null","","","","","","","learning/Slide137.JPG","null","","","","","",""
"html-keyboard-response","416","550585","0.0-7.0-1.56","FL","cpd84kvzmq","1366","768","0","1","0","5ed63a6d50ece703aa7bffb9","","null","","","learningBlock2","","","","That was a tob.","null","","","","","",""
"html-keyboard-response","417","551590","0.0-7.0-2.56","FL","cpd84kvzmq","1366","768","0","1","0","5ed63a6d50ece703aa7bffb9","","null","","","learningBlock2","","","","<div style=""font-size:60px;""> </div>","null","FL","learning/Slide137.JPG","That was a tob.","","",""
"image-keyboard-response","418","551772","0.0-7.0-0.57","FL","cpd84kvzmq","1366","768","0","1","0","5ed63a6d50ece703aa7bffb9","","null","","","","","","","learning/Slide138.JPG","null","","","","","",""
"html-keyboard-response","419","552931","0.0-7.0-1.57","FL","cpd84kvzmq","1366","768","0","1","0","5ed63a6d50ece703aa7bffb9","","null","","","learningBlock2","","","","That was a bim.","null","","","","","",""
"html-keyboard-response","420","553936","0.0-7.0-2.57","FL","cpd84kvzmq","1366","768","0","1","0","5ed63a6d50ece703aa7bffb9","","null","","","learningBlock2","","","","<div style=""font-size:60px;""> </div>","null","FL","learning/Slide138.JPG","That was a bim.","","",""
"image-keyboard-response","421","554116","0.0-7.0-0.58","FL","cpd84kvzmq","1366","768","0","1","0","5ed63a6d50ece703aa7bffb9","","null","","","","","","","learning/Slide139.JPG","null","","","","","",""
"html-keyboard-response","422","555275","0.0-7.0-1.58","FL","cpd84kvzmq","1366","768","0","1","0","5ed63a6d50ece703aa7bffb9","","null","","","learningBlock2","","","","That was a wug.","null","","","","","",""
"html-keyboard-response","423","556279","0.0-7.0-2.58","FL","cpd84kvzmq","1366","768","0","1","0","5ed63a6d50ece703aa7bffb9","","null","","","learningBlock2","","","","<div style=""font-size:60px;""> </div>","null","FL","learning/Slide139.JPG","That was a wug.","","",""
"image-keyboard-response","424","556456","0.0-7.0-0.59","FL","cpd84kvzmq","1366","768","0","1","0","5ed63a6d50ece703aa7bffb9","","null","","","","","","","learning/Slide140.JPG","null","","","","","",""
"html-keyboard-response","425","557614","0.0-7.0-1.59","FL","cpd84kvzmq","1366","768","0","1","0","5ed63a6d50ece703aa7bffb9","","null","","","learningBlock2","","","","That was a dep.","null","","","","","",""
"html-keyboard-response","426","558618","0.0-7.0-2.59","FL","cpd84kvzmq","1366","768","0","1","0","5ed63a6d50ece703aa7bffb9","","null","","","learningBlock2","","","","<div style=""font-size:60px;""> </div>","null","FL","learning/Slide140.JPG","That was a dep.","","",""
"image-keyboard-response","427","558799","0.0-7.0-0.60","FL","cpd84kvzmq","1366","768","0","1","0","5ed63a6d50ece703aa7bffb9","","null","","","","","","","learning/Slide141.JPG","null","","","","","",""
"html-keyboard-response","428","559955","0.0-7.0-1.60","FL","cpd84kvzmq","1366","768","0","1","0","5ed63a6d50ece703aa7bffb9","","null","","","learningBlock2","","","","That was a tob.","null","","","","","",""
"html-keyboard-response","429","560958","0.0-7.0-2.60","FL","cpd84kvzmq","1366","768","0","1","0","5ed63a6d50ece703aa7bffb9","","null","","","learningBlock2","","","","<div style=""font-size:60px;""> </div>","null","FL","learning/Slide141.JPG","That was a tob.","","",""
"image-keyboard-response","430","561135","0.0-7.0-0.61","FL","cpd84kvzmq","1366","768","0","1","0","5ed63a6d50ece703aa7bffb9","","null","","","","","","","learning/Slide142.JPG","null","","","","","",""
"html-keyboard-response","431","562294","0.0-7.0-1.61","FL","cpd84kvzmq","1366","768","0","1","0","5ed63a6d50ece703aa7bffb9","","null","","","learningBlock2","","","","That was a wug.","null","","","","","",""
"html-keyboard-response","432","563298","0.0-7.0-2.61","FL","cpd84kvzmq","1366","768","0","1","0","5ed63a6d50ece703aa7bffb9","","null","","","learningBlock2","","","","<div style=""font-size:60px;""> </div>","null","FL","learning/Slide142.JPG","That was a wug.","","",""
"image-keyboard-response","433","563480","0.0-7.0-0.62","FL","cpd84kvzmq","1366","768","0","1","0","5ed63a6d50ece703aa7bffb9","","null","","","","","","","learning/Slide143.JPG","null","","","","","",""
"html-keyboard-response","434","564642","0.0-7.0-1.62","FL","cpd84kvzmq","1366","768","0","1","0","5ed63a6d50ece703aa7bffb9","","null","","","learningBlock2","","","","That was a bim.","null","","","","","",""
"html-keyboard-response","435","565645","0.0-7.0-2.62","FL","cpd84kvzmq","1366","768","0","1","0","5ed63a6d50ece703aa7bffb9","","null","","","learningBlock2","","","","<div style=""font-size:60px;""> </div>","null","FL","learning/Slide143.JPG","That was a bim.","","",""
"image-keyboard-response","436","565828","0.0-7.0-0.63","FL","cpd84kvzmq","1366","768","0","1","0","5ed63a6d50ece703aa7bffb9","","null","","","","","","","learning/Slide144.JPG","null","","","","","",""
