"trial_type","trial_index","time_elapsed","internal_node_id","condition","subject","screen_width","screen_height","attention","distraction","conscientious","prolificID","success","rt","url","view_history","test_part","final_height_px","final_width_px","scale_factor","stimulus","key_press","learningType","presentedImage","presentedLabel","button_pressed","response","responses"
"pavlovia","0","10","0.0-0.0","LF","jfuskuq35s","1280","800","1","1","0","5f50e3d60305bb088998b766","","","","","","","","","","","","","","","",""
"fullscreen","1","3937","0.0-1.0","LF","jfuskuq35s","1280","800","1","1","0","5f50e3d60305bb088998b766","true","","","","","","","","","","","","","","",""
"external-html","2","19257","0.0-2.0-0.0","LF","jfuskuq35s","1280","800","1","1","0","5f50e3d60305bb088998b766","","15289","text/information_english.html","","","","","","","","","","","","",""
"external-html","3","26615","0.0-2.0-1.0","LF","jfuskuq35s","1280","800","1","1","0","5f50e3d60305bb088998b766","","7323","text/consent_english.html","","","","","","","","","","","","",""
"instructions","4","39173","0.0-3.0","LF","jfuskuq35s","1280","800","1","1","0","5f50e3d60305bb088998b766","","NA","","[{""page_index"":0,""viewing_time"":2081},{""page_index"":1,""viewing_time"":10475}]","instructions","","","","","","","","","","",""
"resize","5","72688","0.0-4.0","LF","jfuskuq35s","1280","800","1","1","0","5f50e3d60305bb088998b766","","","","","","","314","1.9936507936507935","","","","","","","",""
"html-keyboard-response","6","73689","0.0-5.0-0.0","LF","jfuskuq35s","1280","800","1","1","0","5f50e3d60305bb088998b766","","null","","","learningBlock1","","","","This is a tob:","null","","","","","",""
"image-keyboard-response","7","74018","0.0-5.0-1.0","LF","jfuskuq35s","1280","800","1","1","0","5f50e3d60305bb088998b766","","null","","","","","","","learning/Slide1.JPG","null","","","","","",""
"html-keyboard-response","8","75019","0.0-5.0-2.0","LF","jfuskuq35s","1280","800","1","1","0","5f50e3d60305bb088998b766","","null","","","learningBlock1","","","","<div style=""font-size:60px;""> </div>","null","LF","learning/Slide1.JPG","This is a tob:","","",""
"html-keyboard-response","9","76020","0.0-5.0-0.1","LF","jfuskuq35s","1280","800","1","1","0","5f50e3d60305bb088998b766","","null","","","learningBlock1","","","","This is a wug:","null","","","","","",""
"image-keyboard-response","10","76347","0.0-5.0-1.1","LF","jfuskuq35s","1280","800","1","1","0","5f50e3d60305bb088998b766","","null","","","","","","","learning/Slide2.JPG","null","","","","","",""
"html-keyboard-response","11","77348","0.0-5.0-2.1","LF","jfuskuq35s","1280","800","1","1","0","5f50e3d60305bb088998b766","","null","","","learningBlock1","","","","<div style=""font-size:60px;""> </div>","null","LF","learning/Slide2.JPG","This is a wug:","","",""
"html-keyboard-response","12","78349","0.0-5.0-0.2","LF","jfuskuq35s","1280","800","1","1","0","5f50e3d60305bb088998b766","","null","","","learningBlock1","","","","This is a bim:","null","","","","","",""
"image-keyboard-response","13","78677","0.0-5.0-1.2","LF","jfuskuq35s","1280","800","1","1","0","5f50e3d60305bb088998b766","","null","","","","","","","learning/Slide3.JPG","null","","","","","",""
"html-keyboard-response","14","79678","0.0-5.0-2.2","LF","jfuskuq35s","1280","800","1","1","0","5f50e3d60305bb088998b766","","null","","","learningBlock1","","","","<div style=""font-size:60px;""> </div>","null","LF","learning/Slide3.JPG","This is a bim:","","",""
"html-keyboard-response","15","80680","0.0-5.0-0.3","LF","jfuskuq35s","1280","800","1","1","0","5f50e3d60305bb088998b766","","null","","","learningBlock1","","","","This is a dep:","null","","","","","",""
"image-keyboard-response","16","81009","0.0-5.0-1.3","LF","jfuskuq35s","1280","800","1","1","0","5f50e3d60305bb088998b766","","null","","","","","","","learning/Slide4.JPG","null","","","","","",""
"html-keyboard-response","17","82011","0.0-5.0-2.3","LF","jfuskuq35s","1280","800","1","1","0","5f50e3d60305bb088998b766","","null","","","learningBlock1","","","","<div style=""font-size:60px;""> </div>","null","LF","learning/Slide4.JPG","This is a dep:","","",""
"html-keyboard-response","18","83012","0.0-5.0-0.4","LF","jfuskuq35s","1280","800","1","1","0","5f50e3d60305bb088998b766","","null","","","learningBlock1","","","","This is a wug:","null","","","","","",""
"image-keyboard-response","19","83338","0.0-5.0-1.4","LF","jfuskuq35s","1280","800","1","1","0","5f50e3d60305bb088998b766","","null","","","","","","","learning/Slide5.JPG","null","","","","","",""
"html-keyboard-response","20","84341","0.0-5.0-2.4","LF","jfuskuq35s","1280","800","1","1","0","5f50e3d60305bb088998b766","","null","","","learningBlock1","","","","<div style=""font-size:60px;""> </div>","null","LF","learning/Slide5.JPG","This is a wug:","","",""
"html-keyboard-response","21","85342","0.0-5.0-0.5","LF","jfuskuq35s","1280","800","1","1","0","5f50e3d60305bb088998b766","","null","","","learningBlock1","","","","This is a dep:","null","","","","","",""
"image-keyboard-response","22","85670","0.0-5.0-1.5","LF","jfuskuq35s","1280","800","1","1","0","5f50e3d60305bb088998b766","","null","","","","","","","learning/Slide6.JPG","null","","","","","",""
"html-keyboard-response","23","86672","0.0-5.0-2.5","LF","jfuskuq35s","1280","800","1","1","0","5f50e3d60305bb088998b766","","null","","","learningBlock1","","","","<div style=""font-size:60px;""> </div>","null","LF","learning/Slide6.JPG","This is a dep:","","",""
"html-keyboard-response","24","87673","0.0-5.0-0.6","LF","jfuskuq35s","1280","800","1","1","0","5f50e3d60305bb088998b766","","null","","","learningBlock1","","","","This is a wug:","null","","","","","",""
"image-keyboard-response","25","88001","0.0-5.0-1.6","LF","jfuskuq35s","1280","800","1","1","0","5f50e3d60305bb088998b766","","null","","","","","","","learning/Slide7.JPG","null","","","","","",""
"html-keyboard-response","26","89002","0.0-5.0-2.6","LF","jfuskuq35s","1280","800","1","1","0","5f50e3d60305bb088998b766","","null","","","learningBlock1","","","","<div style=""font-size:60px;""> </div>","null","LF","learning/Slide7.JPG","This is a wug:","","",""
"html-keyboard-response","27","90004","0.0-5.0-0.7","LF","jfuskuq35s","1280","800","1","1","0","5f50e3d60305bb088998b766","","null","","","learningBlock1","","","","This is a bim:","null","","","","","",""
"image-keyboard-response","28","90332","0.0-5.0-1.7","LF","jfuskuq35s","1280","800","1","1","0","5f50e3d60305bb088998b766","","null","","","","","","","learning/Slide8.JPG","null","","","","","",""
"html-keyboard-response","29","91333","0.0-5.0-2.7","LF","jfuskuq35s","1280","800","1","1","0","5f50e3d60305bb088998b766","","null","","","learningBlock1","","","","<div style=""font-size:60px;""> </div>","null","LF","learning/Slide8.JPG","This is a bim:","","",""
"html-keyboard-response","30","92335","0.0-5.0-0.8","LF","jfuskuq35s","1280","800","1","1","0","5f50e3d60305bb088998b766","","null","","","learningBlock1","","","","This is a wug:","null","","","","","",""
"image-keyboard-response","31","92662","0.0-5.0-1.8","LF","jfuskuq35s","1280","800","1","1","0","5f50e3d60305bb088998b766","","null","","","","","","","learning/Slide9.JPG","null","","","","","",""
"html-keyboard-response","32","93664","0.0-5.0-2.8","LF","jfuskuq35s","1280","800","1","1","0","5f50e3d60305bb088998b766","","null","","","learningBlock1","","","","<div style=""font-size:60px;""> </div>","null","LF","learning/Slide9.JPG","This is a wug:","","",""
"html-keyboard-response","33","94665","0.0-5.0-0.9","LF","jfuskuq35s","1280","800","1","1","0","5f50e3d60305bb088998b766","","null","","","learningBlock1","","","","This is a dep:","null","","","","","",""
"image-keyboard-response","34","94992","0.0-5.0-1.9","LF","jfuskuq35s","1280","800","1","1","0","5f50e3d60305bb088998b766","","null","","","","","","","learning/Slide10.JPG","null","","","","","",""
"html-keyboard-response","35","95994","0.0-5.0-2.9","LF","jfuskuq35s","1280","800","1","1","0","5f50e3d60305bb088998b766","","null","","","learningBlock1","","","","<div style=""font-size:60px;""> </div>","null","LF","learning/Slide10.JPG","This is a dep:","","",""
"html-keyboard-response","36","96995","0.0-5.0-0.10","LF","jfuskuq35s","1280","800","1","1","0","5f50e3d60305bb088998b766","","null","","","learningBlock1","","","","This is a tob:","null","","","","","",""
"image-keyboard-response","37","97324","0.0-5.0-1.10","LF","jfuskuq35s","1280","800","1","1","0","5f50e3d60305bb088998b766","","null","","","","","","","learning/Slide11.JPG","null","","","","","",""
"html-keyboard-response","38","98324","0.0-5.0-2.10","LF","jfuskuq35s","1280","800","1","1","0","5f50e3d60305bb088998b766","","null","","","learningBlock1","","","","<div style=""font-size:60px;""> </div>","null","LF","learning/Slide11.JPG","This is a tob:","","",""
"html-keyboard-response","39","99326","0.0-5.0-0.11","LF","jfuskuq35s","1280","800","1","1","0","5f50e3d60305bb088998b766","","null","","","learningBlock1","","","","This is a dep:","null","","","","","",""
"image-keyboard-response","40","99654","0.0-5.0-1.11","LF","jfuskuq35s","1280","800","1","1","0","5f50e3d60305bb088998b766","","null","","","","","","","learning/Slide12.JPG","null","","","","","",""
"html-keyboard-response","41","100655","0.0-5.0-2.11","LF","jfuskuq35s","1280","800","1","1","0","5f50e3d60305bb088998b766","","null","","","learningBlock1","","","","<div style=""font-size:60px;""> </div>","null","LF","learning/Slide12.JPG","This is a dep:","","",""
"html-keyboard-response","42","101656","0.0-5.0-0.12","LF","jfuskuq35s","1280","800","1","1","0","5f50e3d60305bb088998b766","","null","","","learningBlock1","","","","This is a bim:","null","","","","","",""
"image-keyboard-response","43","101984","0.0-5.0-1.12","LF","jfuskuq35s","1280","800","1","1","0","5f50e3d60305bb088998b766","","null","","","","","","","learning/Slide13.JPG","null","","","","","",""
"html-keyboard-response","44","102986","0.0-5.0-2.12","LF","jfuskuq35s","1280","800","1","1","0","5f50e3d60305bb088998b766","","null","","","learningBlock1","","","","<div style=""font-size:60px;""> </div>","null","LF","learning/Slide13.JPG","This is a bim:","","",""
"html-keyboard-response","45","103987","0.0-5.0-0.13","LF","jfuskuq35s","1280","800","1","1","0","5f50e3d60305bb088998b766","","null","","","learningBlock1","","","","This is a wug:","null","","","","","",""
"image-keyboard-response","46","104313","0.0-5.0-1.13","LF","jfuskuq35s","1280","800","1","1","0","5f50e3d60305bb088998b766","","null","","","","","","","learning/Slide14.JPG","null","","","","","",""
"html-keyboard-response","47","105314","0.0-5.0-2.13","LF","jfuskuq35s","1280","800","1","1","0","5f50e3d60305bb088998b766","","null","","","learningBlock1","","","","<div style=""font-size:60px;""> </div>","null","LF","learning/Slide14.JPG","This is a wug:","","",""
"html-keyboard-response","48","106316","0.0-5.0-0.14","LF","jfuskuq35s","1280","800","1","1","0","5f50e3d60305bb088998b766","","null","","","learningBlock1","","","","This is a tob:","null","","","","","",""
"image-keyboard-response","49","106644","0.0-5.0-1.14","LF","jfuskuq35s","1280","800","1","1","0","5f50e3d60305bb088998b766","","null","","","","","","","learning/Slide15.JPG","null","","","","","",""
"html-keyboard-response","50","107645","0.0-5.0-2.14","LF","jfuskuq35s","1280","800","1","1","0","5f50e3d60305bb088998b766","","null","","","learningBlock1","","","","<div style=""font-size:60px;""> </div>","null","LF","learning/Slide15.JPG","This is a tob:","","",""
"html-keyboard-response","51","108647","0.0-5.0-0.15","LF","jfuskuq35s","1280","800","1","1","0","5f50e3d60305bb088998b766","","null","","","learningBlock1","","","","This is a dep:","null","","","","","",""
"image-keyboard-response","52","108973","0.0-5.0-1.15","LF","jfuskuq35s","1280","800","1","1","0","5f50e3d60305bb088998b766","","null","","","","","","","learning/Slide16.JPG","null","","","","","",""
"html-keyboard-response","53","109975","0.0-5.0-2.15","LF","jfuskuq35s","1280","800","1","1","0","5f50e3d60305bb088998b766","","null","","","learningBlock1","","","","<div style=""font-size:60px;""> </div>","null","LF","learning/Slide16.JPG","This is a dep:","","",""
"html-keyboard-response","54","110975","0.0-5.0-0.16","LF","jfuskuq35s","1280","800","1","1","0","5f50e3d60305bb088998b766","","null","","","learningBlock1","","","","This is a bim:","null","","","","","",""
"image-keyboard-response","55","111302","0.0-5.0-1.16","LF","jfuskuq35s","1280","800","1","1","0","5f50e3d60305bb088998b766","","null","","","","","","","learning/Slide17.JPG","null","","","","","",""
"html-keyboard-response","56","112304","0.0-5.0-2.16","LF","jfuskuq35s","1280","800","1","1","0","5f50e3d60305bb088998b766","","null","","","learningBlock1","","","","<div style=""font-size:60px;""> </div>","null","LF","learning/Slide17.JPG","This is a bim:","","",""
"html-keyboard-response","57","113305","0.0-5.0-0.17","LF","jfuskuq35s","1280","800","1","1","0","5f50e3d60305bb088998b766","","null","","","learningBlock1","","","","This is a tob:","null","","","","","",""
"image-keyboard-response","58","113632","0.0-5.0-1.17","LF","jfuskuq35s","1280","800","1","1","0","5f50e3d60305bb088998b766","","null","","","","","","","learning/Slide18.JPG","null","","","","","",""
"html-keyboard-response","59","114634","0.0-5.0-2.17","LF","jfuskuq35s","1280","800","1","1","0","5f50e3d60305bb088998b766","","null","","","learningBlock1","","","","<div style=""font-size:60px;""> </div>","null","LF","learning/Slide18.JPG","This is a tob:","","",""
"html-keyboard-response","60","115634","0.0-5.0-0.18","LF","jfuskuq35s","1280","800","1","1","0","5f50e3d60305bb088998b766","","null","","","learningBlock1","","","","This is a wug:","null","","","","","",""
"image-keyboard-response","61","115961","0.0-5.0-1.18","LF","jfuskuq35s","1280","800","1","1","0","5f50e3d60305bb088998b766","","null","","","","","","","learning/Slide19.JPG","null","","","","","",""
"html-keyboard-response","62","116963","0.0-5.0-2.18","LF","jfuskuq35s","1280","800","1","1","0","5f50e3d60305bb088998b766","","null","","","learningBlock1","","","","<div style=""font-size:60px;""> </div>","null","LF","learning/Slide19.JPG","This is a wug:","","",""
"html-keyboard-response","63","117963","0.0-5.0-0.19","LF","jfuskuq35s","1280","800","1","1","0","5f50e3d60305bb088998b766","","null","","","learningBlock1","","","","This is a bim:","null","","","","","",""
"image-keyboard-response","64","118290","0.0-5.0-1.19","LF","jfuskuq35s","1280","800","1","1","0","5f50e3d60305bb088998b766","","null","","","","","","","learning/Slide20.JPG","null","","","","","",""
"html-keyboard-response","65","119291","0.0-5.0-2.19","LF","jfuskuq35s","1280","800","1","1","0","5f50e3d60305bb088998b766","","null","","","learningBlock1","","","","<div style=""font-size:60px;""> </div>","null","LF","learning/Slide20.JPG","This is a bim:","","",""
"html-keyboard-response","66","120292","0.0-5.0-0.20","LF","jfuskuq35s","1280","800","1","1","0","5f50e3d60305bb088998b766","","null","","","learningBlock1","","","","This is a dep:","null","","","","","",""
"image-keyboard-response","67","120618","0.0-5.0-1.20","LF","jfuskuq35s","1280","800","1","1","0","5f50e3d60305bb088998b766","","null","","","","","","","learning/Slide21.JPG","null","","","","","",""
"html-keyboard-response","68","121620","0.0-5.0-2.20","LF","jfuskuq35s","1280","800","1","1","0","5f50e3d60305bb088998b766","","null","","","learningBlock1","","","","<div style=""font-size:60px;""> </div>","null","LF","learning/Slide21.JPG","This is a dep:","","",""
"html-keyboard-response","69","122620","0.0-5.0-0.21","LF","jfuskuq35s","1280","800","1","1","0","5f50e3d60305bb088998b766","","null","","","learningBlock1","","","","This is a bim:","null","","","","","",""
"image-keyboard-response","70","122947","0.0-5.0-1.21","LF","jfuskuq35s","1280","800","1","1","0","5f50e3d60305bb088998b766","","null","","","","","","","learning/Slide22.JPG","null","","","","","",""
"html-keyboard-response","71","123947","0.0-5.0-2.21","LF","jfuskuq35s","1280","800","1","1","0","5f50e3d60305bb088998b766","","null","","","learningBlock1","","","","<div style=""font-size:60px;""> </div>","null","LF","learning/Slide22.JPG","This is a bim:","","",""
"html-keyboard-response","72","124949","0.0-5.0-0.22","LF","jfuskuq35s","1280","800","1","1","0","5f50e3d60305bb088998b766","","null","","","learningBlock1","","","","This is a tob:","null","","","","","",""
"image-keyboard-response","73","125277","0.0-5.0-1.22","LF","jfuskuq35s","1280","800","1","1","0","5f50e3d60305bb088998b766","","null","","","","","","","learning/Slide23.JPG","null","","","","","",""
"html-keyboard-response","74","126279","0.0-5.0-2.22","LF","jfuskuq35s","1280","800","1","1","0","5f50e3d60305bb088998b766","","null","","","learningBlock1","","","","<div style=""font-size:60px;""> </div>","null","LF","learning/Slide23.JPG","This is a tob:","","",""
"html-keyboard-response","75","127279","0.0-5.0-0.23","LF","jfuskuq35s","1280","800","1","1","0","5f50e3d60305bb088998b766","","null","","","learningBlock1","","","","This is a wug:","null","","","","","",""
"image-keyboard-response","76","127606","0.0-5.0-1.23","LF","jfuskuq35s","1280","800","1","1","0","5f50e3d60305bb088998b766","","null","","","","","","","learning/Slide24.JPG","null","","","","","",""
"html-keyboard-response","77","128607","0.0-5.0-2.23","LF","jfuskuq35s","1280","800","1","1","0","5f50e3d60305bb088998b766","","null","","","learningBlock1","","","","<div style=""font-size:60px;""> </div>","null","LF","learning/Slide24.JPG","This is a wug:","","",""
"html-keyboard-response","78","129608","0.0-5.0-0.24","LF","jfuskuq35s","1280","800","1","1","0","5f50e3d60305bb088998b766","","null","","","learningBlock1","","","","This is a dep:","null","","","","","",""
"image-keyboard-response","79","129936","0.0-5.0-1.24","LF","jfuskuq35s","1280","800","1","1","0","5f50e3d60305bb088998b766","","null","","","","","","","learning/Slide25.JPG","null","","","","","",""
"html-keyboard-response","80","130936","0.0-5.0-2.24","LF","jfuskuq35s","1280","800","1","1","0","5f50e3d60305bb088998b766","","null","","","learningBlock1","","","","<div style=""font-size:60px;""> </div>","null","LF","learning/Slide25.JPG","This is a dep:","","",""
"html-keyboard-response","81","131938","0.0-5.0-0.25","LF","jfuskuq35s","1280","800","1","1","0","5f50e3d60305bb088998b766","","null","","","learningBlock1","","","","This is a wug:","null","","","","","",""
"image-keyboard-response","82","132266","0.0-5.0-1.25","LF","jfuskuq35s","1280","800","1","1","0","5f50e3d60305bb088998b766","","null","","","","","","","learning/Slide26.JPG","null","","","","","",""
"html-keyboard-response","83","133267","0.0-5.0-2.25","LF","jfuskuq35s","1280","800","1","1","0","5f50e3d60305bb088998b766","","null","","","learningBlock1","","","","<div style=""font-size:60px;""> </div>","null","LF","learning/Slide26.JPG","This is a wug:","","",""
"html-keyboard-response","84","134269","0.0-5.0-0.26","LF","jfuskuq35s","1280","800","1","1","0","5f50e3d60305bb088998b766","","null","","","learningBlock1","","","","This is a bim:","null","","","","","",""
"image-keyboard-response","85","134596","0.0-5.0-1.26","LF","jfuskuq35s","1280","800","1","1","0","5f50e3d60305bb088998b766","","null","","","","","","","learning/Slide27.JPG","null","","","","","",""
"html-keyboard-response","86","135598","0.0-5.0-2.26","LF","jfuskuq35s","1280","800","1","1","0","5f50e3d60305bb088998b766","","null","","","learningBlock1","","","","<div style=""font-size:60px;""> </div>","null","LF","learning/Slide27.JPG","This is a bim:","","",""
"html-keyboard-response","87","136600","0.0-5.0-0.27","LF","jfuskuq35s","1280","800","1","1","0","5f50e3d60305bb088998b766","","null","","","learningBlock1","","","","This is a dep:","null","","","","","",""
"image-keyboard-response","88","136926","0.0-5.0-1.27","LF","jfuskuq35s","1280","800","1","1","0","5f50e3d60305bb088998b766","","null","","","","","","","learning/Slide28.JPG","null","","","","","",""
"html-keyboard-response","89","137928","0.0-5.0-2.27","LF","jfuskuq35s","1280","800","1","1","0","5f50e3d60305bb088998b766","","null","","","learningBlock1","","","","<div style=""font-size:60px;""> </div>","null","LF","learning/Slide28.JPG","This is a dep:","","",""
"html-keyboard-response","90","138929","0.0-5.0-0.28","LF","jfuskuq35s","1280","800","1","1","0","5f50e3d60305bb088998b766","","null","","","learningBlock1","","","","This is a tob:","null","","","","","",""
"image-keyboard-response","91","139256","0.0-5.0-1.28","LF","jfuskuq35s","1280","800","1","1","0","5f50e3d60305bb088998b766","","null","","","","","","","learning/Slide29.JPG","null","","","","","",""
"html-keyboard-response","92","140257","0.0-5.0-2.28","LF","jfuskuq35s","1280","800","1","1","0","5f50e3d60305bb088998b766","","null","","","learningBlock1","","","","<div style=""font-size:60px;""> </div>","null","LF","learning/Slide29.JPG","This is a tob:","","",""
"html-keyboard-response","93","141260","0.0-5.0-0.29","LF","jfuskuq35s","1280","800","1","1","0","5f50e3d60305bb088998b766","","null","","","learningBlock1","","","","This is a dep:","null","","","","","",""
"image-keyboard-response","94","141586","0.0-5.0-1.29","LF","jfuskuq35s","1280","800","1","1","0","5f50e3d60305bb088998b766","","null","","","","","","","learning/Slide30.JPG","null","","","","","",""
"html-keyboard-response","95","142588","0.0-5.0-2.29","LF","jfuskuq35s","1280","800","1","1","0","5f50e3d60305bb088998b766","","null","","","learningBlock1","","","","<div style=""font-size:60px;""> </div>","null","LF","learning/Slide30.JPG","This is a dep:","","",""
"html-keyboard-response","96","143589","0.0-5.0-0.30","LF","jfuskuq35s","1280","800","1","1","0","5f50e3d60305bb088998b766","","null","","","learningBlock1","","","","This is a wug:","null","","","","","",""
"image-keyboard-response","97","143915","0.0-5.0-1.30","LF","jfuskuq35s","1280","800","1","1","0","5f50e3d60305bb088998b766","","null","","","","","","","learning/Slide31.JPG","null","","","","","",""
"html-keyboard-response","98","144917","0.0-5.0-2.30","LF","jfuskuq35s","1280","800","1","1","0","5f50e3d60305bb088998b766","","null","","","learningBlock1","","","","<div style=""font-size:60px;""> </div>","null","LF","learning/Slide31.JPG","This is a wug:","","",""
"html-keyboard-response","99","145918","0.0-5.0-0.31","LF","jfuskuq35s","1280","800","1","1","0","5f50e3d60305bb088998b766","","null","","","learningBlock1","","","","This is a tob:","null","","","","","",""
"image-keyboard-response","100","146245","0.0-5.0-1.31","LF","jfuskuq35s","1280","800","1","1","0","5f50e3d60305bb088998b766","","null","","","","","","","learning/Slide32.JPG","null","","","","","",""
"html-keyboard-response","101","147246","0.0-5.0-2.31","LF","jfuskuq35s","1280","800","1","1","0","5f50e3d60305bb088998b766","","null","","","learningBlock1","","","","<div style=""font-size:60px;""> </div>","null","LF","learning/Slide32.JPG","This is a tob:","","",""
"html-keyboard-response","102","148248","0.0-5.0-0.32","LF","jfuskuq35s","1280","800","1","1","0","5f50e3d60305bb088998b766","","null","","","learningBlock1","","","","This is a bim:","null","","","","","",""
"image-keyboard-response","103","148576","0.0-5.0-1.32","LF","jfuskuq35s","1280","800","1","1","0","5f50e3d60305bb088998b766","","null","","","","","","","learning/Slide33.JPG","null","","","","","",""
"html-keyboard-response","104","149578","0.0-5.0-2.32","LF","jfuskuq35s","1280","800","1","1","0","5f50e3d60305bb088998b766","","null","","","learningBlock1","","","","<div style=""font-size:60px;""> </div>","null","LF","learning/Slide33.JPG","This is a bim:","","",""
"html-keyboard-response","105","150579","0.0-5.0-0.33","LF","jfuskuq35s","1280","800","1","1","0","5f50e3d60305bb088998b766","","null","","","learningBlock1","","","","This is a tob:","null","","","","","",""
"image-keyboard-response","106","150906","0.0-5.0-1.33","LF","jfuskuq35s","1280","800","1","1","0","5f50e3d60305bb088998b766","","null","","","","","","","learning/Slide34.JPG","null","","","","","",""
"html-keyboard-response","107","151908","0.0-5.0-2.33","LF","jfuskuq35s","1280","800","1","1","0","5f50e3d60305bb088998b766","","null","","","learningBlock1","","","","<div style=""font-size:60px;""> </div>","null","LF","learning/Slide34.JPG","This is a tob:","","",""
"html-keyboard-response","108","152910","0.0-5.0-0.34","LF","jfuskuq35s","1280","800","1","1","0","5f50e3d60305bb088998b766","","null","","","learningBlock1","","","","This is a bim:","null","","","","","",""
"image-keyboard-response","109","153237","0.0-5.0-1.34","LF","jfuskuq35s","1280","800","1","1","0","5f50e3d60305bb088998b766","","null","","","","","","","learning/Slide35.JPG","null","","","","","",""
"html-keyboard-response","110","154239","0.0-5.0-2.34","LF","jfuskuq35s","1280","800","1","1","0","5f50e3d60305bb088998b766","","null","","","learningBlock1","","","","<div style=""font-size:60px;""> </div>","null","LF","learning/Slide35.JPG","This is a bim:","","",""
"html-keyboard-response","111","155240","0.0-5.0-0.35","LF","jfuskuq35s","1280","800","1","1","0","5f50e3d60305bb088998b766","","null","","","learningBlock1","","","","This is a dep:","null","","","","","",""
"image-keyboard-response","112","155566","0.0-5.0-1.35","LF","jfuskuq35s","1280","800","1","1","0","5f50e3d60305bb088998b766","","null","","","","","","","learning/Slide36.JPG","null","","","","","",""
"html-keyboard-response","113","156567","0.0-5.0-2.35","LF","jfuskuq35s","1280","800","1","1","0","5f50e3d60305bb088998b766","","null","","","learningBlock1","","","","<div style=""font-size:60px;""> </div>","null","LF","learning/Slide36.JPG","This is a dep:","","",""
"html-keyboard-response","114","157568","0.0-5.0-0.36","LF","jfuskuq35s","1280","800","1","1","0","5f50e3d60305bb088998b766","","null","","","learningBlock1","","","","This is a tob:","null","","","","","",""
"image-keyboard-response","115","157896","0.0-5.0-1.36","LF","jfuskuq35s","1280","800","1","1","0","5f50e3d60305bb088998b766","","null","","","","","","","learning/Slide37.JPG","null","","","","","",""
"html-keyboard-response","116","158897","0.0-5.0-2.36","LF","jfuskuq35s","1280","800","1","1","0","5f50e3d60305bb088998b766","","null","","","learningBlock1","","","","<div style=""font-size:60px;""> </div>","null","LF","learning/Slide37.JPG","This is a tob:","","",""
"html-keyboard-response","117","159900","0.0-5.0-0.37","LF","jfuskuq35s","1280","800","1","1","0","5f50e3d60305bb088998b766","","null","","","learningBlock1","","","","This is a wug:","null","","","","","",""
"image-keyboard-response","118","160228","0.0-5.0-1.37","LF","jfuskuq35s","1280","800","1","1","0","5f50e3d60305bb088998b766","","null","","","","","","","learning/Slide38.JPG","null","","","","","",""
"html-keyboard-response","119","161229","0.0-5.0-2.37","LF","jfuskuq35s","1280","800","1","1","0","5f50e3d60305bb088998b766","","null","","","learningBlock1","","","","<div style=""font-size:60px;""> </div>","null","LF","learning/Slide38.JPG","This is a wug:","","",""
"html-keyboard-response","120","162230","0.0-5.0-0.38","LF","jfuskuq35s","1280","800","1","1","0","5f50e3d60305bb088998b766","","null","","","learningBlock1","","","","This is a bim:","null","","","","","",""
"image-keyboard-response","121","162558","0.0-5.0-1.38","LF","jfuskuq35s","1280","800","1","1","0","5f50e3d60305bb088998b766","","null","","","","","","","learning/Slide39.JPG","null","","","","","",""
"html-keyboard-response","122","163559","0.0-5.0-2.38","LF","jfuskuq35s","1280","800","1","1","0","5f50e3d60305bb088998b766","","null","","","learningBlock1","","","","<div style=""font-size:60px;""> </div>","null","LF","learning/Slide39.JPG","This is a bim:","","",""
"html-keyboard-response","123","164561","0.0-5.0-0.39","LF","jfuskuq35s","1280","800","1","1","0","5f50e3d60305bb088998b766","","null","","","learningBlock1","","","","This is a tob:","null","","","","","",""
"image-keyboard-response","124","164888","0.0-5.0-1.39","LF","jfuskuq35s","1280","800","1","1","0","5f50e3d60305bb088998b766","","null","","","","","","","learning/Slide40.JPG","null","","","","","",""
"html-keyboard-response","125","165890","0.0-5.0-2.39","LF","jfuskuq35s","1280","800","1","1","0","5f50e3d60305bb088998b766","","null","","","learningBlock1","","","","<div style=""font-size:60px;""> </div>","null","LF","learning/Slide40.JPG","This is a tob:","","",""
"html-keyboard-response","126","166890","0.0-5.0-0.40","LF","jfuskuq35s","1280","800","1","1","0","5f50e3d60305bb088998b766","","null","","","learningBlock1","","","","This is a bim:","null","","","","","",""
"image-keyboard-response","127","167219","0.0-5.0-1.40","LF","jfuskuq35s","1280","800","1","1","0","5f50e3d60305bb088998b766","","null","","","","","","","learning/Slide41.JPG","null","","","","","",""
"html-keyboard-response","128","168220","0.0-5.0-2.40","LF","jfuskuq35s","1280","800","1","1","0","5f50e3d60305bb088998b766","","null","","","learningBlock1","","","","<div style=""font-size:60px;""> </div>","null","LF","learning/Slide41.JPG","This is a bim:","","",""
"html-keyboard-response","129","169222","0.0-5.0-0.41","LF","jfuskuq35s","1280","800","1","1","0","5f50e3d60305bb088998b766","","null","","","learningBlock1","","","","This is a dep:","null","","","","","",""
"image-keyboard-response","130","169549","0.0-5.0-1.41","LF","jfuskuq35s","1280","800","1","1","0","5f50e3d60305bb088998b766","","null","","","","","","","learning/Slide42.JPG","null","","","","","",""
"html-keyboard-response","131","170551","0.0-5.0-2.41","LF","jfuskuq35s","1280","800","1","1","0","5f50e3d60305bb088998b766","","null","","","learningBlock1","","","","<div style=""font-size:60px;""> </div>","null","LF","learning/Slide42.JPG","This is a dep:","","",""
"html-keyboard-response","132","171551","0.0-5.0-0.42","LF","jfuskuq35s","1280","800","1","1","0","5f50e3d60305bb088998b766","","null","","","learningBlock1","","","","This is a wug:","null","","","","","",""
"image-keyboard-response","133","171880","0.0-5.0-1.42","LF","jfuskuq35s","1280","800","1","1","0","5f50e3d60305bb088998b766","","null","","","","","","","learning/Slide43.JPG","null","","","","","",""
"html-keyboard-response","134","172881","0.0-5.0-2.42","LF","jfuskuq35s","1280","800","1","1","0","5f50e3d60305bb088998b766","","null","","","learningBlock1","","","","<div style=""font-size:60px;""> </div>","null","LF","learning/Slide43.JPG","This is a wug:","","",""
"html-keyboard-response","135","173882","0.0-5.0-0.43","LF","jfuskuq35s","1280","800","1","1","0","5f50e3d60305bb088998b766","","null","","","learningBlock1","","","","This is a bim:","null","","","","","",""
"image-keyboard-response","136","174210","0.0-5.0-1.43","LF","jfuskuq35s","1280","800","1","1","0","5f50e3d60305bb088998b766","","null","","","","","","","learning/Slide44.JPG","null","","","","","",""
"html-keyboard-response","137","175209","0.0-5.0-2.43","LF","jfuskuq35s","1280","800","1","1","0","5f50e3d60305bb088998b766","","null","","","learningBlock1","","","","<div style=""font-size:60px;""> </div>","null","LF","learning/Slide44.JPG","This is a bim:","","",""
"html-keyboard-response","138","176212","0.0-5.0-0.44","LF","jfuskuq35s","1280","800","1","1","0","5f50e3d60305bb088998b766","","null","","","learningBlock1","","","","This is a wug:","null","","","","","",""
"image-keyboard-response","139","176538","0.0-5.0-1.44","LF","jfuskuq35s","1280","800","1","1","0","5f50e3d60305bb088998b766","","null","","","","","","","learning/Slide45.JPG","null","","","","","",""
"html-keyboard-response","140","177539","0.0-5.0-2.44","LF","jfuskuq35s","1280","800","1","1","0","5f50e3d60305bb088998b766","","null","","","learningBlock1","","","","<div style=""font-size:60px;""> </div>","null","LF","learning/Slide45.JPG","This is a wug:","","",""
"html-keyboard-response","141","178541","0.0-5.0-0.45","LF","jfuskuq35s","1280","800","1","1","0","5f50e3d60305bb088998b766","","null","","","learningBlock1","","","","This is a dep:","null","","","","","",""
"image-keyboard-response","142","178870","0.0-5.0-1.45","LF","jfuskuq35s","1280","800","1","1","0","5f50e3d60305bb088998b766","","null","","","","","","","learning/Slide46.JPG","null","","","","","",""
"html-keyboard-response","143","179871","0.0-5.0-2.45","LF","jfuskuq35s","1280","800","1","1","0","5f50e3d60305bb088998b766","","null","","","learningBlock1","","","","<div style=""font-size:60px;""> </div>","null","LF","learning/Slide46.JPG","This is a dep:","","",""
"html-keyboard-response","144","180872","0.0-5.0-0.46","LF","jfuskuq35s","1280","800","1","1","0","5f50e3d60305bb088998b766","","null","","","learningBlock1","","","","This is a tob:","null","","","","","",""
"image-keyboard-response","145","181199","0.0-5.0-1.46","LF","jfuskuq35s","1280","800","1","1","0","5f50e3d60305bb088998b766","","null","","","","","","","learning/Slide47.JPG","null","","","","","",""
"html-keyboard-response","146","182200","0.0-5.0-2.46","LF","jfuskuq35s","1280","800","1","1","0","5f50e3d60305bb088998b766","","null","","","learningBlock1","","","","<div style=""font-size:60px;""> </div>","null","LF","learning/Slide47.JPG","This is a tob:","","",""
"html-keyboard-response","147","183202","0.0-5.0-0.47","LF","jfuskuq35s","1280","800","1","1","0","5f50e3d60305bb088998b766","","null","","","learningBlock1","","","","This is a bim:","null","","","","","",""
"image-keyboard-response","148","183530","0.0-5.0-1.47","LF","jfuskuq35s","1280","800","1","1","0","5f50e3d60305bb088998b766","","null","","","","","","","learning/Slide48.JPG","null","","","","","",""
"html-keyboard-response","149","184531","0.0-5.0-2.47","LF","jfuskuq35s","1280","800","1","1","0","5f50e3d60305bb088998b766","","null","","","learningBlock1","","","","<div style=""font-size:60px;""> </div>","null","LF","learning/Slide48.JPG","This is a bim:","","",""
"html-keyboard-response","150","185533","0.0-5.0-0.48","LF","jfuskuq35s","1280","800","1","1","0","5f50e3d60305bb088998b766","","null","","","learningBlock1","","","","This is a dep:","null","","","","","",""
"image-keyboard-response","151","185860","0.0-5.0-1.48","LF","jfuskuq35s","1280","800","1","1","0","5f50e3d60305bb088998b766","","null","","","","","","","learning/Slide49.JPG","null","","","","","",""
"html-keyboard-response","152","186862","0.0-5.0-2.48","LF","jfuskuq35s","1280","800","1","1","0","5f50e3d60305bb088998b766","","null","","","learningBlock1","","","","<div style=""font-size:60px;""> </div>","null","LF","learning/Slide49.JPG","This is a dep:","","",""
"html-keyboard-response","153","187862","0.0-5.0-0.49","LF","jfuskuq35s","1280","800","1","1","0","5f50e3d60305bb088998b766","","null","","","learningBlock1","","","","This is a tob:","null","","","","","",""
"image-keyboard-response","154","188190","0.0-5.0-1.49","LF","jfuskuq35s","1280","800","1","1","0","5f50e3d60305bb088998b766","","null","","","","","","","learning/Slide50.JPG","null","","","","","",""
"html-keyboard-response","155","189191","0.0-5.0-2.49","LF","jfuskuq35s","1280","800","1","1","0","5f50e3d60305bb088998b766","","null","","","learningBlock1","","","","<div style=""font-size:60px;""> </div>","null","LF","learning/Slide50.JPG","This is a tob:","","",""
"html-keyboard-response","156","190193","0.0-5.0-0.50","LF","jfuskuq35s","1280","800","1","1","0","5f50e3d60305bb088998b766","","null","","","learningBlock1","","","","This is a bim:","null","","","","","",""
"image-keyboard-response","157","190520","0.0-5.0-1.50","LF","jfuskuq35s","1280","800","1","1","0","5f50e3d60305bb088998b766","","null","","","","","","","learning/Slide51.JPG","null","","","","","",""
"html-keyboard-response","158","191521","0.0-5.0-2.50","LF","jfuskuq35s","1280","800","1","1","0","5f50e3d60305bb088998b766","","null","","","learningBlock1","","","","<div style=""font-size:60px;""> </div>","null","LF","learning/Slide51.JPG","This is a bim:","","",""
"html-keyboard-response","159","192523","0.0-5.0-0.51","LF","jfuskuq35s","1280","800","1","1","0","5f50e3d60305bb088998b766","","null","","","learningBlock1","","","","This is a wug:","null","","","","","",""
"image-keyboard-response","160","192850","0.0-5.0-1.51","LF","jfuskuq35s","1280","800","1","1","0","5f50e3d60305bb088998b766","","null","","","","","","","learning/Slide52.JPG","null","","","","","",""
"html-keyboard-response","161","193852","0.0-5.0-2.51","LF","jfuskuq35s","1280","800","1","1","0","5f50e3d60305bb088998b766","","null","","","learningBlock1","","","","<div style=""font-size:60px;""> </div>","null","LF","learning/Slide52.JPG","This is a wug:","","",""
"html-keyboard-response","162","194854","0.0-5.0-0.52","LF","jfuskuq35s","1280","800","1","1","0","5f50e3d60305bb088998b766","","null","","","learningBlock1","","","","This is a tob:","null","","","","","",""
"image-keyboard-response","163","195182","0.0-5.0-1.52","LF","jfuskuq35s","1280","800","1","1","0","5f50e3d60305bb088998b766","","null","","","","","","","learning/Slide53.JPG","null","","","","","",""
"html-keyboard-response","164","196183","0.0-5.0-2.52","LF","jfuskuq35s","1280","800","1","1","0","5f50e3d60305bb088998b766","","null","","","learningBlock1","","","","<div style=""font-size:60px;""> </div>","null","LF","learning/Slide53.JPG","This is a tob:","","",""
"html-keyboard-response","165","197185","0.0-5.0-0.53","LF","jfuskuq35s","1280","800","1","1","0","5f50e3d60305bb088998b766","","null","","","learningBlock1","","","","This is a dep:","null","","","","","",""
"image-keyboard-response","166","197511","0.0-5.0-1.53","LF","jfuskuq35s","1280","800","1","1","0","5f50e3d60305bb088998b766","","null","","","","","","","learning/Slide54.JPG","null","","","","","",""
"html-keyboard-response","167","198512","0.0-5.0-2.53","LF","jfuskuq35s","1280","800","1","1","0","5f50e3d60305bb088998b766","","null","","","learningBlock1","","","","<div style=""font-size:60px;""> </div>","null","LF","learning/Slide54.JPG","This is a dep:","","",""
"html-keyboard-response","168","199513","0.0-5.0-0.54","LF","jfuskuq35s","1280","800","1","1","0","5f50e3d60305bb088998b766","","null","","","learningBlock1","","","","This is a bim:","null","","","","","",""
"image-keyboard-response","169","199841","0.0-5.0-1.54","LF","jfuskuq35s","1280","800","1","1","0","5f50e3d60305bb088998b766","","null","","","","","","","learning/Slide55.JPG","null","","","","","",""
"html-keyboard-response","170","200842","0.0-5.0-2.54","LF","jfuskuq35s","1280","800","1","1","0","5f50e3d60305bb088998b766","","null","","","learningBlock1","","","","<div style=""font-size:60px;""> </div>","null","LF","learning/Slide55.JPG","This is a bim:","","",""
"html-keyboard-response","171","201844","0.0-5.0-0.55","LF","jfuskuq35s","1280","800","1","1","0","5f50e3d60305bb088998b766","","null","","","learningBlock1","","","","This is a tob:","null","","","","","",""
"image-keyboard-response","172","202169","0.0-5.0-1.55","LF","jfuskuq35s","1280","800","1","1","0","5f50e3d60305bb088998b766","","null","","","","","","","learning/Slide56.JPG","null","","","","","",""
"html-keyboard-response","173","203171","0.0-5.0-2.55","LF","jfuskuq35s","1280","800","1","1","0","5f50e3d60305bb088998b766","","null","","","learningBlock1","","","","<div style=""font-size:60px;""> </div>","null","LF","learning/Slide56.JPG","This is a tob:","","",""
"html-keyboard-response","174","204172","0.0-5.0-0.56","LF","jfuskuq35s","1280","800","1","1","0","5f50e3d60305bb088998b766","","null","","","learningBlock1","","","","This is a dep:","null","","","","","",""
"image-keyboard-response","175","204501","0.0-5.0-1.56","LF","jfuskuq35s","1280","800","1","1","0","5f50e3d60305bb088998b766","","null","","","","","","","learning/Slide57.JPG","null","","","","","",""
"html-keyboard-response","176","205502","0.0-5.0-2.56","LF","jfuskuq35s","1280","800","1","1","0","5f50e3d60305bb088998b766","","null","","","learningBlock1","","","","<div style=""font-size:60px;""> </div>","null","LF","learning/Slide57.JPG","This is a dep:","","",""
"html-keyboard-response","177","206504","0.0-5.0-0.57","LF","jfuskuq35s","1280","800","1","1","0","5f50e3d60305bb088998b766","","null","","","learningBlock1","","","","This is a wug:","null","","","","","",""
"image-keyboard-response","178","206832","0.0-5.0-1.57","LF","jfuskuq35s","1280","800","1","1","0","5f50e3d60305bb088998b766","","null","","","","","","","learning/Slide58.JPG","null","","","","","",""
"html-keyboard-response","179","207833","0.0-5.0-2.57","LF","jfuskuq35s","1280","800","1","1","0","5f50e3d60305bb088998b766","","null","","","learningBlock1","","","","<div style=""font-size:60px;""> </div>","null","LF","learning/Slide58.JPG","This is a wug:","","",""
"html-keyboard-response","180","208834","0.0-5.0-0.58","LF","jfuskuq35s","1280","800","1","1","0","5f50e3d60305bb088998b766","","null","","","learningBlock1","","","","This is a dep:","null","","","","","",""
"image-keyboard-response","181","209162","0.0-5.0-1.58","LF","jfuskuq35s","1280","800","1","1","0","5f50e3d60305bb088998b766","","null","","","","","","","learning/Slide59.JPG","null","","","","","",""
"html-keyboard-response","182","210164","0.0-5.0-2.58","LF","jfuskuq35s","1280","800","1","1","0","5f50e3d60305bb088998b766","","null","","","learningBlock1","","","","<div style=""font-size:60px;""> </div>","null","LF","learning/Slide59.JPG","This is a dep:","","",""
"html-keyboard-response","183","211165","0.0-5.0-0.59","LF","jfuskuq35s","1280","800","1","1","0","5f50e3d60305bb088998b766","","null","","","learningBlock1","","","","This is a wug:","null","","","","","",""
"image-keyboard-response","184","211493","0.0-5.0-1.59","LF","jfuskuq35s","1280","800","1","1","0","5f50e3d60305bb088998b766","","null","","","","","","","learning/Slide60.JPG","null","","","","","",""
"html-keyboard-response","185","212495","0.0-5.0-2.59","LF","jfuskuq35s","1280","800","1","1","0","5f50e3d60305bb088998b766","","null","","","learningBlock1","","","","<div style=""font-size:60px;""> </div>","null","LF","learning/Slide60.JPG","This is a wug:","","",""
"html-keyboard-response","186","213496","0.0-5.0-0.60","LF","jfuskuq35s","1280","800","1","1","0","5f50e3d60305bb088998b766","","null","","","learningBlock1","","","","This is a bim:","null","","","","","",""
"image-keyboard-response","187","213822","0.0-5.0-1.60","LF","jfuskuq35s","1280","800","1","1","0","5f50e3d60305bb088998b766","","null","","","","","","","learning/Slide61.JPG","null","","","","","",""
"html-keyboard-response","188","214823","0.0-5.0-2.60","LF","jfuskuq35s","1280","800","1","1","0","5f50e3d60305bb088998b766","","null","","","learningBlock1","","","","<div style=""font-size:60px;""> </div>","null","LF","learning/Slide61.JPG","This is a bim:","","",""
"html-keyboard-response","189","215825","0.0-5.0-0.61","LF","jfuskuq35s","1280","800","1","1","0","5f50e3d60305bb088998b766","","null","","","learningBlock1","","","","This is a dep:","null","","","","","",""
"image-keyboard-response","190","216152","0.0-5.0-1.61","LF","jfuskuq35s","1280","800","1","1","0","5f50e3d60305bb088998b766","","null","","","","","","","learning/Slide62.JPG","null","","","","","",""
"html-keyboard-response","191","217153","0.0-5.0-2.61","LF","jfuskuq35s","1280","800","1","1","0","5f50e3d60305bb088998b766","","null","","","learningBlock1","","","","<div style=""font-size:60px;""> </div>","null","LF","learning/Slide62.JPG","This is a dep:","","",""
"html-keyboard-response","192","218155","0.0-5.0-0.62","LF","jfuskuq35s","1280","800","1","1","0","5f50e3d60305bb088998b766","","null","","","learningBlock1","","","","This is a bim:","null","","","","","",""
"image-keyboard-response","193","218482","0.0-5.0-1.62","LF","jfuskuq35s","1280","800","1","1","0","5f50e3d60305bb088998b766","","null","","","","","","","learning/Slide63.JPG","null","","","","","",""
"html-keyboard-response","194","219484","0.0-5.0-2.62","LF","jfuskuq35s","1280","800","1","1","0","5f50e3d60305bb088998b766","","null","","","learningBlock1","","","","<div style=""font-size:60px;""> </div>","null","LF","learning/Slide63.JPG","This is a bim:","","",""
"html-keyboard-response","195","220485","0.0-5.0-0.63","LF","jfuskuq35s","1280","800","1","1","0","5f50e3d60305bb088998b766","","null","","","learningBlock1","","","","This is a tob:","null","","","","","",""
"image-keyboard-response","196","220813","0.0-5.0-1.63","LF","jfuskuq35s","1280","800","1","1","0","5f50e3d60305bb088998b766","","null","","","","","","","learning/Slide64.JPG","null","","","","","",""
"html-keyboard-response","197","221815","0.0-5.0-2.63","LF","jfuskuq35s","1280","800","1","1","0","5f50e3d60305bb088998b766","","null","","","learningBlock1","","","","<div style=""font-size:60px;""> </div>","null","LF","learning/Slide64.JPG","This is a tob:","","",""
"html-keyboard-response","198","222816","0.0-5.0-0.64","LF","jfuskuq35s","1280","800","1","1","0","5f50e3d60305bb088998b766","","null","","","learningBlock1","","","","This is a wug:","null","","","","","",""
"image-keyboard-response","199","223143","0.0-5.0-1.64","LF","jfuskuq35s","1280","800","1","1","0","5f50e3d60305bb088998b766","","null","","","","","","","learning/Slide65.JPG","null","","","","","",""
"html-keyboard-response","200","224144","0.0-5.0-2.64","LF","jfuskuq35s","1280","800","1","1","0","5f50e3d60305bb088998b766","","null","","","learningBlock1","","","","<div style=""font-size:60px;""> </div>","null","LF","learning/Slide65.JPG","This is a wug:","","",""
"html-keyboard-response","201","225146","0.0-5.0-0.65","LF","jfuskuq35s","1280","800","1","1","0","5f50e3d60305bb088998b766","","null","","","learningBlock1","","","","This is a dep:","null","","","","","",""
"image-keyboard-response","202","225474","0.0-5.0-1.65","LF","jfuskuq35s","1280","800","1","1","0","5f50e3d60305bb088998b766","","null","","","","","","","learning/Slide66.JPG","null","","","","","",""
"html-keyboard-response","203","226476","0.0-5.0-2.65","LF","jfuskuq35s","1280","800","1","1","0","5f50e3d60305bb088998b766","","null","","","learningBlock1","","","","<div style=""font-size:60px;""> </div>","null","LF","learning/Slide66.JPG","This is a dep:","","",""
"html-keyboard-response","204","227478","0.0-5.0-0.66","LF","jfuskuq35s","1280","800","1","1","0","5f50e3d60305bb088998b766","","null","","","learningBlock1","","","","This is a tob:","null","","","","","",""
"image-keyboard-response","205","227805","0.0-5.0-1.66","LF","jfuskuq35s","1280","800","1","1","0","5f50e3d60305bb088998b766","","null","","","","","","","learning/Slide67.JPG","null","","","","","",""
"html-keyboard-response","206","228806","0.0-5.0-2.66","LF","jfuskuq35s","1280","800","1","1","0","5f50e3d60305bb088998b766","","null","","","learningBlock1","","","","<div style=""font-size:60px;""> </div>","null","LF","learning/Slide67.JPG","This is a tob:","","",""
"html-keyboard-response","207","229808","0.0-5.0-0.67","LF","jfuskuq35s","1280","800","1","1","0","5f50e3d60305bb088998b766","","null","","","learningBlock1","","","","This is a wug:","null","","","","","",""
"image-keyboard-response","208","230135","0.0-5.0-1.67","LF","jfuskuq35s","1280","800","1","1","0","5f50e3d60305bb088998b766","","null","","","","","","","learning/Slide68.JPG","null","","","","","",""
"html-keyboard-response","209","231137","0.0-5.0-2.67","LF","jfuskuq35s","1280","800","1","1","0","5f50e3d60305bb088998b766","","null","","","learningBlock1","","","","<div style=""font-size:60px;""> </div>","null","LF","learning/Slide68.JPG","This is a wug:","","",""
"html-keyboard-response","210","232139","0.0-5.0-0.68","LF","jfuskuq35s","1280","800","1","1","0","5f50e3d60305bb088998b766","","null","","","learningBlock1","","","","This is a tob:","null","","","","","",""
"image-keyboard-response","211","232466","0.0-5.0-1.68","LF","jfuskuq35s","1280","800","1","1","0","5f50e3d60305bb088998b766","","null","","","","","","","learning/Slide69.JPG","null","","","","","",""
"html-keyboard-response","212","233468","0.0-5.0-2.68","LF","jfuskuq35s","1280","800","1","1","0","5f50e3d60305bb088998b766","","null","","","learningBlock1","","","","<div style=""font-size:60px;""> </div>","null","LF","learning/Slide69.JPG","This is a tob:","","",""
"html-keyboard-response","213","234469","0.0-5.0-0.69","LF","jfuskuq35s","1280","800","1","1","0","5f50e3d60305bb088998b766","","null","","","learningBlock1","","","","This is a dep:","null","","","","","",""
"image-keyboard-response","214","234797","0.0-5.0-1.69","LF","jfuskuq35s","1280","800","1","1","0","5f50e3d60305bb088998b766","","null","","","","","","","learning/Slide70.JPG","null","","","","","",""
"html-keyboard-response","215","235798","0.0-5.0-2.69","LF","jfuskuq35s","1280","800","1","1","0","5f50e3d60305bb088998b766","","null","","","learningBlock1","","","","<div style=""font-size:60px;""> </div>","null","LF","learning/Slide70.JPG","This is a dep:","","",""
"html-keyboard-response","216","236800","0.0-5.0-0.70","LF","jfuskuq35s","1280","800","1","1","0","5f50e3d60305bb088998b766","","null","","","learningBlock1","","","","This is a wug:","null","","","","","",""
"image-keyboard-response","217","237128","0.0-5.0-1.70","LF","jfuskuq35s","1280","800","1","1","0","5f50e3d60305bb088998b766","","null","","","","","","","learning/Slide71.JPG","null","","","","","",""
"html-keyboard-response","218","238129","0.0-5.0-2.70","LF","jfuskuq35s","1280","800","1","1","0","5f50e3d60305bb088998b766","","null","","","learningBlock1","","","","<div style=""font-size:60px;""> </div>","null","LF","learning/Slide71.JPG","This is a wug:","","",""
"html-keyboard-response","219","239130","0.0-5.0-0.71","LF","jfuskuq35s","1280","800","1","1","0","5f50e3d60305bb088998b766","","null","","","learningBlock1","","","","This is a bim:","null","","","","","",""
"image-keyboard-response","220","239455","0.0-5.0-1.71","LF","jfuskuq35s","1280","800","1","1","0","5f50e3d60305bb088998b766","","null","","","","","","","learning/Slide72.JPG","null","","","","","",""
"html-keyboard-response","221","240457","0.0-5.0-2.71","LF","jfuskuq35s","1280","800","1","1","0","5f50e3d60305bb088998b766","","null","","","learningBlock1","","","","<div style=""font-size:60px;""> </div>","null","LF","learning/Slide72.JPG","This is a bim:","","",""
"html-keyboard-response","222","241458","0.0-5.0-0.72","LF","jfuskuq35s","1280","800","1","1","0","5f50e3d60305bb088998b766","","null","","","learningBlock1","","","","This is a wug:","null","","","","","",""
"image-keyboard-response","223","241786","0.0-5.0-1.72","LF","jfuskuq35s","1280","800","1","1","0","5f50e3d60305bb088998b766","","null","","","","","","","learning/Slide73.JPG","null","","","","","",""
"html-keyboard-response","224","242788","0.0-5.0-2.72","LF","jfuskuq35s","1280","800","1","1","0","5f50e3d60305bb088998b766","","null","","","learningBlock1","","","","<div style=""font-size:60px;""> </div>","null","LF","learning/Slide73.JPG","This is a wug:","","",""
"html-keyboard-response","225","243788","0.0-5.0-0.73","LF","jfuskuq35s","1280","800","1","1","0","5f50e3d60305bb088998b766","","null","","","learningBlock1","","","","This is a dep:","null","","","","","",""
"image-keyboard-response","226","244117","0.0-5.0-1.73","LF","jfuskuq35s","1280","800","1","1","0","5f50e3d60305bb088998b766","","null","","","","","","","learning/Slide74.JPG","null","","","","","",""
"html-keyboard-response","227","245118","0.0-5.0-2.73","LF","jfuskuq35s","1280","800","1","1","0","5f50e3d60305bb088998b766","","null","","","learningBlock1","","","","<div style=""font-size:60px;""> </div>","null","LF","learning/Slide74.JPG","This is a dep:","","",""
"html-keyboard-response","228","246120","0.0-5.0-0.74","LF","jfuskuq35s","1280","800","1","1","0","5f50e3d60305bb088998b766","","null","","","learningBlock1","","","","This is a tob:","null","","","","","",""
"image-keyboard-response","229","246448","0.0-5.0-1.74","LF","jfuskuq35s","1280","800","1","1","0","5f50e3d60305bb088998b766","","null","","","","","","","learning/Slide75.JPG","null","","","","","",""
"html-keyboard-response","230","247449","0.0-5.0-2.74","LF","jfuskuq35s","1280","800","1","1","0","5f50e3d60305bb088998b766","","null","","","learningBlock1","","","","<div style=""font-size:60px;""> </div>","null","LF","learning/Slide75.JPG","This is a tob:","","",""
"html-keyboard-response","231","248451","0.0-5.0-0.75","LF","jfuskuq35s","1280","800","1","1","0","5f50e3d60305bb088998b766","","null","","","learningBlock1","","","","This is a bim:","null","","","","","",""
"image-keyboard-response","232","248778","0.0-5.0-1.75","LF","jfuskuq35s","1280","800","1","1","0","5f50e3d60305bb088998b766","","null","","","","","","","learning/Slide76.JPG","null","","","","","",""
"html-keyboard-response","233","249778","0.0-5.0-2.75","LF","jfuskuq35s","1280","800","1","1","0","5f50e3d60305bb088998b766","","null","","","learningBlock1","","","","<div style=""font-size:60px;""> </div>","null","LF","learning/Slide76.JPG","This is a bim:","","",""
"html-keyboard-response","234","250779","0.0-5.0-0.76","LF","jfuskuq35s","1280","800","1","1","0","5f50e3d60305bb088998b766","","null","","","learningBlock1","","","","This is a tob:","null","","","","","",""
"image-keyboard-response","235","251106","0.0-5.0-1.76","LF","jfuskuq35s","1280","800","1","1","0","5f50e3d60305bb088998b766","","null","","","","","","","learning/Slide77.JPG","null","","","","","",""
"html-keyboard-response","236","252107","0.0-5.0-2.76","LF","jfuskuq35s","1280","800","1","1","0","5f50e3d60305bb088998b766","","null","","","learningBlock1","","","","<div style=""font-size:60px;""> </div>","null","LF","learning/Slide77.JPG","This is a tob:","","",""
"html-keyboard-response","237","253109","0.0-5.0-0.77","LF","jfuskuq35s","1280","800","1","1","0","5f50e3d60305bb088998b766","","null","","","learningBlock1","","","","This is a wug:","null","","","","","",""
"image-keyboard-response","238","253437","0.0-5.0-1.77","LF","jfuskuq35s","1280","800","1","1","0","5f50e3d60305bb088998b766","","null","","","","","","","learning/Slide78.JPG","null","","","","","",""
"html-keyboard-response","239","254437","0.0-5.0-2.77","LF","jfuskuq35s","1280","800","1","1","0","5f50e3d60305bb088998b766","","null","","","learningBlock1","","","","<div style=""font-size:60px;""> </div>","null","LF","learning/Slide78.JPG","This is a wug:","","",""
"html-keyboard-response","240","255438","0.0-5.0-0.78","LF","jfuskuq35s","1280","800","1","1","0","5f50e3d60305bb088998b766","","null","","","learningBlock1","","","","This is a bim:","null","","","","","",""
"image-keyboard-response","241","255765","0.0-5.0-1.78","LF","jfuskuq35s","1280","800","1","1","0","5f50e3d60305bb088998b766","","null","","","","","","","learning/Slide79.JPG","null","","","","","",""
"html-keyboard-response","242","256767","0.0-5.0-2.78","LF","jfuskuq35s","1280","800","1","1","0","5f50e3d60305bb088998b766","","null","","","learningBlock1","","","","<div style=""font-size:60px;""> </div>","null","LF","learning/Slide79.JPG","This is a bim:","","",""
"html-keyboard-response","243","257768","0.0-5.0-0.79","LF","jfuskuq35s","1280","800","1","1","0","5f50e3d60305bb088998b766","","null","","","learningBlock1","","","","This is a tob:","null","","","","","",""
"image-keyboard-response","244","258096","0.0-5.0-1.79","LF","jfuskuq35s","1280","800","1","1","0","5f50e3d60305bb088998b766","","null","","","","","","","learning/Slide80.JPG","null","","","","","",""
"html-keyboard-response","245","259096","0.0-5.0-2.79","LF","jfuskuq35s","1280","800","1","1","0","5f50e3d60305bb088998b766","","null","","","learningBlock1","","","","<div style=""font-size:60px;""> </div>","null","LF","learning/Slide80.JPG","This is a tob:","","",""
"instructions","246","265710","0.0-6.0","LF","jfuskuq35s","1280","800","1","1","0","5f50e3d60305bb088998b766","","NA","","[{""page_index"":0,""viewing_time"":6613}]","instructions","","","","","","","","","","",""
"html-keyboard-response","247","266711","0.0-7.0-0.0","LF","jfuskuq35s","1280","800","1","1","0","5f50e3d60305bb088998b766","","null","","","learningBlock2","","","","This is a wug:","null","","","","","",""
"image-keyboard-response","248","267041","0.0-7.0-1.0","LF","jfuskuq35s","1280","800","1","1","0","5f50e3d60305bb088998b766","","null","","","","","","","learning/Slide81.JPG","null","","","","","",""
"html-keyboard-response","249","268041","0.0-7.0-2.0","LF","jfuskuq35s","1280","800","1","1","0","5f50e3d60305bb088998b766","","null","","","learningBlock2","","","","<div style=""font-size:60px;""> </div>","null","LF","learning/Slide81.JPG","This is a wug:","","",""
"html-keyboard-response","250","269041","0.0-7.0-0.1","LF","jfuskuq35s","1280","800","1","1","0","5f50e3d60305bb088998b766","","null","","","learningBlock2","","","","This is a bim:","null","","","","","",""
"image-keyboard-response","251","269369","0.0-7.0-1.1","LF","jfuskuq35s","1280","800","1","1","0","5f50e3d60305bb088998b766","","null","","","","","","","learning/Slide82.JPG","null","","","","","",""
"html-keyboard-response","252","270370","0.0-7.0-2.1","LF","jfuskuq35s","1280","800","1","1","0","5f50e3d60305bb088998b766","","null","","","learningBlock2","","","","<div style=""font-size:60px;""> </div>","null","LF","learning/Slide82.JPG","This is a bim:","","",""
"html-keyboard-response","253","271371","0.0-7.0-0.2","LF","jfuskuq35s","1280","800","1","1","0","5f50e3d60305bb088998b766","","null","","","learningBlock2","","","","This is a wug:","null","","","","","",""
"image-keyboard-response","254","271698","0.0-7.0-1.2","LF","jfuskuq35s","1280","800","1","1","0","5f50e3d60305bb088998b766","","null","","","","","","","learning/Slide83.JPG","null","","","","","",""
"html-keyboard-response","255","272700","0.0-7.0-2.2","LF","jfuskuq35s","1280","800","1","1","0","5f50e3d60305bb088998b766","","null","","","learningBlock2","","","","<div style=""font-size:60px;""> </div>","null","LF","learning/Slide83.JPG","This is a wug:","","",""
"html-keyboard-response","256","273702","0.0-7.0-0.3","LF","jfuskuq35s","1280","800","1","1","0","5f50e3d60305bb088998b766","","null","","","learningBlock2","","","","This is a dep:","null","","","","","",""
"image-keyboard-response","257","274030","0.0-7.0-1.3","LF","jfuskuq35s","1280","800","1","1","0","5f50e3d60305bb088998b766","","null","","","","","","","learning/Slide84.JPG","null","","","","","",""
"html-keyboard-response","258","275032","0.0-7.0-2.3","LF","jfuskuq35s","1280","800","1","1","0","5f50e3d60305bb088998b766","","null","","","learningBlock2","","","","<div style=""font-size:60px;""> </div>","null","LF","learning/Slide84.JPG","This is a dep:","","",""
"html-keyboard-response","259","276033","0.0-7.0-0.4","LF","jfuskuq35s","1280","800","1","1","0","5f50e3d60305bb088998b766","","null","","","learningBlock2","","","","This is a bim:","null","","","","","",""
"image-keyboard-response","260","276360","0.0-7.0-1.4","LF","jfuskuq35s","1280","800","1","1","0","5f50e3d60305bb088998b766","","null","","","","","","","learning/Slide85.JPG","null","","","","","",""
"html-keyboard-response","261","277362","0.0-7.0-2.4","LF","jfuskuq35s","1280","800","1","1","0","5f50e3d60305bb088998b766","","null","","","learningBlock2","","","","<div style=""font-size:60px;""> </div>","null","LF","learning/Slide85.JPG","This is a bim:","","",""
"html-keyboard-response","262","278364","0.0-7.0-0.5","LF","jfuskuq35s","1280","800","1","1","0","5f50e3d60305bb088998b766","","null","","","learningBlock2","","","","This is a tob:","null","","","","","",""
"image-keyboard-response","263","278693","0.0-7.0-1.5","LF","jfuskuq35s","1280","800","1","1","0","5f50e3d60305bb088998b766","","null","","","","","","","learning/Slide86.JPG","null","","","","","",""
"html-keyboard-response","264","279696","0.0-7.0-2.5","LF","jfuskuq35s","1280","800","1","1","0","5f50e3d60305bb088998b766","","null","","","learningBlock2","","","","<div style=""font-size:60px;""> </div>","null","LF","learning/Slide86.JPG","This is a tob:","","",""
"html-keyboard-response","265","280696","0.0-7.0-0.6","LF","jfuskuq35s","1280","800","1","1","0","5f50e3d60305bb088998b766","","null","","","learningBlock2","","","","This is a wug:","null","","","","","",""
"image-keyboard-response","266","281025","0.0-7.0-1.6","LF","jfuskuq35s","1280","800","1","1","0","5f50e3d60305bb088998b766","","null","","","","","","","learning/Slide87.JPG","null","","","","","",""
"html-keyboard-response","267","282026","0.0-7.0-2.6","LF","jfuskuq35s","1280","800","1","1","0","5f50e3d60305bb088998b766","","null","","","learningBlock2","","","","<div style=""font-size:60px;""> </div>","null","LF","learning/Slide87.JPG","This is a wug:","","",""
"html-keyboard-response","268","283027","0.0-7.0-0.7","LF","jfuskuq35s","1280","800","1","1","0","5f50e3d60305bb088998b766","","null","","","learningBlock2","","","","This is a tob:","null","","","","","",""
"image-keyboard-response","269","283353","0.0-7.0-1.7","LF","jfuskuq35s","1280","800","1","1","0","5f50e3d60305bb088998b766","","null","","","","","","","learning/Slide88.JPG","null","","","","","",""
"html-keyboard-response","270","284354","0.0-7.0-2.7","LF","jfuskuq35s","1280","800","1","1","0","5f50e3d60305bb088998b766","","null","","","learningBlock2","","","","<div style=""font-size:60px;""> </div>","null","LF","learning/Slide88.JPG","This is a tob:","","",""
"html-keyboard-response","271","285355","0.0-7.0-0.8","LF","jfuskuq35s","1280","800","1","1","0","5f50e3d60305bb088998b766","","null","","","learningBlock2","","","","This is a bim:","null","","","","","",""
"image-keyboard-response","272","285683","0.0-7.0-1.8","LF","jfuskuq35s","1280","800","1","1","0","5f50e3d60305bb088998b766","","null","","","","","","","learning/Slide89.JPG","null","","","","","",""
"html-keyboard-response","273","286684","0.0-7.0-2.8","LF","jfuskuq35s","1280","800","1","1","0","5f50e3d60305bb088998b766","","null","","","learningBlock2","","","","<div style=""font-size:60px;""> </div>","null","LF","learning/Slide89.JPG","This is a bim:","","",""
"html-keyboard-response","274","287686","0.0-7.0-0.9","LF","jfuskuq35s","1280","800","1","1","0","5f50e3d60305bb088998b766","","null","","","learningBlock2","","","","This is a dep:","null","","","","","",""
"image-keyboard-response","275","288013","0.0-7.0-1.9","LF","jfuskuq35s","1280","800","1","1","0","5f50e3d60305bb088998b766","","null","","","","","","","learning/Slide90.JPG","null","","","","","",""
"html-keyboard-response","276","289014","0.0-7.0-2.9","LF","jfuskuq35s","1280","800","1","1","0","5f50e3d60305bb088998b766","","null","","","learningBlock2","","","","<div style=""font-size:60px;""> </div>","null","LF","learning/Slide90.JPG","This is a dep:","","",""
"html-keyboard-response","277","290015","0.0-7.0-0.10","LF","jfuskuq35s","1280","800","1","1","0","5f50e3d60305bb088998b766","","null","","","learningBlock2","","","","This is a wug:","null","","","","","",""
"image-keyboard-response","278","290343","0.0-7.0-1.10","LF","jfuskuq35s","1280","800","1","1","0","5f50e3d60305bb088998b766","","null","","","","","","","learning/Slide91.JPG","null","","","","","",""
"html-keyboard-response","279","291345","0.0-7.0-2.10","LF","jfuskuq35s","1280","800","1","1","0","5f50e3d60305bb088998b766","","null","","","learningBlock2","","","","<div style=""font-size:60px;""> </div>","null","LF","learning/Slide91.JPG","This is a wug:","","",""
"html-keyboard-response","280","292346","0.0-7.0-0.11","LF","jfuskuq35s","1280","800","1","1","0","5f50e3d60305bb088998b766","","null","","","learningBlock2","","","","This is a tob:","null","","","","","",""
"image-keyboard-response","281","292673","0.0-7.0-1.11","LF","jfuskuq35s","1280","800","1","1","0","5f50e3d60305bb088998b766","","null","","","","","","","learning/Slide92.JPG","null","","","","","",""
"html-keyboard-response","282","293674","0.0-7.0-2.11","LF","jfuskuq35s","1280","800","1","1","0","5f50e3d60305bb088998b766","","null","","","learningBlock2","","","","<div style=""font-size:60px;""> </div>","null","LF","learning/Slide92.JPG","This is a tob:","","",""
"html-keyboard-response","283","294676","0.0-7.0-0.12","LF","jfuskuq35s","1280","800","1","1","0","5f50e3d60305bb088998b766","","null","","","learningBlock2","","","","This is a bim:","null","","","","","",""
"image-keyboard-response","284","295003","0.0-7.0-1.12","LF","jfuskuq35s","1280","800","1","1","0","5f50e3d60305bb088998b766","","null","","","","","","","learning/Slide93.JPG","null","","","","","",""
"html-keyboard-response","285","296005","0.0-7.0-2.12","LF","jfuskuq35s","1280","800","1","1","0","5f50e3d60305bb088998b766","","null","","","learningBlock2","","","","<div style=""font-size:60px;""> </div>","null","LF","learning/Slide93.JPG","This is a bim:","","",""
"html-keyboard-response","286","297007","0.0-7.0-0.13","LF","jfuskuq35s","1280","800","1","1","0","5f50e3d60305bb088998b766","","null","","","learningBlock2","","","","This is a tob:","null","","","","","",""
"image-keyboard-response","287","297333","0.0-7.0-1.13","LF","jfuskuq35s","1280","800","1","1","0","5f50e3d60305bb088998b766","","null","","","","","","","learning/Slide94.JPG","null","","","","","",""
"html-keyboard-response","288","298335","0.0-7.0-2.13","LF","jfuskuq35s","1280","800","1","1","0","5f50e3d60305bb088998b766","","null","","","learningBlock2","","","","<div style=""font-size:60px;""> </div>","null","LF","learning/Slide94.JPG","This is a tob:","","",""
"html-keyboard-response","289","299336","0.0-7.0-0.14","LF","jfuskuq35s","1280","800","1","1","0","5f50e3d60305bb088998b766","","null","","","learningBlock2","","","","This is a wug:","null","","","","","",""
"image-keyboard-response","290","299665","0.0-7.0-1.14","LF","jfuskuq35s","1280","800","1","1","0","5f50e3d60305bb088998b766","","null","","","","","","","learning/Slide95.JPG","null","","","","","",""
"html-keyboard-response","291","300666","0.0-7.0-2.14","LF","jfuskuq35s","1280","800","1","1","0","5f50e3d60305bb088998b766","","null","","","learningBlock2","","","","<div style=""font-size:60px;""> </div>","null","LF","learning/Slide95.JPG","This is a wug:","","",""
"html-keyboard-response","292","301667","0.0-7.0-0.15","LF","jfuskuq35s","1280","800","1","1","0","5f50e3d60305bb088998b766","","null","","","learningBlock2","","","","This is a tob:","null","","","","","",""
"image-keyboard-response","293","301995","0.0-7.0-1.15","LF","jfuskuq35s","1280","800","1","1","0","5f50e3d60305bb088998b766","","null","","","","","","","learning/Slide96.JPG","null","","","","","",""
"html-keyboard-response","294","302997","0.0-7.0-2.15","LF","jfuskuq35s","1280","800","1","1","0","5f50e3d60305bb088998b766","","null","","","learningBlock2","","","","<div style=""font-size:60px;""> </div>","null","LF","learning/Slide96.JPG","This is a tob:","","",""
"html-keyboard-response","295","303999","0.0-7.0-0.16","LF","jfuskuq35s","1280","800","1","1","0","5f50e3d60305bb088998b766","","null","","","learningBlock2","","","","This is a dep:","null","","","","","",""
"image-keyboard-response","296","304326","0.0-7.0-1.16","LF","jfuskuq35s","1280","800","1","1","0","5f50e3d60305bb088998b766","","null","","","","","","","learning/Slide97.JPG","null","","","","","",""
"html-keyboard-response","297","305327","0.0-7.0-2.16","LF","jfuskuq35s","1280","800","1","1","0","5f50e3d60305bb088998b766","","null","","","learningBlock2","","","","<div style=""font-size:60px;""> </div>","null","LF","learning/Slide97.JPG","This is a dep:","","",""
"html-keyboard-response","298","306329","0.0-7.0-0.17","LF","jfuskuq35s","1280","800","1","1","0","5f50e3d60305bb088998b766","","null","","","learningBlock2","","","","This is a bim:","null","","","","","",""
"image-keyboard-response","299","306657","0.0-7.0-1.17","LF","jfuskuq35s","1280","800","1","1","0","5f50e3d60305bb088998b766","","null","","","","","","","learning/Slide98.JPG","null","","","","","",""
"html-keyboard-response","300","307659","0.0-7.0-2.17","LF","jfuskuq35s","1280","800","1","1","0","5f50e3d60305bb088998b766","","null","","","learningBlock2","","","","<div style=""font-size:60px;""> </div>","null","LF","learning/Slide98.JPG","This is a bim:","","",""
"html-keyboard-response","301","308660","0.0-7.0-0.18","LF","jfuskuq35s","1280","800","1","1","0","5f50e3d60305bb088998b766","","null","","","learningBlock2","","","","This is a dep:","null","","","","","",""
"image-keyboard-response","302","308987","0.0-7.0-1.18","LF","jfuskuq35s","1280","800","1","1","0","5f50e3d60305bb088998b766","","null","","","","","","","learning/Slide99.JPG","null","","","","","",""
"html-keyboard-response","303","309989","0.0-7.0-2.18","LF","jfuskuq35s","1280","800","1","1","0","5f50e3d60305bb088998b766","","null","","","learningBlock2","","","","<div style=""font-size:60px;""> </div>","null","LF","learning/Slide99.JPG","This is a dep:","","",""
"html-keyboard-response","304","310991","0.0-7.0-0.19","LF","jfuskuq35s","1280","800","1","1","0","5f50e3d60305bb088998b766","","null","","","learningBlock2","","","","This is a bim:","null","","","","","",""
"image-keyboard-response","305","311318","0.0-7.0-1.19","LF","jfuskuq35s","1280","800","1","1","0","5f50e3d60305bb088998b766","","null","","","","","","","learning/Slide100.JPG","null","","","","","",""
"html-keyboard-response","306","312319","0.0-7.0-2.19","LF","jfuskuq35s","1280","800","1","1","0","5f50e3d60305bb088998b766","","null","","","learningBlock2","","","","<div style=""font-size:60px;""> </div>","null","LF","learning/Slide100.JPG","This is a bim:","","",""
"html-keyboard-response","307","313321","0.0-7.0-0.20","LF","jfuskuq35s","1280","800","1","1","0","5f50e3d60305bb088998b766","","null","","","learningBlock2","","","","This is a tob:","null","","","","","",""
"image-keyboard-response","308","313649","0.0-7.0-1.20","LF","jfuskuq35s","1280","800","1","1","0","5f50e3d60305bb088998b766","","null","","","","","","","learning/Slide101.JPG","null","","","","","",""
"html-keyboard-response","309","314651","0.0-7.0-2.20","LF","jfuskuq35s","1280","800","1","1","0","5f50e3d60305bb088998b766","","null","","","learningBlock2","","","","<div style=""font-size:60px;""> </div>","null","LF","learning/Slide101.JPG","This is a tob:","","",""
"html-keyboard-response","310","315652","0.0-7.0-0.21","LF","jfuskuq35s","1280","800","1","1","0","5f50e3d60305bb088998b766","","null","","","learningBlock2","","","","This is a bim:","null","","","","","",""
"image-keyboard-response","311","315980","0.0-7.0-1.21","LF","jfuskuq35s","1280","800","1","1","0","5f50e3d60305bb088998b766","","null","","","","","","","learning/Slide102.JPG","null","","","","","",""
"html-keyboard-response","312","316980","0.0-7.0-2.21","LF","jfuskuq35s","1280","800","1","1","0","5f50e3d60305bb088998b766","","null","","","learningBlock2","","","","<div style=""font-size:60px;""> </div>","null","LF","learning/Slide102.JPG","This is a bim:","","",""
"html-keyboard-response","313","317981","0.0-7.0-0.22","LF","jfuskuq35s","1280","800","1","1","0","5f50e3d60305bb088998b766","","null","","","learningBlock2","","","","This is a dep:","null","","","","","",""
"image-keyboard-response","314","318309","0.0-7.0-1.22","LF","jfuskuq35s","1280","800","1","1","0","5f50e3d60305bb088998b766","","null","","","","","","","learning/Slide103.JPG","null","","","","","",""
"html-keyboard-response","315","319310","0.0-7.0-2.22","LF","jfuskuq35s","1280","800","1","1","0","5f50e3d60305bb088998b766","","null","","","learningBlock2","","","","<div style=""font-size:60px;""> </div>","null","LF","learning/Slide103.JPG","This is a dep:","","",""
"html-keyboard-response","316","320310","0.0-7.0-0.23","LF","jfuskuq35s","1280","800","1","1","0","5f50e3d60305bb088998b766","","null","","","learningBlock2","","","","This is a tob:","null","","","","","",""
"image-keyboard-response","317","320637","0.0-7.0-1.23","LF","jfuskuq35s","1280","800","1","1","0","5f50e3d60305bb088998b766","","null","","","","","","","learning/Slide104.JPG","null","","","","","",""
"html-keyboard-response","318","321638","0.0-7.0-2.23","LF","jfuskuq35s","1280","800","1","1","0","5f50e3d60305bb088998b766","","null","","","learningBlock2","","","","<div style=""font-size:60px;""> </div>","null","LF","learning/Slide104.JPG","This is a tob:","","",""
"html-keyboard-response","319","322640","0.0-7.0-0.24","LF","jfuskuq35s","1280","800","1","1","0","5f50e3d60305bb088998b766","","null","","","learningBlock2","","","","This is a dep:","null","","","","","",""
"image-keyboard-response","320","322969","0.0-7.0-1.24","LF","jfuskuq35s","1280","800","1","1","0","5f50e3d60305bb088998b766","","null","","","","","","","learning/Slide105.JPG","null","","","","","",""
"html-keyboard-response","321","323971","0.0-7.0-2.24","LF","jfuskuq35s","1280","800","1","1","0","5f50e3d60305bb088998b766","","null","","","learningBlock2","","","","<div style=""font-size:60px;""> </div>","null","LF","learning/Slide105.JPG","This is a dep:","","",""
"html-keyboard-response","322","324971","0.0-7.0-0.25","LF","jfuskuq35s","1280","800","1","1","0","5f50e3d60305bb088998b766","","null","","","learningBlock2","","","","This is a wug:","null","","","","","",""
"image-keyboard-response","323","325299","0.0-7.0-1.25","LF","jfuskuq35s","1280","800","1","1","0","5f50e3d60305bb088998b766","","null","","","","","","","learning/Slide106.JPG","null","","","","","",""
"html-keyboard-response","324","326301","0.0-7.0-2.25","LF","jfuskuq35s","1280","800","1","1","0","5f50e3d60305bb088998b766","","null","","","learningBlock2","","","","<div style=""font-size:60px;""> </div>","null","LF","learning/Slide106.JPG","This is a wug:","","",""
"html-keyboard-response","325","327302","0.0-7.0-0.26","LF","jfuskuq35s","1280","800","1","1","0","5f50e3d60305bb088998b766","","null","","","learningBlock2","","","","This is a bim:","null","","","","","",""
"image-keyboard-response","326","327630","0.0-7.0-1.26","LF","jfuskuq35s","1280","800","1","1","0","5f50e3d60305bb088998b766","","null","","","","","","","learning/Slide107.JPG","null","","","","","",""
"html-keyboard-response","327","328632","0.0-7.0-2.26","LF","jfuskuq35s","1280","800","1","1","0","5f50e3d60305bb088998b766","","null","","","learningBlock2","","","","<div style=""font-size:60px;""> </div>","null","LF","learning/Slide107.JPG","This is a bim:","","",""
"html-keyboard-response","328","329633","0.0-7.0-0.27","LF","jfuskuq35s","1280","800","1","1","0","5f50e3d60305bb088998b766","","null","","","learningBlock2","","","","This is a dep:","null","","","","","",""
"image-keyboard-response","329","329960","0.0-7.0-1.27","LF","jfuskuq35s","1280","800","1","1","0","5f50e3d60305bb088998b766","","null","","","","","","","learning/Slide108.JPG","null","","","","","",""
"html-keyboard-response","330","330961","0.0-7.0-2.27","LF","jfuskuq35s","1280","800","1","1","0","5f50e3d60305bb088998b766","","null","","","learningBlock2","","","","<div style=""font-size:60px;""> </div>","null","LF","learning/Slide108.JPG","This is a dep:","","",""
"html-keyboard-response","331","331961","0.0-7.0-0.28","LF","jfuskuq35s","1280","800","1","1","0","5f50e3d60305bb088998b766","","null","","","learningBlock2","","","","This is a wug:","null","","","","","",""
"image-keyboard-response","332","332289","0.0-7.0-1.28","LF","jfuskuq35s","1280","800","1","1","0","5f50e3d60305bb088998b766","","null","","","","","","","learning/Slide109.JPG","null","","","","","",""
"html-keyboard-response","333","333290","0.0-7.0-2.28","LF","jfuskuq35s","1280","800","1","1","0","5f50e3d60305bb088998b766","","null","","","learningBlock2","","","","<div style=""font-size:60px;""> </div>","null","LF","learning/Slide109.JPG","This is a wug:","","",""
"html-keyboard-response","334","334292","0.0-7.0-0.29","LF","jfuskuq35s","1280","800","1","1","0","5f50e3d60305bb088998b766","","null","","","learningBlock2","","","","This is a bim:","null","","","","","",""
"image-keyboard-response","335","334619","0.0-7.0-1.29","LF","jfuskuq35s","1280","800","1","1","0","5f50e3d60305bb088998b766","","null","","","","","","","learning/Slide110.JPG","null","","","","","",""
"html-keyboard-response","336","335621","0.0-7.0-2.29","LF","jfuskuq35s","1280","800","1","1","0","5f50e3d60305bb088998b766","","null","","","learningBlock2","","","","<div style=""font-size:60px;""> </div>","null","LF","learning/Slide110.JPG","This is a bim:","","",""
"html-keyboard-response","337","336623","0.0-7.0-0.30","LF","jfuskuq35s","1280","800","1","1","0","5f50e3d60305bb088998b766","","null","","","learningBlock2","","","","This is a tob:","null","","","","","",""
"image-keyboard-response","338","336949","0.0-7.0-1.30","LF","jfuskuq35s","1280","800","1","1","0","5f50e3d60305bb088998b766","","null","","","","","","","learning/Slide111.JPG","null","","","","","",""
"html-keyboard-response","339","337950","0.0-7.0-2.30","LF","jfuskuq35s","1280","800","1","1","0","5f50e3d60305bb088998b766","","null","","","learningBlock2","","","","<div style=""font-size:60px;""> </div>","null","LF","learning/Slide111.JPG","This is a tob:","","",""
"html-keyboard-response","340","338951","0.0-7.0-0.31","LF","jfuskuq35s","1280","800","1","1","0","5f50e3d60305bb088998b766","","null","","","learningBlock2","","","","This is a wug:","null","","","","","",""
"image-keyboard-response","341","339280","0.0-7.0-1.31","LF","jfuskuq35s","1280","800","1","1","0","5f50e3d60305bb088998b766","","null","","","","","","","learning/Slide112.JPG","null","","","","","",""
"html-keyboard-response","342","340281","0.0-7.0-2.31","LF","jfuskuq35s","1280","800","1","1","0","5f50e3d60305bb088998b766","","null","","","learningBlock2","","","","<div style=""font-size:60px;""> </div>","null","LF","learning/Slide112.JPG","This is a wug:","","",""
"html-keyboard-response","343","341283","0.0-7.0-0.32","LF","jfuskuq35s","1280","800","1","1","0","5f50e3d60305bb088998b766","","null","","","learningBlock2","","","","This is a tob:","null","","","","","",""
"image-keyboard-response","344","341611","0.0-7.0-1.32","LF","jfuskuq35s","1280","800","1","1","0","5f50e3d60305bb088998b766","","null","","","","","","","learning/Slide113.JPG","null","","","","","",""
"html-keyboard-response","345","342612","0.0-7.0-2.32","LF","jfuskuq35s","1280","800","1","1","0","5f50e3d60305bb088998b766","","null","","","learningBlock2","","","","<div style=""font-size:60px;""> </div>","null","LF","learning/Slide113.JPG","This is a tob:","","",""
"html-keyboard-response","346","343614","0.0-7.0-0.33","LF","jfuskuq35s","1280","800","1","1","0","5f50e3d60305bb088998b766","","null","","","learningBlock2","","","","This is a wug:","null","","","","","",""
"image-keyboard-response","347","343941","0.0-7.0-1.33","LF","jfuskuq35s","1280","800","1","1","0","5f50e3d60305bb088998b766","","null","","","","","","","learning/Slide114.JPG","null","","","","","",""
"html-keyboard-response","348","344942","0.0-7.0-2.33","LF","jfuskuq35s","1280","800","1","1","0","5f50e3d60305bb088998b766","","null","","","learningBlock2","","","","<div style=""font-size:60px;""> </div>","null","LF","learning/Slide114.JPG","This is a wug:","","",""
"html-keyboard-response","349","345944","0.0-7.0-0.34","LF","jfuskuq35s","1280","800","1","1","0","5f50e3d60305bb088998b766","","null","","","learningBlock2","","","","This is a bim:","null","","","","","",""
"image-keyboard-response","350","346272","0.0-7.0-1.34","LF","jfuskuq35s","1280","800","1","1","0","5f50e3d60305bb088998b766","","null","","","","","","","learning/Slide115.JPG","null","","","","","",""
"html-keyboard-response","351","347273","0.0-7.0-2.34","LF","jfuskuq35s","1280","800","1","1","0","5f50e3d60305bb088998b766","","null","","","learningBlock2","","","","<div style=""font-size:60px;""> </div>","null","LF","learning/Slide115.JPG","This is a bim:","","",""
"html-keyboard-response","352","348276","0.0-7.0-0.35","LF","jfuskuq35s","1280","800","1","1","0","5f50e3d60305bb088998b766","","null","","","learningBlock2","","","","This is a dep:","null","","","","","",""
"image-keyboard-response","353","348603","0.0-7.0-1.35","LF","jfuskuq35s","1280","800","1","1","0","5f50e3d60305bb088998b766","","null","","","","","","","learning/Slide116.JPG","null","","","","","",""
"html-keyboard-response","354","349605","0.0-7.0-2.35","LF","jfuskuq35s","1280","800","1","1","0","5f50e3d60305bb088998b766","","null","","","learningBlock2","","","","<div style=""font-size:60px;""> </div>","null","LF","learning/Slide116.JPG","This is a dep:","","",""
"html-keyboard-response","355","350607","0.0-7.0-0.36","LF","jfuskuq35s","1280","800","1","1","0","5f50e3d60305bb088998b766","","null","","","learningBlock2","","","","This is a tob:","null","","","","","",""
"image-keyboard-response","356","350935","0.0-7.0-1.36","LF","jfuskuq35s","1280","800","1","1","0","5f50e3d60305bb088998b766","","null","","","","","","","learning/Slide117.JPG","null","","","","","",""
"html-keyboard-response","357","351935","0.0-7.0-2.36","LF","jfuskuq35s","1280","800","1","1","0","5f50e3d60305bb088998b766","","null","","","learningBlock2","","","","<div style=""font-size:60px;""> </div>","null","LF","learning/Slide117.JPG","This is a tob:","","",""
"html-keyboard-response","358","352937","0.0-7.0-0.37","LF","jfuskuq35s","1280","800","1","1","0","5f50e3d60305bb088998b766","","null","","","learningBlock2","","","","This is a dep:","null","","","","","",""
"image-keyboard-response","359","353264","0.0-7.0-1.37","LF","jfuskuq35s","1280","800","1","1","0","5f50e3d60305bb088998b766","","null","","","","","","","learning/Slide118.JPG","null","","","","","",""
"html-keyboard-response","360","354266","0.0-7.0-2.37","LF","jfuskuq35s","1280","800","1","1","0","5f50e3d60305bb088998b766","","null","","","learningBlock2","","","","<div style=""font-size:60px;""> </div>","null","LF","learning/Slide118.JPG","This is a dep:","","",""
"html-keyboard-response","361","355268","0.0-7.0-0.38","LF","jfuskuq35s","1280","800","1","1","0","5f50e3d60305bb088998b766","","null","","","learningBlock2","","","","This is a wug:","null","","","","","",""
"image-keyboard-response","362","355594","0.0-7.0-1.38","LF","jfuskuq35s","1280","800","1","1","0","5f50e3d60305bb088998b766","","null","","","","","","","learning/Slide119.JPG","null","","","","","",""
"html-keyboard-response","363","356597","0.0-7.0-2.38","LF","jfuskuq35s","1280","800","1","1","0","5f50e3d60305bb088998b766","","null","","","learningBlock2","","","","<div style=""font-size:60px;""> </div>","null","LF","learning/Slide119.JPG","This is a wug:","","",""
"html-keyboard-response","364","357598","0.0-7.0-0.39","LF","jfuskuq35s","1280","800","1","1","0","5f50e3d60305bb088998b766","","null","","","learningBlock2","","","","This is a dep:","null","","","","","",""
"image-keyboard-response","365","357926","0.0-7.0-1.39","LF","jfuskuq35s","1280","800","1","1","0","5f50e3d60305bb088998b766","","null","","","","","","","learning/Slide120.JPG","null","","","","","",""
"html-keyboard-response","366","358928","0.0-7.0-2.39","LF","jfuskuq35s","1280","800","1","1","0","5f50e3d60305bb088998b766","","null","","","learningBlock2","","","","<div style=""font-size:60px;""> </div>","null","LF","learning/Slide120.JPG","This is a dep:","","",""
"html-keyboard-response","367","359930","0.0-7.0-0.40","LF","jfuskuq35s","1280","800","1","1","0","5f50e3d60305bb088998b766","","null","","","learningBlock2","","","","This is a bim:","null","","","","","",""
"image-keyboard-response","368","360257","0.0-7.0-1.40","LF","jfuskuq35s","1280","800","1","1","0","5f50e3d60305bb088998b766","","null","","","","","","","learning/Slide121.JPG","null","","","","","",""
"html-keyboard-response","369","361259","0.0-7.0-2.40","LF","jfuskuq35s","1280","800","1","1","0","5f50e3d60305bb088998b766","","null","","","learningBlock2","","","","<div style=""font-size:60px;""> </div>","null","LF","learning/Slide121.JPG","This is a bim:","","",""
"html-keyboard-response","370","362260","0.0-7.0-0.41","LF","jfuskuq35s","1280","800","1","1","0","5f50e3d60305bb088998b766","","null","","","learningBlock2","","","","This is a wug:","null","","","","","",""
"image-keyboard-response","371","362588","0.0-7.0-1.41","LF","jfuskuq35s","1280","800","1","1","0","5f50e3d60305bb088998b766","","null","","","","","","","learning/Slide122.JPG","null","","","","","",""
"html-keyboard-response","372","363590","0.0-7.0-2.41","LF","jfuskuq35s","1280","800","1","1","0","5f50e3d60305bb088998b766","","null","","","learningBlock2","","","","<div style=""font-size:60px;""> </div>","null","LF","learning/Slide122.JPG","This is a wug:","","",""
"html-keyboard-response","373","364591","0.0-7.0-0.42","LF","jfuskuq35s","1280","800","1","1","0","5f50e3d60305bb088998b766","","null","","","learningBlock2","","","","This is a bim:","null","","","","","",""
"image-keyboard-response","374","364917","0.0-7.0-1.42","LF","jfuskuq35s","1280","800","1","1","0","5f50e3d60305bb088998b766","","null","","","","","","","learning/Slide123.JPG","null","","","","","",""
"html-keyboard-response","375","365918","0.0-7.0-2.42","LF","jfuskuq35s","1280","800","1","1","0","5f50e3d60305bb088998b766","","null","","","learningBlock2","","","","<div style=""font-size:60px;""> </div>","null","LF","learning/Slide123.JPG","This is a bim:","","",""
"html-keyboard-response","376","366920","0.0-7.0-0.43","LF","jfuskuq35s","1280","800","1","1","0","5f50e3d60305bb088998b766","","null","","","learningBlock2","","","","This is a tob:","null","","","","","",""
"image-keyboard-response","377","367247","0.0-7.0-1.43","LF","jfuskuq35s","1280","800","1","1","0","5f50e3d60305bb088998b766","","null","","","","","","","learning/Slide124.JPG","null","","","","","",""
"html-keyboard-response","378","368248","0.0-7.0-2.43","LF","jfuskuq35s","1280","800","1","1","0","5f50e3d60305bb088998b766","","null","","","learningBlock2","","","","<div style=""font-size:60px;""> </div>","null","LF","learning/Slide124.JPG","This is a tob:","","",""
"html-keyboard-response","379","369249","0.0-7.0-0.44","LF","jfuskuq35s","1280","800","1","1","0","5f50e3d60305bb088998b766","","null","","","learningBlock2","","","","This is a bim:","null","","","","","",""
"image-keyboard-response","380","369577","0.0-7.0-1.44","LF","jfuskuq35s","1280","800","1","1","0","5f50e3d60305bb088998b766","","null","","","","","","","learning/Slide125.JPG","null","","","","","",""
"html-keyboard-response","381","370578","0.0-7.0-2.44","LF","jfuskuq35s","1280","800","1","1","0","5f50e3d60305bb088998b766","","null","","","learningBlock2","","","","<div style=""font-size:60px;""> </div>","null","LF","learning/Slide125.JPG","This is a bim:","","",""
"html-keyboard-response","382","371580","0.0-7.0-0.45","LF","jfuskuq35s","1280","800","1","1","0","5f50e3d60305bb088998b766","","null","","","learningBlock2","","","","This is a tob:","null","","","","","",""
"image-keyboard-response","383","371907","0.0-7.0-1.45","LF","jfuskuq35s","1280","800","1","1","0","5f50e3d60305bb088998b766","","null","","","","","","","learning/Slide126.JPG","null","","","","","",""
"html-keyboard-response","384","372909","0.0-7.0-2.45","LF","jfuskuq35s","1280","800","1","1","0","5f50e3d60305bb088998b766","","null","","","learningBlock2","","","","<div style=""font-size:60px;""> </div>","null","LF","learning/Slide126.JPG","This is a tob:","","",""
"html-keyboard-response","385","373911","0.0-7.0-0.46","LF","jfuskuq35s","1280","800","1","1","0","5f50e3d60305bb088998b766","","null","","","learningBlock2","","","","This is a dep:","null","","","","","",""
"image-keyboard-response","386","374238","0.0-7.0-1.46","LF","jfuskuq35s","1280","800","1","1","0","5f50e3d60305bb088998b766","","null","","","","","","","learning/Slide127.JPG","null","","","","","",""
"html-keyboard-response","387","375240","0.0-7.0-2.46","LF","jfuskuq35s","1280","800","1","1","0","5f50e3d60305bb088998b766","","null","","","learningBlock2","","","","<div style=""font-size:60px;""> </div>","null","LF","learning/Slide127.JPG","This is a dep:","","",""
"html-keyboard-response","388","376242","0.0-7.0-0.47","LF","jfuskuq35s","1280","800","1","1","0","5f50e3d60305bb088998b766","","null","","","learningBlock2","","","","This is a wug:","null","","","","","",""
"image-keyboard-response","389","376569","0.0-7.0-1.47","LF","jfuskuq35s","1280","800","1","1","0","5f50e3d60305bb088998b766","","null","","","","","","","learning/Slide128.JPG","null","","","","","",""
"html-keyboard-response","390","377569","0.0-7.0-2.47","LF","jfuskuq35s","1280","800","1","1","0","5f50e3d60305bb088998b766","","null","","","learningBlock2","","","","<div style=""font-size:60px;""> </div>","null","LF","learning/Slide128.JPG","This is a wug:","","",""
"html-keyboard-response","391","378570","0.0-7.0-0.48","LF","jfuskuq35s","1280","800","1","1","0","5f50e3d60305bb088998b766","","null","","","learningBlock2","","","","This is a tob:","null","","","","","",""
"image-keyboard-response","392","378897","0.0-7.0-1.48","LF","jfuskuq35s","1280","800","1","1","0","5f50e3d60305bb088998b766","","null","","","","","","","learning/Slide129.JPG","null","","","","","",""
"html-keyboard-response","393","379898","0.0-7.0-2.48","LF","jfuskuq35s","1280","800","1","1","0","5f50e3d60305bb088998b766","","null","","","learningBlock2","","","","<div style=""font-size:60px;""> </div>","null","LF","learning/Slide129.JPG","This is a tob:","","",""
"html-keyboard-response","394","380900","0.0-7.0-0.49","LF","jfuskuq35s","1280","800","1","1","0","5f50e3d60305bb088998b766","","null","","","learningBlock2","","","","This is a wug:","null","","","","","",""
"image-keyboard-response","395","381228","0.0-7.0-1.49","LF","jfuskuq35s","1280","800","1","1","0","5f50e3d60305bb088998b766","","null","","","","","","","learning/Slide130.JPG","null","","","","","",""
"html-keyboard-response","396","382228","0.0-7.0-2.49","LF","jfuskuq35s","1280","800","1","1","0","5f50e3d60305bb088998b766","","null","","","learningBlock2","","","","<div style=""font-size:60px;""> </div>","null","LF","learning/Slide130.JPG","This is a wug:","","",""
"html-keyboard-response","397","383230","0.0-7.0-0.50","LF","jfuskuq35s","1280","800","1","1","0","5f50e3d60305bb088998b766","","null","","","learningBlock2","","","","This is a bim:","null","","","","","",""
"image-keyboard-response","398","383557","0.0-7.0-1.50","LF","jfuskuq35s","1280","800","1","1","0","5f50e3d60305bb088998b766","","null","","","","","","","learning/Slide131.JPG","null","","","","","",""
"html-keyboard-response","399","384558","0.0-7.0-2.50","LF","jfuskuq35s","1280","800","1","1","0","5f50e3d60305bb088998b766","","null","","","learningBlock2","","","","<div style=""font-size:60px;""> </div>","null","LF","learning/Slide131.JPG","This is a bim:","","",""
"html-keyboard-response","400","385561","0.0-7.0-0.51","LF","jfuskuq35s","1280","800","1","1","0","5f50e3d60305bb088998b766","","null","","","learningBlock2","","","","This is a dep:","null","","","","","",""
"image-keyboard-response","401","385889","0.0-7.0-1.51","LF","jfuskuq35s","1280","800","1","1","0","5f50e3d60305bb088998b766","","null","","","","","","","learning/Slide132.JPG","null","","","","","",""
"html-keyboard-response","402","386889","0.0-7.0-2.51","LF","jfuskuq35s","1280","800","1","1","0","5f50e3d60305bb088998b766","","null","","","learningBlock2","","","","<div style=""font-size:60px;""> </div>","null","LF","learning/Slide132.JPG","This is a dep:","","",""
"html-keyboard-response","403","387892","0.0-7.0-0.52","LF","jfuskuq35s","1280","800","1","1","0","5f50e3d60305bb088998b766","","null","","","learningBlock2","","","","This is a tob:","null","","","","","",""
"image-keyboard-response","404","388219","0.0-7.0-1.52","LF","jfuskuq35s","1280","800","1","1","0","5f50e3d60305bb088998b766","","null","","","","","","","learning/Slide133.JPG","null","","","","","",""
"html-keyboard-response","405","389221","0.0-7.0-2.52","LF","jfuskuq35s","1280","800","1","1","0","5f50e3d60305bb088998b766","","null","","","learningBlock2","","","","<div style=""font-size:60px;""> </div>","null","LF","learning/Slide133.JPG","This is a tob:","","",""
"html-keyboard-response","406","390222","0.0-7.0-0.53","LF","jfuskuq35s","1280","800","1","1","0","5f50e3d60305bb088998b766","","null","","","learningBlock2","","","","This is a dep:","null","","","","","",""
"image-keyboard-response","407","390550","0.0-7.0-1.53","LF","jfuskuq35s","1280","800","1","1","0","5f50e3d60305bb088998b766","","null","","","","","","","learning/Slide134.JPG","null","","","","","",""
"html-keyboard-response","408","391552","0.0-7.0-2.53","LF","jfuskuq35s","1280","800","1","1","0","5f50e3d60305bb088998b766","","null","","","learningBlock2","","","","<div style=""font-size:60px;""> </div>","null","LF","learning/Slide134.JPG","This is a dep:","","",""
"html-keyboard-response","409","392554","0.0-7.0-0.54","LF","jfuskuq35s","1280","800","1","1","0","5f50e3d60305bb088998b766","","null","","","learningBlock2","","","","This is a tob:","null","","","","","",""
"image-keyboard-response","410","392880","0.0-7.0-1.54","LF","jfuskuq35s","1280","800","1","1","0","5f50e3d60305bb088998b766","","null","","","","","","","learning/Slide135.JPG","null","","","","","",""
"html-keyboard-response","411","393882","0.0-7.0-2.54","LF","jfuskuq35s","1280","800","1","1","0","5f50e3d60305bb088998b766","","null","","","learningBlock2","","","","<div style=""font-size:60px;""> </div>","null","LF","learning/Slide135.JPG","This is a tob:","","",""
"html-keyboard-response","412","394884","0.0-7.0-0.55","LF","jfuskuq35s","1280","800","1","1","0","5f50e3d60305bb088998b766","","null","","","learningBlock2","","","","This is a wug:","null","","","","","",""
"image-keyboard-response","413","395211","0.0-7.0-1.55","LF","jfuskuq35s","1280","800","1","1","0","5f50e3d60305bb088998b766","","null","","","","","","","learning/Slide136.JPG","null","","","","","",""
"html-keyboard-response","414","396212","0.0-7.0-2.55","LF","jfuskuq35s","1280","800","1","1","0","5f50e3d60305bb088998b766","","null","","","learningBlock2","","","","<div style=""font-size:60px;""> </div>","null","LF","learning/Slide136.JPG","This is a wug:","","",""
"html-keyboard-response","415","397213","0.0-7.0-0.56","LF","jfuskuq35s","1280","800","1","1","0","5f50e3d60305bb088998b766","","null","","","learningBlock2","","","","This is a tob:","null","","","","","",""
"image-keyboard-response","416","397540","0.0-7.0-1.56","LF","jfuskuq35s","1280","800","1","1","0","5f50e3d60305bb088998b766","","null","","","","","","","learning/Slide137.JPG","null","","","","","",""
"html-keyboard-response","417","398541","0.0-7.0-2.56","LF","jfuskuq35s","1280","800","1","1","0","5f50e3d60305bb088998b766","","null","","","learningBlock2","","","","<div style=""font-size:60px;""> </div>","null","LF","learning/Slide137.JPG","This is a tob:","","",""
"html-keyboard-response","418","399543","0.0-7.0-0.57","LF","jfuskuq35s","1280","800","1","1","0","5f50e3d60305bb088998b766","","null","","","learningBlock2","","","","This is a bim:","null","","","","","",""
"image-keyboard-response","419","399870","0.0-7.0-1.57","LF","jfuskuq35s","1280","800","1","1","0","5f50e3d60305bb088998b766","","null","","","","","","","learning/Slide138.JPG","null","","","","","",""
"html-keyboard-response","420","400872","0.0-7.0-2.57","LF","jfuskuq35s","1280","800","1","1","0","5f50e3d60305bb088998b766","","null","","","learningBlock2","","","","<div style=""font-size:60px;""> </div>","null","LF","learning/Slide138.JPG","This is a bim:","","",""
"html-keyboard-response","421","401873","0.0-7.0-0.58","LF","jfuskuq35s","1280","800","1","1","0","5f50e3d60305bb088998b766","","null","","","learningBlock2","","","","This is a wug:","null","","","","","",""
"image-keyboard-response","422","402201","0.0-7.0-1.58","LF","jfuskuq35s","1280","800","1","1","0","5f50e3d60305bb088998b766","","null","","","","","","","learning/Slide139.JPG","null","","","","","",""
"html-keyboard-response","423","403202","0.0-7.0-2.58","LF","jfuskuq35s","1280","800","1","1","0","5f50e3d60305bb088998b766","","null","","","learningBlock2","","","","<div style=""font-size:60px;""> </div>","null","LF","learning/Slide139.JPG","This is a wug:","","",""
"html-keyboard-response","424","404204","0.0-7.0-0.59","LF","jfuskuq35s","1280","800","1","1","0","5f50e3d60305bb088998b766","","null","","","learningBlock2","","","","This is a dep:","null","","","","","",""
"image-keyboard-response","425","404532","0.0-7.0-1.59","LF","jfuskuq35s","1280","800","1","1","0","5f50e3d60305bb088998b766","","null","","","","","","","learning/Slide140.JPG","null","","","","","",""
"html-keyboard-response","426","405534","0.0-7.0-2.59","LF","jfuskuq35s","1280","800","1","1","0","5f50e3d60305bb088998b766","","null","","","learningBlock2","","","","<div style=""font-size:60px;""> </div>","null","LF","learning/Slide140.JPG","This is a dep:","","",""
"html-keyboard-response","427","406535","0.0-7.0-0.60","LF","jfuskuq35s","1280","800","1","1","0","5f50e3d60305bb088998b766","","null","","","learningBlock2","","","","This is a tob:","null","","","","","",""
"image-keyboard-response","428","406862","0.0-7.0-1.60","LF","jfuskuq35s","1280","800","1","1","0","5f50e3d60305bb088998b766","","null","","","","","","","learning/Slide141.JPG","null","","","","","",""
"html-keyboard-response","429","407864","0.0-7.0-2.60","LF","jfuskuq35s","1280","800","1","1","0","5f50e3d60305bb088998b766","","null","","","learningBlock2","","","","<div style=""font-size:60px;""> </div>","null","LF","learning/Slide141.JPG","This is a tob:","","",""
"html-keyboard-response","430","408865","0.0-7.0-0.61","LF","jfuskuq35s","1280","800","1","1","0","5f50e3d60305bb088998b766","","null","","","learningBlock2","","","","This is a wug:","null","","","","","",""
"image-keyboard-response","431","409193","0.0-7.0-1.61","LF","jfuskuq35s","1280","800","1","1","0","5f50e3d60305bb088998b766","","null","","","","","","","learning/Slide142.JPG","null","","","","","",""
"html-keyboard-response","432","410195","0.0-7.0-2.61","LF","jfuskuq35s","1280","800","1","1","0","5f50e3d60305bb088998b766","","null","","","learningBlock2","","","","<div style=""font-size:60px;""> </div>","null","LF","learning/Slide142.JPG","This is a wug:","","",""
"html-keyboard-response","433","411196","0.0-7.0-0.62","LF","jfuskuq35s","1280","800","1","1","0","5f50e3d60305bb088998b766","","null","","","learningBlock2","","","","This is a bim:","null","","","","","",""
"image-keyboard-response","434","411524","0.0-7.0-1.62","LF","jfuskuq35s","1280","800","1","1","0","5f50e3d60305bb088998b766","","null","","","","","","","learning/Slide143.JPG","null","","","","","",""
"html-keyboard-response","435","412526","0.0-7.0-2.62","LF","jfuskuq35s","1280","800","1","1","0","5f50e3d60305bb088998b766","","null","","","learningBlock2","","","","<div style=""font-size:60px;""> </div>","null","LF","learning/Slide143.JPG","This is a bim:","","",""
"html-keyboard-response","436","413527","0.0-7.0-0.63","LF","jfuskuq35s","1280","800","1","1","0","5f50e3d60305bb088998b766","","null","","","learningBlock2","","","","This is a dep:","null","","","","","",""
"image-keyboard-response","437","413854","0.0-7.0-1.63","LF","jfuskuq35s","1280","800","1","1","0","5f50e3d60305bb088998b766","","null","","","","","","","learning/Slide144.JPG","null","","","","","",""
"html-keyboard-response","438","414856","0.0-7.0-2.63","LF","jfuskuq35s","1280","800","1","1","0","5f50e3d60305bb088998b766","","null","","","learningBlock2","","","","<div style=""font-size:60px;""> </div>","null","LF","learning/Slide144.JPG","This is a dep:","","",""
