"trial_type","trial_index","time_elapsed","internal_node_id","condition","subject","screen_width","screen_height","attention","distraction","conscientious","prolificID","success","rt","url","view_history","test_part","final_height_px","final_width_px","scale_factor","stimulus","key_press","learningType","presentedImage","presentedLabel","button_pressed","response","responses"
"pavlovia","0","40","0.0-0.0","LF","daqg5rc8xw","1440","900","0","1","0","5eadc934201643479a185e59","","","","","","","","","","","","","","","",""
"fullscreen","1","10241","0.0-1.0","LF","daqg5rc8xw","1440","900","0","1","0","5eadc934201643479a185e59","true","","","","","","","","","","","","","","",""
"external-html","2","29401","0.0-2.0-0.0","LF","daqg5rc8xw","1440","900","0","1","0","5eadc934201643479a185e59","","19036.67000005953","text/information_english.html","","","","","","","","","","","","",""
"external-html","3","36619","0.0-2.0-1.0","LF","daqg5rc8xw","1440","900","0","1","0","5eadc934201643479a185e59","","7161.159999901429","text/consent_english.html","","","","","","","","","","","","",""
"instructions","4","49107","0.0-3.0","LF","daqg5rc8xw","1440","900","0","1","0","5eadc934201643479a185e59","","NA","","[{""page_index"":0,""viewing_time"":2338.959999848157},{""page_index"":1,""viewing_time"":10139.82000015676}]","instructions","","","","","","","","","","",""
"resize","5","70403","0.0-4.0","LF","daqg5rc8xw","1440","900","0","1","0","5eadc934201643479a185e59","","","","","","","432","2.742857142857143","","","","","","","",""
"html-keyboard-response","6","71408","0.0-5.0-0.0","LF","daqg5rc8xw","1440","900","0","1","0","5eadc934201643479a185e59","","null","","","learningBlock1","","","","This is a tob:","null","","","","","",""
"image-keyboard-response","7","71743","0.0-5.0-1.0","LF","daqg5rc8xw","1440","900","0","1","0","5eadc934201643479a185e59","","null","","","","","","","learning/Slide1.JPG","null","","","","","",""
"html-keyboard-response","8","72746","0.0-5.0-2.0","LF","daqg5rc8xw","1440","900","0","1","0","5eadc934201643479a185e59","","null","","","learningBlock1","","","","<div style=""font-size:60px;""> </div>","null","LF","learning/Slide1.JPG","This is a tob:","","",""
"html-keyboard-response","9","73752","0.0-5.0-0.1","LF","daqg5rc8xw","1440","900","0","1","0","5eadc934201643479a185e59","","null","","","learningBlock1","","","","This is a wug:","null","","","","","",""
"image-keyboard-response","10","74090","0.0-5.0-1.1","LF","daqg5rc8xw","1440","900","0","1","0","5eadc934201643479a185e59","","null","","","","","","","learning/Slide2.JPG","null","","","","","",""
"html-keyboard-response","11","75095","0.0-5.0-2.1","LF","daqg5rc8xw","1440","900","0","1","0","5eadc934201643479a185e59","","null","","","learningBlock1","","","","<div style=""font-size:60px;""> </div>","null","LF","learning/Slide2.JPG","This is a wug:","","",""
"html-keyboard-response","12","76097","0.0-5.0-0.2","LF","daqg5rc8xw","1440","900","0","1","0","5eadc934201643479a185e59","","null","","","learningBlock1","","","","This is a bim:","null","","","","","",""
"image-keyboard-response","13","76430","0.0-5.0-1.2","LF","daqg5rc8xw","1440","900","0","1","0","5eadc934201643479a185e59","","null","","","","","","","learning/Slide3.JPG","null","","","","","",""
"html-keyboard-response","14","77436","0.0-5.0-2.2","LF","daqg5rc8xw","1440","900","0","1","0","5eadc934201643479a185e59","","null","","","learningBlock1","","","","<div style=""font-size:60px;""> </div>","null","LF","learning/Slide3.JPG","This is a bim:","","",""
"html-keyboard-response","15","78439","0.0-5.0-0.3","LF","daqg5rc8xw","1440","900","0","1","0","5eadc934201643479a185e59","","null","","","learningBlock1","","","","This is a dep:","null","","","","","",""
"image-keyboard-response","16","78775","0.0-5.0-1.3","LF","daqg5rc8xw","1440","900","0","1","0","5eadc934201643479a185e59","","null","","","","","","","learning/Slide4.JPG","null","","","","","",""
"html-keyboard-response","17","79781","0.0-5.0-2.3","LF","daqg5rc8xw","1440","900","0","1","0","5eadc934201643479a185e59","","null","","","learningBlock1","","","","<div style=""font-size:60px;""> </div>","null","LF","learning/Slide4.JPG","This is a dep:","","",""
"html-keyboard-response","18","80788","0.0-5.0-0.4","LF","daqg5rc8xw","1440","900","0","1","0","5eadc934201643479a185e59","","null","","","learningBlock1","","","","This is a wug:","null","","","","","",""
"image-keyboard-response","19","81125","0.0-5.0-1.4","LF","daqg5rc8xw","1440","900","0","1","0","5eadc934201643479a185e59","","null","","","","","","","learning/Slide5.JPG","null","","","","","",""
"html-keyboard-response","20","82129","0.0-5.0-2.4","LF","daqg5rc8xw","1440","900","0","1","0","5eadc934201643479a185e59","","null","","","learningBlock1","","","","<div style=""font-size:60px;""> </div>","null","LF","learning/Slide5.JPG","This is a wug:","","",""
"html-keyboard-response","21","83131","0.0-5.0-0.5","LF","daqg5rc8xw","1440","900","0","1","0","5eadc934201643479a185e59","","null","","","learningBlock1","","","","This is a dep:","null","","","","","",""
"image-keyboard-response","22","83468","0.0-5.0-1.5","LF","daqg5rc8xw","1440","900","0","1","0","5eadc934201643479a185e59","","null","","","","","","","learning/Slide6.JPG","null","","","","","",""
"html-keyboard-response","23","84474","0.0-5.0-2.5","LF","daqg5rc8xw","1440","900","0","1","0","5eadc934201643479a185e59","","null","","","learningBlock1","","","","<div style=""font-size:60px;""> </div>","null","LF","learning/Slide6.JPG","This is a dep:","","",""
"html-keyboard-response","24","85481","0.0-5.0-0.6","LF","daqg5rc8xw","1440","900","0","1","0","5eadc934201643479a185e59","","null","","","learningBlock1","","","","This is a wug:","null","","","","","",""
"image-keyboard-response","25","85815","0.0-5.0-1.6","LF","daqg5rc8xw","1440","900","0","1","0","5eadc934201643479a185e59","","null","","","","","","","learning/Slide7.JPG","null","","","","","",""
"html-keyboard-response","26","86822","0.0-5.0-2.6","LF","daqg5rc8xw","1440","900","0","1","0","5eadc934201643479a185e59","","null","","","learningBlock1","","","","<div style=""font-size:60px;""> </div>","null","LF","learning/Slide7.JPG","This is a wug:","","",""
"html-keyboard-response","27","87828","0.0-5.0-0.7","LF","daqg5rc8xw","1440","900","0","1","0","5eadc934201643479a185e59","","null","","","learningBlock1","","","","This is a bim:","null","","","","","",""
"image-keyboard-response","28","88166","0.0-5.0-1.7","LF","daqg5rc8xw","1440","900","0","1","0","5eadc934201643479a185e59","","null","","","","","","","learning/Slide8.JPG","null","","","","","",""
"html-keyboard-response","29","89172","0.0-5.0-2.7","LF","daqg5rc8xw","1440","900","0","1","0","5eadc934201643479a185e59","","null","","","learningBlock1","","","","<div style=""font-size:60px;""> </div>","null","LF","learning/Slide8.JPG","This is a bim:","","",""
"html-keyboard-response","30","90177","0.0-5.0-0.8","LF","daqg5rc8xw","1440","900","0","1","0","5eadc934201643479a185e59","","null","","","learningBlock1","","","","This is a wug:","null","","","","","",""
"image-keyboard-response","31","90509","0.0-5.0-1.8","LF","daqg5rc8xw","1440","900","0","1","0","5eadc934201643479a185e59","","null","","","","","","","learning/Slide9.JPG","null","","","","","",""
"html-keyboard-response","32","91514","0.0-5.0-2.8","LF","daqg5rc8xw","1440","900","0","1","0","5eadc934201643479a185e59","","null","","","learningBlock1","","","","<div style=""font-size:60px;""> </div>","null","LF","learning/Slide9.JPG","This is a wug:","","",""
"html-keyboard-response","33","92519","0.0-5.0-0.9","LF","daqg5rc8xw","1440","900","0","1","0","5eadc934201643479a185e59","","null","","","learningBlock1","","","","This is a dep:","null","","","","","",""
"image-keyboard-response","34","92855","0.0-5.0-1.9","LF","daqg5rc8xw","1440","900","0","1","0","5eadc934201643479a185e59","","null","","","","","","","learning/Slide10.JPG","null","","","","","",""
"html-keyboard-response","35","93860","0.0-5.0-2.9","LF","daqg5rc8xw","1440","900","0","1","0","5eadc934201643479a185e59","","null","","","learningBlock1","","","","<div style=""font-size:60px;""> </div>","null","LF","learning/Slide10.JPG","This is a dep:","","",""
"html-keyboard-response","36","94863","0.0-5.0-0.10","LF","daqg5rc8xw","1440","900","0","1","0","5eadc934201643479a185e59","","null","","","learningBlock1","","","","This is a tob:","null","","","","","",""
"image-keyboard-response","37","95198","0.0-5.0-1.10","LF","daqg5rc8xw","1440","900","0","1","0","5eadc934201643479a185e59","","null","","","","","","","learning/Slide11.JPG","null","","","","","",""
"html-keyboard-response","38","96204","0.0-5.0-2.10","LF","daqg5rc8xw","1440","900","0","1","0","5eadc934201643479a185e59","","null","","","learningBlock1","","","","<div style=""font-size:60px;""> </div>","null","LF","learning/Slide11.JPG","This is a tob:","","",""
"html-keyboard-response","39","97209","0.0-5.0-0.11","LF","daqg5rc8xw","1440","900","0","1","0","5eadc934201643479a185e59","","null","","","learningBlock1","","","","This is a dep:","null","","","","","",""
"image-keyboard-response","40","97545","0.0-5.0-1.11","LF","daqg5rc8xw","1440","900","0","1","0","5eadc934201643479a185e59","","null","","","","","","","learning/Slide12.JPG","null","","","","","",""
"html-keyboard-response","41","98547","0.0-5.0-2.11","LF","daqg5rc8xw","1440","900","0","1","0","5eadc934201643479a185e59","","null","","","learningBlock1","","","","<div style=""font-size:60px;""> </div>","null","LF","learning/Slide12.JPG","This is a dep:","","",""
"html-keyboard-response","42","99549","0.0-5.0-0.12","LF","daqg5rc8xw","1440","900","0","1","0","5eadc934201643479a185e59","","null","","","learningBlock1","","","","This is a bim:","null","","","","","",""
"image-keyboard-response","43","99885","0.0-5.0-1.12","LF","daqg5rc8xw","1440","900","0","1","0","5eadc934201643479a185e59","","null","","","","","","","learning/Slide13.JPG","null","","","","","",""
"html-keyboard-response","44","100891","0.0-5.0-2.12","LF","daqg5rc8xw","1440","900","0","1","0","5eadc934201643479a185e59","","null","","","learningBlock1","","","","<div style=""font-size:60px;""> </div>","null","LF","learning/Slide13.JPG","This is a bim:","","",""
"html-keyboard-response","45","101897","0.0-5.0-0.13","LF","daqg5rc8xw","1440","900","0","1","0","5eadc934201643479a185e59","","null","","","learningBlock1","","","","This is a wug:","null","","","","","",""
"image-keyboard-response","46","102231","0.0-5.0-1.13","LF","daqg5rc8xw","1440","900","0","1","0","5eadc934201643479a185e59","","null","","","","","","","learning/Slide14.JPG","null","","","","","",""
"html-keyboard-response","47","103238","0.0-5.0-2.13","LF","daqg5rc8xw","1440","900","0","1","0","5eadc934201643479a185e59","","null","","","learningBlock1","","","","<div style=""font-size:60px;""> </div>","null","LF","learning/Slide14.JPG","This is a wug:","","",""
"html-keyboard-response","48","104244","0.0-5.0-0.14","LF","daqg5rc8xw","1440","900","0","1","0","5eadc934201643479a185e59","","null","","","learningBlock1","","","","This is a tob:","null","","","","","",""
"image-keyboard-response","49","104577","0.0-5.0-1.14","LF","daqg5rc8xw","1440","900","0","1","0","5eadc934201643479a185e59","","null","","","","","","","learning/Slide15.JPG","null","","","","","",""
"html-keyboard-response","50","105583","0.0-5.0-2.14","LF","daqg5rc8xw","1440","900","0","1","0","5eadc934201643479a185e59","","null","","","learningBlock1","","","","<div style=""font-size:60px;""> </div>","null","LF","learning/Slide15.JPG","This is a tob:","","",""
"html-keyboard-response","51","106585","0.0-5.0-0.15","LF","daqg5rc8xw","1440","900","0","1","0","5eadc934201643479a185e59","","null","","","learningBlock1","","","","This is a dep:","null","","","","","",""
"image-keyboard-response","52","106918","0.0-5.0-1.15","LF","daqg5rc8xw","1440","900","0","1","0","5eadc934201643479a185e59","","null","","","","","","","learning/Slide16.JPG","null","","","","","",""
"html-keyboard-response","53","107923","0.0-5.0-2.15","LF","daqg5rc8xw","1440","900","0","1","0","5eadc934201643479a185e59","","null","","","learningBlock1","","","","<div style=""font-size:60px;""> </div>","null","LF","learning/Slide16.JPG","This is a dep:","","",""
"html-keyboard-response","54","108928","0.0-5.0-0.16","LF","daqg5rc8xw","1440","900","0","1","0","5eadc934201643479a185e59","","null","","","learningBlock1","","","","This is a bim:","null","","","","","",""
"image-keyboard-response","55","109265","0.0-5.0-1.16","LF","daqg5rc8xw","1440","900","0","1","0","5eadc934201643479a185e59","","null","","","","","","","learning/Slide17.JPG","null","","","","","",""
"html-keyboard-response","56","110271","0.0-5.0-2.16","LF","daqg5rc8xw","1440","900","0","1","0","5eadc934201643479a185e59","","null","","","learningBlock1","","","","<div style=""font-size:60px;""> </div>","null","LF","learning/Slide17.JPG","This is a bim:","","",""
"html-keyboard-response","57","111275","0.0-5.0-0.17","LF","daqg5rc8xw","1440","900","0","1","0","5eadc934201643479a185e59","","null","","","learningBlock1","","","","This is a tob:","null","","","","","",""
"image-keyboard-response","58","111613","0.0-5.0-1.17","LF","daqg5rc8xw","1440","900","0","1","0","5eadc934201643479a185e59","","null","","","","","","","learning/Slide18.JPG","null","","","","","",""
"html-keyboard-response","59","112619","0.0-5.0-2.17","LF","daqg5rc8xw","1440","900","0","1","0","5eadc934201643479a185e59","","null","","","learningBlock1","","","","<div style=""font-size:60px;""> </div>","null","LF","learning/Slide18.JPG","This is a tob:","","",""
"html-keyboard-response","60","113626","0.0-5.0-0.18","LF","daqg5rc8xw","1440","900","0","1","0","5eadc934201643479a185e59","","null","","","learningBlock1","","","","This is a wug:","null","","","","","",""
"image-keyboard-response","61","113959","0.0-5.0-1.18","LF","daqg5rc8xw","1440","900","0","1","0","5eadc934201643479a185e59","","null","","","","","","","learning/Slide19.JPG","null","","","","","",""
"html-keyboard-response","62","114965","0.0-5.0-2.18","LF","daqg5rc8xw","1440","900","0","1","0","5eadc934201643479a185e59","","null","","","learningBlock1","","","","<div style=""font-size:60px;""> </div>","null","LF","learning/Slide19.JPG","This is a wug:","","",""
"html-keyboard-response","63","115971","0.0-5.0-0.19","LF","daqg5rc8xw","1440","900","0","1","0","5eadc934201643479a185e59","","null","","","learningBlock1","","","","This is a bim:","null","","","","","",""
"image-keyboard-response","64","116302","0.0-5.0-1.19","LF","daqg5rc8xw","1440","900","0","1","0","5eadc934201643479a185e59","","null","","","","","","","learning/Slide20.JPG","null","","","","","",""
"html-keyboard-response","65","117308","0.0-5.0-2.19","LF","daqg5rc8xw","1440","900","0","1","0","5eadc934201643479a185e59","","null","","","learningBlock1","","","","<div style=""font-size:60px;""> </div>","null","LF","learning/Slide20.JPG","This is a bim:","","",""
"html-keyboard-response","66","118315","0.0-5.0-0.20","LF","daqg5rc8xw","1440","900","0","1","0","5eadc934201643479a185e59","","null","","","learningBlock1","","","","This is a dep:","null","","","","","",""
"image-keyboard-response","67","118646","0.0-5.0-1.20","LF","daqg5rc8xw","1440","900","0","1","0","5eadc934201643479a185e59","","null","","","","","","","learning/Slide21.JPG","null","","","","","",""
"html-keyboard-response","68","119652","0.0-5.0-2.20","LF","daqg5rc8xw","1440","900","0","1","0","5eadc934201643479a185e59","","null","","","learningBlock1","","","","<div style=""font-size:60px;""> </div>","null","LF","learning/Slide21.JPG","This is a dep:","","",""
"html-keyboard-response","69","120658","0.0-5.0-0.21","LF","daqg5rc8xw","1440","900","0","1","0","5eadc934201643479a185e59","","null","","","learningBlock1","","","","This is a bim:","null","","","","","",""
"image-keyboard-response","70","120991","0.0-5.0-1.21","LF","daqg5rc8xw","1440","900","0","1","0","5eadc934201643479a185e59","","null","","","","","","","learning/Slide22.JPG","null","","","","","",""
"html-keyboard-response","71","121993","0.0-5.0-2.21","LF","daqg5rc8xw","1440","900","0","1","0","5eadc934201643479a185e59","","null","","","learningBlock1","","","","<div style=""font-size:60px;""> </div>","null","LF","learning/Slide22.JPG","This is a bim:","","",""
"html-keyboard-response","72","122996","0.0-5.0-0.22","LF","daqg5rc8xw","1440","900","0","1","0","5eadc934201643479a185e59","","null","","","learningBlock1","","","","This is a tob:","null","","","","","",""
"image-keyboard-response","73","123328","0.0-5.0-1.22","LF","daqg5rc8xw","1440","900","0","1","0","5eadc934201643479a185e59","","null","","","","","","","learning/Slide23.JPG","null","","","","","",""
"html-keyboard-response","74","124334","0.0-5.0-2.22","LF","daqg5rc8xw","1440","900","0","1","0","5eadc934201643479a185e59","","null","","","learningBlock1","","","","<div style=""font-size:60px;""> </div>","null","LF","learning/Slide23.JPG","This is a tob:","","",""
"html-keyboard-response","75","125339","0.0-5.0-0.23","LF","daqg5rc8xw","1440","900","0","1","0","5eadc934201643479a185e59","","null","","","learningBlock1","","","","This is a wug:","null","","","","","",""
"image-keyboard-response","76","125669","0.0-5.0-1.23","LF","daqg5rc8xw","1440","900","0","1","0","5eadc934201643479a185e59","","null","","","","","","","learning/Slide24.JPG","null","","","","","",""
"html-keyboard-response","77","126676","0.0-5.0-2.23","LF","daqg5rc8xw","1440","900","0","1","0","5eadc934201643479a185e59","","null","","","learningBlock1","","","","<div style=""font-size:60px;""> </div>","null","LF","learning/Slide24.JPG","This is a wug:","","",""
"html-keyboard-response","78","127682","0.0-5.0-0.24","LF","daqg5rc8xw","1440","900","0","1","0","5eadc934201643479a185e59","","null","","","learningBlock1","","","","This is a dep:","null","","","","","",""
"image-keyboard-response","79","128016","0.0-5.0-1.24","LF","daqg5rc8xw","1440","900","0","1","0","5eadc934201643479a185e59","","null","","","","","","","learning/Slide25.JPG","null","","","","","",""
"html-keyboard-response","80","129018","0.0-5.0-2.24","LF","daqg5rc8xw","1440","900","0","1","0","5eadc934201643479a185e59","","null","","","learningBlock1","","","","<div style=""font-size:60px;""> </div>","null","LF","learning/Slide25.JPG","This is a dep:","","",""
"html-keyboard-response","81","130024","0.0-5.0-0.25","LF","daqg5rc8xw","1440","900","0","1","0","5eadc934201643479a185e59","","null","","","learningBlock1","","","","This is a wug:","null","","","","","",""
"image-keyboard-response","82","130359","0.0-5.0-1.25","LF","daqg5rc8xw","1440","900","0","1","0","5eadc934201643479a185e59","","null","","","","","","","learning/Slide26.JPG","null","","","","","",""
"html-keyboard-response","83","131365","0.0-5.0-2.25","LF","daqg5rc8xw","1440","900","0","1","0","5eadc934201643479a185e59","","null","","","learningBlock1","","","","<div style=""font-size:60px;""> </div>","null","LF","learning/Slide26.JPG","This is a wug:","","",""
"html-keyboard-response","84","132372","0.0-5.0-0.26","LF","daqg5rc8xw","1440","900","0","1","0","5eadc934201643479a185e59","","null","","","learningBlock1","","","","This is a bim:","null","","","","","",""
"image-keyboard-response","85","132706","0.0-5.0-1.26","LF","daqg5rc8xw","1440","900","0","1","0","5eadc934201643479a185e59","","null","","","","","","","learning/Slide27.JPG","null","","","","","",""
"html-keyboard-response","86","133709","0.0-5.0-2.26","LF","daqg5rc8xw","1440","900","0","1","0","5eadc934201643479a185e59","","null","","","learningBlock1","","","","<div style=""font-size:60px;""> </div>","null","LF","learning/Slide27.JPG","This is a bim:","","",""
"html-keyboard-response","87","134714","0.0-5.0-0.27","LF","daqg5rc8xw","1440","900","0","1","0","5eadc934201643479a185e59","","null","","","learningBlock1","","","","This is a dep:","null","","","","","",""
"image-keyboard-response","88","135052","0.0-5.0-1.27","LF","daqg5rc8xw","1440","900","0","1","0","5eadc934201643479a185e59","","null","","","","","","","learning/Slide28.JPG","null","","","","","",""
"html-keyboard-response","89","136057","0.0-5.0-2.27","LF","daqg5rc8xw","1440","900","0","1","0","5eadc934201643479a185e59","","null","","","learningBlock1","","","","<div style=""font-size:60px;""> </div>","null","LF","learning/Slide28.JPG","This is a dep:","","",""
"html-keyboard-response","90","137058","0.0-5.0-0.28","LF","daqg5rc8xw","1440","900","0","1","0","5eadc934201643479a185e59","","null","","","learningBlock1","","","","This is a tob:","null","","","","","",""
"image-keyboard-response","91","137387","0.0-5.0-1.28","LF","daqg5rc8xw","1440","900","0","1","0","5eadc934201643479a185e59","","null","","","","","","","learning/Slide29.JPG","null","","","","","",""
"html-keyboard-response","92","138389","0.0-5.0-2.28","LF","daqg5rc8xw","1440","900","0","1","0","5eadc934201643479a185e59","","null","","","learningBlock1","","","","<div style=""font-size:60px;""> </div>","null","LF","learning/Slide29.JPG","This is a tob:","","",""
"html-keyboard-response","93","139395","0.0-5.0-0.29","LF","daqg5rc8xw","1440","900","0","1","0","5eadc934201643479a185e59","","null","","","learningBlock1","","","","This is a dep:","null","","","","","",""
"image-keyboard-response","94","139730","0.0-5.0-1.29","LF","daqg5rc8xw","1440","900","0","1","0","5eadc934201643479a185e59","","null","","","","","","","learning/Slide30.JPG","null","","","","","",""
"html-keyboard-response","95","140734","0.0-5.0-2.29","LF","daqg5rc8xw","1440","900","0","1","0","5eadc934201643479a185e59","","null","","","learningBlock1","","","","<div style=""font-size:60px;""> </div>","null","LF","learning/Slide30.JPG","This is a dep:","","",""
"html-keyboard-response","96","141736","0.0-5.0-0.30","LF","daqg5rc8xw","1440","900","0","1","0","5eadc934201643479a185e59","","null","","","learningBlock1","","","","This is a wug:","null","","","","","",""
"image-keyboard-response","97","142070","0.0-5.0-1.30","LF","daqg5rc8xw","1440","900","0","1","0","5eadc934201643479a185e59","","null","","","","","","","learning/Slide31.JPG","null","","","","","",""
"html-keyboard-response","98","143075","0.0-5.0-2.30","LF","daqg5rc8xw","1440","900","0","1","0","5eadc934201643479a185e59","","null","","","learningBlock1","","","","<div style=""font-size:60px;""> </div>","null","LF","learning/Slide31.JPG","This is a wug:","","",""
"html-keyboard-response","99","144079","0.0-5.0-0.31","LF","daqg5rc8xw","1440","900","0","1","0","5eadc934201643479a185e59","","null","","","learningBlock1","","","","This is a tob:","null","","","","","",""
"image-keyboard-response","100","144415","0.0-5.0-1.31","LF","daqg5rc8xw","1440","900","0","1","0","5eadc934201643479a185e59","","null","","","","","","","learning/Slide32.JPG","null","","","","","",""
"html-keyboard-response","101","145422","0.0-5.0-2.31","LF","daqg5rc8xw","1440","900","0","1","0","5eadc934201643479a185e59","","null","","","learningBlock1","","","","<div style=""font-size:60px;""> </div>","null","LF","learning/Slide32.JPG","This is a tob:","","",""
"html-keyboard-response","102","146424","0.0-5.0-0.32","LF","daqg5rc8xw","1440","900","0","1","0","5eadc934201643479a185e59","","null","","","learningBlock1","","","","This is a bim:","null","","","","","",""
"image-keyboard-response","103","146757","0.0-5.0-1.32","LF","daqg5rc8xw","1440","900","0","1","0","5eadc934201643479a185e59","","null","","","","","","","learning/Slide33.JPG","null","","","","","",""
"html-keyboard-response","104","147764","0.0-5.0-2.32","LF","daqg5rc8xw","1440","900","0","1","0","5eadc934201643479a185e59","","null","","","learningBlock1","","","","<div style=""font-size:60px;""> </div>","null","LF","learning/Slide33.JPG","This is a bim:","","",""
"html-keyboard-response","105","148769","0.0-5.0-0.33","LF","daqg5rc8xw","1440","900","0","1","0","5eadc934201643479a185e59","","null","","","learningBlock1","","","","This is a tob:","null","","","","","",""
"image-keyboard-response","106","149104","0.0-5.0-1.33","LF","daqg5rc8xw","1440","900","0","1","0","5eadc934201643479a185e59","","null","","","","","","","learning/Slide34.JPG","null","","","","","",""
"html-keyboard-response","107","150109","0.0-5.0-2.33","LF","daqg5rc8xw","1440","900","0","1","0","5eadc934201643479a185e59","","null","","","learningBlock1","","","","<div style=""font-size:60px;""> </div>","null","LF","learning/Slide34.JPG","This is a tob:","","",""
"html-keyboard-response","108","151114","0.0-5.0-0.34","LF","daqg5rc8xw","1440","900","0","1","0","5eadc934201643479a185e59","","null","","","learningBlock1","","","","This is a bim:","null","","","","","",""
"image-keyboard-response","109","151444","0.0-5.0-1.34","LF","daqg5rc8xw","1440","900","0","1","0","5eadc934201643479a185e59","","null","","","","","","","learning/Slide35.JPG","null","","","","","",""
"html-keyboard-response","110","152451","0.0-5.0-2.34","LF","daqg5rc8xw","1440","900","0","1","0","5eadc934201643479a185e59","","null","","","learningBlock1","","","","<div style=""font-size:60px;""> </div>","null","LF","learning/Slide35.JPG","This is a bim:","","",""
"html-keyboard-response","111","153455","0.0-5.0-0.35","LF","daqg5rc8xw","1440","900","0","1","0","5eadc934201643479a185e59","","null","","","learningBlock1","","","","This is a dep:","null","","","","","",""
"image-keyboard-response","112","153792","0.0-5.0-1.35","LF","daqg5rc8xw","1440","900","0","1","0","5eadc934201643479a185e59","","null","","","","","","","learning/Slide36.JPG","null","","","","","",""
"html-keyboard-response","113","154795","0.0-5.0-2.35","LF","daqg5rc8xw","1440","900","0","1","0","5eadc934201643479a185e59","","null","","","learningBlock1","","","","<div style=""font-size:60px;""> </div>","null","LF","learning/Slide36.JPG","This is a dep:","","",""
"html-keyboard-response","114","155796","0.0-5.0-0.36","LF","daqg5rc8xw","1440","900","0","1","0","5eadc934201643479a185e59","","null","","","learningBlock1","","","","This is a tob:","null","","","","","",""
"image-keyboard-response","115","156128","0.0-5.0-1.36","LF","daqg5rc8xw","1440","900","0","1","0","5eadc934201643479a185e59","","null","","","","","","","learning/Slide37.JPG","null","","","","","",""
"html-keyboard-response","116","157135","0.0-5.0-2.36","LF","daqg5rc8xw","1440","900","0","1","0","5eadc934201643479a185e59","","null","","","learningBlock1","","","","<div style=""font-size:60px;""> </div>","null","LF","learning/Slide37.JPG","This is a tob:","","",""
"html-keyboard-response","117","158140","0.0-5.0-0.37","LF","daqg5rc8xw","1440","900","0","1","0","5eadc934201643479a185e59","","null","","","learningBlock1","","","","This is a wug:","null","","","","","",""
"image-keyboard-response","118","158474","0.0-5.0-1.37","LF","daqg5rc8xw","1440","900","0","1","0","5eadc934201643479a185e59","","null","","","","","","","learning/Slide38.JPG","null","","","","","",""
"html-keyboard-response","119","159477","0.0-5.0-2.37","LF","daqg5rc8xw","1440","900","0","1","0","5eadc934201643479a185e59","","null","","","learningBlock1","","","","<div style=""font-size:60px;""> </div>","null","LF","learning/Slide38.JPG","This is a wug:","","",""
"html-keyboard-response","120","160478","0.0-5.0-0.38","LF","daqg5rc8xw","1440","900","0","1","0","5eadc934201643479a185e59","","null","","","learningBlock1","","","","This is a bim:","null","","","","","",""
"image-keyboard-response","121","160814","0.0-5.0-1.38","LF","daqg5rc8xw","1440","900","0","1","0","5eadc934201643479a185e59","","null","","","","","","","learning/Slide39.JPG","null","","","","","",""
"html-keyboard-response","122","161817","0.0-5.0-2.38","LF","daqg5rc8xw","1440","900","0","1","0","5eadc934201643479a185e59","","null","","","learningBlock1","","","","<div style=""font-size:60px;""> </div>","null","LF","learning/Slide39.JPG","This is a bim:","","",""
"html-keyboard-response","123","162824","0.0-5.0-0.39","LF","daqg5rc8xw","1440","900","0","1","0","5eadc934201643479a185e59","","null","","","learningBlock1","","","","This is a tob:","null","","","","","",""
"image-keyboard-response","124","163159","0.0-5.0-1.39","LF","daqg5rc8xw","1440","900","0","1","0","5eadc934201643479a185e59","","null","","","","","","","learning/Slide40.JPG","null","","","","","",""
"html-keyboard-response","125","164162","0.0-5.0-2.39","LF","daqg5rc8xw","1440","900","0","1","0","5eadc934201643479a185e59","","null","","","learningBlock1","","","","<div style=""font-size:60px;""> </div>","null","LF","learning/Slide40.JPG","This is a tob:","","",""
"html-keyboard-response","126","165168","0.0-5.0-0.40","LF","daqg5rc8xw","1440","900","0","1","0","5eadc934201643479a185e59","","null","","","learningBlock1","","","","This is a bim:","null","","","","","",""
"image-keyboard-response","127","165503","0.0-5.0-1.40","LF","daqg5rc8xw","1440","900","0","1","0","5eadc934201643479a185e59","","null","","","","","","","learning/Slide41.JPG","null","","","","","",""
"html-keyboard-response","128","166510","0.0-5.0-2.40","LF","daqg5rc8xw","1440","900","0","1","0","5eadc934201643479a185e59","","null","","","learningBlock1","","","","<div style=""font-size:60px;""> </div>","null","LF","learning/Slide41.JPG","This is a bim:","","",""
"html-keyboard-response","129","167515","0.0-5.0-0.41","LF","daqg5rc8xw","1440","900","0","1","0","5eadc934201643479a185e59","","null","","","learningBlock1","","","","This is a dep:","null","","","","","",""
"image-keyboard-response","130","167842","0.0-5.0-1.41","LF","daqg5rc8xw","1440","900","0","1","0","5eadc934201643479a185e59","","null","","","","","","","learning/Slide42.JPG","null","","","","","",""
"html-keyboard-response","131","168844","0.0-5.0-2.41","LF","daqg5rc8xw","1440","900","0","1","0","5eadc934201643479a185e59","","null","","","learningBlock1","","","","<div style=""font-size:60px;""> </div>","null","LF","learning/Slide42.JPG","This is a dep:","","",""
"html-keyboard-response","132","169849","0.0-5.0-0.42","LF","daqg5rc8xw","1440","900","0","1","0","5eadc934201643479a185e59","","null","","","learningBlock1","","","","This is a wug:","null","","","","","",""
"image-keyboard-response","133","170184","0.0-5.0-1.42","LF","daqg5rc8xw","1440","900","0","1","0","5eadc934201643479a185e59","","null","","","","","","","learning/Slide43.JPG","null","","","","","",""
"html-keyboard-response","134","171187","0.0-5.0-2.42","LF","daqg5rc8xw","1440","900","0","1","0","5eadc934201643479a185e59","","null","","","learningBlock1","","","","<div style=""font-size:60px;""> </div>","null","LF","learning/Slide43.JPG","This is a wug:","","",""
"html-keyboard-response","135","172189","0.0-5.0-0.43","LF","daqg5rc8xw","1440","900","0","1","0","5eadc934201643479a185e59","","null","","","learningBlock1","","","","This is a bim:","null","","","","","",""
"image-keyboard-response","136","172521","0.0-5.0-1.43","LF","daqg5rc8xw","1440","900","0","1","0","5eadc934201643479a185e59","","null","","","","","","","learning/Slide44.JPG","null","","","","","",""
"html-keyboard-response","137","173528","0.0-5.0-2.43","LF","daqg5rc8xw","1440","900","0","1","0","5eadc934201643479a185e59","","null","","","learningBlock1","","","","<div style=""font-size:60px;""> </div>","null","LF","learning/Slide44.JPG","This is a bim:","","",""
"html-keyboard-response","138","174534","0.0-5.0-0.44","LF","daqg5rc8xw","1440","900","0","1","0","5eadc934201643479a185e59","","null","","","learningBlock1","","","","This is a wug:","null","","","","","",""
"image-keyboard-response","139","174866","0.0-5.0-1.44","LF","daqg5rc8xw","1440","900","0","1","0","5eadc934201643479a185e59","","null","","","","","","","learning/Slide45.JPG","null","","","","","",""
"html-keyboard-response","140","175873","0.0-5.0-2.44","LF","daqg5rc8xw","1440","900","0","1","0","5eadc934201643479a185e59","","null","","","learningBlock1","","","","<div style=""font-size:60px;""> </div>","null","LF","learning/Slide45.JPG","This is a wug:","","",""
"html-keyboard-response","141","176878","0.0-5.0-0.45","LF","daqg5rc8xw","1440","900","0","1","0","5eadc934201643479a185e59","","null","","","learningBlock1","","","","This is a dep:","null","","","","","",""
"image-keyboard-response","142","177212","0.0-5.0-1.45","LF","daqg5rc8xw","1440","900","0","1","0","5eadc934201643479a185e59","","null","","","","","","","learning/Slide46.JPG","null","","","","","",""
"html-keyboard-response","143","178215","0.0-5.0-2.45","LF","daqg5rc8xw","1440","900","0","1","0","5eadc934201643479a185e59","","null","","","learningBlock1","","","","<div style=""font-size:60px;""> </div>","null","LF","learning/Slide46.JPG","This is a dep:","","",""
"html-keyboard-response","144","179216","0.0-5.0-0.46","LF","daqg5rc8xw","1440","900","0","1","0","5eadc934201643479a185e59","","null","","","learningBlock1","","","","This is a tob:","null","","","","","",""
"image-keyboard-response","145","179547","0.0-5.0-1.46","LF","daqg5rc8xw","1440","900","0","1","0","5eadc934201643479a185e59","","null","","","","","","","learning/Slide47.JPG","null","","","","","",""
"html-keyboard-response","146","180549","0.0-5.0-2.46","LF","daqg5rc8xw","1440","900","0","1","0","5eadc934201643479a185e59","","null","","","learningBlock1","","","","<div style=""font-size:60px;""> </div>","null","LF","learning/Slide47.JPG","This is a tob:","","",""
"html-keyboard-response","147","181555","0.0-5.0-0.47","LF","daqg5rc8xw","1440","900","0","1","0","5eadc934201643479a185e59","","null","","","learningBlock1","","","","This is a bim:","null","","","","","",""
"image-keyboard-response","148","181892","0.0-5.0-1.47","LF","daqg5rc8xw","1440","900","0","1","0","5eadc934201643479a185e59","","null","","","","","","","learning/Slide48.JPG","null","","","","","",""
"html-keyboard-response","149","182899","0.0-5.0-2.47","LF","daqg5rc8xw","1440","900","0","1","0","5eadc934201643479a185e59","","null","","","learningBlock1","","","","<div style=""font-size:60px;""> </div>","null","LF","learning/Slide48.JPG","This is a bim:","","",""
"html-keyboard-response","150","183905","0.0-5.0-0.48","LF","daqg5rc8xw","1440","900","0","1","0","5eadc934201643479a185e59","","null","","","learningBlock1","","","","This is a dep:","null","","","","","",""
"image-keyboard-response","151","184240","0.0-5.0-1.48","LF","daqg5rc8xw","1440","900","0","1","0","5eadc934201643479a185e59","","null","","","","","","","learning/Slide49.JPG","null","","","","","",""
"html-keyboard-response","152","185246","0.0-5.0-2.48","LF","daqg5rc8xw","1440","900","0","1","0","5eadc934201643479a185e59","","null","","","learningBlock1","","","","<div style=""font-size:60px;""> </div>","null","LF","learning/Slide49.JPG","This is a dep:","","",""
"html-keyboard-response","153","186251","0.0-5.0-0.49","LF","daqg5rc8xw","1440","900","0","1","0","5eadc934201643479a185e59","","null","","","learningBlock1","","","","This is a tob:","null","","","","","",""
"image-keyboard-response","154","186584","0.0-5.0-1.49","LF","daqg5rc8xw","1440","900","0","1","0","5eadc934201643479a185e59","","null","","","","","","","learning/Slide50.JPG","null","","","","","",""
"html-keyboard-response","155","187590","0.0-5.0-2.49","LF","daqg5rc8xw","1440","900","0","1","0","5eadc934201643479a185e59","","null","","","learningBlock1","","","","<div style=""font-size:60px;""> </div>","null","LF","learning/Slide50.JPG","This is a tob:","","",""
"html-keyboard-response","156","188595","0.0-5.0-0.50","LF","daqg5rc8xw","1440","900","0","1","0","5eadc934201643479a185e59","","null","","","learningBlock1","","","","This is a bim:","null","","","","","",""
"image-keyboard-response","157","188927","0.0-5.0-1.50","LF","daqg5rc8xw","1440","900","0","1","0","5eadc934201643479a185e59","","null","","","","","","","learning/Slide51.JPG","null","","","","","",""
"html-keyboard-response","158","189934","0.0-5.0-2.50","LF","daqg5rc8xw","1440","900","0","1","0","5eadc934201643479a185e59","","null","","","learningBlock1","","","","<div style=""font-size:60px;""> </div>","null","LF","learning/Slide51.JPG","This is a bim:","","",""
"html-keyboard-response","159","190935","0.0-5.0-0.51","LF","daqg5rc8xw","1440","900","0","1","0","5eadc934201643479a185e59","","null","","","learningBlock1","","","","This is a wug:","null","","","","","",""
"image-keyboard-response","160","191272","0.0-5.0-1.51","LF","daqg5rc8xw","1440","900","0","1","0","5eadc934201643479a185e59","","null","","","","","","","learning/Slide52.JPG","null","","","","","",""
"html-keyboard-response","161","192279","0.0-5.0-2.51","LF","daqg5rc8xw","1440","900","0","1","0","5eadc934201643479a185e59","","null","","","learningBlock1","","","","<div style=""font-size:60px;""> </div>","null","LF","learning/Slide52.JPG","This is a wug:","","",""
"html-keyboard-response","162","193286","0.0-5.0-0.52","LF","daqg5rc8xw","1440","900","0","1","0","5eadc934201643479a185e59","","null","","","learningBlock1","","","","This is a tob:","null","","","","","",""
"image-keyboard-response","163","193621","0.0-5.0-1.52","LF","daqg5rc8xw","1440","900","0","1","0","5eadc934201643479a185e59","","null","","","","","","","learning/Slide53.JPG","null","","","","","",""
"html-keyboard-response","164","194625","0.0-5.0-2.52","LF","daqg5rc8xw","1440","900","0","1","0","5eadc934201643479a185e59","","null","","","learningBlock1","","","","<div style=""font-size:60px;""> </div>","null","LF","learning/Slide53.JPG","This is a tob:","","",""
"html-keyboard-response","165","195631","0.0-5.0-0.53","LF","daqg5rc8xw","1440","900","0","1","0","5eadc934201643479a185e59","","null","","","learningBlock1","","","","This is a dep:","null","","","","","",""
"image-keyboard-response","166","195965","0.0-5.0-1.53","LF","daqg5rc8xw","1440","900","0","1","0","5eadc934201643479a185e59","","null","","","","","","","learning/Slide54.JPG","null","","","","","",""
"html-keyboard-response","167","196971","0.0-5.0-2.53","LF","daqg5rc8xw","1440","900","0","1","0","5eadc934201643479a185e59","","null","","","learningBlock1","","","","<div style=""font-size:60px;""> </div>","null","LF","learning/Slide54.JPG","This is a dep:","","",""
"html-keyboard-response","168","197976","0.0-5.0-0.54","LF","daqg5rc8xw","1440","900","0","1","0","5eadc934201643479a185e59","","null","","","learningBlock1","","","","This is a bim:","null","","","","","",""
"image-keyboard-response","169","198306","0.0-5.0-1.54","LF","daqg5rc8xw","1440","900","0","1","0","5eadc934201643479a185e59","","null","","","","","","","learning/Slide55.JPG","null","","","","","",""
"html-keyboard-response","170","199312","0.0-5.0-2.54","LF","daqg5rc8xw","1440","900","0","1","0","5eadc934201643479a185e59","","null","","","learningBlock1","","","","<div style=""font-size:60px;""> </div>","null","LF","learning/Slide55.JPG","This is a bim:","","",""
"html-keyboard-response","171","200319","0.0-5.0-0.55","LF","daqg5rc8xw","1440","900","0","1","0","5eadc934201643479a185e59","","null","","","learningBlock1","","","","This is a tob:","null","","","","","",""
"image-keyboard-response","172","200646","0.0-5.0-1.55","LF","daqg5rc8xw","1440","900","0","1","0","5eadc934201643479a185e59","","null","","","","","","","learning/Slide56.JPG","null","","","","","",""
"html-keyboard-response","173","201647","0.0-5.0-2.55","LF","daqg5rc8xw","1440","900","0","1","0","5eadc934201643479a185e59","","null","","","learningBlock1","","","","<div style=""font-size:60px;""> </div>","null","LF","learning/Slide56.JPG","This is a tob:","","",""
"html-keyboard-response","174","202650","0.0-5.0-0.56","LF","daqg5rc8xw","1440","900","0","1","0","5eadc934201643479a185e59","","null","","","learningBlock1","","","","This is a dep:","null","","","","","",""
"image-keyboard-response","175","202984","0.0-5.0-1.56","LF","daqg5rc8xw","1440","900","0","1","0","5eadc934201643479a185e59","","null","","","","","","","learning/Slide57.JPG","null","","","","","",""
"html-keyboard-response","176","203990","0.0-5.0-2.56","LF","daqg5rc8xw","1440","900","0","1","0","5eadc934201643479a185e59","","null","","","learningBlock1","","","","<div style=""font-size:60px;""> </div>","null","LF","learning/Slide57.JPG","This is a dep:","","",""
"html-keyboard-response","177","204995","0.0-5.0-0.57","LF","daqg5rc8xw","1440","900","0","1","0","5eadc934201643479a185e59","","null","","","learningBlock1","","","","This is a wug:","null","","","","","",""
"image-keyboard-response","178","205330","0.0-5.0-1.57","LF","daqg5rc8xw","1440","900","0","1","0","5eadc934201643479a185e59","","null","","","","","","","learning/Slide58.JPG","null","","","","","",""
"html-keyboard-response","179","206335","0.0-5.0-2.57","LF","daqg5rc8xw","1440","900","0","1","0","5eadc934201643479a185e59","","null","","","learningBlock1","","","","<div style=""font-size:60px;""> </div>","null","LF","learning/Slide58.JPG","This is a wug:","","",""
"html-keyboard-response","180","207340","0.0-5.0-0.58","LF","daqg5rc8xw","1440","900","0","1","0","5eadc934201643479a185e59","","null","","","learningBlock1","","","","This is a dep:","null","","","","","",""
"image-keyboard-response","181","207670","0.0-5.0-1.58","LF","daqg5rc8xw","1440","900","0","1","0","5eadc934201643479a185e59","","null","","","","","","","learning/Slide59.JPG","null","","","","","",""
"html-keyboard-response","182","208677","0.0-5.0-2.58","LF","daqg5rc8xw","1440","900","0","1","0","5eadc934201643479a185e59","","null","","","learningBlock1","","","","<div style=""font-size:60px;""> </div>","null","LF","learning/Slide59.JPG","This is a dep:","","",""
"html-keyboard-response","183","209682","0.0-5.0-0.59","LF","daqg5rc8xw","1440","900","0","1","0","5eadc934201643479a185e59","","null","","","learningBlock1","","","","This is a wug:","null","","","","","",""
"image-keyboard-response","184","210016","0.0-5.0-1.59","LF","daqg5rc8xw","1440","900","0","1","0","5eadc934201643479a185e59","","null","","","","","","","learning/Slide60.JPG","null","","","","","",""
"html-keyboard-response","185","211018","0.0-5.0-2.59","LF","daqg5rc8xw","1440","900","0","1","0","5eadc934201643479a185e59","","null","","","learningBlock1","","","","<div style=""font-size:60px;""> </div>","null","LF","learning/Slide60.JPG","This is a wug:","","",""
"html-keyboard-response","186","212023","0.0-5.0-0.60","LF","daqg5rc8xw","1440","900","0","1","0","5eadc934201643479a185e59","","null","","","learningBlock1","","","","This is a bim:","null","","","","","",""
"image-keyboard-response","187","212357","0.0-5.0-1.60","LF","daqg5rc8xw","1440","900","0","1","0","5eadc934201643479a185e59","","null","","","","","","","learning/Slide61.JPG","null","","","","","",""
"html-keyboard-response","188","213363","0.0-5.0-2.60","LF","daqg5rc8xw","1440","900","0","1","0","5eadc934201643479a185e59","","null","","","learningBlock1","","","","<div style=""font-size:60px;""> </div>","null","LF","learning/Slide61.JPG","This is a bim:","","",""
"html-keyboard-response","189","214369","0.0-5.0-0.61","LF","daqg5rc8xw","1440","900","0","1","0","5eadc934201643479a185e59","","null","","","learningBlock1","","","","This is a dep:","null","","","","","",""
"image-keyboard-response","190","214703","0.0-5.0-1.61","LF","daqg5rc8xw","1440","900","0","1","0","5eadc934201643479a185e59","","null","","","","","","","learning/Slide62.JPG","null","","","","","",""
"html-keyboard-response","191","215708","0.0-5.0-2.61","LF","daqg5rc8xw","1440","900","0","1","0","5eadc934201643479a185e59","","null","","","learningBlock1","","","","<div style=""font-size:60px;""> </div>","null","LF","learning/Slide62.JPG","This is a dep:","","",""
"html-keyboard-response","192","216712","0.0-5.0-0.62","LF","daqg5rc8xw","1440","900","0","1","0","5eadc934201643479a185e59","","null","","","learningBlock1","","","","This is a bim:","null","","","","","",""
"image-keyboard-response","193","217050","0.0-5.0-1.62","LF","daqg5rc8xw","1440","900","0","1","0","5eadc934201643479a185e59","","null","","","","","","","learning/Slide63.JPG","null","","","","","",""
"html-keyboard-response","194","218051","0.0-5.0-2.62","LF","daqg5rc8xw","1440","900","0","1","0","5eadc934201643479a185e59","","null","","","learningBlock1","","","","<div style=""font-size:60px;""> </div>","null","LF","learning/Slide63.JPG","This is a bim:","","",""
"html-keyboard-response","195","219057","0.0-5.0-0.63","LF","daqg5rc8xw","1440","900","0","1","0","5eadc934201643479a185e59","","null","","","learningBlock1","","","","This is a tob:","null","","","","","",""
"image-keyboard-response","196","219385","0.0-5.0-1.63","LF","daqg5rc8xw","1440","900","0","1","0","5eadc934201643479a185e59","","null","","","","","","","learning/Slide64.JPG","null","","","","","",""
"html-keyboard-response","197","220389","0.0-5.0-2.63","LF","daqg5rc8xw","1440","900","0","1","0","5eadc934201643479a185e59","","null","","","learningBlock1","","","","<div style=""font-size:60px;""> </div>","null","LF","learning/Slide64.JPG","This is a tob:","","",""
"html-keyboard-response","198","221392","0.0-5.0-0.64","LF","daqg5rc8xw","1440","900","0","1","0","5eadc934201643479a185e59","","null","","","learningBlock1","","","","This is a wug:","null","","","","","",""
"image-keyboard-response","199","221724","0.0-5.0-1.64","LF","daqg5rc8xw","1440","900","0","1","0","5eadc934201643479a185e59","","null","","","","","","","learning/Slide65.JPG","null","","","","","",""
"html-keyboard-response","200","222731","0.0-5.0-2.64","LF","daqg5rc8xw","1440","900","0","1","0","5eadc934201643479a185e59","","null","","","learningBlock1","","","","<div style=""font-size:60px;""> </div>","null","LF","learning/Slide65.JPG","This is a wug:","","",""
"html-keyboard-response","201","223736","0.0-5.0-0.65","LF","daqg5rc8xw","1440","900","0","1","0","5eadc934201643479a185e59","","null","","","learningBlock1","","","","This is a dep:","null","","","","","",""
"image-keyboard-response","202","224066","0.0-5.0-1.65","LF","daqg5rc8xw","1440","900","0","1","0","5eadc934201643479a185e59","","null","","","","","","","learning/Slide66.JPG","null","","","","","",""
"html-keyboard-response","203","225069","0.0-5.0-2.65","LF","daqg5rc8xw","1440","900","0","1","0","5eadc934201643479a185e59","","null","","","learningBlock1","","","","<div style=""font-size:60px;""> </div>","null","LF","learning/Slide66.JPG","This is a dep:","","",""
"html-keyboard-response","204","226075","0.0-5.0-0.66","LF","daqg5rc8xw","1440","900","0","1","0","5eadc934201643479a185e59","","null","","","learningBlock1","","","","This is a tob:","null","","","","","",""
"image-keyboard-response","205","226412","0.0-5.0-1.66","LF","daqg5rc8xw","1440","900","0","1","0","5eadc934201643479a185e59","","null","","","","","","","learning/Slide67.JPG","null","","","","","",""
"html-keyboard-response","206","227419","0.0-5.0-2.66","LF","daqg5rc8xw","1440","900","0","1","0","5eadc934201643479a185e59","","null","","","learningBlock1","","","","<div style=""font-size:60px;""> </div>","null","LF","learning/Slide67.JPG","This is a tob:","","",""
"html-keyboard-response","207","228425","0.0-5.0-0.67","LF","daqg5rc8xw","1440","900","0","1","0","5eadc934201643479a185e59","","null","","","learningBlock1","","","","This is a wug:","null","","","","","",""
"image-keyboard-response","208","228754","0.0-5.0-1.67","LF","daqg5rc8xw","1440","900","0","1","0","5eadc934201643479a185e59","","null","","","","","","","learning/Slide68.JPG","null","","","","","",""
"html-keyboard-response","209","229758","0.0-5.0-2.67","LF","daqg5rc8xw","1440","900","0","1","0","5eadc934201643479a185e59","","null","","","learningBlock1","","","","<div style=""font-size:60px;""> </div>","null","LF","learning/Slide68.JPG","This is a wug:","","",""
"html-keyboard-response","210","230760","0.0-5.0-0.68","LF","daqg5rc8xw","1440","900","0","1","0","5eadc934201643479a185e59","","null","","","learningBlock1","","","","This is a tob:","null","","","","","",""
"image-keyboard-response","211","231096","0.0-5.0-1.68","LF","daqg5rc8xw","1440","900","0","1","0","5eadc934201643479a185e59","","null","","","","","","","learning/Slide69.JPG","null","","","","","",""
"html-keyboard-response","212","232099","0.0-5.0-2.68","LF","daqg5rc8xw","1440","900","0","1","0","5eadc934201643479a185e59","","null","","","learningBlock1","","","","<div style=""font-size:60px;""> </div>","null","LF","learning/Slide69.JPG","This is a tob:","","",""
"html-keyboard-response","213","233105","0.0-5.0-0.69","LF","daqg5rc8xw","1440","900","0","1","0","5eadc934201643479a185e59","","null","","","learningBlock1","","","","This is a dep:","null","","","","","",""
"image-keyboard-response","214","233439","0.0-5.0-1.69","LF","daqg5rc8xw","1440","900","0","1","0","5eadc934201643479a185e59","","null","","","","","","","learning/Slide70.JPG","null","","","","","",""
"html-keyboard-response","215","234445","0.0-5.0-2.69","LF","daqg5rc8xw","1440","900","0","1","0","5eadc934201643479a185e59","","null","","","learningBlock1","","","","<div style=""font-size:60px;""> </div>","null","LF","learning/Slide70.JPG","This is a dep:","","",""
"html-keyboard-response","216","235451","0.0-5.0-0.70","LF","daqg5rc8xw","1440","900","0","1","0","5eadc934201643479a185e59","","null","","","learningBlock1","","","","This is a wug:","null","","","","","",""
"image-keyboard-response","217","235784","0.0-5.0-1.70","LF","daqg5rc8xw","1440","900","0","1","0","5eadc934201643479a185e59","","null","","","","","","","learning/Slide71.JPG","null","","","","","",""
"html-keyboard-response","218","236790","0.0-5.0-2.70","LF","daqg5rc8xw","1440","900","0","1","0","5eadc934201643479a185e59","","null","","","learningBlock1","","","","<div style=""font-size:60px;""> </div>","null","LF","learning/Slide71.JPG","This is a wug:","","",""
"html-keyboard-response","219","237791","0.0-5.0-0.71","LF","daqg5rc8xw","1440","900","0","1","0","5eadc934201643479a185e59","","null","","","learningBlock1","","","","This is a bim:","null","","","","","",""
"image-keyboard-response","220","238119","0.0-5.0-1.71","LF","daqg5rc8xw","1440","900","0","1","0","5eadc934201643479a185e59","","null","","","","","","","learning/Slide72.JPG","null","","","","","",""
"html-keyboard-response","221","239126","0.0-5.0-2.71","LF","daqg5rc8xw","1440","900","0","1","0","5eadc934201643479a185e59","","null","","","learningBlock1","","","","<div style=""font-size:60px;""> </div>","null","LF","learning/Slide72.JPG","This is a bim:","","",""
"html-keyboard-response","222","240132","0.0-5.0-0.72","LF","daqg5rc8xw","1440","900","0","1","0","5eadc934201643479a185e59","","null","","","learningBlock1","","","","This is a wug:","null","","","","","",""
"image-keyboard-response","223","240460","0.0-5.0-1.72","LF","daqg5rc8xw","1440","900","0","1","0","5eadc934201643479a185e59","","null","","","","","","","learning/Slide73.JPG","null","","","","","",""
"html-keyboard-response","224","241464","0.0-5.0-2.72","LF","daqg5rc8xw","1440","900","0","1","0","5eadc934201643479a185e59","","null","","","learningBlock1","","","","<div style=""font-size:60px;""> </div>","null","LF","learning/Slide73.JPG","This is a wug:","","",""
"html-keyboard-response","225","242469","0.0-5.0-0.73","LF","daqg5rc8xw","1440","900","0","1","0","5eadc934201643479a185e59","","null","","","learningBlock1","","","","This is a dep:","null","","","","","",""
"image-keyboard-response","226","242804","0.0-5.0-1.73","LF","daqg5rc8xw","1440","900","0","1","0","5eadc934201643479a185e59","","null","","","","","","","learning/Slide74.JPG","null","","","","","",""
"html-keyboard-response","227","243809","0.0-5.0-2.73","LF","daqg5rc8xw","1440","900","0","1","0","5eadc934201643479a185e59","","null","","","learningBlock1","","","","<div style=""font-size:60px;""> </div>","null","LF","learning/Slide74.JPG","This is a dep:","","",""
"html-keyboard-response","228","244814","0.0-5.0-0.74","LF","daqg5rc8xw","1440","900","0","1","0","5eadc934201643479a185e59","","null","","","learningBlock1","","","","This is a tob:","null","","","","","",""
"image-keyboard-response","229","245149","0.0-5.0-1.74","LF","daqg5rc8xw","1440","900","0","1","0","5eadc934201643479a185e59","","null","","","","","","","learning/Slide75.JPG","null","","","","","",""
"html-keyboard-response","230","246154","0.0-5.0-2.74","LF","daqg5rc8xw","1440","900","0","1","0","5eadc934201643479a185e59","","null","","","learningBlock1","","","","<div style=""font-size:60px;""> </div>","null","LF","learning/Slide75.JPG","This is a tob:","","",""
"html-keyboard-response","231","247159","0.0-5.0-0.75","LF","daqg5rc8xw","1440","900","0","1","0","5eadc934201643479a185e59","","null","","","learningBlock1","","","","This is a bim:","null","","","","","",""
"image-keyboard-response","232","247491","0.0-5.0-1.75","LF","daqg5rc8xw","1440","900","0","1","0","5eadc934201643479a185e59","","null","","","","","","","learning/Slide76.JPG","null","","","","","",""
"html-keyboard-response","233","248493","0.0-5.0-2.75","LF","daqg5rc8xw","1440","900","0","1","0","5eadc934201643479a185e59","","null","","","learningBlock1","","","","<div style=""font-size:60px;""> </div>","null","LF","learning/Slide76.JPG","This is a bim:","","",""
"html-keyboard-response","234","249494","0.0-5.0-0.76","LF","daqg5rc8xw","1440","900","0","1","0","5eadc934201643479a185e59","","null","","","learningBlock1","","","","This is a tob:","null","","","","","",""
"image-keyboard-response","235","249828","0.0-5.0-1.76","LF","daqg5rc8xw","1440","900","0","1","0","5eadc934201643479a185e59","","null","","","","","","","learning/Slide77.JPG","null","","","","","",""
"html-keyboard-response","236","250834","0.0-5.0-2.76","LF","daqg5rc8xw","1440","900","0","1","0","5eadc934201643479a185e59","","null","","","learningBlock1","","","","<div style=""font-size:60px;""> </div>","null","LF","learning/Slide77.JPG","This is a tob:","","",""
"html-keyboard-response","237","251836","0.0-5.0-0.77","LF","daqg5rc8xw","1440","900","0","1","0","5eadc934201643479a185e59","","null","","","learningBlock1","","","","This is a wug:","null","","","","","",""
"image-keyboard-response","238","252168","0.0-5.0-1.77","LF","daqg5rc8xw","1440","900","0","1","0","5eadc934201643479a185e59","","null","","","","","","","learning/Slide78.JPG","null","","","","","",""
"html-keyboard-response","239","253173","0.0-5.0-2.77","LF","daqg5rc8xw","1440","900","0","1","0","5eadc934201643479a185e59","","null","","","learningBlock1","","","","<div style=""font-size:60px;""> </div>","null","LF","learning/Slide78.JPG","This is a wug:","","",""
"html-keyboard-response","240","254178","0.0-5.0-0.78","LF","daqg5rc8xw","1440","900","0","1","0","5eadc934201643479a185e59","","null","","","learningBlock1","","","","This is a bim:","null","","","","","",""
"image-keyboard-response","241","254513","0.0-5.0-1.78","LF","daqg5rc8xw","1440","900","0","1","0","5eadc934201643479a185e59","","null","","","","","","","learning/Slide79.JPG","null","","","","","",""
"html-keyboard-response","242","255520","0.0-5.0-2.78","LF","daqg5rc8xw","1440","900","0","1","0","5eadc934201643479a185e59","","null","","","learningBlock1","","","","<div style=""font-size:60px;""> </div>","null","LF","learning/Slide79.JPG","This is a bim:","","",""
"html-keyboard-response","243","256524","0.0-5.0-0.79","LF","daqg5rc8xw","1440","900","0","1","0","5eadc934201643479a185e59","","null","","","learningBlock1","","","","This is a tob:","null","","","","","",""
"image-keyboard-response","244","256856","0.0-5.0-1.79","LF","daqg5rc8xw","1440","900","0","1","0","5eadc934201643479a185e59","","null","","","","","","","learning/Slide80.JPG","null","","","","","",""
"html-keyboard-response","245","257858","0.0-5.0-2.79","LF","daqg5rc8xw","1440","900","0","1","0","5eadc934201643479a185e59","","null","","","learningBlock1","","","","<div style=""font-size:60px;""> </div>","null","LF","learning/Slide80.JPG","This is a tob:","","",""
"instructions","246","261584","0.0-6.0","LF","daqg5rc8xw","1440","900","0","1","0","5eadc934201643479a185e59","","NA","","[{""page_index"":0,""viewing_time"":3723.920000018552}]","instructions","","","","","","","","","","",""
"html-keyboard-response","247","262588","0.0-7.0-0.0","LF","daqg5rc8xw","1440","900","0","1","0","5eadc934201643479a185e59","","null","","","learningBlock2","","","","This is a wug:","null","","","","","",""
"image-keyboard-response","248","262918","0.0-7.0-1.0","LF","daqg5rc8xw","1440","900","0","1","0","5eadc934201643479a185e59","","null","","","","","","","learning/Slide81.JPG","null","","","","","",""
"html-keyboard-response","249","263920","0.0-7.0-2.0","LF","daqg5rc8xw","1440","900","0","1","0","5eadc934201643479a185e59","","null","","","learningBlock2","","","","<div style=""font-size:60px;""> </div>","null","LF","learning/Slide81.JPG","This is a wug:","","",""
"html-keyboard-response","250","264922","0.0-7.0-0.1","LF","daqg5rc8xw","1440","900","0","1","0","5eadc934201643479a185e59","","null","","","learningBlock2","","","","This is a bim:","null","","","","","",""
"image-keyboard-response","251","265259","0.0-7.0-1.1","LF","daqg5rc8xw","1440","900","0","1","0","5eadc934201643479a185e59","","null","","","","","","","learning/Slide82.JPG","null","","","","","",""
"html-keyboard-response","252","266266","0.0-7.0-2.1","LF","daqg5rc8xw","1440","900","0","1","0","5eadc934201643479a185e59","","null","","","learningBlock2","","","","<div style=""font-size:60px;""> </div>","null","LF","learning/Slide82.JPG","This is a bim:","","",""
"html-keyboard-response","253","267267","0.0-7.0-0.2","LF","daqg5rc8xw","1440","900","0","1","0","5eadc934201643479a185e59","","null","","","learningBlock2","","","","This is a wug:","null","","","","","",""
"image-keyboard-response","254","267597","0.0-7.0-1.2","LF","daqg5rc8xw","1440","900","0","1","0","5eadc934201643479a185e59","","null","","","","","","","learning/Slide83.JPG","null","","","","","",""
"html-keyboard-response","255","268602","0.0-7.0-2.2","LF","daqg5rc8xw","1440","900","0","1","0","5eadc934201643479a185e59","","null","","","learningBlock2","","","","<div style=""font-size:60px;""> </div>","null","LF","learning/Slide83.JPG","This is a wug:","","",""
"html-keyboard-response","256","269607","0.0-7.0-0.3","LF","daqg5rc8xw","1440","900","0","1","0","5eadc934201643479a185e59","","null","","","learningBlock2","","","","This is a dep:","null","","","","","",""
"image-keyboard-response","257","269938","0.0-7.0-1.3","LF","daqg5rc8xw","1440","900","0","1","0","5eadc934201643479a185e59","","null","","","","","","","learning/Slide84.JPG","null","","","","","",""
"html-keyboard-response","258","270943","0.0-7.0-2.3","LF","daqg5rc8xw","1440","900","0","1","0","5eadc934201643479a185e59","","null","","","learningBlock2","","","","<div style=""font-size:60px;""> </div>","null","LF","learning/Slide84.JPG","This is a dep:","","",""
"html-keyboard-response","259","271948","0.0-7.0-0.4","LF","daqg5rc8xw","1440","900","0","1","0","5eadc934201643479a185e59","","null","","","learningBlock2","","","","This is a bim:","null","","","","","",""
"image-keyboard-response","260","272284","0.0-7.0-1.4","LF","daqg5rc8xw","1440","900","0","1","0","5eadc934201643479a185e59","","null","","","","","","","learning/Slide85.JPG","null","","","","","",""
"html-keyboard-response","261","273290","0.0-7.0-2.4","LF","daqg5rc8xw","1440","900","0","1","0","5eadc934201643479a185e59","","null","","","learningBlock2","","","","<div style=""font-size:60px;""> </div>","null","LF","learning/Slide85.JPG","This is a bim:","","",""
"html-keyboard-response","262","274297","0.0-7.0-0.5","LF","daqg5rc8xw","1440","900","0","1","0","5eadc934201643479a185e59","","null","","","learningBlock2","","","","This is a tob:","null","","","","","",""
"image-keyboard-response","263","274630","0.0-7.0-1.5","LF","daqg5rc8xw","1440","900","0","1","0","5eadc934201643479a185e59","","null","","","","","","","learning/Slide86.JPG","null","","","","","",""
"html-keyboard-response","264","275637","0.0-7.0-2.5","LF","daqg5rc8xw","1440","900","0","1","0","5eadc934201643479a185e59","","null","","","learningBlock2","","","","<div style=""font-size:60px;""> </div>","null","LF","learning/Slide86.JPG","This is a tob:","","",""
"html-keyboard-response","265","276643","0.0-7.0-0.6","LF","daqg5rc8xw","1440","900","0","1","0","5eadc934201643479a185e59","","null","","","learningBlock2","","","","This is a wug:","null","","","","","",""
"image-keyboard-response","266","276977","0.0-7.0-1.6","LF","daqg5rc8xw","1440","900","0","1","0","5eadc934201643479a185e59","","null","","","","","","","learning/Slide87.JPG","null","","","","","",""
"html-keyboard-response","267","277979","0.0-7.0-2.6","LF","daqg5rc8xw","1440","900","0","1","0","5eadc934201643479a185e59","","null","","","learningBlock2","","","","<div style=""font-size:60px;""> </div>","null","LF","learning/Slide87.JPG","This is a wug:","","",""
"html-keyboard-response","268","278983","0.0-7.0-0.7","LF","daqg5rc8xw","1440","900","0","1","0","5eadc934201643479a185e59","","null","","","learningBlock2","","","","This is a tob:","null","","","","","",""
"image-keyboard-response","269","279317","0.0-7.0-1.7","LF","daqg5rc8xw","1440","900","0","1","0","5eadc934201643479a185e59","","null","","","","","","","learning/Slide88.JPG","null","","","","","",""
"html-keyboard-response","270","280320","0.0-7.0-2.7","LF","daqg5rc8xw","1440","900","0","1","0","5eadc934201643479a185e59","","null","","","learningBlock2","","","","<div style=""font-size:60px;""> </div>","null","LF","learning/Slide88.JPG","This is a tob:","","",""
"html-keyboard-response","271","281326","0.0-7.0-0.8","LF","daqg5rc8xw","1440","900","0","1","0","5eadc934201643479a185e59","","null","","","learningBlock2","","","","This is a bim:","null","","","","","",""
"image-keyboard-response","272","281662","0.0-7.0-1.8","LF","daqg5rc8xw","1440","900","0","1","0","5eadc934201643479a185e59","","null","","","","","","","learning/Slide89.JPG","null","","","","","",""
"html-keyboard-response","273","282666","0.0-7.0-2.8","LF","daqg5rc8xw","1440","900","0","1","0","5eadc934201643479a185e59","","null","","","learningBlock2","","","","<div style=""font-size:60px;""> </div>","null","LF","learning/Slide89.JPG","This is a bim:","","",""
"html-keyboard-response","274","283672","0.0-7.0-0.9","LF","daqg5rc8xw","1440","900","0","1","0","5eadc934201643479a185e59","","null","","","learningBlock2","","","","This is a dep:","null","","","","","",""
"image-keyboard-response","275","284007","0.0-7.0-1.9","LF","daqg5rc8xw","1440","900","0","1","0","5eadc934201643479a185e59","","null","","","","","","","learning/Slide90.JPG","null","","","","","",""
"html-keyboard-response","276","285010","0.0-7.0-2.9","LF","daqg5rc8xw","1440","900","0","1","0","5eadc934201643479a185e59","","null","","","learningBlock2","","","","<div style=""font-size:60px;""> </div>","null","LF","learning/Slide90.JPG","This is a dep:","","",""
"html-keyboard-response","277","286017","0.0-7.0-0.10","LF","daqg5rc8xw","1440","900","0","1","0","5eadc934201643479a185e59","","null","","","learningBlock2","","","","This is a wug:","null","","","","","",""
"image-keyboard-response","278","286353","0.0-7.0-1.10","LF","daqg5rc8xw","1440","900","0","1","0","5eadc934201643479a185e59","","null","","","","","","","learning/Slide91.JPG","null","","","","","",""
"html-keyboard-response","279","287358","0.0-7.0-2.10","LF","daqg5rc8xw","1440","900","0","1","0","5eadc934201643479a185e59","","null","","","learningBlock2","","","","<div style=""font-size:60px;""> </div>","null","LF","learning/Slide91.JPG","This is a wug:","","",""
"html-keyboard-response","280","288361","0.0-7.0-0.11","LF","daqg5rc8xw","1440","900","0","1","0","5eadc934201643479a185e59","","null","","","learningBlock2","","","","This is a tob:","null","","","","","",""
"image-keyboard-response","281","288693","0.0-7.0-1.11","LF","daqg5rc8xw","1440","900","0","1","0","5eadc934201643479a185e59","","null","","","","","","","learning/Slide92.JPG","null","","","","","",""
"html-keyboard-response","282","289695","0.0-7.0-2.11","LF","daqg5rc8xw","1440","900","0","1","0","5eadc934201643479a185e59","","null","","","learningBlock2","","","","<div style=""font-size:60px;""> </div>","null","LF","learning/Slide92.JPG","This is a tob:","","",""
"html-keyboard-response","283","290697","0.0-7.0-0.12","LF","daqg5rc8xw","1440","900","0","1","0","5eadc934201643479a185e59","","null","","","learningBlock2","","","","This is a bim:","null","","","","","",""
"image-keyboard-response","284","291028","0.0-7.0-1.12","LF","daqg5rc8xw","1440","900","0","1","0","5eadc934201643479a185e59","","null","","","","","","","learning/Slide93.JPG","null","","","","","",""
"html-keyboard-response","285","292035","0.0-7.0-2.12","LF","daqg5rc8xw","1440","900","0","1","0","5eadc934201643479a185e59","","null","","","learningBlock2","","","","<div style=""font-size:60px;""> </div>","null","LF","learning/Slide93.JPG","This is a bim:","","",""
"html-keyboard-response","286","293041","0.0-7.0-0.13","LF","daqg5rc8xw","1440","900","0","1","0","5eadc934201643479a185e59","","null","","","learningBlock2","","","","This is a tob:","null","","","","","",""
"image-keyboard-response","287","293372","0.0-7.0-1.13","LF","daqg5rc8xw","1440","900","0","1","0","5eadc934201643479a185e59","","null","","","","","","","learning/Slide94.JPG","null","","","","","",""
"html-keyboard-response","288","294379","0.0-7.0-2.13","LF","daqg5rc8xw","1440","900","0","1","0","5eadc934201643479a185e59","","null","","","learningBlock2","","","","<div style=""font-size:60px;""> </div>","null","LF","learning/Slide94.JPG","This is a tob:","","",""
"html-keyboard-response","289","295384","0.0-7.0-0.14","LF","daqg5rc8xw","1440","900","0","1","0","5eadc934201643479a185e59","","null","","","learningBlock2","","","","This is a wug:","null","","","","","",""
"image-keyboard-response","290","295716","0.0-7.0-1.14","LF","daqg5rc8xw","1440","900","0","1","0","5eadc934201643479a185e59","","null","","","","","","","learning/Slide95.JPG","null","","","","","",""
"html-keyboard-response","291","296719","0.0-7.0-2.14","LF","daqg5rc8xw","1440","900","0","1","0","5eadc934201643479a185e59","","null","","","learningBlock2","","","","<div style=""font-size:60px;""> </div>","null","LF","learning/Slide95.JPG","This is a wug:","","",""
"html-keyboard-response","292","297725","0.0-7.0-0.15","LF","daqg5rc8xw","1440","900","0","1","0","5eadc934201643479a185e59","","null","","","learningBlock2","","","","This is a tob:","null","","","","","",""
"image-keyboard-response","293","298059","0.0-7.0-1.15","LF","daqg5rc8xw","1440","900","0","1","0","5eadc934201643479a185e59","","null","","","","","","","learning/Slide96.JPG","null","","","","","",""
"html-keyboard-response","294","299065","0.0-7.0-2.15","LF","daqg5rc8xw","1440","900","0","1","0","5eadc934201643479a185e59","","null","","","learningBlock2","","","","<div style=""font-size:60px;""> </div>","null","LF","learning/Slide96.JPG","This is a tob:","","",""
"html-keyboard-response","295","300067","0.0-7.0-0.16","LF","daqg5rc8xw","1440","900","0","1","0","5eadc934201643479a185e59","","null","","","learningBlock2","","","","This is a dep:","null","","","","","",""
"image-keyboard-response","296","300403","0.0-7.0-1.16","LF","daqg5rc8xw","1440","900","0","1","0","5eadc934201643479a185e59","","null","","","","","","","learning/Slide97.JPG","null","","","","","",""
"html-keyboard-response","297","301411","0.0-7.0-2.16","LF","daqg5rc8xw","1440","900","0","1","0","5eadc934201643479a185e59","","null","","","learningBlock2","","","","<div style=""font-size:60px;""> </div>","null","LF","learning/Slide97.JPG","This is a dep:","","",""
"html-keyboard-response","298","302417","0.0-7.0-0.17","LF","daqg5rc8xw","1440","900","0","1","0","5eadc934201643479a185e59","","null","","","learningBlock2","","","","This is a bim:","null","","","","","",""
"image-keyboard-response","299","302753","0.0-7.0-1.17","LF","daqg5rc8xw","1440","900","0","1","0","5eadc934201643479a185e59","","null","","","","","","","learning/Slide98.JPG","null","","","","","",""
"html-keyboard-response","300","303760","0.0-7.0-2.17","LF","daqg5rc8xw","1440","900","0","1","0","5eadc934201643479a185e59","","null","","","learningBlock2","","","","<div style=""font-size:60px;""> </div>","null","LF","learning/Slide98.JPG","This is a bim:","","",""
"html-keyboard-response","301","304766","0.0-7.0-0.18","LF","daqg5rc8xw","1440","900","0","1","0","5eadc934201643479a185e59","","null","","","learningBlock2","","","","This is a dep:","null","","","","","",""
"image-keyboard-response","302","305098","0.0-7.0-1.18","LF","daqg5rc8xw","1440","900","0","1","0","5eadc934201643479a185e59","","null","","","","","","","learning/Slide99.JPG","null","","","","","",""
"html-keyboard-response","303","306103","0.0-7.0-2.18","LF","daqg5rc8xw","1440","900","0","1","0","5eadc934201643479a185e59","","null","","","learningBlock2","","","","<div style=""font-size:60px;""> </div>","null","LF","learning/Slide99.JPG","This is a dep:","","",""
"html-keyboard-response","304","307108","0.0-7.0-0.19","LF","daqg5rc8xw","1440","900","0","1","0","5eadc934201643479a185e59","","null","","","learningBlock2","","","","This is a bim:","null","","","","","",""
"image-keyboard-response","305","307445","0.0-7.0-1.19","LF","daqg5rc8xw","1440","900","0","1","0","5eadc934201643479a185e59","","null","","","","","","","learning/Slide100.JPG","null","","","","","",""
"html-keyboard-response","306","308452","0.0-7.0-2.19","LF","daqg5rc8xw","1440","900","0","1","0","5eadc934201643479a185e59","","null","","","learningBlock2","","","","<div style=""font-size:60px;""> </div>","null","LF","learning/Slide100.JPG","This is a bim:","","",""
"html-keyboard-response","307","309453","0.0-7.0-0.20","LF","daqg5rc8xw","1440","900","0","1","0","5eadc934201643479a185e59","","null","","","learningBlock2","","","","This is a tob:","null","","","","","",""
"image-keyboard-response","308","309788","0.0-7.0-1.20","LF","daqg5rc8xw","1440","900","0","1","0","5eadc934201643479a185e59","","null","","","","","","","learning/Slide101.JPG","null","","","","","",""
"html-keyboard-response","309","310794","0.0-7.0-2.20","LF","daqg5rc8xw","1440","900","0","1","0","5eadc934201643479a185e59","","null","","","learningBlock2","","","","<div style=""font-size:60px;""> </div>","null","LF","learning/Slide101.JPG","This is a tob:","","",""
"html-keyboard-response","310","311798","0.0-7.0-0.21","LF","daqg5rc8xw","1440","900","0","1","0","5eadc934201643479a185e59","","null","","","learningBlock2","","","","This is a bim:","null","","","","","",""
"image-keyboard-response","311","312131","0.0-7.0-1.21","LF","daqg5rc8xw","1440","900","0","1","0","5eadc934201643479a185e59","","null","","","","","","","learning/Slide102.JPG","null","","","","","",""
"html-keyboard-response","312","313133","0.0-7.0-2.21","LF","daqg5rc8xw","1440","900","0","1","0","5eadc934201643479a185e59","","null","","","learningBlock2","","","","<div style=""font-size:60px;""> </div>","null","LF","learning/Slide102.JPG","This is a bim:","","",""
"html-keyboard-response","313","314139","0.0-7.0-0.22","LF","daqg5rc8xw","1440","900","0","1","0","5eadc934201643479a185e59","","null","","","learningBlock2","","","","This is a dep:","null","","","","","",""
"image-keyboard-response","314","314476","0.0-7.0-1.22","LF","daqg5rc8xw","1440","900","0","1","0","5eadc934201643479a185e59","","null","","","","","","","learning/Slide103.JPG","null","","","","","",""
"html-keyboard-response","315","315482","0.0-7.0-2.22","LF","daqg5rc8xw","1440","900","0","1","0","5eadc934201643479a185e59","","null","","","learningBlock2","","","","<div style=""font-size:60px;""> </div>","null","LF","learning/Slide103.JPG","This is a dep:","","",""
"html-keyboard-response","316","316487","0.0-7.0-0.23","LF","daqg5rc8xw","1440","900","0","1","0","5eadc934201643479a185e59","","null","","","learningBlock2","","","","This is a tob:","null","","","","","",""
"image-keyboard-response","317","316821","0.0-7.0-1.23","LF","daqg5rc8xw","1440","900","0","1","0","5eadc934201643479a185e59","","null","","","","","","","learning/Slide104.JPG","null","","","","","",""
"html-keyboard-response","318","317826","0.0-7.0-2.23","LF","daqg5rc8xw","1440","900","0","1","0","5eadc934201643479a185e59","","null","","","learningBlock2","","","","<div style=""font-size:60px;""> </div>","null","LF","learning/Slide104.JPG","This is a tob:","","",""
"html-keyboard-response","319","318829","0.0-7.0-0.24","LF","daqg5rc8xw","1440","900","0","1","0","5eadc934201643479a185e59","","null","","","learningBlock2","","","","This is a dep:","null","","","","","",""
"image-keyboard-response","320","319166","0.0-7.0-1.24","LF","daqg5rc8xw","1440","900","0","1","0","5eadc934201643479a185e59","","null","","","","","","","learning/Slide105.JPG","null","","","","","",""
"html-keyboard-response","321","320173","0.0-7.0-2.24","LF","daqg5rc8xw","1440","900","0","1","0","5eadc934201643479a185e59","","null","","","learningBlock2","","","","<div style=""font-size:60px;""> </div>","null","LF","learning/Slide105.JPG","This is a dep:","","",""
"html-keyboard-response","322","321179","0.0-7.0-0.25","LF","daqg5rc8xw","1440","900","0","1","0","5eadc934201643479a185e59","","null","","","learningBlock2","","","","This is a wug:","null","","","","","",""
"image-keyboard-response","323","321517","0.0-7.0-1.25","LF","daqg5rc8xw","1440","900","0","1","0","5eadc934201643479a185e59","","null","","","","","","","learning/Slide106.JPG","null","","","","","",""
"html-keyboard-response","324","322524","0.0-7.0-2.25","LF","daqg5rc8xw","1440","900","0","1","0","5eadc934201643479a185e59","","null","","","learningBlock2","","","","<div style=""font-size:60px;""> </div>","null","LF","learning/Slide106.JPG","This is a wug:","","",""
"html-keyboard-response","325","323530","0.0-7.0-0.26","LF","daqg5rc8xw","1440","900","0","1","0","5eadc934201643479a185e59","","null","","","learningBlock2","","","","This is a bim:","null","","","","","",""
"image-keyboard-response","326","323864","0.0-7.0-1.26","LF","daqg5rc8xw","1440","900","0","1","0","5eadc934201643479a185e59","","null","","","","","","","learning/Slide107.JPG","null","","","","","",""
"html-keyboard-response","327","324869","0.0-7.0-2.26","LF","daqg5rc8xw","1440","900","0","1","0","5eadc934201643479a185e59","","null","","","learningBlock2","","","","<div style=""font-size:60px;""> </div>","null","LF","learning/Slide107.JPG","This is a bim:","","",""
"html-keyboard-response","328","325875","0.0-7.0-0.27","LF","daqg5rc8xw","1440","900","0","1","0","5eadc934201643479a185e59","","null","","","learningBlock2","","","","This is a dep:","null","","","","","",""
"image-keyboard-response","329","326210","0.0-7.0-1.27","LF","daqg5rc8xw","1440","900","0","1","0","5eadc934201643479a185e59","","null","","","","","","","learning/Slide108.JPG","null","","","","","",""
"html-keyboard-response","330","327211","0.0-7.0-2.27","LF","daqg5rc8xw","1440","900","0","1","0","5eadc934201643479a185e59","","null","","","learningBlock2","","","","<div style=""font-size:60px;""> </div>","null","LF","learning/Slide108.JPG","This is a dep:","","",""
"html-keyboard-response","331","328218","0.0-7.0-0.28","LF","daqg5rc8xw","1440","900","0","1","0","5eadc934201643479a185e59","","null","","","learningBlock2","","","","This is a wug:","null","","","","","",""
"image-keyboard-response","332","328553","0.0-7.0-1.28","LF","daqg5rc8xw","1440","900","0","1","0","5eadc934201643479a185e59","","null","","","","","","","learning/Slide109.JPG","null","","","","","",""
"html-keyboard-response","333","329557","0.0-7.0-2.28","LF","daqg5rc8xw","1440","900","0","1","0","5eadc934201643479a185e59","","null","","","learningBlock2","","","","<div style=""font-size:60px;""> </div>","null","LF","learning/Slide109.JPG","This is a wug:","","",""
"html-keyboard-response","334","330564","0.0-7.0-0.29","LF","daqg5rc8xw","1440","900","0","1","0","5eadc934201643479a185e59","","null","","","learningBlock2","","","","This is a bim:","null","","","","","",""
"image-keyboard-response","335","330898","0.0-7.0-1.29","LF","daqg5rc8xw","1440","900","0","1","0","5eadc934201643479a185e59","","null","","","","","","","learning/Slide110.JPG","null","","","","","",""
"html-keyboard-response","336","331899","0.0-7.0-2.29","LF","daqg5rc8xw","1440","900","0","1","0","5eadc934201643479a185e59","","null","","","learningBlock2","","","","<div style=""font-size:60px;""> </div>","null","LF","learning/Slide110.JPG","This is a bim:","","",""
"html-keyboard-response","337","332905","0.0-7.0-0.30","LF","daqg5rc8xw","1440","900","0","1","0","5eadc934201643479a185e59","","null","","","learningBlock2","","","","This is a tob:","null","","","","","",""
"image-keyboard-response","338","333240","0.0-7.0-1.30","LF","daqg5rc8xw","1440","900","0","1","0","5eadc934201643479a185e59","","null","","","","","","","learning/Slide111.JPG","null","","","","","",""
"html-keyboard-response","339","334242","0.0-7.0-2.30","LF","daqg5rc8xw","1440","900","0","1","0","5eadc934201643479a185e59","","null","","","learningBlock2","","","","<div style=""font-size:60px;""> </div>","null","LF","learning/Slide111.JPG","This is a tob:","","",""
"html-keyboard-response","340","335247","0.0-7.0-0.31","LF","daqg5rc8xw","1440","900","0","1","0","5eadc934201643479a185e59","","null","","","learningBlock2","","","","This is a wug:","null","","","","","",""
"image-keyboard-response","341","335581","0.0-7.0-1.31","LF","daqg5rc8xw","1440","900","0","1","0","5eadc934201643479a185e59","","null","","","","","","","learning/Slide112.JPG","null","","","","","",""
"html-keyboard-response","342","336583","0.0-7.0-2.31","LF","daqg5rc8xw","1440","900","0","1","0","5eadc934201643479a185e59","","null","","","learningBlock2","","","","<div style=""font-size:60px;""> </div>","null","LF","learning/Slide112.JPG","This is a wug:","","",""
"html-keyboard-response","343","337587","0.0-7.0-0.32","LF","daqg5rc8xw","1440","900","0","1","0","5eadc934201643479a185e59","","null","","","learningBlock2","","","","This is a tob:","null","","","","","",""
"image-keyboard-response","344","337921","0.0-7.0-1.32","LF","daqg5rc8xw","1440","900","0","1","0","5eadc934201643479a185e59","","null","","","","","","","learning/Slide113.JPG","null","","","","","",""
"html-keyboard-response","345","338924","0.0-7.0-2.32","LF","daqg5rc8xw","1440","900","0","1","0","5eadc934201643479a185e59","","null","","","learningBlock2","","","","<div style=""font-size:60px;""> </div>","null","LF","learning/Slide113.JPG","This is a tob:","","",""
"html-keyboard-response","346","339926","0.0-7.0-0.33","LF","daqg5rc8xw","1440","900","0","1","0","5eadc934201643479a185e59","","null","","","learningBlock2","","","","This is a wug:","null","","","","","",""
"image-keyboard-response","347","340258","0.0-7.0-1.33","LF","daqg5rc8xw","1440","900","0","1","0","5eadc934201643479a185e59","","null","","","","","","","learning/Slide114.JPG","null","","","","","",""
"html-keyboard-response","348","341265","0.0-7.0-2.33","LF","daqg5rc8xw","1440","900","0","1","0","5eadc934201643479a185e59","","null","","","learningBlock2","","","","<div style=""font-size:60px;""> </div>","null","LF","learning/Slide114.JPG","This is a wug:","","",""
"html-keyboard-response","349","342271","0.0-7.0-0.34","LF","daqg5rc8xw","1440","900","0","1","0","5eadc934201643479a185e59","","null","","","learningBlock2","","","","This is a bim:","null","","","","","",""
"image-keyboard-response","350","342606","0.0-7.0-1.34","LF","daqg5rc8xw","1440","900","0","1","0","5eadc934201643479a185e59","","null","","","","","","","learning/Slide115.JPG","null","","","","","",""
"html-keyboard-response","351","343608","0.0-7.0-2.34","LF","daqg5rc8xw","1440","900","0","1","0","5eadc934201643479a185e59","","null","","","learningBlock2","","","","<div style=""font-size:60px;""> </div>","null","LF","learning/Slide115.JPG","This is a bim:","","",""
"html-keyboard-response","352","344613","0.0-7.0-0.35","LF","daqg5rc8xw","1440","900","0","1","0","5eadc934201643479a185e59","","null","","","learningBlock2","","","","This is a dep:","null","","","","","",""
"image-keyboard-response","353","344950","0.0-7.0-1.35","LF","daqg5rc8xw","1440","900","0","1","0","5eadc934201643479a185e59","","null","","","","","","","learning/Slide116.JPG","null","","","","","",""
"html-keyboard-response","354","345953","0.0-7.0-2.35","LF","daqg5rc8xw","1440","900","0","1","0","5eadc934201643479a185e59","","null","","","learningBlock2","","","","<div style=""font-size:60px;""> </div>","null","LF","learning/Slide116.JPG","This is a dep:","","",""
"html-keyboard-response","355","346960","0.0-7.0-0.36","LF","daqg5rc8xw","1440","900","0","1","0","5eadc934201643479a185e59","","null","","","learningBlock2","","","","This is a tob:","null","","","","","",""
"image-keyboard-response","356","347297","0.0-7.0-1.36","LF","daqg5rc8xw","1440","900","0","1","0","5eadc934201643479a185e59","","null","","","","","","","learning/Slide117.JPG","null","","","","","",""
"html-keyboard-response","357","348304","0.0-7.0-2.36","LF","daqg5rc8xw","1440","900","0","1","0","5eadc934201643479a185e59","","null","","","learningBlock2","","","","<div style=""font-size:60px;""> </div>","null","LF","learning/Slide117.JPG","This is a tob:","","",""
"html-keyboard-response","358","349310","0.0-7.0-0.37","LF","daqg5rc8xw","1440","900","0","1","0","5eadc934201643479a185e59","","null","","","learningBlock2","","","","This is a dep:","null","","","","","",""
"image-keyboard-response","359","349645","0.0-7.0-1.37","LF","daqg5rc8xw","1440","900","0","1","0","5eadc934201643479a185e59","","null","","","","","","","learning/Slide118.JPG","null","","","","","",""
"html-keyboard-response","360","350651","0.0-7.0-2.37","LF","daqg5rc8xw","1440","900","0","1","0","5eadc934201643479a185e59","","null","","","learningBlock2","","","","<div style=""font-size:60px;""> </div>","null","LF","learning/Slide118.JPG","This is a dep:","","",""
"html-keyboard-response","361","351653","0.0-7.0-0.38","LF","daqg5rc8xw","1440","900","0","1","0","5eadc934201643479a185e59","","null","","","learningBlock2","","","","This is a wug:","null","","","","","",""
"image-keyboard-response","362","351984","0.0-7.0-1.38","LF","daqg5rc8xw","1440","900","0","1","0","5eadc934201643479a185e59","","null","","","","","","","learning/Slide119.JPG","null","","","","","",""
"html-keyboard-response","363","352989","0.0-7.0-2.38","LF","daqg5rc8xw","1440","900","0","1","0","5eadc934201643479a185e59","","null","","","learningBlock2","","","","<div style=""font-size:60px;""> </div>","null","LF","learning/Slide119.JPG","This is a wug:","","",""
"html-keyboard-response","364","353993","0.0-7.0-0.39","LF","daqg5rc8xw","1440","900","0","1","0","5eadc934201643479a185e59","","null","","","learningBlock2","","","","This is a dep:","null","","","","","",""
"image-keyboard-response","365","354324","0.0-7.0-1.39","LF","daqg5rc8xw","1440","900","0","1","0","5eadc934201643479a185e59","","null","","","","","","","learning/Slide120.JPG","null","","","","","",""
"html-keyboard-response","366","355327","0.0-7.0-2.39","LF","daqg5rc8xw","1440","900","0","1","0","5eadc934201643479a185e59","","null","","","learningBlock2","","","","<div style=""font-size:60px;""> </div>","null","LF","learning/Slide120.JPG","This is a dep:","","",""
"html-keyboard-response","367","356331","0.0-7.0-0.40","LF","daqg5rc8xw","1440","900","0","1","0","5eadc934201643479a185e59","","null","","","learningBlock2","","","","This is a bim:","null","","","","","",""
"image-keyboard-response","368","356660","0.0-7.0-1.40","LF","daqg5rc8xw","1440","900","0","1","0","5eadc934201643479a185e59","","null","","","","","","","learning/Slide121.JPG","null","","","","","",""
"html-keyboard-response","369","357663","0.0-7.0-2.40","LF","daqg5rc8xw","1440","900","0","1","0","5eadc934201643479a185e59","","null","","","learningBlock2","","","","<div style=""font-size:60px;""> </div>","null","LF","learning/Slide121.JPG","This is a bim:","","",""
"html-keyboard-response","370","358669","0.0-7.0-0.41","LF","daqg5rc8xw","1440","900","0","1","0","5eadc934201643479a185e59","","null","","","learningBlock2","","","","This is a wug:","null","","","","","",""
"image-keyboard-response","371","359005","0.0-7.0-1.41","LF","daqg5rc8xw","1440","900","0","1","0","5eadc934201643479a185e59","","null","","","","","","","learning/Slide122.JPG","null","","","","","",""
"html-keyboard-response","372","360007","0.0-7.0-2.41","LF","daqg5rc8xw","1440","900","0","1","0","5eadc934201643479a185e59","","null","","","learningBlock2","","","","<div style=""font-size:60px;""> </div>","null","LF","learning/Slide122.JPG","This is a wug:","","",""
"html-keyboard-response","373","361014","0.0-7.0-0.42","LF","daqg5rc8xw","1440","900","0","1","0","5eadc934201643479a185e59","","null","","","learningBlock2","","","","This is a bim:","null","","","","","",""
"image-keyboard-response","374","361348","0.0-7.0-1.42","LF","daqg5rc8xw","1440","900","0","1","0","5eadc934201643479a185e59","","null","","","","","","","learning/Slide123.JPG","null","","","","","",""
"html-keyboard-response","375","362352","0.0-7.0-2.42","LF","daqg5rc8xw","1440","900","0","1","0","5eadc934201643479a185e59","","null","","","learningBlock2","","","","<div style=""font-size:60px;""> </div>","null","LF","learning/Slide123.JPG","This is a bim:","","",""
"html-keyboard-response","376","363357","0.0-7.0-0.43","LF","daqg5rc8xw","1440","900","0","1","0","5eadc934201643479a185e59","","null","","","learningBlock2","","","","This is a tob:","null","","","","","",""
"image-keyboard-response","377","363691","0.0-7.0-1.43","LF","daqg5rc8xw","1440","900","0","1","0","5eadc934201643479a185e59","","null","","","","","","","learning/Slide124.JPG","null","","","","","",""
"html-keyboard-response","378","364697","0.0-7.0-2.43","LF","daqg5rc8xw","1440","900","0","1","0","5eadc934201643479a185e59","","null","","","learningBlock2","","","","<div style=""font-size:60px;""> </div>","null","LF","learning/Slide124.JPG","This is a tob:","","",""
"html-keyboard-response","379","365700","0.0-7.0-0.44","LF","daqg5rc8xw","1440","900","0","1","0","5eadc934201643479a185e59","","null","","","learningBlock2","","","","This is a bim:","null","","","","","",""
"image-keyboard-response","380","366031","0.0-7.0-1.44","LF","daqg5rc8xw","1440","900","0","1","0","5eadc934201643479a185e59","","null","","","","","","","learning/Slide125.JPG","null","","","","","",""
"html-keyboard-response","381","367037","0.0-7.0-2.44","LF","daqg5rc8xw","1440","900","0","1","0","5eadc934201643479a185e59","","null","","","learningBlock2","","","","<div style=""font-size:60px;""> </div>","null","LF","learning/Slide125.JPG","This is a bim:","","",""
"html-keyboard-response","382","368041","0.0-7.0-0.45","LF","daqg5rc8xw","1440","900","0","1","0","5eadc934201643479a185e59","","null","","","learningBlock2","","","","This is a tob:","null","","","","","",""
"image-keyboard-response","383","368369","0.0-7.0-1.45","LF","daqg5rc8xw","1440","900","0","1","0","5eadc934201643479a185e59","","null","","","","","","","learning/Slide126.JPG","null","","","","","",""
"html-keyboard-response","384","369373","0.0-7.0-2.45","LF","daqg5rc8xw","1440","900","0","1","0","5eadc934201643479a185e59","","null","","","learningBlock2","","","","<div style=""font-size:60px;""> </div>","null","LF","learning/Slide126.JPG","This is a tob:","","",""
"html-keyboard-response","385","370379","0.0-7.0-0.46","LF","daqg5rc8xw","1440","900","0","1","0","5eadc934201643479a185e59","","null","","","learningBlock2","","","","This is a dep:","null","","","","","",""
"image-keyboard-response","386","370712","0.0-7.0-1.46","LF","daqg5rc8xw","1440","900","0","1","0","5eadc934201643479a185e59","","null","","","","","","","learning/Slide127.JPG","null","","","","","",""
"html-keyboard-response","387","371718","0.0-7.0-2.46","LF","daqg5rc8xw","1440","900","0","1","0","5eadc934201643479a185e59","","null","","","learningBlock2","","","","<div style=""font-size:60px;""> </div>","null","LF","learning/Slide127.JPG","This is a dep:","","",""
"html-keyboard-response","388","372723","0.0-7.0-0.47","LF","daqg5rc8xw","1440","900","0","1","0","5eadc934201643479a185e59","","null","","","learningBlock2","","","","This is a wug:","null","","","","","",""
"image-keyboard-response","389","373060","0.0-7.0-1.47","LF","daqg5rc8xw","1440","900","0","1","0","5eadc934201643479a185e59","","null","","","","","","","learning/Slide128.JPG","null","","","","","",""
"html-keyboard-response","390","374066","0.0-7.0-2.47","LF","daqg5rc8xw","1440","900","0","1","0","5eadc934201643479a185e59","","null","","","learningBlock2","","","","<div style=""font-size:60px;""> </div>","null","LF","learning/Slide128.JPG","This is a wug:","","",""
"html-keyboard-response","391","375072","0.0-7.0-0.48","LF","daqg5rc8xw","1440","900","0","1","0","5eadc934201643479a185e59","","null","","","learningBlock2","","","","This is a tob:","null","","","","","",""
"image-keyboard-response","392","375405","0.0-7.0-1.48","LF","daqg5rc8xw","1440","900","0","1","0","5eadc934201643479a185e59","","null","","","","","","","learning/Slide129.JPG","null","","","","","",""
"html-keyboard-response","393","376407","0.0-7.0-2.48","LF","daqg5rc8xw","1440","900","0","1","0","5eadc934201643479a185e59","","null","","","learningBlock2","","","","<div style=""font-size:60px;""> </div>","null","LF","learning/Slide129.JPG","This is a tob:","","",""
"html-keyboard-response","394","377412","0.0-7.0-0.49","LF","daqg5rc8xw","1440","900","0","1","0","5eadc934201643479a185e59","","null","","","learningBlock2","","","","This is a wug:","null","","","","","",""
"image-keyboard-response","395","377739","0.0-7.0-1.49","LF","daqg5rc8xw","1440","900","0","1","0","5eadc934201643479a185e59","","null","","","","","","","learning/Slide130.JPG","null","","","","","",""
"html-keyboard-response","396","378745","0.0-7.0-2.49","LF","daqg5rc8xw","1440","900","0","1","0","5eadc934201643479a185e59","","null","","","learningBlock2","","","","<div style=""font-size:60px;""> </div>","null","LF","learning/Slide130.JPG","This is a wug:","","",""
"html-keyboard-response","397","379751","0.0-7.0-0.50","LF","daqg5rc8xw","1440","900","0","1","0","5eadc934201643479a185e59","","null","","","learningBlock2","","","","This is a bim:","null","","","","","",""
"image-keyboard-response","398","380082","0.0-7.0-1.50","LF","daqg5rc8xw","1440","900","0","1","0","5eadc934201643479a185e59","","null","","","","","","","learning/Slide131.JPG","null","","","","","",""
"html-keyboard-response","399","381085","0.0-7.0-2.50","LF","daqg5rc8xw","1440","900","0","1","0","5eadc934201643479a185e59","","null","","","learningBlock2","","","","<div style=""font-size:60px;""> </div>","null","LF","learning/Slide131.JPG","This is a bim:","","",""
"html-keyboard-response","400","382090","0.0-7.0-0.51","LF","daqg5rc8xw","1440","900","0","1","0","5eadc934201643479a185e59","","null","","","learningBlock2","","","","This is a dep:","null","","","","","",""
"image-keyboard-response","401","382423","0.0-7.0-1.51","LF","daqg5rc8xw","1440","900","0","1","0","5eadc934201643479a185e59","","null","","","","","","","learning/Slide132.JPG","null","","","","","",""
"html-keyboard-response","402","383430","0.0-7.0-2.51","LF","daqg5rc8xw","1440","900","0","1","0","5eadc934201643479a185e59","","null","","","learningBlock2","","","","<div style=""font-size:60px;""> </div>","null","LF","learning/Slide132.JPG","This is a dep:","","",""
"html-keyboard-response","403","384433","0.0-7.0-0.52","LF","daqg5rc8xw","1440","900","0","1","0","5eadc934201643479a185e59","","null","","","learningBlock2","","","","This is a tob:","null","","","","","",""
"image-keyboard-response","404","384772","0.0-7.0-1.52","LF","daqg5rc8xw","1440","900","0","1","0","5eadc934201643479a185e59","","null","","","","","","","learning/Slide133.JPG","null","","","","","",""
"html-keyboard-response","405","385778","0.0-7.0-2.52","LF","daqg5rc8xw","1440","900","0","1","0","5eadc934201643479a185e59","","null","","","learningBlock2","","","","<div style=""font-size:60px;""> </div>","null","LF","learning/Slide133.JPG","This is a tob:","","",""
"html-keyboard-response","406","386781","0.0-7.0-0.53","LF","daqg5rc8xw","1440","900","0","1","0","5eadc934201643479a185e59","","null","","","learningBlock2","","","","This is a dep:","null","","","","","",""
"image-keyboard-response","407","387118","0.0-7.0-1.53","LF","daqg5rc8xw","1440","900","0","1","0","5eadc934201643479a185e59","","null","","","","","","","learning/Slide134.JPG","null","","","","","",""
"html-keyboard-response","408","388125","0.0-7.0-2.53","LF","daqg5rc8xw","1440","900","0","1","0","5eadc934201643479a185e59","","null","","","learningBlock2","","","","<div style=""font-size:60px;""> </div>","null","LF","learning/Slide134.JPG","This is a dep:","","",""
"html-keyboard-response","409","389131","0.0-7.0-0.54","LF","daqg5rc8xw","1440","900","0","1","0","5eadc934201643479a185e59","","null","","","learningBlock2","","","","This is a tob:","null","","","","","",""
"image-keyboard-response","410","389463","0.0-7.0-1.54","LF","daqg5rc8xw","1440","900","0","1","0","5eadc934201643479a185e59","","null","","","","","","","learning/Slide135.JPG","null","","","","","",""
"html-keyboard-response","411","390467","0.0-7.0-2.54","LF","daqg5rc8xw","1440","900","0","1","0","5eadc934201643479a185e59","","null","","","learningBlock2","","","","<div style=""font-size:60px;""> </div>","null","LF","learning/Slide135.JPG","This is a tob:","","",""
"html-keyboard-response","412","391471","0.0-7.0-0.55","LF","daqg5rc8xw","1440","900","0","1","0","5eadc934201643479a185e59","","null","","","learningBlock2","","","","This is a wug:","null","","","","","",""
"image-keyboard-response","413","391802","0.0-7.0-1.55","LF","daqg5rc8xw","1440","900","0","1","0","5eadc934201643479a185e59","","null","","","","","","","learning/Slide136.JPG","null","","","","","",""
"html-keyboard-response","414","392809","0.0-7.0-2.55","LF","daqg5rc8xw","1440","900","0","1","0","5eadc934201643479a185e59","","null","","","learningBlock2","","","","<div style=""font-size:60px;""> </div>","null","LF","learning/Slide136.JPG","This is a wug:","","",""
"html-keyboard-response","415","393815","0.0-7.0-0.56","LF","daqg5rc8xw","1440","900","0","1","0","5eadc934201643479a185e59","","null","","","learningBlock2","","","","This is a tob:","null","","","","","",""
"image-keyboard-response","416","394147","0.0-7.0-1.56","LF","daqg5rc8xw","1440","900","0","1","0","5eadc934201643479a185e59","","null","","","","","","","learning/Slide137.JPG","null","","","","","",""
"html-keyboard-response","417","395151","0.0-7.0-2.56","LF","daqg5rc8xw","1440","900","0","1","0","5eadc934201643479a185e59","","null","","","learningBlock2","","","","<div style=""font-size:60px;""> </div>","null","LF","learning/Slide137.JPG","This is a tob:","","",""
"html-keyboard-response","418","396157","0.0-7.0-0.57","LF","daqg5rc8xw","1440","900","0","1","0","5eadc934201643479a185e59","","null","","","learningBlock2","","","","This is a bim:","null","","","","","",""
"image-keyboard-response","419","396495","0.0-7.0-1.57","LF","daqg5rc8xw","1440","900","0","1","0","5eadc934201643479a185e59","","null","","","","","","","learning/Slide138.JPG","null","","","","","",""
"html-keyboard-response","420","397500","0.0-7.0-2.57","LF","daqg5rc8xw","1440","900","0","1","0","5eadc934201643479a185e59","","null","","","learningBlock2","","","","<div style=""font-size:60px;""> </div>","null","LF","learning/Slide138.JPG","This is a bim:","","",""
"html-keyboard-response","421","398504","0.0-7.0-0.58","LF","daqg5rc8xw","1440","900","0","1","0","5eadc934201643479a185e59","","null","","","learningBlock2","","","","This is a wug:","null","","","","","",""
"image-keyboard-response","422","398837","0.0-7.0-1.58","LF","daqg5rc8xw","1440","900","0","1","0","5eadc934201643479a185e59","","null","","","","","","","learning/Slide139.JPG","null","","","","","",""
"html-keyboard-response","423","399842","0.0-7.0-2.58","LF","daqg5rc8xw","1440","900","0","1","0","5eadc934201643479a185e59","","null","","","learningBlock2","","","","<div style=""font-size:60px;""> </div>","null","LF","learning/Slide139.JPG","This is a wug:","","",""
"html-keyboard-response","424","400847","0.0-7.0-0.59","LF","daqg5rc8xw","1440","900","0","1","0","5eadc934201643479a185e59","","null","","","learningBlock2","","","","This is a dep:","null","","","","","",""
"image-keyboard-response","425","401176","0.0-7.0-1.59","LF","daqg5rc8xw","1440","900","0","1","0","5eadc934201643479a185e59","","null","","","","","","","learning/Slide140.JPG","null","","","","","",""
"html-keyboard-response","426","402183","0.0-7.0-2.59","LF","daqg5rc8xw","1440","900","0","1","0","5eadc934201643479a185e59","","null","","","learningBlock2","","","","<div style=""font-size:60px;""> </div>","null","LF","learning/Slide140.JPG","This is a dep:","","",""
"html-keyboard-response","427","403185","0.0-7.0-0.60","LF","daqg5rc8xw","1440","900","0","1","0","5eadc934201643479a185e59","","null","","","learningBlock2","","","","This is a tob:","null","","","","","",""
"image-keyboard-response","428","403515","0.0-7.0-1.60","LF","daqg5rc8xw","1440","900","0","1","0","5eadc934201643479a185e59","","null","","","","","","","learning/Slide141.JPG","null","","","","","",""
"html-keyboard-response","429","404522","0.0-7.0-2.60","LF","daqg5rc8xw","1440","900","0","1","0","5eadc934201643479a185e59","","null","","","learningBlock2","","","","<div style=""font-size:60px;""> </div>","null","LF","learning/Slide141.JPG","This is a tob:","","",""
"html-keyboard-response","430","405529","0.0-7.0-0.61","LF","daqg5rc8xw","1440","900","0","1","0","5eadc934201643479a185e59","","null","","","learningBlock2","","","","This is a wug:","null","","","","","",""
"image-keyboard-response","431","405863","0.0-7.0-1.61","LF","daqg5rc8xw","1440","900","0","1","0","5eadc934201643479a185e59","","null","","","","","","","learning/Slide142.JPG","null","","","","","",""
"html-keyboard-response","432","406870","0.0-7.0-2.61","LF","daqg5rc8xw","1440","900","0","1","0","5eadc934201643479a185e59","","null","","","learningBlock2","","","","<div style=""font-size:60px;""> </div>","null","LF","learning/Slide142.JPG","This is a wug:","","",""
"html-keyboard-response","433","407876","0.0-7.0-0.62","LF","daqg5rc8xw","1440","900","0","1","0","5eadc934201643479a185e59","","null","","","learningBlock2","","","","This is a bim:","null","","","","","",""
"image-keyboard-response","434","408205","0.0-7.0-1.62","LF","daqg5rc8xw","1440","900","0","1","0","5eadc934201643479a185e59","","null","","","","","","","learning/Slide143.JPG","null","","","","","",""
"html-keyboard-response","435","409208","0.0-7.0-2.62","LF","daqg5rc8xw","1440","900","0","1","0","5eadc934201643479a185e59","","null","","","learningBlock2","","","","<div style=""font-size:60px;""> </div>","null","LF","learning/Slide143.JPG","This is a bim:","","",""
"html-keyboard-response","436","410213","0.0-7.0-0.63","LF","daqg5rc8xw","1440","900","0","1","0","5eadc934201643479a185e59","","null","","","learningBlock2","","","","This is a dep:","null","","","","","",""
"image-keyboard-response","437","410545","0.0-7.0-1.63","LF","daqg5rc8xw","1440","900","0","1","0","5eadc934201643479a185e59","","null","","","","","","","learning/Slide144.JPG","null","","","","","",""
