"trial_type","trial_index","time_elapsed","internal_node_id","condition","subject","screen_width","screen_height","attention","distraction","conscientious","prolificID","success","rt","url","view_history","test_part","final_height_px","final_width_px","scale_factor","stimulus","key_press","learningType","presentedImage","presentedLabel","button_pressed","response","responses"
"pavlovia","0","110","0.0-0.0","LF","cjpw7y8c1k","1366","768","0","1","0","5efdc12f5d69f622915a97a1","","","","","","","","","","","","","","","",""
"fullscreen","1","5330","0.0-1.0","LF","cjpw7y8c1k","1366","768","0","1","0","5efdc12f5d69f622915a97a1","true","","","","","","","","","","","","","","",""
"external-html","2","8611","0.0-2.0-0.0","LF","cjpw7y8c1k","1366","768","0","1","0","5efdc12f5d69f622915a97a1","","3261.145000025863","text/information_english.html","","","","","","","","","","","","",""
"external-html","3","12059","0.0-2.0-1.0","LF","cjpw7y8c1k","1366","768","0","1","0","5efdc12f5d69f622915a97a1","","3428.7899999762885","text/consent_english.html","","","","","","","","","","","","",""
"instructions","4","14577","0.0-3.0","LF","cjpw7y8c1k","1366","768","0","1","0","5efdc12f5d69f622915a97a1","","NA","","[{""page_index"":0,""viewing_time"":1389.7050000086892},{""page_index"":1,""viewing_time"":1123.185000004014}]","instructions","","","","","","","","","","",""
"resize","5","22425","0.0-4.0","LF","cjpw7y8c1k","1366","768","0","1","0","5efdc12f5d69f622915a97a1","","","","","","","1034","6.565079365079366","","","","","","","",""
"html-keyboard-response","6","23438","0.0-5.0-0.0","LF","cjpw7y8c1k","1366","768","0","1","0","5efdc12f5d69f622915a97a1","","null","","","learningBlock1","","","","This is a tob:","null","","","","","",""
"image-keyboard-response","7","23780","0.0-5.0-1.0","LF","cjpw7y8c1k","1366","768","0","1","0","5efdc12f5d69f622915a97a1","","null","","","","","","","learning/Slide1.JPG","null","","","","","",""
"html-keyboard-response","8","24792","0.0-5.0-2.0","LF","cjpw7y8c1k","1366","768","0","1","0","5efdc12f5d69f622915a97a1","","null","","","learningBlock1","","","","<div style=""font-size:60px;""> </div>","null","LF","learning/Slide1.JPG","This is a tob:","","",""
"html-keyboard-response","9","25795","0.0-5.0-0.1","LF","cjpw7y8c1k","1366","768","0","1","0","5efdc12f5d69f622915a97a1","","null","","","learningBlock1","","","","This is a wug:","null","","","","","",""
"image-keyboard-response","10","26139","0.0-5.0-1.1","LF","cjpw7y8c1k","1366","768","0","1","0","5efdc12f5d69f622915a97a1","","null","","","","","","","learning/Slide2.JPG","null","","","","","",""
"html-keyboard-response","11","27147","0.0-5.0-2.1","LF","cjpw7y8c1k","1366","768","0","1","0","5efdc12f5d69f622915a97a1","","null","","","learningBlock1","","","","<div style=""font-size:60px;""> </div>","null","LF","learning/Slide2.JPG","This is a wug:","","",""
"html-keyboard-response","12","28158","0.0-5.0-0.2","LF","cjpw7y8c1k","1366","768","0","1","0","5efdc12f5d69f622915a97a1","","null","","","learningBlock1","","","","This is a bim:","null","","","","","",""
"image-keyboard-response","13","28500","0.0-5.0-1.2","LF","cjpw7y8c1k","1366","768","0","1","0","5efdc12f5d69f622915a97a1","","null","","","","","","","learning/Slide3.JPG","null","","","","","",""
"html-keyboard-response","14","29503","0.0-5.0-2.2","LF","cjpw7y8c1k","1366","768","0","1","0","5efdc12f5d69f622915a97a1","","null","","","learningBlock1","","","","<div style=""font-size:60px;""> </div>","null","LF","learning/Slide3.JPG","This is a bim:","","",""
"html-keyboard-response","15","30514","0.0-5.0-0.3","LF","cjpw7y8c1k","1366","768","0","1","0","5efdc12f5d69f622915a97a1","","null","","","learningBlock1","","","","This is a dep:","null","","","","","",""
"image-keyboard-response","16","30862","0.0-5.0-1.3","LF","cjpw7y8c1k","1366","768","0","1","0","5efdc12f5d69f622915a97a1","","null","","","","","","","learning/Slide4.JPG","null","","","","","",""
"html-keyboard-response","17","31867","0.0-5.0-2.3","LF","cjpw7y8c1k","1366","768","0","1","0","5efdc12f5d69f622915a97a1","","null","","","learningBlock1","","","","<div style=""font-size:60px;""> </div>","null","LF","learning/Slide4.JPG","This is a dep:","","",""
"html-keyboard-response","18","32871","0.0-5.0-0.4","LF","cjpw7y8c1k","1366","768","0","1","0","5efdc12f5d69f622915a97a1","","null","","","learningBlock1","","","","This is a wug:","null","","","","","",""
"image-keyboard-response","19","33218","0.0-5.0-1.4","LF","cjpw7y8c1k","1366","768","0","1","0","5efdc12f5d69f622915a97a1","","null","","","","","","","learning/Slide5.JPG","null","","","","","",""
"html-keyboard-response","20","34224","0.0-5.0-2.4","LF","cjpw7y8c1k","1366","768","0","1","0","5efdc12f5d69f622915a97a1","","null","","","learningBlock1","","","","<div style=""font-size:60px;""> </div>","null","LF","learning/Slide5.JPG","This is a wug:","","",""
"html-keyboard-response","21","35231","0.0-5.0-0.5","LF","cjpw7y8c1k","1366","768","0","1","0","5efdc12f5d69f622915a97a1","","null","","","learningBlock1","","","","This is a dep:","null","","","","","",""
"image-keyboard-response","22","35576","0.0-5.0-1.5","LF","cjpw7y8c1k","1366","768","0","1","0","5efdc12f5d69f622915a97a1","","null","","","","","","","learning/Slide6.JPG","null","","","","","",""
"html-keyboard-response","23","36594","0.0-5.0-2.5","LF","cjpw7y8c1k","1366","768","0","1","0","5efdc12f5d69f622915a97a1","","null","","","learningBlock1","","","","<div style=""font-size:60px;""> </div>","null","LF","learning/Slide6.JPG","This is a dep:","","",""
"html-keyboard-response","24","37610","0.0-5.0-0.6","LF","cjpw7y8c1k","1366","768","0","1","0","5efdc12f5d69f622915a97a1","","null","","","learningBlock1","","","","This is a wug:","null","","","","","",""
"image-keyboard-response","25","37962","0.0-5.0-1.6","LF","cjpw7y8c1k","1366","768","0","1","0","5efdc12f5d69f622915a97a1","","null","","","","","","","learning/Slide7.JPG","null","","","","","",""
"html-keyboard-response","26","38976","0.0-5.0-2.6","LF","cjpw7y8c1k","1366","768","0","1","0","5efdc12f5d69f622915a97a1","","null","","","learningBlock1","","","","<div style=""font-size:60px;""> </div>","null","LF","learning/Slide7.JPG","This is a wug:","","",""
"html-keyboard-response","27","39991","0.0-5.0-0.7","LF","cjpw7y8c1k","1366","768","0","1","0","5efdc12f5d69f622915a97a1","","null","","","learningBlock1","","","","This is a bim:","null","","","","","",""
"image-keyboard-response","28","40338","0.0-5.0-1.7","LF","cjpw7y8c1k","1366","768","0","1","0","5efdc12f5d69f622915a97a1","","null","","","","","","","learning/Slide8.JPG","null","","","","","",""
"html-keyboard-response","29","41341","0.0-5.0-2.7","LF","cjpw7y8c1k","1366","768","0","1","0","5efdc12f5d69f622915a97a1","","null","","","learningBlock1","","","","<div style=""font-size:60px;""> </div>","null","LF","learning/Slide8.JPG","This is a bim:","","",""
"html-keyboard-response","30","42353","0.0-5.0-0.8","LF","cjpw7y8c1k","1366","768","0","1","0","5efdc12f5d69f622915a97a1","","null","","","learningBlock1","","","","This is a wug:","null","","","","","",""
"image-keyboard-response","31","42691","0.0-5.0-1.8","LF","cjpw7y8c1k","1366","768","0","1","0","5efdc12f5d69f622915a97a1","","null","","","","","","","learning/Slide9.JPG","null","","","","","",""
"html-keyboard-response","32","43694","0.0-5.0-2.8","LF","cjpw7y8c1k","1366","768","0","1","0","5efdc12f5d69f622915a97a1","","null","","","learningBlock1","","","","<div style=""font-size:60px;""> </div>","null","LF","learning/Slide9.JPG","This is a wug:","","",""
"html-keyboard-response","33","44715","0.0-5.0-0.9","LF","cjpw7y8c1k","1366","768","0","1","0","5efdc12f5d69f622915a97a1","","null","","","learningBlock1","","","","This is a dep:","null","","","","","",""
"image-keyboard-response","34","45065","0.0-5.0-1.9","LF","cjpw7y8c1k","1366","768","0","1","0","5efdc12f5d69f622915a97a1","","null","","","","","","","learning/Slide10.JPG","null","","","","","",""
"html-keyboard-response","35","46072","0.0-5.0-2.9","LF","cjpw7y8c1k","1366","768","0","1","0","5efdc12f5d69f622915a97a1","","null","","","learningBlock1","","","","<div style=""font-size:60px;""> </div>","null","LF","learning/Slide10.JPG","This is a dep:","","",""
"html-keyboard-response","36","47084","0.0-5.0-0.10","LF","cjpw7y8c1k","1366","768","0","1","0","5efdc12f5d69f622915a97a1","","null","","","learningBlock1","","","","This is a tob:","null","","","","","",""
"image-keyboard-response","37","47438","0.0-5.0-1.10","LF","cjpw7y8c1k","1366","768","0","1","0","5efdc12f5d69f622915a97a1","","null","","","","","","","learning/Slide11.JPG","null","","","","","",""
"html-keyboard-response","38","48453","0.0-5.0-2.10","LF","cjpw7y8c1k","1366","768","0","1","0","5efdc12f5d69f622915a97a1","","null","","","learningBlock1","","","","<div style=""font-size:60px;""> </div>","null","LF","learning/Slide11.JPG","This is a tob:","","",""
"html-keyboard-response","39","49466","0.0-5.0-0.11","LF","cjpw7y8c1k","1366","768","0","1","0","5efdc12f5d69f622915a97a1","","null","","","learningBlock1","","","","This is a dep:","null","","","","","",""
"image-keyboard-response","40","49817","0.0-5.0-1.11","LF","cjpw7y8c1k","1366","768","0","1","0","5efdc12f5d69f622915a97a1","","null","","","","","","","learning/Slide12.JPG","null","","","","","",""
"html-keyboard-response","41","50828","0.0-5.0-2.11","LF","cjpw7y8c1k","1366","768","0","1","0","5efdc12f5d69f622915a97a1","","null","","","learningBlock1","","","","<div style=""font-size:60px;""> </div>","null","LF","learning/Slide12.JPG","This is a dep:","","",""
"html-keyboard-response","42","51830","0.0-5.0-0.12","LF","cjpw7y8c1k","1366","768","0","1","0","5efdc12f5d69f622915a97a1","","null","","","learningBlock1","","","","This is a bim:","null","","","","","",""
"image-keyboard-response","43","52170","0.0-5.0-1.12","LF","cjpw7y8c1k","1366","768","0","1","0","5efdc12f5d69f622915a97a1","","null","","","","","","","learning/Slide13.JPG","null","","","","","",""
"html-keyboard-response","44","53183","0.0-5.0-2.12","LF","cjpw7y8c1k","1366","768","0","1","0","5efdc12f5d69f622915a97a1","","null","","","learningBlock1","","","","<div style=""font-size:60px;""> </div>","null","LF","learning/Slide13.JPG","This is a bim:","","",""
"html-keyboard-response","45","54192","0.0-5.0-0.13","LF","cjpw7y8c1k","1366","768","0","1","0","5efdc12f5d69f622915a97a1","","null","","","learningBlock1","","","","This is a wug:","null","","","","","",""
"image-keyboard-response","46","54529","0.0-5.0-1.13","LF","cjpw7y8c1k","1366","768","0","1","0","5efdc12f5d69f622915a97a1","","null","","","","","","","learning/Slide14.JPG","null","","","","","",""
"html-keyboard-response","47","55531","0.0-5.0-2.13","LF","cjpw7y8c1k","1366","768","0","1","0","5efdc12f5d69f622915a97a1","","null","","","learningBlock1","","","","<div style=""font-size:60px;""> </div>","null","LF","learning/Slide14.JPG","This is a wug:","","",""
"html-keyboard-response","48","56541","0.0-5.0-0.14","LF","cjpw7y8c1k","1366","768","0","1","0","5efdc12f5d69f622915a97a1","","null","","","learningBlock1","","","","This is a tob:","null","","","","","",""
"image-keyboard-response","49","56876","0.0-5.0-1.14","LF","cjpw7y8c1k","1366","768","0","1","0","5efdc12f5d69f622915a97a1","","null","","","","","","","learning/Slide15.JPG","null","","","","","",""
"html-keyboard-response","50","57893","0.0-5.0-2.14","LF","cjpw7y8c1k","1366","768","0","1","0","5efdc12f5d69f622915a97a1","","null","","","learningBlock1","","","","<div style=""font-size:60px;""> </div>","null","LF","learning/Slide15.JPG","This is a tob:","","",""
"html-keyboard-response","51","58903","0.0-5.0-0.15","LF","cjpw7y8c1k","1366","768","0","1","0","5efdc12f5d69f622915a97a1","","null","","","learningBlock1","","","","This is a dep:","null","","","","","",""
"image-keyboard-response","52","59248","0.0-5.0-1.15","LF","cjpw7y8c1k","1366","768","0","1","0","5efdc12f5d69f622915a97a1","","null","","","","","","","learning/Slide16.JPG","null","","","","","",""
"html-keyboard-response","53","60267","0.0-5.0-2.15","LF","cjpw7y8c1k","1366","768","0","1","0","5efdc12f5d69f622915a97a1","","null","","","learningBlock1","","","","<div style=""font-size:60px;""> </div>","null","LF","learning/Slide16.JPG","This is a dep:","","",""
"html-keyboard-response","54","61289","0.0-5.0-0.16","LF","cjpw7y8c1k","1366","768","0","1","0","5efdc12f5d69f622915a97a1","","null","","","learningBlock1","","","","This is a bim:","null","","","","","",""
"image-keyboard-response","55","61644","0.0-5.0-1.16","LF","cjpw7y8c1k","1366","768","0","1","0","5efdc12f5d69f622915a97a1","","null","","","","","","","learning/Slide17.JPG","null","","","","","",""
"html-keyboard-response","56","62649","0.0-5.0-2.16","LF","cjpw7y8c1k","1366","768","0","1","0","5efdc12f5d69f622915a97a1","","null","","","learningBlock1","","","","<div style=""font-size:60px;""> </div>","null","LF","learning/Slide17.JPG","This is a bim:","","",""
"html-keyboard-response","57","63651","0.0-5.0-0.17","LF","cjpw7y8c1k","1366","768","0","1","0","5efdc12f5d69f622915a97a1","","null","","","learningBlock1","","","","This is a tob:","null","","","","","",""
"image-keyboard-response","58","64007","0.0-5.0-1.17","LF","cjpw7y8c1k","1366","768","0","1","0","5efdc12f5d69f622915a97a1","","null","","","","","","","learning/Slide18.JPG","null","","","","","",""
"html-keyboard-response","59","65011","0.0-5.0-2.17","LF","cjpw7y8c1k","1366","768","0","1","0","5efdc12f5d69f622915a97a1","","null","","","learningBlock1","","","","<div style=""font-size:60px;""> </div>","null","LF","learning/Slide18.JPG","This is a tob:","","",""
"html-keyboard-response","60","66017","0.0-5.0-0.18","LF","cjpw7y8c1k","1366","768","0","1","0","5efdc12f5d69f622915a97a1","","null","","","learningBlock1","","","","This is a wug:","null","","","","","",""
"image-keyboard-response","61","66350","0.0-5.0-1.18","LF","cjpw7y8c1k","1366","768","0","1","0","5efdc12f5d69f622915a97a1","","null","","","","","","","learning/Slide19.JPG","null","","","","","",""
"html-keyboard-response","62","67369","0.0-5.0-2.18","LF","cjpw7y8c1k","1366","768","0","1","0","5efdc12f5d69f622915a97a1","","null","","","learningBlock1","","","","<div style=""font-size:60px;""> </div>","null","LF","learning/Slide19.JPG","This is a wug:","","",""
"html-keyboard-response","63","68380","0.0-5.0-0.19","LF","cjpw7y8c1k","1366","768","0","1","0","5efdc12f5d69f622915a97a1","","null","","","learningBlock1","","","","This is a bim:","null","","","","","",""
"image-keyboard-response","64","68724","0.0-5.0-1.19","LF","cjpw7y8c1k","1366","768","0","1","0","5efdc12f5d69f622915a97a1","","null","","","","","","","learning/Slide20.JPG","null","","","","","",""
"html-keyboard-response","65","69728","0.0-5.0-2.19","LF","cjpw7y8c1k","1366","768","0","1","0","5efdc12f5d69f622915a97a1","","null","","","learningBlock1","","","","<div style=""font-size:60px;""> </div>","null","LF","learning/Slide20.JPG","This is a bim:","","",""
"html-keyboard-response","66","70732","0.0-5.0-0.20","LF","cjpw7y8c1k","1366","768","0","1","0","5efdc12f5d69f622915a97a1","","null","","","learningBlock1","","","","This is a dep:","null","","","","","",""
"image-keyboard-response","67","71072","0.0-5.0-1.20","LF","cjpw7y8c1k","1366","768","0","1","0","5efdc12f5d69f622915a97a1","","null","","","","","","","learning/Slide21.JPG","null","","","","","",""
"html-keyboard-response","68","72090","0.0-5.0-2.20","LF","cjpw7y8c1k","1366","768","0","1","0","5efdc12f5d69f622915a97a1","","null","","","learningBlock1","","","","<div style=""font-size:60px;""> </div>","null","LF","learning/Slide21.JPG","This is a dep:","","",""
"html-keyboard-response","69","73134","0.0-5.0-0.21","LF","cjpw7y8c1k","1366","768","0","1","0","5efdc12f5d69f622915a97a1","","null","","","learningBlock1","","","","This is a bim:","null","","","","","",""
"image-keyboard-response","70","73469","0.0-5.0-1.21","LF","cjpw7y8c1k","1366","768","0","1","0","5efdc12f5d69f622915a97a1","","null","","","","","","","learning/Slide22.JPG","null","","","","","",""
"html-keyboard-response","71","74480","0.0-5.0-2.21","LF","cjpw7y8c1k","1366","768","0","1","0","5efdc12f5d69f622915a97a1","","null","","","learningBlock1","","","","<div style=""font-size:60px;""> </div>","null","LF","learning/Slide22.JPG","This is a bim:","","",""
"html-keyboard-response","72","75483","0.0-5.0-0.22","LF","cjpw7y8c1k","1366","768","0","1","0","5efdc12f5d69f622915a97a1","","null","","","learningBlock1","","","","This is a tob:","null","","","","","",""
"image-keyboard-response","73","75814","0.0-5.0-1.22","LF","cjpw7y8c1k","1366","768","0","1","0","5efdc12f5d69f622915a97a1","","null","","","","","","","learning/Slide23.JPG","null","","","","","",""
"html-keyboard-response","74","76831","0.0-5.0-2.22","LF","cjpw7y8c1k","1366","768","0","1","0","5efdc12f5d69f622915a97a1","","null","","","learningBlock1","","","","<div style=""font-size:60px;""> </div>","null","LF","learning/Slide23.JPG","This is a tob:","","",""
"html-keyboard-response","75","77832","0.0-5.0-0.23","LF","cjpw7y8c1k","1366","768","0","1","0","5efdc12f5d69f622915a97a1","","null","","","learningBlock1","","","","This is a wug:","null","","","","","",""
"image-keyboard-response","76","78170","0.0-5.0-1.23","LF","cjpw7y8c1k","1366","768","0","1","0","5efdc12f5d69f622915a97a1","","null","","","","","","","learning/Slide24.JPG","null","","","","","",""
"html-keyboard-response","77","79175","0.0-5.0-2.23","LF","cjpw7y8c1k","1366","768","0","1","0","5efdc12f5d69f622915a97a1","","null","","","learningBlock1","","","","<div style=""font-size:60px;""> </div>","null","LF","learning/Slide24.JPG","This is a wug:","","",""
"html-keyboard-response","78","80183","0.0-5.0-0.24","LF","cjpw7y8c1k","1366","768","0","1","0","5efdc12f5d69f622915a97a1","","null","","","learningBlock1","","","","This is a dep:","null","","","","","",""
"image-keyboard-response","79","80514","0.0-5.0-1.24","LF","cjpw7y8c1k","1366","768","0","1","0","5efdc12f5d69f622915a97a1","","null","","","","","","","learning/Slide25.JPG","null","","","","","",""
"html-keyboard-response","80","81518","0.0-5.0-2.24","LF","cjpw7y8c1k","1366","768","0","1","0","5efdc12f5d69f622915a97a1","","null","","","learningBlock1","","","","<div style=""font-size:60px;""> </div>","null","LF","learning/Slide25.JPG","This is a dep:","","",""
"html-keyboard-response","81","82527","0.0-5.0-0.25","LF","cjpw7y8c1k","1366","768","0","1","0","5efdc12f5d69f622915a97a1","","null","","","learningBlock1","","","","This is a wug:","null","","","","","",""
"image-keyboard-response","82","82867","0.0-5.0-1.25","LF","cjpw7y8c1k","1366","768","0","1","0","5efdc12f5d69f622915a97a1","","null","","","","","","","learning/Slide26.JPG","null","","","","","",""
"html-keyboard-response","83","83874","0.0-5.0-2.25","LF","cjpw7y8c1k","1366","768","0","1","0","5efdc12f5d69f622915a97a1","","null","","","learningBlock1","","","","<div style=""font-size:60px;""> </div>","null","LF","learning/Slide26.JPG","This is a wug:","","",""
"html-keyboard-response","84","84877","0.0-5.0-0.26","LF","cjpw7y8c1k","1366","768","0","1","0","5efdc12f5d69f622915a97a1","","null","","","learningBlock1","","","","This is a bim:","null","","","","","",""
"image-keyboard-response","85","85229","0.0-5.0-1.26","LF","cjpw7y8c1k","1366","768","0","1","0","5efdc12f5d69f622915a97a1","","null","","","","","","","learning/Slide27.JPG","null","","","","","",""
"html-keyboard-response","86","86237","0.0-5.0-2.26","LF","cjpw7y8c1k","1366","768","0","1","0","5efdc12f5d69f622915a97a1","","null","","","learningBlock1","","","","<div style=""font-size:60px;""> </div>","null","LF","learning/Slide27.JPG","This is a bim:","","",""
"html-keyboard-response","87","87250","0.0-5.0-0.27","LF","cjpw7y8c1k","1366","768","0","1","0","5efdc12f5d69f622915a97a1","","null","","","learningBlock1","","","","This is a dep:","null","","","","","",""
"image-keyboard-response","88","87597","0.0-5.0-1.27","LF","cjpw7y8c1k","1366","768","0","1","0","5efdc12f5d69f622915a97a1","","null","","","","","","","learning/Slide28.JPG","null","","","","","",""
"html-keyboard-response","89","88607","0.0-5.0-2.27","LF","cjpw7y8c1k","1366","768","0","1","0","5efdc12f5d69f622915a97a1","","null","","","learningBlock1","","","","<div style=""font-size:60px;""> </div>","null","LF","learning/Slide28.JPG","This is a dep:","","",""
"html-keyboard-response","90","89610","0.0-5.0-0.28","LF","cjpw7y8c1k","1366","768","0","1","0","5efdc12f5d69f622915a97a1","","null","","","learningBlock1","","","","This is a tob:","null","","","","","",""
"image-keyboard-response","91","89964","0.0-5.0-1.28","LF","cjpw7y8c1k","1366","768","0","1","0","5efdc12f5d69f622915a97a1","","null","","","","","","","learning/Slide29.JPG","null","","","","","",""
"html-keyboard-response","92","90967","0.0-5.0-2.28","LF","cjpw7y8c1k","1366","768","0","1","0","5efdc12f5d69f622915a97a1","","null","","","learningBlock1","","","","<div style=""font-size:60px;""> </div>","null","LF","learning/Slide29.JPG","This is a tob:","","",""
"html-keyboard-response","93","91978","0.0-5.0-0.29","LF","cjpw7y8c1k","1366","768","0","1","0","5efdc12f5d69f622915a97a1","","null","","","learningBlock1","","","","This is a dep:","null","","","","","",""
"image-keyboard-response","94","92317","0.0-5.0-1.29","LF","cjpw7y8c1k","1366","768","0","1","0","5efdc12f5d69f622915a97a1","","null","","","","","","","learning/Slide30.JPG","null","","","","","",""
"html-keyboard-response","95","93332","0.0-5.0-2.29","LF","cjpw7y8c1k","1366","768","0","1","0","5efdc12f5d69f622915a97a1","","null","","","learningBlock1","","","","<div style=""font-size:60px;""> </div>","null","LF","learning/Slide30.JPG","This is a dep:","","",""
"html-keyboard-response","96","94337","0.0-5.0-0.30","LF","cjpw7y8c1k","1366","768","0","1","0","5efdc12f5d69f622915a97a1","","null","","","learningBlock1","","","","This is a wug:","null","","","","","",""
"image-keyboard-response","97","94695","0.0-5.0-1.30","LF","cjpw7y8c1k","1366","768","0","1","0","5efdc12f5d69f622915a97a1","","null","","","","","","","learning/Slide31.JPG","null","","","","","",""
"html-keyboard-response","98","95700","0.0-5.0-2.30","LF","cjpw7y8c1k","1366","768","0","1","0","5efdc12f5d69f622915a97a1","","null","","","learningBlock1","","","","<div style=""font-size:60px;""> </div>","null","LF","learning/Slide31.JPG","This is a wug:","","",""
"html-keyboard-response","99","96710","0.0-5.0-0.31","LF","cjpw7y8c1k","1366","768","0","1","0","5efdc12f5d69f622915a97a1","","null","","","learningBlock1","","","","This is a tob:","null","","","","","",""
"image-keyboard-response","100","97054","0.0-5.0-1.31","LF","cjpw7y8c1k","1366","768","0","1","0","5efdc12f5d69f622915a97a1","","null","","","","","","","learning/Slide32.JPG","null","","","","","",""
"html-keyboard-response","101","98060","0.0-5.0-2.31","LF","cjpw7y8c1k","1366","768","0","1","0","5efdc12f5d69f622915a97a1","","null","","","learningBlock1","","","","<div style=""font-size:60px;""> </div>","null","LF","learning/Slide32.JPG","This is a tob:","","",""
"html-keyboard-response","102","99072","0.0-5.0-0.32","LF","cjpw7y8c1k","1366","768","0","1","0","5efdc12f5d69f622915a97a1","","null","","","learningBlock1","","","","This is a bim:","null","","","","","",""
"image-keyboard-response","103","99415","0.0-5.0-1.32","LF","cjpw7y8c1k","1366","768","0","1","0","5efdc12f5d69f622915a97a1","","null","","","","","","","learning/Slide33.JPG","null","","","","","",""
"html-keyboard-response","104","100421","0.0-5.0-2.32","LF","cjpw7y8c1k","1366","768","0","1","0","5efdc12f5d69f622915a97a1","","null","","","learningBlock1","","","","<div style=""font-size:60px;""> </div>","null","LF","learning/Slide33.JPG","This is a bim:","","",""
"html-keyboard-response","105","101422","0.0-5.0-0.33","LF","cjpw7y8c1k","1366","768","0","1","0","5efdc12f5d69f622915a97a1","","null","","","learningBlock1","","","","This is a tob:","null","","","","","",""
"image-keyboard-response","106","101766","0.0-5.0-1.33","LF","cjpw7y8c1k","1366","768","0","1","0","5efdc12f5d69f622915a97a1","","null","","","","","","","learning/Slide34.JPG","null","","","","","",""
"html-keyboard-response","107","102779","0.0-5.0-2.33","LF","cjpw7y8c1k","1366","768","0","1","0","5efdc12f5d69f622915a97a1","","null","","","learningBlock1","","","","<div style=""font-size:60px;""> </div>","null","LF","learning/Slide34.JPG","This is a tob:","","",""
"html-keyboard-response","108","103783","0.0-5.0-0.34","LF","cjpw7y8c1k","1366","768","0","1","0","5efdc12f5d69f622915a97a1","","null","","","learningBlock1","","","","This is a bim:","null","","","","","",""
"image-keyboard-response","109","104114","0.0-5.0-1.34","LF","cjpw7y8c1k","1366","768","0","1","0","5efdc12f5d69f622915a97a1","","null","","","","","","","learning/Slide35.JPG","null","","","","","",""
"html-keyboard-response","110","105120","0.0-5.0-2.34","LF","cjpw7y8c1k","1366","768","0","1","0","5efdc12f5d69f622915a97a1","","null","","","learningBlock1","","","","<div style=""font-size:60px;""> </div>","null","LF","learning/Slide35.JPG","This is a bim:","","",""
"html-keyboard-response","111","106127","0.0-5.0-0.35","LF","cjpw7y8c1k","1366","768","0","1","0","5efdc12f5d69f622915a97a1","","null","","","learningBlock1","","","","This is a dep:","null","","","","","",""
"image-keyboard-response","112","106467","0.0-5.0-1.35","LF","cjpw7y8c1k","1366","768","0","1","0","5efdc12f5d69f622915a97a1","","null","","","","","","","learning/Slide36.JPG","null","","","","","",""
"html-keyboard-response","113","107478","0.0-5.0-2.35","LF","cjpw7y8c1k","1366","768","0","1","0","5efdc12f5d69f622915a97a1","","null","","","learningBlock1","","","","<div style=""font-size:60px;""> </div>","null","LF","learning/Slide36.JPG","This is a dep:","","",""
"html-keyboard-response","114","108489","0.0-5.0-0.36","LF","cjpw7y8c1k","1366","768","0","1","0","5efdc12f5d69f622915a97a1","","null","","","learningBlock1","","","","This is a tob:","null","","","","","",""
"image-keyboard-response","115","108836","0.0-5.0-1.36","LF","cjpw7y8c1k","1366","768","0","1","0","5efdc12f5d69f622915a97a1","","null","","","","","","","learning/Slide37.JPG","null","","","","","",""
"html-keyboard-response","116","109845","0.0-5.0-2.36","LF","cjpw7y8c1k","1366","768","0","1","0","5efdc12f5d69f622915a97a1","","null","","","learningBlock1","","","","<div style=""font-size:60px;""> </div>","null","LF","learning/Slide37.JPG","This is a tob:","","",""
"html-keyboard-response","117","110862","0.0-5.0-0.37","LF","cjpw7y8c1k","1366","768","0","1","0","5efdc12f5d69f622915a97a1","","null","","","learningBlock1","","","","This is a wug:","null","","","","","",""
"image-keyboard-response","118","111202","0.0-5.0-1.37","LF","cjpw7y8c1k","1366","768","0","1","0","5efdc12f5d69f622915a97a1","","null","","","","","","","learning/Slide38.JPG","null","","","","","",""
"html-keyboard-response","119","112205","0.0-5.0-2.37","LF","cjpw7y8c1k","1366","768","0","1","0","5efdc12f5d69f622915a97a1","","null","","","learningBlock1","","","","<div style=""font-size:60px;""> </div>","null","LF","learning/Slide38.JPG","This is a wug:","","",""
"html-keyboard-response","120","113212","0.0-5.0-0.38","LF","cjpw7y8c1k","1366","768","0","1","0","5efdc12f5d69f622915a97a1","","null","","","learningBlock1","","","","This is a bim:","null","","","","","",""
"image-keyboard-response","121","113551","0.0-5.0-1.38","LF","cjpw7y8c1k","1366","768","0","1","0","5efdc12f5d69f622915a97a1","","null","","","","","","","learning/Slide39.JPG","null","","","","","",""
"html-keyboard-response","122","114562","0.0-5.0-2.38","LF","cjpw7y8c1k","1366","768","0","1","0","5efdc12f5d69f622915a97a1","","null","","","learningBlock1","","","","<div style=""font-size:60px;""> </div>","null","LF","learning/Slide39.JPG","This is a bim:","","",""
"html-keyboard-response","123","115569","0.0-5.0-0.39","LF","cjpw7y8c1k","1366","768","0","1","0","5efdc12f5d69f622915a97a1","","null","","","learningBlock1","","","","This is a tob:","null","","","","","",""
"image-keyboard-response","124","115903","0.0-5.0-1.39","LF","cjpw7y8c1k","1366","768","0","1","0","5efdc12f5d69f622915a97a1","","null","","","","","","","learning/Slide40.JPG","null","","","","","",""
"html-keyboard-response","125","116915","0.0-5.0-2.39","LF","cjpw7y8c1k","1366","768","0","1","0","5efdc12f5d69f622915a97a1","","null","","","learningBlock1","","","","<div style=""font-size:60px;""> </div>","null","LF","learning/Slide40.JPG","This is a tob:","","",""
"html-keyboard-response","126","117918","0.0-5.0-0.40","LF","cjpw7y8c1k","1366","768","0","1","0","5efdc12f5d69f622915a97a1","","null","","","learningBlock1","","","","This is a bim:","null","","","","","",""
"image-keyboard-response","127","118260","0.0-5.0-1.40","LF","cjpw7y8c1k","1366","768","0","1","0","5efdc12f5d69f622915a97a1","","null","","","","","","","learning/Slide41.JPG","null","","","","","",""
"html-keyboard-response","128","119264","0.0-5.0-2.40","LF","cjpw7y8c1k","1366","768","0","1","0","5efdc12f5d69f622915a97a1","","null","","","learningBlock1","","","","<div style=""font-size:60px;""> </div>","null","LF","learning/Slide41.JPG","This is a bim:","","",""
"html-keyboard-response","129","120277","0.0-5.0-0.41","LF","cjpw7y8c1k","1366","768","0","1","0","5efdc12f5d69f622915a97a1","","null","","","learningBlock1","","","","This is a dep:","null","","","","","",""
"image-keyboard-response","130","120615","0.0-5.0-1.41","LF","cjpw7y8c1k","1366","768","0","1","0","5efdc12f5d69f622915a97a1","","null","","","","","","","learning/Slide42.JPG","null","","","","","",""
"html-keyboard-response","131","121630","0.0-5.0-2.41","LF","cjpw7y8c1k","1366","768","0","1","0","5efdc12f5d69f622915a97a1","","null","","","learningBlock1","","","","<div style=""font-size:60px;""> </div>","null","LF","learning/Slide42.JPG","This is a dep:","","",""
"html-keyboard-response","132","122632","0.0-5.0-0.42","LF","cjpw7y8c1k","1366","768","0","1","0","5efdc12f5d69f622915a97a1","","null","","","learningBlock1","","","","This is a wug:","null","","","","","",""
"image-keyboard-response","133","122967","0.0-5.0-1.42","LF","cjpw7y8c1k","1366","768","0","1","0","5efdc12f5d69f622915a97a1","","null","","","","","","","learning/Slide43.JPG","null","","","","","",""
"html-keyboard-response","134","123976","0.0-5.0-2.42","LF","cjpw7y8c1k","1366","768","0","1","0","5efdc12f5d69f622915a97a1","","null","","","learningBlock1","","","","<div style=""font-size:60px;""> </div>","null","LF","learning/Slide43.JPG","This is a wug:","","",""
"html-keyboard-response","135","124985","0.0-5.0-0.43","LF","cjpw7y8c1k","1366","768","0","1","0","5efdc12f5d69f622915a97a1","","null","","","learningBlock1","","","","This is a bim:","null","","","","","",""
"image-keyboard-response","136","125326","0.0-5.0-1.43","LF","cjpw7y8c1k","1366","768","0","1","0","5efdc12f5d69f622915a97a1","","null","","","","","","","learning/Slide44.JPG","null","","","","","",""
"html-keyboard-response","137","126339","0.0-5.0-2.43","LF","cjpw7y8c1k","1366","768","0","1","0","5efdc12f5d69f622915a97a1","","null","","","learningBlock1","","","","<div style=""font-size:60px;""> </div>","null","LF","learning/Slide44.JPG","This is a bim:","","",""
"html-keyboard-response","138","127357","0.0-5.0-0.44","LF","cjpw7y8c1k","1366","768","0","1","0","5efdc12f5d69f622915a97a1","","null","","","learningBlock1","","","","This is a wug:","null","","","","","",""
"image-keyboard-response","139","127707","0.0-5.0-1.44","LF","cjpw7y8c1k","1366","768","0","1","0","5efdc12f5d69f622915a97a1","","null","","","","","","","learning/Slide45.JPG","null","","","","","",""
"html-keyboard-response","140","128714","0.0-5.0-2.44","LF","cjpw7y8c1k","1366","768","0","1","0","5efdc12f5d69f622915a97a1","","null","","","learningBlock1","","","","<div style=""font-size:60px;""> </div>","null","LF","learning/Slide45.JPG","This is a wug:","","",""
"html-keyboard-response","141","129717","0.0-5.0-0.45","LF","cjpw7y8c1k","1366","768","0","1","0","5efdc12f5d69f622915a97a1","","null","","","learningBlock1","","","","This is a dep:","null","","","","","",""
"image-keyboard-response","142","130069","0.0-5.0-1.45","LF","cjpw7y8c1k","1366","768","0","1","0","5efdc12f5d69f622915a97a1","","null","","","","","","","learning/Slide46.JPG","null","","","","","",""
"html-keyboard-response","143","131086","0.0-5.0-2.45","LF","cjpw7y8c1k","1366","768","0","1","0","5efdc12f5d69f622915a97a1","","null","","","learningBlock1","","","","<div style=""font-size:60px;""> </div>","null","LF","learning/Slide46.JPG","This is a dep:","","",""
"html-keyboard-response","144","132087","0.0-5.0-0.46","LF","cjpw7y8c1k","1366","768","0","1","0","5efdc12f5d69f622915a97a1","","null","","","learningBlock1","","","","This is a tob:","null","","","","","",""
"image-keyboard-response","145","132425","0.0-5.0-1.46","LF","cjpw7y8c1k","1366","768","0","1","0","5efdc12f5d69f622915a97a1","","null","","","","","","","learning/Slide47.JPG","null","","","","","",""
"html-keyboard-response","146","133436","0.0-5.0-2.46","LF","cjpw7y8c1k","1366","768","0","1","0","5efdc12f5d69f622915a97a1","","null","","","learningBlock1","","","","<div style=""font-size:60px;""> </div>","null","LF","learning/Slide47.JPG","This is a tob:","","",""
"html-keyboard-response","147","134442","0.0-5.0-0.47","LF","cjpw7y8c1k","1366","768","0","1","0","5efdc12f5d69f622915a97a1","","null","","","learningBlock1","","","","This is a bim:","null","","","","","",""
"image-keyboard-response","148","134774","0.0-5.0-1.47","LF","cjpw7y8c1k","1366","768","0","1","0","5efdc12f5d69f622915a97a1","","null","","","","","","","learning/Slide48.JPG","null","","","","","",""
"html-keyboard-response","149","135781","0.0-5.0-2.47","LF","cjpw7y8c1k","1366","768","0","1","0","5efdc12f5d69f622915a97a1","","null","","","learningBlock1","","","","<div style=""font-size:60px;""> </div>","null","LF","learning/Slide48.JPG","This is a bim:","","",""
"html-keyboard-response","150","136792","0.0-5.0-0.48","LF","cjpw7y8c1k","1366","768","0","1","0","5efdc12f5d69f622915a97a1","","null","","","learningBlock1","","","","This is a dep:","null","","","","","",""
"image-keyboard-response","151","137152","0.0-5.0-1.48","LF","cjpw7y8c1k","1366","768","0","1","0","5efdc12f5d69f622915a97a1","","null","","","","","","","learning/Slide49.JPG","null","","","","","",""
"html-keyboard-response","152","138161","0.0-5.0-2.48","LF","cjpw7y8c1k","1366","768","0","1","0","5efdc12f5d69f622915a97a1","","null","","","learningBlock1","","","","<div style=""font-size:60px;""> </div>","null","LF","learning/Slide49.JPG","This is a dep:","","",""
"html-keyboard-response","153","139172","0.0-5.0-0.49","LF","cjpw7y8c1k","1366","768","0","1","0","5efdc12f5d69f622915a97a1","","null","","","learningBlock1","","","","This is a tob:","null","","","","","",""
"image-keyboard-response","154","139514","0.0-5.0-1.49","LF","cjpw7y8c1k","1366","768","0","1","0","5efdc12f5d69f622915a97a1","","null","","","","","","","learning/Slide50.JPG","null","","","","","",""
"html-keyboard-response","155","140529","0.0-5.0-2.49","LF","cjpw7y8c1k","1366","768","0","1","0","5efdc12f5d69f622915a97a1","","null","","","learningBlock1","","","","<div style=""font-size:60px;""> </div>","null","LF","learning/Slide50.JPG","This is a tob:","","",""
"html-keyboard-response","156","141532","0.0-5.0-0.50","LF","cjpw7y8c1k","1366","768","0","1","0","5efdc12f5d69f622915a97a1","","null","","","learningBlock1","","","","This is a bim:","null","","","","","",""
"image-keyboard-response","157","141886","0.0-5.0-1.50","LF","cjpw7y8c1k","1366","768","0","1","0","5efdc12f5d69f622915a97a1","","null","","","","","","","learning/Slide51.JPG","null","","","","","",""
"html-keyboard-response","158","142894","0.0-5.0-2.50","LF","cjpw7y8c1k","1366","768","0","1","0","5efdc12f5d69f622915a97a1","","null","","","learningBlock1","","","","<div style=""font-size:60px;""> </div>","null","LF","learning/Slide51.JPG","This is a bim:","","",""
"html-keyboard-response","159","143902","0.0-5.0-0.51","LF","cjpw7y8c1k","1366","768","0","1","0","5efdc12f5d69f622915a97a1","","null","","","learningBlock1","","","","This is a wug:","null","","","","","",""
"image-keyboard-response","160","144255","0.0-5.0-1.51","LF","cjpw7y8c1k","1366","768","0","1","0","5efdc12f5d69f622915a97a1","","null","","","","","","","learning/Slide52.JPG","null","","","","","",""
"html-keyboard-response","161","145257","0.0-5.0-2.51","LF","cjpw7y8c1k","1366","768","0","1","0","5efdc12f5d69f622915a97a1","","null","","","learningBlock1","","","","<div style=""font-size:60px;""> </div>","null","LF","learning/Slide52.JPG","This is a wug:","","",""
"html-keyboard-response","162","146276","0.0-5.0-0.52","LF","cjpw7y8c1k","1366","768","0","1","0","5efdc12f5d69f622915a97a1","","null","","","learningBlock1","","","","This is a tob:","null","","","","","",""
"image-keyboard-response","163","146614","0.0-5.0-1.52","LF","cjpw7y8c1k","1366","768","0","1","0","5efdc12f5d69f622915a97a1","","null","","","","","","","learning/Slide53.JPG","null","","","","","",""
"html-keyboard-response","164","147628","0.0-5.0-2.52","LF","cjpw7y8c1k","1366","768","0","1","0","5efdc12f5d69f622915a97a1","","null","","","learningBlock1","","","","<div style=""font-size:60px;""> </div>","null","LF","learning/Slide53.JPG","This is a tob:","","",""
"html-keyboard-response","165","148637","0.0-5.0-0.53","LF","cjpw7y8c1k","1366","768","0","1","0","5efdc12f5d69f622915a97a1","","null","","","learningBlock1","","","","This is a dep:","null","","","","","",""
"image-keyboard-response","166","148991","0.0-5.0-1.53","LF","cjpw7y8c1k","1366","768","0","1","0","5efdc12f5d69f622915a97a1","","null","","","","","","","learning/Slide54.JPG","null","","","","","",""
"html-keyboard-response","167","149996","0.0-5.0-2.53","LF","cjpw7y8c1k","1366","768","0","1","0","5efdc12f5d69f622915a97a1","","null","","","learningBlock1","","","","<div style=""font-size:60px;""> </div>","null","LF","learning/Slide54.JPG","This is a dep:","","",""
"html-keyboard-response","168","151002","0.0-5.0-0.54","LF","cjpw7y8c1k","1366","768","0","1","0","5efdc12f5d69f622915a97a1","","null","","","learningBlock1","","","","This is a bim:","null","","","","","",""
"image-keyboard-response","169","151339","0.0-5.0-1.54","LF","cjpw7y8c1k","1366","768","0","1","0","5efdc12f5d69f622915a97a1","","null","","","","","","","learning/Slide55.JPG","null","","","","","",""
"html-keyboard-response","170","152354","0.0-5.0-2.54","LF","cjpw7y8c1k","1366","768","0","1","0","5efdc12f5d69f622915a97a1","","null","","","learningBlock1","","","","<div style=""font-size:60px;""> </div>","null","LF","learning/Slide55.JPG","This is a bim:","","",""
"html-keyboard-response","171","153365","0.0-5.0-0.55","LF","cjpw7y8c1k","1366","768","0","1","0","5efdc12f5d69f622915a97a1","","null","","","learningBlock1","","","","This is a tob:","null","","","","","",""
"image-keyboard-response","172","153705","0.0-5.0-1.55","LF","cjpw7y8c1k","1366","768","0","1","0","5efdc12f5d69f622915a97a1","","null","","","","","","","learning/Slide56.JPG","null","","","","","",""
"html-keyboard-response","173","154709","0.0-5.0-2.55","LF","cjpw7y8c1k","1366","768","0","1","0","5efdc12f5d69f622915a97a1","","null","","","learningBlock1","","","","<div style=""font-size:60px;""> </div>","null","LF","learning/Slide56.JPG","This is a tob:","","",""
"html-keyboard-response","174","155711","0.0-5.0-0.56","LF","cjpw7y8c1k","1366","768","0","1","0","5efdc12f5d69f622915a97a1","","null","","","learningBlock1","","","","This is a dep:","null","","","","","",""
"image-keyboard-response","175","156065","0.0-5.0-1.56","LF","cjpw7y8c1k","1366","768","0","1","0","5efdc12f5d69f622915a97a1","","null","","","","","","","learning/Slide57.JPG","null","","","","","",""
"html-keyboard-response","176","157069","0.0-5.0-2.56","LF","cjpw7y8c1k","1366","768","0","1","0","5efdc12f5d69f622915a97a1","","null","","","learningBlock1","","","","<div style=""font-size:60px;""> </div>","null","LF","learning/Slide57.JPG","This is a dep:","","",""
"html-keyboard-response","177","158087","0.0-5.0-0.57","LF","cjpw7y8c1k","1366","768","0","1","0","5efdc12f5d69f622915a97a1","","null","","","learningBlock1","","","","This is a wug:","null","","","","","",""
"image-keyboard-response","178","158436","0.0-5.0-1.57","LF","cjpw7y8c1k","1366","768","0","1","0","5efdc12f5d69f622915a97a1","","null","","","","","","","learning/Slide58.JPG","null","","","","","",""
"html-keyboard-response","179","159445","0.0-5.0-2.57","LF","cjpw7y8c1k","1366","768","0","1","0","5efdc12f5d69f622915a97a1","","null","","","learningBlock1","","","","<div style=""font-size:60px;""> </div>","null","LF","learning/Slide58.JPG","This is a wug:","","",""
"html-keyboard-response","180","160453","0.0-5.0-0.58","LF","cjpw7y8c1k","1366","768","0","1","0","5efdc12f5d69f622915a97a1","","null","","","learningBlock1","","","","This is a dep:","null","","","","","",""
"image-keyboard-response","181","160798","0.0-5.0-1.58","LF","cjpw7y8c1k","1366","768","0","1","0","5efdc12f5d69f622915a97a1","","null","","","","","","","learning/Slide59.JPG","null","","","","","",""
"html-keyboard-response","182","161807","0.0-5.0-2.58","LF","cjpw7y8c1k","1366","768","0","1","0","5efdc12f5d69f622915a97a1","","null","","","learningBlock1","","","","<div style=""font-size:60px;""> </div>","null","LF","learning/Slide59.JPG","This is a dep:","","",""
"html-keyboard-response","183","162815","0.0-5.0-0.59","LF","cjpw7y8c1k","1366","768","0","1","0","5efdc12f5d69f622915a97a1","","null","","","learningBlock1","","","","This is a wug:","null","","","","","",""
"image-keyboard-response","184","163150","0.0-5.0-1.59","LF","cjpw7y8c1k","1366","768","0","1","0","5efdc12f5d69f622915a97a1","","null","","","","","","","learning/Slide60.JPG","null","","","","","",""
"html-keyboard-response","185","164168","0.0-5.0-2.59","LF","cjpw7y8c1k","1366","768","0","1","0","5efdc12f5d69f622915a97a1","","null","","","learningBlock1","","","","<div style=""font-size:60px;""> </div>","null","LF","learning/Slide60.JPG","This is a wug:","","",""
"html-keyboard-response","186","165189","0.0-5.0-0.60","LF","cjpw7y8c1k","1366","768","0","1","0","5efdc12f5d69f622915a97a1","","null","","","learningBlock1","","","","This is a bim:","null","","","","","",""
"image-keyboard-response","187","165542","0.0-5.0-1.60","LF","cjpw7y8c1k","1366","768","0","1","0","5efdc12f5d69f622915a97a1","","null","","","","","","","learning/Slide61.JPG","null","","","","","",""
"html-keyboard-response","188","166561","0.0-5.0-2.60","LF","cjpw7y8c1k","1366","768","0","1","0","5efdc12f5d69f622915a97a1","","null","","","learningBlock1","","","","<div style=""font-size:60px;""> </div>","null","LF","learning/Slide61.JPG","This is a bim:","","",""
"html-keyboard-response","189","167569","0.0-5.0-0.61","LF","cjpw7y8c1k","1366","768","0","1","0","5efdc12f5d69f622915a97a1","","null","","","learningBlock1","","","","This is a dep:","null","","","","","",""
"image-keyboard-response","190","167898","0.0-5.0-1.61","LF","cjpw7y8c1k","1366","768","0","1","0","5efdc12f5d69f622915a97a1","","null","","","","","","","learning/Slide62.JPG","null","","","","","",""
"html-keyboard-response","191","168903","0.0-5.0-2.61","LF","cjpw7y8c1k","1366","768","0","1","0","5efdc12f5d69f622915a97a1","","null","","","learningBlock1","","","","<div style=""font-size:60px;""> </div>","null","LF","learning/Slide62.JPG","This is a dep:","","",""
"html-keyboard-response","192","169919","0.0-5.0-0.62","LF","cjpw7y8c1k","1366","768","0","1","0","5efdc12f5d69f622915a97a1","","null","","","learningBlock1","","","","This is a bim:","null","","","","","",""
"image-keyboard-response","193","170257","0.0-5.0-1.62","LF","cjpw7y8c1k","1366","768","0","1","0","5efdc12f5d69f622915a97a1","","null","","","","","","","learning/Slide63.JPG","null","","","","","",""
"html-keyboard-response","194","171274","0.0-5.0-2.62","LF","cjpw7y8c1k","1366","768","0","1","0","5efdc12f5d69f622915a97a1","","null","","","learningBlock1","","","","<div style=""font-size:60px;""> </div>","null","LF","learning/Slide63.JPG","This is a bim:","","",""
"html-keyboard-response","195","172285","0.0-5.0-0.63","LF","cjpw7y8c1k","1366","768","0","1","0","5efdc12f5d69f622915a97a1","","null","","","learningBlock1","","","","This is a tob:","null","","","","","",""
"image-keyboard-response","196","172625","0.0-5.0-1.63","LF","cjpw7y8c1k","1366","768","0","1","0","5efdc12f5d69f622915a97a1","","null","","","","","","","learning/Slide64.JPG","null","","","","","",""
"html-keyboard-response","197","173637","0.0-5.0-2.63","LF","cjpw7y8c1k","1366","768","0","1","0","5efdc12f5d69f622915a97a1","","null","","","learningBlock1","","","","<div style=""font-size:60px;""> </div>","null","LF","learning/Slide64.JPG","This is a tob:","","",""
"html-keyboard-response","198","174645","0.0-5.0-0.64","LF","cjpw7y8c1k","1366","768","0","1","0","5efdc12f5d69f622915a97a1","","null","","","learningBlock1","","","","This is a wug:","null","","","","","",""
"image-keyboard-response","199","174988","0.0-5.0-1.64","LF","cjpw7y8c1k","1366","768","0","1","0","5efdc12f5d69f622915a97a1","","null","","","","","","","learning/Slide65.JPG","null","","","","","",""
"html-keyboard-response","200","175994","0.0-5.0-2.64","LF","cjpw7y8c1k","1366","768","0","1","0","5efdc12f5d69f622915a97a1","","null","","","learningBlock1","","","","<div style=""font-size:60px;""> </div>","null","LF","learning/Slide65.JPG","This is a wug:","","",""
"html-keyboard-response","201","177014","0.0-5.0-0.65","LF","cjpw7y8c1k","1366","768","0","1","0","5efdc12f5d69f622915a97a1","","null","","","learningBlock1","","","","This is a dep:","null","","","","","",""
"image-keyboard-response","202","177356","0.0-5.0-1.65","LF","cjpw7y8c1k","1366","768","0","1","0","5efdc12f5d69f622915a97a1","","null","","","","","","","learning/Slide66.JPG","null","","","","","",""
"html-keyboard-response","203","178359","0.0-5.0-2.65","LF","cjpw7y8c1k","1366","768","0","1","0","5efdc12f5d69f622915a97a1","","null","","","learningBlock1","","","","<div style=""font-size:60px;""> </div>","null","LF","learning/Slide66.JPG","This is a dep:","","",""
"html-keyboard-response","204","179368","0.0-5.0-0.66","LF","cjpw7y8c1k","1366","768","0","1","0","5efdc12f5d69f622915a97a1","","null","","","learningBlock1","","","","This is a tob:","null","","","","","",""
"image-keyboard-response","205","179699","0.0-5.0-1.66","LF","cjpw7y8c1k","1366","768","0","1","0","5efdc12f5d69f622915a97a1","","null","","","","","","","learning/Slide67.JPG","null","","","","","",""
"html-keyboard-response","206","180713","0.0-5.0-2.66","LF","cjpw7y8c1k","1366","768","0","1","0","5efdc12f5d69f622915a97a1","","null","","","learningBlock1","","","","<div style=""font-size:60px;""> </div>","null","LF","learning/Slide67.JPG","This is a tob:","","",""
"html-keyboard-response","207","181715","0.0-5.0-0.67","LF","cjpw7y8c1k","1366","768","0","1","0","5efdc12f5d69f622915a97a1","","null","","","learningBlock1","","","","This is a wug:","null","","","","","",""
"image-keyboard-response","208","182070","0.0-5.0-1.67","LF","cjpw7y8c1k","1366","768","0","1","0","5efdc12f5d69f622915a97a1","","null","","","","","","","learning/Slide68.JPG","null","","","","","",""
"html-keyboard-response","209","183086","0.0-5.0-2.67","LF","cjpw7y8c1k","1366","768","0","1","0","5efdc12f5d69f622915a97a1","","null","","","learningBlock1","","","","<div style=""font-size:60px;""> </div>","null","LF","learning/Slide68.JPG","This is a wug:","","",""
"html-keyboard-response","210","184098","0.0-5.0-0.68","LF","cjpw7y8c1k","1366","768","0","1","0","5efdc12f5d69f622915a97a1","","null","","","learningBlock1","","","","This is a tob:","null","","","","","",""
"image-keyboard-response","211","184435","0.0-5.0-1.68","LF","cjpw7y8c1k","1366","768","0","1","0","5efdc12f5d69f622915a97a1","","null","","","","","","","learning/Slide69.JPG","null","","","","","",""
"html-keyboard-response","212","185445","0.0-5.0-2.68","LF","cjpw7y8c1k","1366","768","0","1","0","5efdc12f5d69f622915a97a1","","null","","","learningBlock1","","","","<div style=""font-size:60px;""> </div>","null","LF","learning/Slide69.JPG","This is a tob:","","",""
"html-keyboard-response","213","186466","0.0-5.0-0.69","LF","cjpw7y8c1k","1366","768","0","1","0","5efdc12f5d69f622915a97a1","","null","","","learningBlock1","","","","This is a dep:","null","","","","","",""
"image-keyboard-response","214","186811","0.0-5.0-1.69","LF","cjpw7y8c1k","1366","768","0","1","0","5efdc12f5d69f622915a97a1","","null","","","","","","","learning/Slide70.JPG","null","","","","","",""
"html-keyboard-response","215","187814","0.0-5.0-2.69","LF","cjpw7y8c1k","1366","768","0","1","0","5efdc12f5d69f622915a97a1","","null","","","learningBlock1","","","","<div style=""font-size:60px;""> </div>","null","LF","learning/Slide70.JPG","This is a dep:","","",""
"html-keyboard-response","216","188825","0.0-5.0-0.70","LF","cjpw7y8c1k","1366","768","0","1","0","5efdc12f5d69f622915a97a1","","null","","","learningBlock1","","","","This is a wug:","null","","","","","",""
"image-keyboard-response","217","189170","0.0-5.0-1.70","LF","cjpw7y8c1k","1366","768","0","1","0","5efdc12f5d69f622915a97a1","","null","","","","","","","learning/Slide71.JPG","null","","","","","",""
"html-keyboard-response","218","190184","0.0-5.0-2.70","LF","cjpw7y8c1k","1366","768","0","1","0","5efdc12f5d69f622915a97a1","","null","","","learningBlock1","","","","<div style=""font-size:60px;""> </div>","null","LF","learning/Slide71.JPG","This is a wug:","","",""
"html-keyboard-response","219","191198","0.0-5.0-0.71","LF","cjpw7y8c1k","1366","768","0","1","0","5efdc12f5d69f622915a97a1","","null","","","learningBlock1","","","","This is a bim:","null","","","","","",""
"image-keyboard-response","220","191528","0.0-5.0-1.71","LF","cjpw7y8c1k","1366","768","0","1","0","5efdc12f5d69f622915a97a1","","null","","","","","","","learning/Slide72.JPG","null","","","","","",""
"html-keyboard-response","221","192538","0.0-5.0-2.71","LF","cjpw7y8c1k","1366","768","0","1","0","5efdc12f5d69f622915a97a1","","null","","","learningBlock1","","","","<div style=""font-size:60px;""> </div>","null","LF","learning/Slide72.JPG","This is a bim:","","",""
"html-keyboard-response","222","193550","0.0-5.0-0.72","LF","cjpw7y8c1k","1366","768","0","1","0","5efdc12f5d69f622915a97a1","","null","","","learningBlock1","","","","This is a wug:","null","","","","","",""
"image-keyboard-response","223","193887","0.0-5.0-1.72","LF","cjpw7y8c1k","1366","768","0","1","0","5efdc12f5d69f622915a97a1","","null","","","","","","","learning/Slide73.JPG","null","","","","","",""
"html-keyboard-response","224","194902","0.0-5.0-2.72","LF","cjpw7y8c1k","1366","768","0","1","0","5efdc12f5d69f622915a97a1","","null","","","learningBlock1","","","","<div style=""font-size:60px;""> </div>","null","LF","learning/Slide73.JPG","This is a wug:","","",""
"html-keyboard-response","225","195914","0.0-5.0-0.73","LF","cjpw7y8c1k","1366","768","0","1","0","5efdc12f5d69f622915a97a1","","null","","","learningBlock1","","","","This is a dep:","null","","","","","",""
"image-keyboard-response","226","196251","0.0-5.0-1.73","LF","cjpw7y8c1k","1366","768","0","1","0","5efdc12f5d69f622915a97a1","","null","","","","","","","learning/Slide74.JPG","null","","","","","",""
"html-keyboard-response","227","197256","0.0-5.0-2.73","LF","cjpw7y8c1k","1366","768","0","1","0","5efdc12f5d69f622915a97a1","","null","","","learningBlock1","","","","<div style=""font-size:60px;""> </div>","null","LF","learning/Slide74.JPG","This is a dep:","","",""
"html-keyboard-response","228","198276","0.0-5.0-0.74","LF","cjpw7y8c1k","1366","768","0","1","0","5efdc12f5d69f622915a97a1","","null","","","learningBlock1","","","","This is a tob:","null","","","","","",""
"image-keyboard-response","229","198614","0.0-5.0-1.74","LF","cjpw7y8c1k","1366","768","0","1","0","5efdc12f5d69f622915a97a1","","null","","","","","","","learning/Slide75.JPG","null","","","","","",""
"html-keyboard-response","230","199624","0.0-5.0-2.74","LF","cjpw7y8c1k","1366","768","0","1","0","5efdc12f5d69f622915a97a1","","null","","","learningBlock1","","","","<div style=""font-size:60px;""> </div>","null","LF","learning/Slide75.JPG","This is a tob:","","",""
"html-keyboard-response","231","200642","0.0-5.0-0.75","LF","cjpw7y8c1k","1366","768","0","1","0","5efdc12f5d69f622915a97a1","","null","","","learningBlock1","","","","This is a bim:","null","","","","","",""
"image-keyboard-response","232","200978","0.0-5.0-1.75","LF","cjpw7y8c1k","1366","768","0","1","0","5efdc12f5d69f622915a97a1","","null","","","","","","","learning/Slide76.JPG","null","","","","","",""
"html-keyboard-response","233","201982","0.0-5.0-2.75","LF","cjpw7y8c1k","1366","768","0","1","0","5efdc12f5d69f622915a97a1","","null","","","learningBlock1","","","","<div style=""font-size:60px;""> </div>","null","LF","learning/Slide76.JPG","This is a bim:","","",""
"html-keyboard-response","234","202999","0.0-5.0-0.76","LF","cjpw7y8c1k","1366","768","0","1","0","5efdc12f5d69f622915a97a1","","null","","","learningBlock1","","","","This is a tob:","null","","","","","",""
"image-keyboard-response","235","203346","0.0-5.0-1.76","LF","cjpw7y8c1k","1366","768","0","1","0","5efdc12f5d69f622915a97a1","","null","","","","","","","learning/Slide77.JPG","null","","","","","",""
"html-keyboard-response","236","204350","0.0-5.0-2.76","LF","cjpw7y8c1k","1366","768","0","1","0","5efdc12f5d69f622915a97a1","","null","","","learningBlock1","","","","<div style=""font-size:60px;""> </div>","null","LF","learning/Slide77.JPG","This is a tob:","","",""
"html-keyboard-response","237","205369","0.0-5.0-0.77","LF","cjpw7y8c1k","1366","768","0","1","0","5efdc12f5d69f622915a97a1","","null","","","learningBlock1","","","","This is a wug:","null","","","","","",""
"image-keyboard-response","238","205721","0.0-5.0-1.77","LF","cjpw7y8c1k","1366","768","0","1","0","5efdc12f5d69f622915a97a1","","null","","","","","","","learning/Slide78.JPG","null","","","","","",""
"html-keyboard-response","239","206724","0.0-5.0-2.77","LF","cjpw7y8c1k","1366","768","0","1","0","5efdc12f5d69f622915a97a1","","null","","","learningBlock1","","","","<div style=""font-size:60px;""> </div>","null","LF","learning/Slide78.JPG","This is a wug:","","",""
"html-keyboard-response","240","207737","0.0-5.0-0.78","LF","cjpw7y8c1k","1366","768","0","1","0","5efdc12f5d69f622915a97a1","","null","","","learningBlock1","","","","This is a bim:","null","","","","","",""
"image-keyboard-response","241","208083","0.0-5.0-1.78","LF","cjpw7y8c1k","1366","768","0","1","0","5efdc12f5d69f622915a97a1","","null","","","","","","","learning/Slide79.JPG","null","","","","","",""
"html-keyboard-response","242","209099","0.0-5.0-2.78","LF","cjpw7y8c1k","1366","768","0","1","0","5efdc12f5d69f622915a97a1","","null","","","learningBlock1","","","","<div style=""font-size:60px;""> </div>","null","LF","learning/Slide79.JPG","This is a bim:","","",""
"html-keyboard-response","243","210111","0.0-5.0-0.79","LF","cjpw7y8c1k","1366","768","0","1","0","5efdc12f5d69f622915a97a1","","null","","","learningBlock1","","","","This is a tob:","null","","","","","",""
"image-keyboard-response","244","210452","0.0-5.0-1.79","LF","cjpw7y8c1k","1366","768","0","1","0","5efdc12f5d69f622915a97a1","","null","","","","","","","learning/Slide80.JPG","null","","","","","",""
"html-keyboard-response","245","211457","0.0-5.0-2.79","LF","cjpw7y8c1k","1366","768","0","1","0","5efdc12f5d69f622915a97a1","","null","","","learningBlock1","","","","<div style=""font-size:60px;""> </div>","null","LF","learning/Slide80.JPG","This is a tob:","","",""
"instructions","246","222711","0.0-6.0","LF","cjpw7y8c1k","1366","768","0","1","0","5efdc12f5d69f622915a97a1","","NA","","[{""page_index"":0,""viewing_time"":11251.6900000046}]","instructions","","","","","","","","","","",""
"html-keyboard-response","247","223729","0.0-7.0-0.0","LF","cjpw7y8c1k","1366","768","0","1","0","5efdc12f5d69f622915a97a1","","null","","","learningBlock2","","","","This is a wug:","null","","","","","",""
"image-keyboard-response","248","224066","0.0-7.0-1.0","LF","cjpw7y8c1k","1366","768","0","1","0","5efdc12f5d69f622915a97a1","","null","","","","","","","learning/Slide81.JPG","null","","","","","",""
"html-keyboard-response","249","225077","0.0-7.0-2.0","LF","cjpw7y8c1k","1366","768","0","1","0","5efdc12f5d69f622915a97a1","","null","","","learningBlock2","","","","<div style=""font-size:60px;""> </div>","null","LF","learning/Slide81.JPG","This is a wug:","","",""
"html-keyboard-response","250","226084","0.0-7.0-0.1","LF","cjpw7y8c1k","1366","768","0","1","0","5efdc12f5d69f622915a97a1","","null","","","learningBlock2","","","","This is a bim:","null","","","","","",""
"image-keyboard-response","251","226431","0.0-7.0-1.1","LF","cjpw7y8c1k","1366","768","0","1","0","5efdc12f5d69f622915a97a1","","null","","","","","","","learning/Slide82.JPG","null","","","","","",""
"html-keyboard-response","252","227436","0.0-7.0-2.1","LF","cjpw7y8c1k","1366","768","0","1","0","5efdc12f5d69f622915a97a1","","null","","","learningBlock2","","","","<div style=""font-size:60px;""> </div>","null","LF","learning/Slide82.JPG","This is a bim:","","",""
"html-keyboard-response","253","228444","0.0-7.0-0.2","LF","cjpw7y8c1k","1366","768","0","1","0","5efdc12f5d69f622915a97a1","","null","","","learningBlock2","","","","This is a wug:","null","","","","","",""
"image-keyboard-response","254","228794","0.0-7.0-1.2","LF","cjpw7y8c1k","1366","768","0","1","0","5efdc12f5d69f622915a97a1","","null","","","","","","","learning/Slide83.JPG","null","","","","","",""
"html-keyboard-response","255","229809","0.0-7.0-2.2","LF","cjpw7y8c1k","1366","768","0","1","0","5efdc12f5d69f622915a97a1","","null","","","learningBlock2","","","","<div style=""font-size:60px;""> </div>","null","LF","learning/Slide83.JPG","This is a wug:","","",""
"html-keyboard-response","256","230811","0.0-7.0-0.3","LF","cjpw7y8c1k","1366","768","0","1","0","5efdc12f5d69f622915a97a1","","null","","","learningBlock2","","","","This is a dep:","null","","","","","",""
"image-keyboard-response","257","231156","0.0-7.0-1.3","LF","cjpw7y8c1k","1366","768","0","1","0","5efdc12f5d69f622915a97a1","","null","","","","","","","learning/Slide84.JPG","null","","","","","",""
"html-keyboard-response","258","232160","0.0-7.0-2.3","LF","cjpw7y8c1k","1366","768","0","1","0","5efdc12f5d69f622915a97a1","","null","","","learningBlock2","","","","<div style=""font-size:60px;""> </div>","null","LF","learning/Slide84.JPG","This is a dep:","","",""
"html-keyboard-response","259","233182","0.0-7.0-0.4","LF","cjpw7y8c1k","1366","768","0","1","0","5efdc12f5d69f622915a97a1","","null","","","learningBlock2","","","","This is a bim:","null","","","","","",""
"image-keyboard-response","260","233517","0.0-7.0-1.4","LF","cjpw7y8c1k","1366","768","0","1","0","5efdc12f5d69f622915a97a1","","null","","","","","","","learning/Slide85.JPG","null","","","","","",""
"html-keyboard-response","261","234525","0.0-7.0-2.4","LF","cjpw7y8c1k","1366","768","0","1","0","5efdc12f5d69f622915a97a1","","null","","","learningBlock2","","","","<div style=""font-size:60px;""> </div>","null","LF","learning/Slide85.JPG","This is a bim:","","",""
"html-keyboard-response","262","235531","0.0-7.0-0.5","LF","cjpw7y8c1k","1366","768","0","1","0","5efdc12f5d69f622915a97a1","","null","","","learningBlock2","","","","This is a tob:","null","","","","","",""
"image-keyboard-response","263","235867","0.0-7.0-1.5","LF","cjpw7y8c1k","1366","768","0","1","0","5efdc12f5d69f622915a97a1","","null","","","","","","","learning/Slide86.JPG","null","","","","","",""
"html-keyboard-response","264","236877","0.0-7.0-2.5","LF","cjpw7y8c1k","1366","768","0","1","0","5efdc12f5d69f622915a97a1","","null","","","learningBlock2","","","","<div style=""font-size:60px;""> </div>","null","LF","learning/Slide86.JPG","This is a tob:","","",""
"html-keyboard-response","265","237879","0.0-7.0-0.6","LF","cjpw7y8c1k","1366","768","0","1","0","5efdc12f5d69f622915a97a1","","null","","","learningBlock2","","","","This is a wug:","null","","","","","",""
"image-keyboard-response","266","238212","0.0-7.0-1.6","LF","cjpw7y8c1k","1366","768","0","1","0","5efdc12f5d69f622915a97a1","","null","","","","","","","learning/Slide87.JPG","null","","","","","",""
"html-keyboard-response","267","239224","0.0-7.0-2.6","LF","cjpw7y8c1k","1366","768","0","1","0","5efdc12f5d69f622915a97a1","","null","","","learningBlock2","","","","<div style=""font-size:60px;""> </div>","null","LF","learning/Slide87.JPG","This is a wug:","","",""
"html-keyboard-response","268","240236","0.0-7.0-0.7","LF","cjpw7y8c1k","1366","768","0","1","0","5efdc12f5d69f622915a97a1","","null","","","learningBlock2","","","","This is a tob:","null","","","","","",""
"image-keyboard-response","269","240567","0.0-7.0-1.7","LF","cjpw7y8c1k","1366","768","0","1","0","5efdc12f5d69f622915a97a1","","null","","","","","","","learning/Slide88.JPG","null","","","","","",""
"html-keyboard-response","270","241581","0.0-7.0-2.7","LF","cjpw7y8c1k","1366","768","0","1","0","5efdc12f5d69f622915a97a1","","null","","","learningBlock2","","","","<div style=""font-size:60px;""> </div>","null","LF","learning/Slide88.JPG","This is a tob:","","",""
"html-keyboard-response","271","242588","0.0-7.0-0.8","LF","cjpw7y8c1k","1366","768","0","1","0","5efdc12f5d69f622915a97a1","","null","","","learningBlock2","","","","This is a bim:","null","","","","","",""
"image-keyboard-response","272","242928","0.0-7.0-1.8","LF","cjpw7y8c1k","1366","768","0","1","0","5efdc12f5d69f622915a97a1","","null","","","","","","","learning/Slide89.JPG","null","","","","","",""
"html-keyboard-response","273","243931","0.0-7.0-2.8","LF","cjpw7y8c1k","1366","768","0","1","0","5efdc12f5d69f622915a97a1","","null","","","learningBlock2","","","","<div style=""font-size:60px;""> </div>","null","LF","learning/Slide89.JPG","This is a bim:","","",""
"html-keyboard-response","274","244939","0.0-7.0-0.9","LF","cjpw7y8c1k","1366","768","0","1","0","5efdc12f5d69f622915a97a1","","null","","","learningBlock2","","","","This is a dep:","null","","","","","",""
"image-keyboard-response","275","245274","0.0-7.0-1.9","LF","cjpw7y8c1k","1366","768","0","1","0","5efdc12f5d69f622915a97a1","","null","","","","","","","learning/Slide90.JPG","null","","","","","",""
"html-keyboard-response","276","246287","0.0-7.0-2.9","LF","cjpw7y8c1k","1366","768","0","1","0","5efdc12f5d69f622915a97a1","","null","","","learningBlock2","","","","<div style=""font-size:60px;""> </div>","null","LF","learning/Slide90.JPG","This is a dep:","","",""
"html-keyboard-response","277","247289","0.0-7.0-0.10","LF","cjpw7y8c1k","1366","768","0","1","0","5efdc12f5d69f622915a97a1","","null","","","learningBlock2","","","","This is a wug:","null","","","","","",""
"image-keyboard-response","278","247641","0.0-7.0-1.10","LF","cjpw7y8c1k","1366","768","0","1","0","5efdc12f5d69f622915a97a1","","null","","","","","","","learning/Slide91.JPG","null","","","","","",""
"html-keyboard-response","279","248652","0.0-7.0-2.10","LF","cjpw7y8c1k","1366","768","0","1","0","5efdc12f5d69f622915a97a1","","null","","","learningBlock2","","","","<div style=""font-size:60px;""> </div>","null","LF","learning/Slide91.JPG","This is a wug:","","",""
"html-keyboard-response","280","249669","0.0-7.0-0.11","LF","cjpw7y8c1k","1366","768","0","1","0","5efdc12f5d69f622915a97a1","","null","","","learningBlock2","","","","This is a tob:","null","","","","","",""
"image-keyboard-response","281","250007","0.0-7.0-1.11","LF","cjpw7y8c1k","1366","768","0","1","0","5efdc12f5d69f622915a97a1","","null","","","","","","","learning/Slide92.JPG","null","","","","","",""
"html-keyboard-response","282","251016","0.0-7.0-2.11","LF","cjpw7y8c1k","1366","768","0","1","0","5efdc12f5d69f622915a97a1","","null","","","learningBlock2","","","","<div style=""font-size:60px;""> </div>","null","LF","learning/Slide92.JPG","This is a tob:","","",""
"html-keyboard-response","283","252023","0.0-7.0-0.12","LF","cjpw7y8c1k","1366","768","0","1","0","5efdc12f5d69f622915a97a1","","null","","","learningBlock2","","","","This is a bim:","null","","","","","",""
"image-keyboard-response","284","252365","0.0-7.0-1.12","LF","cjpw7y8c1k","1366","768","0","1","0","5efdc12f5d69f622915a97a1","","null","","","","","","","learning/Slide93.JPG","null","","","","","",""
"html-keyboard-response","285","253375","0.0-7.0-2.12","LF","cjpw7y8c1k","1366","768","0","1","0","5efdc12f5d69f622915a97a1","","null","","","learningBlock2","","","","<div style=""font-size:60px;""> </div>","null","LF","learning/Slide93.JPG","This is a bim:","","",""
"html-keyboard-response","286","254389","0.0-7.0-0.13","LF","cjpw7y8c1k","1366","768","0","1","0","5efdc12f5d69f622915a97a1","","null","","","learningBlock2","","","","This is a tob:","null","","","","","",""
"image-keyboard-response","287","254725","0.0-7.0-1.13","LF","cjpw7y8c1k","1366","768","0","1","0","5efdc12f5d69f622915a97a1","","null","","","","","","","learning/Slide94.JPG","null","","","","","",""
"html-keyboard-response","288","255729","0.0-7.0-2.13","LF","cjpw7y8c1k","1366","768","0","1","0","5efdc12f5d69f622915a97a1","","null","","","learningBlock2","","","","<div style=""font-size:60px;""> </div>","null","LF","learning/Slide94.JPG","This is a tob:","","",""
"html-keyboard-response","289","256749","0.0-7.0-0.14","LF","cjpw7y8c1k","1366","768","0","1","0","5efdc12f5d69f622915a97a1","","null","","","learningBlock2","","","","This is a wug:","null","","","","","",""
"image-keyboard-response","290","257090","0.0-7.0-1.14","LF","cjpw7y8c1k","1366","768","0","1","0","5efdc12f5d69f622915a97a1","","null","","","","","","","learning/Slide95.JPG","null","","","","","",""
"html-keyboard-response","291","258094","0.0-7.0-2.14","LF","cjpw7y8c1k","1366","768","0","1","0","5efdc12f5d69f622915a97a1","","null","","","learningBlock2","","","","<div style=""font-size:60px;""> </div>","null","LF","learning/Slide95.JPG","This is a wug:","","",""
"html-keyboard-response","292","259100","0.0-7.0-0.15","LF","cjpw7y8c1k","1366","768","0","1","0","5efdc12f5d69f622915a97a1","","null","","","learningBlock2","","","","This is a tob:","null","","","","","",""
"image-keyboard-response","293","259444","0.0-7.0-1.15","LF","cjpw7y8c1k","1366","768","0","1","0","5efdc12f5d69f622915a97a1","","null","","","","","","","learning/Slide96.JPG","null","","","","","",""
"html-keyboard-response","294","260458","0.0-7.0-2.15","LF","cjpw7y8c1k","1366","768","0","1","0","5efdc12f5d69f622915a97a1","","null","","","learningBlock2","","","","<div style=""font-size:60px;""> </div>","null","LF","learning/Slide96.JPG","This is a tob:","","",""
"html-keyboard-response","295","261477","0.0-7.0-0.16","LF","cjpw7y8c1k","1366","768","0","1","0","5efdc12f5d69f622915a97a1","","null","","","learningBlock2","","","","This is a dep:","null","","","","","",""
"image-keyboard-response","296","261814","0.0-7.0-1.16","LF","cjpw7y8c1k","1366","768","0","1","0","5efdc12f5d69f622915a97a1","","null","","","","","","","learning/Slide97.JPG","null","","","","","",""
"html-keyboard-response","297","262831","0.0-7.0-2.16","LF","cjpw7y8c1k","1366","768","0","1","0","5efdc12f5d69f622915a97a1","","null","","","learningBlock2","","","","<div style=""font-size:60px;""> </div>","null","LF","learning/Slide97.JPG","This is a dep:","","",""
"html-keyboard-response","298","263845","0.0-7.0-0.17","LF","cjpw7y8c1k","1366","768","0","1","0","5efdc12f5d69f622915a97a1","","null","","","learningBlock2","","","","This is a bim:","null","","","","","",""
"image-keyboard-response","299","264189","0.0-7.0-1.17","LF","cjpw7y8c1k","1366","768","0","1","0","5efdc12f5d69f622915a97a1","","null","","","","","","","learning/Slide98.JPG","null","","","","","",""
"html-keyboard-response","300","265201","0.0-7.0-2.17","LF","cjpw7y8c1k","1366","768","0","1","0","5efdc12f5d69f622915a97a1","","null","","","learningBlock2","","","","<div style=""font-size:60px;""> </div>","null","LF","learning/Slide98.JPG","This is a bim:","","",""
"html-keyboard-response","301","266208","0.0-7.0-0.18","LF","cjpw7y8c1k","1366","768","0","1","0","5efdc12f5d69f622915a97a1","","null","","","learningBlock2","","","","This is a dep:","null","","","","","",""
"image-keyboard-response","302","266556","0.0-7.0-1.18","LF","cjpw7y8c1k","1366","768","0","1","0","5efdc12f5d69f622915a97a1","","null","","","","","","","learning/Slide99.JPG","null","","","","","",""
"html-keyboard-response","303","267570","0.0-7.0-2.18","LF","cjpw7y8c1k","1366","768","0","1","0","5efdc12f5d69f622915a97a1","","null","","","learningBlock2","","","","<div style=""font-size:60px;""> </div>","null","LF","learning/Slide99.JPG","This is a dep:","","",""
"html-keyboard-response","304","268584","0.0-7.0-0.19","LF","cjpw7y8c1k","1366","768","0","1","0","5efdc12f5d69f622915a97a1","","null","","","learningBlock2","","","","This is a bim:","null","","","","","",""
"image-keyboard-response","305","268917","0.0-7.0-1.19","LF","cjpw7y8c1k","1366","768","0","1","0","5efdc12f5d69f622915a97a1","","null","","","","","","","learning/Slide100.JPG","null","","","","","",""
"html-keyboard-response","306","269922","0.0-7.0-2.19","LF","cjpw7y8c1k","1366","768","0","1","0","5efdc12f5d69f622915a97a1","","null","","","learningBlock2","","","","<div style=""font-size:60px;""> </div>","null","LF","learning/Slide100.JPG","This is a bim:","","",""
"html-keyboard-response","307","270929","0.0-7.0-0.20","LF","cjpw7y8c1k","1366","768","0","1","0","5efdc12f5d69f622915a97a1","","null","","","learningBlock2","","","","This is a tob:","null","","","","","",""
"image-keyboard-response","308","271272","0.0-7.0-1.20","LF","cjpw7y8c1k","1366","768","0","1","0","5efdc12f5d69f622915a97a1","","null","","","","","","","learning/Slide101.JPG","null","","","","","",""
"html-keyboard-response","309","272283","0.0-7.0-2.20","LF","cjpw7y8c1k","1366","768","0","1","0","5efdc12f5d69f622915a97a1","","null","","","learningBlock2","","","","<div style=""font-size:60px;""> </div>","null","LF","learning/Slide101.JPG","This is a tob:","","",""
"html-keyboard-response","310","273304","0.0-7.0-0.21","LF","cjpw7y8c1k","1366","768","0","1","0","5efdc12f5d69f622915a97a1","","null","","","learningBlock2","","","","This is a bim:","null","","","","","",""
"image-keyboard-response","311","273646","0.0-7.0-1.21","LF","cjpw7y8c1k","1366","768","0","1","0","5efdc12f5d69f622915a97a1","","null","","","","","","","learning/Slide102.JPG","null","","","","","",""
"html-keyboard-response","312","274649","0.0-7.0-2.21","LF","cjpw7y8c1k","1366","768","0","1","0","5efdc12f5d69f622915a97a1","","null","","","learningBlock2","","","","<div style=""font-size:60px;""> </div>","null","LF","learning/Slide102.JPG","This is a bim:","","",""
"html-keyboard-response","313","275651","0.0-7.0-0.22","LF","cjpw7y8c1k","1366","768","0","1","0","5efdc12f5d69f622915a97a1","","null","","","learningBlock2","","","","This is a dep:","null","","","","","",""
"image-keyboard-response","314","275998","0.0-7.0-1.22","LF","cjpw7y8c1k","1366","768","0","1","0","5efdc12f5d69f622915a97a1","","null","","","","","","","learning/Slide103.JPG","null","","","","","",""
"html-keyboard-response","315","277006","0.0-7.0-2.22","LF","cjpw7y8c1k","1366","768","0","1","0","5efdc12f5d69f622915a97a1","","null","","","learningBlock2","","","","<div style=""font-size:60px;""> </div>","null","LF","learning/Slide103.JPG","This is a dep:","","",""
"html-keyboard-response","316","278019","0.0-7.0-0.23","LF","cjpw7y8c1k","1366","768","0","1","0","5efdc12f5d69f622915a97a1","","null","","","learningBlock2","","","","This is a tob:","null","","","","","",""
"image-keyboard-response","317","278372","0.0-7.0-1.23","LF","cjpw7y8c1k","1366","768","0","1","0","5efdc12f5d69f622915a97a1","","null","","","","","","","learning/Slide104.JPG","null","","","","","",""
"html-keyboard-response","318","279391","0.0-7.0-2.23","LF","cjpw7y8c1k","1366","768","0","1","0","5efdc12f5d69f622915a97a1","","null","","","learningBlock2","","","","<div style=""font-size:60px;""> </div>","null","LF","learning/Slide104.JPG","This is a tob:","","",""
"html-keyboard-response","319","280395","0.0-7.0-0.24","LF","cjpw7y8c1k","1366","768","0","1","0","5efdc12f5d69f622915a97a1","","null","","","learningBlock2","","","","This is a dep:","null","","","","","",""
"image-keyboard-response","320","280736","0.0-7.0-1.24","LF","cjpw7y8c1k","1366","768","0","1","0","5efdc12f5d69f622915a97a1","","null","","","","","","","learning/Slide105.JPG","null","","","","","",""
"html-keyboard-response","321","281744","0.0-7.0-2.24","LF","cjpw7y8c1k","1366","768","0","1","0","5efdc12f5d69f622915a97a1","","null","","","learningBlock2","","","","<div style=""font-size:60px;""> </div>","null","LF","learning/Slide105.JPG","This is a dep:","","",""
"html-keyboard-response","322","282754","0.0-7.0-0.25","LF","cjpw7y8c1k","1366","768","0","1","0","5efdc12f5d69f622915a97a1","","null","","","learningBlock2","","","","This is a wug:","null","","","","","",""
"image-keyboard-response","323","283096","0.0-7.0-1.25","LF","cjpw7y8c1k","1366","768","0","1","0","5efdc12f5d69f622915a97a1","","null","","","","","","","learning/Slide106.JPG","null","","","","","",""
"html-keyboard-response","324","284099","0.0-7.0-2.25","LF","cjpw7y8c1k","1366","768","0","1","0","5efdc12f5d69f622915a97a1","","null","","","learningBlock2","","","","<div style=""font-size:60px;""> </div>","null","LF","learning/Slide106.JPG","This is a wug:","","",""
"html-keyboard-response","325","285111","0.0-7.0-0.26","LF","cjpw7y8c1k","1366","768","0","1","0","5efdc12f5d69f622915a97a1","","null","","","learningBlock2","","","","This is a bim:","null","","","","","",""
"image-keyboard-response","326","285453","0.0-7.0-1.26","LF","cjpw7y8c1k","1366","768","0","1","0","5efdc12f5d69f622915a97a1","","null","","","","","","","learning/Slide107.JPG","null","","","","","",""
"html-keyboard-response","327","286461","0.0-7.0-2.26","LF","cjpw7y8c1k","1366","768","0","1","0","5efdc12f5d69f622915a97a1","","null","","","learningBlock2","","","","<div style=""font-size:60px;""> </div>","null","LF","learning/Slide107.JPG","This is a bim:","","",""
"html-keyboard-response","328","287477","0.0-7.0-0.27","LF","cjpw7y8c1k","1366","768","0","1","0","5efdc12f5d69f622915a97a1","","null","","","learningBlock2","","","","This is a dep:","null","","","","","",""
"image-keyboard-response","329","287809","0.0-7.0-1.27","LF","cjpw7y8c1k","1366","768","0","1","0","5efdc12f5d69f622915a97a1","","null","","","","","","","learning/Slide108.JPG","null","","","","","",""
"html-keyboard-response","330","288814","0.0-7.0-2.27","LF","cjpw7y8c1k","1366","768","0","1","0","5efdc12f5d69f622915a97a1","","null","","","learningBlock2","","","","<div style=""font-size:60px;""> </div>","null","LF","learning/Slide108.JPG","This is a dep:","","",""
"html-keyboard-response","331","289829","0.0-7.0-0.28","LF","cjpw7y8c1k","1366","768","0","1","0","5efdc12f5d69f622915a97a1","","null","","","learningBlock2","","","","This is a wug:","null","","","","","",""
"image-keyboard-response","332","290167","0.0-7.0-1.28","LF","cjpw7y8c1k","1366","768","0","1","0","5efdc12f5d69f622915a97a1","","null","","","","","","","learning/Slide109.JPG","null","","","","","",""
"html-keyboard-response","333","291175","0.0-7.0-2.28","LF","cjpw7y8c1k","1366","768","0","1","0","5efdc12f5d69f622915a97a1","","null","","","learningBlock2","","","","<div style=""font-size:60px;""> </div>","null","LF","learning/Slide109.JPG","This is a wug:","","",""
"html-keyboard-response","334","292179","0.0-7.0-0.29","LF","cjpw7y8c1k","1366","768","0","1","0","5efdc12f5d69f622915a97a1","","null","","","learningBlock2","","","","This is a bim:","null","","","","","",""
"image-keyboard-response","335","292521","0.0-7.0-1.29","LF","cjpw7y8c1k","1366","768","0","1","0","5efdc12f5d69f622915a97a1","","null","","","","","","","learning/Slide110.JPG","null","","","","","",""
"html-keyboard-response","336","293524","0.0-7.0-2.29","LF","cjpw7y8c1k","1366","768","0","1","0","5efdc12f5d69f622915a97a1","","null","","","learningBlock2","","","","<div style=""font-size:60px;""> </div>","null","LF","learning/Slide110.JPG","This is a bim:","","",""
"html-keyboard-response","337","294542","0.0-7.0-0.30","LF","cjpw7y8c1k","1366","768","0","1","0","5efdc12f5d69f622915a97a1","","null","","","learningBlock2","","","","This is a tob:","null","","","","","",""
"image-keyboard-response","338","294884","0.0-7.0-1.30","LF","cjpw7y8c1k","1366","768","0","1","0","5efdc12f5d69f622915a97a1","","null","","","","","","","learning/Slide111.JPG","null","","","","","",""
"html-keyboard-response","339","295892","0.0-7.0-2.30","LF","cjpw7y8c1k","1366","768","0","1","0","5efdc12f5d69f622915a97a1","","null","","","learningBlock2","","","","<div style=""font-size:60px;""> </div>","null","LF","learning/Slide111.JPG","This is a tob:","","",""
"html-keyboard-response","340","296900","0.0-7.0-0.31","LF","cjpw7y8c1k","1366","768","0","1","0","5efdc12f5d69f622915a97a1","","null","","","learningBlock2","","","","This is a wug:","null","","","","","",""
"image-keyboard-response","341","297237","0.0-7.0-1.31","LF","cjpw7y8c1k","1366","768","0","1","0","5efdc12f5d69f622915a97a1","","null","","","","","","","learning/Slide112.JPG","null","","","","","",""
"html-keyboard-response","342","298241","0.0-7.0-2.31","LF","cjpw7y8c1k","1366","768","0","1","0","5efdc12f5d69f622915a97a1","","null","","","learningBlock2","","","","<div style=""font-size:60px;""> </div>","null","LF","learning/Slide112.JPG","This is a wug:","","",""
"html-keyboard-response","343","299255","0.0-7.0-0.32","LF","cjpw7y8c1k","1366","768","0","1","0","5efdc12f5d69f622915a97a1","","null","","","learningBlock2","","","","This is a tob:","null","","","","","",""
"image-keyboard-response","344","299599","0.0-7.0-1.32","LF","cjpw7y8c1k","1366","768","0","1","0","5efdc12f5d69f622915a97a1","","null","","","","","","","learning/Slide113.JPG","null","","","","","",""
"html-keyboard-response","345","300613","0.0-7.0-2.32","LF","cjpw7y8c1k","1366","768","0","1","0","5efdc12f5d69f622915a97a1","","null","","","learningBlock2","","","","<div style=""font-size:60px;""> </div>","null","LF","learning/Slide113.JPG","This is a tob:","","",""
"html-keyboard-response","346","301625","0.0-7.0-0.33","LF","cjpw7y8c1k","1366","768","0","1","0","5efdc12f5d69f622915a97a1","","null","","","learningBlock2","","","","This is a wug:","null","","","","","",""
"image-keyboard-response","347","301955","0.0-7.0-1.33","LF","cjpw7y8c1k","1366","768","0","1","0","5efdc12f5d69f622915a97a1","","null","","","","","","","learning/Slide114.JPG","null","","","","","",""
"html-keyboard-response","348","302968","0.0-7.0-2.33","LF","cjpw7y8c1k","1366","768","0","1","0","5efdc12f5d69f622915a97a1","","null","","","learningBlock2","","","","<div style=""font-size:60px;""> </div>","null","LF","learning/Slide114.JPG","This is a wug:","","",""
"html-keyboard-response","349","303983","0.0-7.0-0.34","LF","cjpw7y8c1k","1366","768","0","1","0","5efdc12f5d69f622915a97a1","","null","","","learningBlock2","","","","This is a bim:","null","","","","","",""
"image-keyboard-response","350","304324","0.0-7.0-1.34","LF","cjpw7y8c1k","1366","768","0","1","0","5efdc12f5d69f622915a97a1","","null","","","","","","","learning/Slide115.JPG","null","","","","","",""
"html-keyboard-response","351","305337","0.0-7.0-2.34","LF","cjpw7y8c1k","1366","768","0","1","0","5efdc12f5d69f622915a97a1","","null","","","learningBlock2","","","","<div style=""font-size:60px;""> </div>","null","LF","learning/Slide115.JPG","This is a bim:","","",""
"html-keyboard-response","352","306358","0.0-7.0-0.35","LF","cjpw7y8c1k","1366","768","0","1","0","5efdc12f5d69f622915a97a1","","null","","","learningBlock2","","","","This is a dep:","null","","","","","",""
"image-keyboard-response","353","306696","0.0-7.0-1.35","LF","cjpw7y8c1k","1366","768","0","1","0","5efdc12f5d69f622915a97a1","","null","","","","","","","learning/Slide116.JPG","null","","","","","",""
"html-keyboard-response","354","307714","0.0-7.0-2.35","LF","cjpw7y8c1k","1366","768","0","1","0","5efdc12f5d69f622915a97a1","","null","","","learningBlock2","","","","<div style=""font-size:60px;""> </div>","null","LF","learning/Slide116.JPG","This is a dep:","","",""
"html-keyboard-response","355","308728","0.0-7.0-0.36","LF","cjpw7y8c1k","1366","768","0","1","0","5efdc12f5d69f622915a97a1","","null","","","learningBlock2","","","","This is a tob:","null","","","","","",""
"image-keyboard-response","356","309079","0.0-7.0-1.36","LF","cjpw7y8c1k","1366","768","0","1","0","5efdc12f5d69f622915a97a1","","null","","","","","","","learning/Slide117.JPG","null","","","","","",""
"html-keyboard-response","357","310089","0.0-7.0-2.36","LF","cjpw7y8c1k","1366","768","0","1","0","5efdc12f5d69f622915a97a1","","null","","","learningBlock2","","","","<div style=""font-size:60px;""> </div>","null","LF","learning/Slide117.JPG","This is a tob:","","",""
"html-keyboard-response","358","311103","0.0-7.0-0.37","LF","cjpw7y8c1k","1366","768","0","1","0","5efdc12f5d69f622915a97a1","","null","","","learningBlock2","","","","This is a dep:","null","","","","","",""
"image-keyboard-response","359","311446","0.0-7.0-1.37","LF","cjpw7y8c1k","1366","768","0","1","0","5efdc12f5d69f622915a97a1","","null","","","","","","","learning/Slide118.JPG","null","","","","","",""
"html-keyboard-response","360","312452","0.0-7.0-2.37","LF","cjpw7y8c1k","1366","768","0","1","0","5efdc12f5d69f622915a97a1","","null","","","learningBlock2","","","","<div style=""font-size:60px;""> </div>","null","LF","learning/Slide118.JPG","This is a dep:","","",""
"html-keyboard-response","361","313471","0.0-7.0-0.38","LF","cjpw7y8c1k","1366","768","0","1","0","5efdc12f5d69f622915a97a1","","null","","","learningBlock2","","","","This is a wug:","null","","","","","",""
"image-keyboard-response","362","313813","0.0-7.0-1.38","LF","cjpw7y8c1k","1366","768","0","1","0","5efdc12f5d69f622915a97a1","","null","","","","","","","learning/Slide119.JPG","null","","","","","",""
"html-keyboard-response","363","314830","0.0-7.0-2.38","LF","cjpw7y8c1k","1366","768","0","1","0","5efdc12f5d69f622915a97a1","","null","","","learningBlock2","","","","<div style=""font-size:60px;""> </div>","null","LF","learning/Slide119.JPG","This is a wug:","","",""
"html-keyboard-response","364","315832","0.0-7.0-0.39","LF","cjpw7y8c1k","1366","768","0","1","0","5efdc12f5d69f622915a97a1","","null","","","learningBlock2","","","","This is a dep:","null","","","","","",""
"image-keyboard-response","365","316179","0.0-7.0-1.39","LF","cjpw7y8c1k","1366","768","0","1","0","5efdc12f5d69f622915a97a1","","null","","","","","","","learning/Slide120.JPG","null","","","","","",""
"html-keyboard-response","366","317186","0.0-7.0-2.39","LF","cjpw7y8c1k","1366","768","0","1","0","5efdc12f5d69f622915a97a1","","null","","","learningBlock2","","","","<div style=""font-size:60px;""> </div>","null","LF","learning/Slide120.JPG","This is a dep:","","",""
"html-keyboard-response","367","318195","0.0-7.0-0.40","LF","cjpw7y8c1k","1366","768","0","1","0","5efdc12f5d69f622915a97a1","","null","","","learningBlock2","","","","This is a bim:","null","","","","","",""
"image-keyboard-response","368","318552","0.0-7.0-1.40","LF","cjpw7y8c1k","1366","768","0","1","0","5efdc12f5d69f622915a97a1","","null","","","","","","","learning/Slide121.JPG","null","","","","","",""
"html-keyboard-response","369","319566","0.0-7.0-2.40","LF","cjpw7y8c1k","1366","768","0","1","0","5efdc12f5d69f622915a97a1","","null","","","learningBlock2","","","","<div style=""font-size:60px;""> </div>","null","LF","learning/Slide121.JPG","This is a bim:","","",""
"html-keyboard-response","370","320574","0.0-7.0-0.41","LF","cjpw7y8c1k","1366","768","0","1","0","5efdc12f5d69f622915a97a1","","null","","","learningBlock2","","","","This is a wug:","null","","","","","",""
"image-keyboard-response","371","320901","0.0-7.0-1.41","LF","cjpw7y8c1k","1366","768","0","1","0","5efdc12f5d69f622915a97a1","","null","","","","","","","learning/Slide122.JPG","null","","","","","",""
"html-keyboard-response","372","321904","0.0-7.0-2.41","LF","cjpw7y8c1k","1366","768","0","1","0","5efdc12f5d69f622915a97a1","","null","","","learningBlock2","","","","<div style=""font-size:60px;""> </div>","null","LF","learning/Slide122.JPG","This is a wug:","","",""
"html-keyboard-response","373","322918","0.0-7.0-0.42","LF","cjpw7y8c1k","1366","768","0","1","0","5efdc12f5d69f622915a97a1","","null","","","learningBlock2","","","","This is a bim:","null","","","","","",""
"image-keyboard-response","374","323271","0.0-7.0-1.42","LF","cjpw7y8c1k","1366","768","0","1","0","5efdc12f5d69f622915a97a1","","null","","","","","","","learning/Slide123.JPG","null","","","","","",""
"html-keyboard-response","375","324276","0.0-7.0-2.42","LF","cjpw7y8c1k","1366","768","0","1","0","5efdc12f5d69f622915a97a1","","null","","","learningBlock2","","","","<div style=""font-size:60px;""> </div>","null","LF","learning/Slide123.JPG","This is a bim:","","",""
"html-keyboard-response","376","325294","0.0-7.0-0.43","LF","cjpw7y8c1k","1366","768","0","1","0","5efdc12f5d69f622915a97a1","","null","","","learningBlock2","","","","This is a tob:","null","","","","","",""
"image-keyboard-response","377","325640","0.0-7.0-1.43","LF","cjpw7y8c1k","1366","768","0","1","0","5efdc12f5d69f622915a97a1","","null","","","","","","","learning/Slide124.JPG","null","","","","","",""
"html-keyboard-response","378","326652","0.0-7.0-2.43","LF","cjpw7y8c1k","1366","768","0","1","0","5efdc12f5d69f622915a97a1","","null","","","learningBlock2","","","","<div style=""font-size:60px;""> </div>","null","LF","learning/Slide124.JPG","This is a tob:","","",""
"html-keyboard-response","379","327667","0.0-7.0-0.44","LF","cjpw7y8c1k","1366","768","0","1","0","5efdc12f5d69f622915a97a1","","null","","","learningBlock2","","","","This is a bim:","null","","","","","",""
"image-keyboard-response","380","327998","0.0-7.0-1.44","LF","cjpw7y8c1k","1366","768","0","1","0","5efdc12f5d69f622915a97a1","","null","","","","","","","learning/Slide125.JPG","null","","","","","",""
"html-keyboard-response","381","329015","0.0-7.0-2.44","LF","cjpw7y8c1k","1366","768","0","1","0","5efdc12f5d69f622915a97a1","","null","","","learningBlock2","","","","<div style=""font-size:60px;""> </div>","null","LF","learning/Slide125.JPG","This is a bim:","","",""
"html-keyboard-response","382","330042","0.0-7.0-0.45","LF","cjpw7y8c1k","1366","768","0","1","0","5efdc12f5d69f622915a97a1","","null","","","learningBlock2","","","","This is a tob:","null","","","","","",""
"image-keyboard-response","383","330381","0.0-7.0-1.45","LF","cjpw7y8c1k","1366","768","0","1","0","5efdc12f5d69f622915a97a1","","null","","","","","","","learning/Slide126.JPG","null","","","","","",""
"html-keyboard-response","384","331399","0.0-7.0-2.45","LF","cjpw7y8c1k","1366","768","0","1","0","5efdc12f5d69f622915a97a1","","null","","","learningBlock2","","","","<div style=""font-size:60px;""> </div>","null","LF","learning/Slide126.JPG","This is a tob:","","",""
"html-keyboard-response","385","332419","0.0-7.0-0.46","LF","cjpw7y8c1k","1366","768","0","1","0","5efdc12f5d69f622915a97a1","","null","","","learningBlock2","","","","This is a dep:","null","","","","","",""
"image-keyboard-response","386","332771","0.0-7.0-1.46","LF","cjpw7y8c1k","1366","768","0","1","0","5efdc12f5d69f622915a97a1","","null","","","","","","","learning/Slide127.JPG","null","","","","","",""
"html-keyboard-response","387","333789","0.0-7.0-2.46","LF","cjpw7y8c1k","1366","768","0","1","0","5efdc12f5d69f622915a97a1","","null","","","learningBlock2","","","","<div style=""font-size:60px;""> </div>","null","LF","learning/Slide127.JPG","This is a dep:","","",""
"html-keyboard-response","388","334798","0.0-7.0-0.47","LF","cjpw7y8c1k","1366","768","0","1","0","5efdc12f5d69f622915a97a1","","null","","","learningBlock2","","","","This is a wug:","null","","","","","",""
"image-keyboard-response","389","335148","0.0-7.0-1.47","LF","cjpw7y8c1k","1366","768","0","1","0","5efdc12f5d69f622915a97a1","","null","","","","","","","learning/Slide128.JPG","null","","","","","",""
"html-keyboard-response","390","336166","0.0-7.0-2.47","LF","cjpw7y8c1k","1366","768","0","1","0","5efdc12f5d69f622915a97a1","","null","","","learningBlock2","","","","<div style=""font-size:60px;""> </div>","null","LF","learning/Slide128.JPG","This is a wug:","","",""
"html-keyboard-response","391","337180","0.0-7.0-0.48","LF","cjpw7y8c1k","1366","768","0","1","0","5efdc12f5d69f622915a97a1","","null","","","learningBlock2","","","","This is a tob:","null","","","","","",""
"image-keyboard-response","392","337524","0.0-7.0-1.48","LF","cjpw7y8c1k","1366","768","0","1","0","5efdc12f5d69f622915a97a1","","null","","","","","","","learning/Slide129.JPG","null","","","","","",""
"html-keyboard-response","393","338535","0.0-7.0-2.48","LF","cjpw7y8c1k","1366","768","0","1","0","5efdc12f5d69f622915a97a1","","null","","","learningBlock2","","","","<div style=""font-size:60px;""> </div>","null","LF","learning/Slide129.JPG","This is a tob:","","",""
"html-keyboard-response","394","339539","0.0-7.0-0.49","LF","cjpw7y8c1k","1366","768","0","1","0","5efdc12f5d69f622915a97a1","","null","","","learningBlock2","","","","This is a wug:","null","","","","","",""
"image-keyboard-response","395","339893","0.0-7.0-1.49","LF","cjpw7y8c1k","1366","768","0","1","0","5efdc12f5d69f622915a97a1","","null","","","","","","","learning/Slide130.JPG","null","","","","","",""
"html-keyboard-response","396","340897","0.0-7.0-2.49","LF","cjpw7y8c1k","1366","768","0","1","0","5efdc12f5d69f622915a97a1","","null","","","learningBlock2","","","","<div style=""font-size:60px;""> </div>","null","LF","learning/Slide130.JPG","This is a wug:","","",""
"html-keyboard-response","397","341904","0.0-7.0-0.50","LF","cjpw7y8c1k","1366","768","0","1","0","5efdc12f5d69f622915a97a1","","null","","","learningBlock2","","","","This is a bim:","null","","","","","",""
"image-keyboard-response","398","342240","0.0-7.0-1.50","LF","cjpw7y8c1k","1366","768","0","1","0","5efdc12f5d69f622915a97a1","","null","","","","","","","learning/Slide131.JPG","null","","","","","",""
"html-keyboard-response","399","343252","0.0-7.0-2.50","LF","cjpw7y8c1k","1366","768","0","1","0","5efdc12f5d69f622915a97a1","","null","","","learningBlock2","","","","<div style=""font-size:60px;""> </div>","null","LF","learning/Slide131.JPG","This is a bim:","","",""
"html-keyboard-response","400","344263","0.0-7.0-0.51","LF","cjpw7y8c1k","1366","768","0","1","0","5efdc12f5d69f622915a97a1","","null","","","learningBlock2","","","","This is a dep:","null","","","","","",""
"image-keyboard-response","401","344613","0.0-7.0-1.51","LF","cjpw7y8c1k","1366","768","0","1","0","5efdc12f5d69f622915a97a1","","null","","","","","","","learning/Slide132.JPG","null","","","","","",""
"html-keyboard-response","402","345619","0.0-7.0-2.51","LF","cjpw7y8c1k","1366","768","0","1","0","5efdc12f5d69f622915a97a1","","null","","","learningBlock2","","","","<div style=""font-size:60px;""> </div>","null","LF","learning/Slide132.JPG","This is a dep:","","",""
"html-keyboard-response","403","346626","0.0-7.0-0.52","LF","cjpw7y8c1k","1366","768","0","1","0","5efdc12f5d69f622915a97a1","","null","","","learningBlock2","","","","This is a tob:","null","","","","","",""
"image-keyboard-response","404","346980","0.0-7.0-1.52","LF","cjpw7y8c1k","1366","768","0","1","0","5efdc12f5d69f622915a97a1","","null","","","","","","","learning/Slide133.JPG","null","","","","","",""
"html-keyboard-response","405","347984","0.0-7.0-2.52","LF","cjpw7y8c1k","1366","768","0","1","0","5efdc12f5d69f622915a97a1","","null","","","learningBlock2","","","","<div style=""font-size:60px;""> </div>","null","LF","learning/Slide133.JPG","This is a tob:","","",""
"html-keyboard-response","406","348997","0.0-7.0-0.53","LF","cjpw7y8c1k","1366","768","0","1","0","5efdc12f5d69f622915a97a1","","null","","","learningBlock2","","","","This is a dep:","null","","","","","",""
"image-keyboard-response","407","349338","0.0-7.0-1.53","LF","cjpw7y8c1k","1366","768","0","1","0","5efdc12f5d69f622915a97a1","","null","","","","","","","learning/Slide134.JPG","null","","","","","",""
"html-keyboard-response","408","350341","0.0-7.0-2.53","LF","cjpw7y8c1k","1366","768","0","1","0","5efdc12f5d69f622915a97a1","","null","","","learningBlock2","","","","<div style=""font-size:60px;""> </div>","null","LF","learning/Slide134.JPG","This is a dep:","","",""
"html-keyboard-response","409","351347","0.0-7.0-0.54","LF","cjpw7y8c1k","1366","768","0","1","0","5efdc12f5d69f622915a97a1","","null","","","learningBlock2","","","","This is a tob:","null","","","","","",""
"image-keyboard-response","410","351698","0.0-7.0-1.54","LF","cjpw7y8c1k","1366","768","0","1","0","5efdc12f5d69f622915a97a1","","null","","","","","","","learning/Slide135.JPG","null","","","","","",""
"html-keyboard-response","411","352714","0.0-7.0-2.54","LF","cjpw7y8c1k","1366","768","0","1","0","5efdc12f5d69f622915a97a1","","null","","","learningBlock2","","","","<div style=""font-size:60px;""> </div>","null","LF","learning/Slide135.JPG","This is a tob:","","",""
"html-keyboard-response","412","353718","0.0-7.0-0.55","LF","cjpw7y8c1k","1366","768","0","1","0","5efdc12f5d69f622915a97a1","","null","","","learningBlock2","","","","This is a wug:","null","","","","","",""
"image-keyboard-response","413","354079","0.0-7.0-1.55","LF","cjpw7y8c1k","1366","768","0","1","0","5efdc12f5d69f622915a97a1","","null","","","","","","","learning/Slide136.JPG","null","","","","","",""
"html-keyboard-response","414","355085","0.0-7.0-2.55","LF","cjpw7y8c1k","1366","768","0","1","0","5efdc12f5d69f622915a97a1","","null","","","learningBlock2","","","","<div style=""font-size:60px;""> </div>","null","LF","learning/Slide136.JPG","This is a wug:","","",""
"html-keyboard-response","415","356095","0.0-7.0-0.56","LF","cjpw7y8c1k","1366","768","0","1","0","5efdc12f5d69f622915a97a1","","null","","","learningBlock2","","","","This is a tob:","null","","","","","",""
"image-keyboard-response","416","356431","0.0-7.0-1.56","LF","cjpw7y8c1k","1366","768","0","1","0","5efdc12f5d69f622915a97a1","","null","","","","","","","learning/Slide137.JPG","null","","","","","",""
"html-keyboard-response","417","357442","0.0-7.0-2.56","LF","cjpw7y8c1k","1366","768","0","1","0","5efdc12f5d69f622915a97a1","","null","","","learningBlock2","","","","<div style=""font-size:60px;""> </div>","null","LF","learning/Slide137.JPG","This is a tob:","","",""
"html-keyboard-response","418","358456","0.0-7.0-0.57","LF","cjpw7y8c1k","1366","768","0","1","0","5efdc12f5d69f622915a97a1","","null","","","learningBlock2","","","","This is a bim:","null","","","","","",""
"image-keyboard-response","419","358799","0.0-7.0-1.57","LF","cjpw7y8c1k","1366","768","0","1","0","5efdc12f5d69f622915a97a1","","null","","","","","","","learning/Slide138.JPG","null","","","","","",""
"html-keyboard-response","420","359804","0.0-7.0-2.57","LF","cjpw7y8c1k","1366","768","0","1","0","5efdc12f5d69f622915a97a1","","null","","","learningBlock2","","","","<div style=""font-size:60px;""> </div>","null","LF","learning/Slide138.JPG","This is a bim:","","",""
"html-keyboard-response","421","360813","0.0-7.0-0.58","LF","cjpw7y8c1k","1366","768","0","1","0","5efdc12f5d69f622915a97a1","","null","","","learningBlock2","","","","This is a wug:","null","","","","","",""
"image-keyboard-response","422","361163","0.0-7.0-1.58","LF","cjpw7y8c1k","1366","768","0","1","0","5efdc12f5d69f622915a97a1","","null","","","","","","","learning/Slide139.JPG","null","","","","","",""
"html-keyboard-response","423","362169","0.0-7.0-2.58","LF","cjpw7y8c1k","1366","768","0","1","0","5efdc12f5d69f622915a97a1","","null","","","learningBlock2","","","","<div style=""font-size:60px;""> </div>","null","LF","learning/Slide139.JPG","This is a wug:","","",""
"html-keyboard-response","424","363175","0.0-7.0-0.59","LF","cjpw7y8c1k","1366","768","0","1","0","5efdc12f5d69f622915a97a1","","null","","","learningBlock2","","","","This is a dep:","null","","","","","",""
"image-keyboard-response","425","363516","0.0-7.0-1.59","LF","cjpw7y8c1k","1366","768","0","1","0","5efdc12f5d69f622915a97a1","","null","","","","","","","learning/Slide140.JPG","null","","","","","",""
"html-keyboard-response","426","364521","0.0-7.0-2.59","LF","cjpw7y8c1k","1366","768","0","1","0","5efdc12f5d69f622915a97a1","","null","","","learningBlock2","","","","<div style=""font-size:60px;""> </div>","null","LF","learning/Slide140.JPG","This is a dep:","","",""
"html-keyboard-response","427","365536","0.0-7.0-0.60","LF","cjpw7y8c1k","1366","768","0","1","0","5efdc12f5d69f622915a97a1","","null","","","learningBlock2","","","","This is a tob:","null","","","","","",""
"image-keyboard-response","428","365884","0.0-7.0-1.60","LF","cjpw7y8c1k","1366","768","0","1","0","5efdc12f5d69f622915a97a1","","null","","","","","","","learning/Slide141.JPG","null","","","","","",""
"html-keyboard-response","429","366891","0.0-7.0-2.60","LF","cjpw7y8c1k","1366","768","0","1","0","5efdc12f5d69f622915a97a1","","null","","","learningBlock2","","","","<div style=""font-size:60px;""> </div>","null","LF","learning/Slide141.JPG","This is a tob:","","",""
"html-keyboard-response","430","367899","0.0-7.0-0.61","LF","cjpw7y8c1k","1366","768","0","1","0","5efdc12f5d69f622915a97a1","","null","","","learningBlock2","","","","This is a wug:","null","","","","","",""
"image-keyboard-response","431","368236","0.0-7.0-1.61","LF","cjpw7y8c1k","1366","768","0","1","0","5efdc12f5d69f622915a97a1","","null","","","","","","","learning/Slide142.JPG","null","","","","","",""
"html-keyboard-response","432","369238","0.0-7.0-2.61","LF","cjpw7y8c1k","1366","768","0","1","0","5efdc12f5d69f622915a97a1","","null","","","learningBlock2","","","","<div style=""font-size:60px;""> </div>","null","LF","learning/Slide142.JPG","This is a wug:","","",""
"html-keyboard-response","433","370253","0.0-7.0-0.62","LF","cjpw7y8c1k","1366","768","0","1","0","5efdc12f5d69f622915a97a1","","null","","","learningBlock2","","","","This is a bim:","null","","","","","",""
"image-keyboard-response","434","370603","0.0-7.0-1.62","LF","cjpw7y8c1k","1366","768","0","1","0","5efdc12f5d69f622915a97a1","","null","","","","","","","learning/Slide143.JPG","null","","","","","",""
"html-keyboard-response","435","371620","0.0-7.0-2.62","LF","cjpw7y8c1k","1366","768","0","1","0","5efdc12f5d69f622915a97a1","","null","","","learningBlock2","","","","<div style=""font-size:60px;""> </div>","null","LF","learning/Slide143.JPG","This is a bim:","","",""
"html-keyboard-response","436","372640","0.0-7.0-0.63","LF","cjpw7y8c1k","1366","768","0","1","0","5efdc12f5d69f622915a97a1","","null","","","learningBlock2","","","","This is a dep:","null","","","","","",""
"image-keyboard-response","437","372984","0.0-7.0-1.63","LF","cjpw7y8c1k","1366","768","0","1","0","5efdc12f5d69f622915a97a1","","null","","","","","","","learning/Slide144.JPG","null","","","","","",""
"html-keyboard-response","438","373988","0.0-7.0-2.63","LF","cjpw7y8c1k","1366","768","0","1","0","5efdc12f5d69f622915a97a1","","null","","","learningBlock2","","","","<div style=""font-size:60px;""> </div>","null","LF","learning/Slide144.JPG","This is a dep:","","",""
