"trial_type","trial_index","time_elapsed","internal_node_id","condition","subject","screen_width","screen_height","attention","distraction","conscientious","prolificID","success","rt","url","view_history","test_part","final_height_px","final_width_px","scale_factor","stimulus","key_press","learningType","presentedImage","presentedLabel","button_pressed","response","responses"
"pavlovia","0","292","0.0-0.0","LF","71bdswcm9k","1440","900","0","1","0","5f591a5a9a49e211efead835","","","","","","","","","","","","","","","",""
"fullscreen","1","6791","0.0-1.0","LF","71bdswcm9k","1440","900","0","1","0","5f591a5a9a49e211efead835","true","","","","","","","","","","","","","","",""
"external-html","2","36082","0.0-2.0-0.0","LF","71bdswcm9k","1440","900","0","1","0","5f591a5a9a49e211efead835","","29230.215000003227","text/information_english.html","","","","","","","","","","","","",""
"external-html","3","46082","0.0-2.0-1.0","LF","71bdswcm9k","1440","900","0","1","0","5f591a5a9a49e211efead835","","9846.739999993588","text/consent_english.html","","","","","","","","","","","","",""
"instructions","4","55400","0.0-3.0","LF","71bdswcm9k","1440","900","0","1","0","5f591a5a9a49e211efead835","","NA","","[{""page_index"":0,""viewing_time"":1837.1550000010757},{""page_index"":1,""viewing_time"":7468.334999997751}]","instructions","","","","","","","","","","",""
"resize","5","92644","0.0-4.0","LF","71bdswcm9k","1440","900","0","1","0","5f591a5a9a49e211efead835","","","","","","","426","2.7047619047619045","","","","","","","",""
"html-keyboard-response","6","93651","0.0-5.0-0.0","LF","71bdswcm9k","1440","900","0","1","0","5f591a5a9a49e211efead835","","null","","","learningBlock1","","","","This is a tob:","null","","","","","",""
"image-keyboard-response","7","93983","0.0-5.0-1.0","LF","71bdswcm9k","1440","900","0","1","0","5f591a5a9a49e211efead835","","null","","","","","","","learning/Slide1.JPG","null","","","","","",""
"html-keyboard-response","8","94987","0.0-5.0-2.0","LF","71bdswcm9k","1440","900","0","1","0","5f591a5a9a49e211efead835","","null","","","learningBlock1","","","","<div style=""font-size:60px;""> </div>","null","LF","learning/Slide1.JPG","This is a tob:","","",""
"html-keyboard-response","9","95992","0.0-5.0-0.1","LF","71bdswcm9k","1440","900","0","1","0","5f591a5a9a49e211efead835","","null","","","learningBlock1","","","","This is a wug:","null","","","","","",""
"image-keyboard-response","10","96323","0.0-5.0-1.1","LF","71bdswcm9k","1440","900","0","1","0","5f591a5a9a49e211efead835","","null","","","","","","","learning/Slide2.JPG","null","","","","","",""
"html-keyboard-response","11","97327","0.0-5.0-2.1","LF","71bdswcm9k","1440","900","0","1","0","5f591a5a9a49e211efead835","","null","","","learningBlock1","","","","<div style=""font-size:60px;""> </div>","null","LF","learning/Slide2.JPG","This is a wug:","","",""
"html-keyboard-response","12","98331","0.0-5.0-0.2","LF","71bdswcm9k","1440","900","0","1","0","5f591a5a9a49e211efead835","","null","","","learningBlock1","","","","This is a bim:","null","","","","","",""
"image-keyboard-response","13","98659","0.0-5.0-1.2","LF","71bdswcm9k","1440","900","0","1","0","5f591a5a9a49e211efead835","","null","","","","","","","learning/Slide3.JPG","null","","","","","",""
"html-keyboard-response","14","99663","0.0-5.0-2.2","LF","71bdswcm9k","1440","900","0","1","0","5f591a5a9a49e211efead835","","null","","","learningBlock1","","","","<div style=""font-size:60px;""> </div>","null","LF","learning/Slide3.JPG","This is a bim:","","",""
"html-keyboard-response","15","100665","0.0-5.0-0.3","LF","71bdswcm9k","1440","900","0","1","0","5f591a5a9a49e211efead835","","null","","","learningBlock1","","","","This is a dep:","null","","","","","",""
"image-keyboard-response","16","100992","0.0-5.0-1.3","LF","71bdswcm9k","1440","900","0","1","0","5f591a5a9a49e211efead835","","null","","","","","","","learning/Slide4.JPG","null","","","","","",""
"html-keyboard-response","17","101994","0.0-5.0-2.3","LF","71bdswcm9k","1440","900","0","1","0","5f591a5a9a49e211efead835","","null","","","learningBlock1","","","","<div style=""font-size:60px;""> </div>","null","LF","learning/Slide4.JPG","This is a dep:","","",""
"html-keyboard-response","18","102998","0.0-5.0-0.4","LF","71bdswcm9k","1440","900","0","1","0","5f591a5a9a49e211efead835","","null","","","learningBlock1","","","","This is a wug:","null","","","","","",""
"image-keyboard-response","19","103326","0.0-5.0-1.4","LF","71bdswcm9k","1440","900","0","1","0","5f591a5a9a49e211efead835","","null","","","","","","","learning/Slide5.JPG","null","","","","","",""
"html-keyboard-response","20","104328","0.0-5.0-2.4","LF","71bdswcm9k","1440","900","0","1","0","5f591a5a9a49e211efead835","","null","","","learningBlock1","","","","<div style=""font-size:60px;""> </div>","null","LF","learning/Slide5.JPG","This is a wug:","","",""
"html-keyboard-response","21","105332","0.0-5.0-0.5","LF","71bdswcm9k","1440","900","0","1","0","5f591a5a9a49e211efead835","","null","","","learningBlock1","","","","This is a dep:","null","","","","","",""
"image-keyboard-response","22","105659","0.0-5.0-1.5","LF","71bdswcm9k","1440","900","0","1","0","5f591a5a9a49e211efead835","","null","","","","","","","learning/Slide6.JPG","null","","","","","",""
"html-keyboard-response","23","106661","0.0-5.0-2.5","LF","71bdswcm9k","1440","900","0","1","0","5f591a5a9a49e211efead835","","null","","","learningBlock1","","","","<div style=""font-size:60px;""> </div>","null","LF","learning/Slide6.JPG","This is a dep:","","",""
"html-keyboard-response","24","107664","0.0-5.0-0.6","LF","71bdswcm9k","1440","900","0","1","0","5f591a5a9a49e211efead835","","null","","","learningBlock1","","","","This is a wug:","null","","","","","",""
"image-keyboard-response","25","107993","0.0-5.0-1.6","LF","71bdswcm9k","1440","900","0","1","0","5f591a5a9a49e211efead835","","null","","","","","","","learning/Slide7.JPG","null","","","","","",""
"html-keyboard-response","26","108998","0.0-5.0-2.6","LF","71bdswcm9k","1440","900","0","1","0","5f591a5a9a49e211efead835","","null","","","learningBlock1","","","","<div style=""font-size:60px;""> </div>","null","LF","learning/Slide7.JPG","This is a wug:","","",""
"html-keyboard-response","27","110001","0.0-5.0-0.7","LF","71bdswcm9k","1440","900","0","1","0","5f591a5a9a49e211efead835","","null","","","learningBlock1","","","","This is a bim:","null","","","","","",""
"image-keyboard-response","28","110336","0.0-5.0-1.7","LF","71bdswcm9k","1440","900","0","1","0","5f591a5a9a49e211efead835","","null","","","","","","","learning/Slide8.JPG","null","","","","","",""
"html-keyboard-response","29","111340","0.0-5.0-2.7","LF","71bdswcm9k","1440","900","0","1","0","5f591a5a9a49e211efead835","","null","","","learningBlock1","","","","<div style=""font-size:60px;""> </div>","null","LF","learning/Slide8.JPG","This is a bim:","","",""
"html-keyboard-response","30","112343","0.0-5.0-0.8","LF","71bdswcm9k","1440","900","0","1","0","5f591a5a9a49e211efead835","","null","","","learningBlock1","","","","This is a wug:","null","","","","","",""
"image-keyboard-response","31","112675","0.0-5.0-1.8","LF","71bdswcm9k","1440","900","0","1","0","5f591a5a9a49e211efead835","","null","","","","","","","learning/Slide9.JPG","null","","","","","",""
"html-keyboard-response","32","113680","0.0-5.0-2.8","LF","71bdswcm9k","1440","900","0","1","0","5f591a5a9a49e211efead835","","null","","","learningBlock1","","","","<div style=""font-size:60px;""> </div>","null","LF","learning/Slide9.JPG","This is a wug:","","",""
"html-keyboard-response","33","114682","0.0-5.0-0.9","LF","71bdswcm9k","1440","900","0","1","0","5f591a5a9a49e211efead835","","null","","","learningBlock1","","","","This is a dep:","null","","","","","",""
"image-keyboard-response","34","115009","0.0-5.0-1.9","LF","71bdswcm9k","1440","900","0","1","0","5f591a5a9a49e211efead835","","null","","","","","","","learning/Slide10.JPG","null","","","","","",""
"html-keyboard-response","35","116013","0.0-5.0-2.9","LF","71bdswcm9k","1440","900","0","1","0","5f591a5a9a49e211efead835","","null","","","learningBlock1","","","","<div style=""font-size:60px;""> </div>","null","LF","learning/Slide10.JPG","This is a dep:","","",""
"html-keyboard-response","36","117018","0.0-5.0-0.10","LF","71bdswcm9k","1440","900","0","1","0","5f591a5a9a49e211efead835","","null","","","learningBlock1","","","","This is a tob:","null","","","","","",""
"image-keyboard-response","37","117349","0.0-5.0-1.10","LF","71bdswcm9k","1440","900","0","1","0","5f591a5a9a49e211efead835","","null","","","","","","","learning/Slide11.JPG","null","","","","","",""
"html-keyboard-response","38","118353","0.0-5.0-2.10","LF","71bdswcm9k","1440","900","0","1","0","5f591a5a9a49e211efead835","","null","","","learningBlock1","","","","<div style=""font-size:60px;""> </div>","null","LF","learning/Slide11.JPG","This is a tob:","","",""
"html-keyboard-response","39","119357","0.0-5.0-0.11","LF","71bdswcm9k","1440","900","0","1","0","5f591a5a9a49e211efead835","","null","","","learningBlock1","","","","This is a dep:","null","","","","","",""
"image-keyboard-response","40","119688","0.0-5.0-1.11","LF","71bdswcm9k","1440","900","0","1","0","5f591a5a9a49e211efead835","","null","","","","","","","learning/Slide12.JPG","null","","","","","",""
"html-keyboard-response","41","120700","0.0-5.0-2.11","LF","71bdswcm9k","1440","900","0","1","0","5f591a5a9a49e211efead835","","null","","","learningBlock1","","","","<div style=""font-size:60px;""> </div>","null","LF","learning/Slide12.JPG","This is a dep:","","",""
"html-keyboard-response","42","121705","0.0-5.0-0.12","LF","71bdswcm9k","1440","900","0","1","0","5f591a5a9a49e211efead835","","null","","","learningBlock1","","","","This is a bim:","null","","","","","",""
"image-keyboard-response","43","122033","0.0-5.0-1.12","LF","71bdswcm9k","1440","900","0","1","0","5f591a5a9a49e211efead835","","null","","","","","","","learning/Slide13.JPG","null","","","","","",""
"html-keyboard-response","44","123038","0.0-5.0-2.12","LF","71bdswcm9k","1440","900","0","1","0","5f591a5a9a49e211efead835","","null","","","learningBlock1","","","","<div style=""font-size:60px;""> </div>","null","LF","learning/Slide13.JPG","This is a bim:","","",""
"html-keyboard-response","45","124042","0.0-5.0-0.13","LF","71bdswcm9k","1440","900","0","1","0","5f591a5a9a49e211efead835","","null","","","learningBlock1","","","","This is a wug:","null","","","","","",""
"image-keyboard-response","46","124373","0.0-5.0-1.13","LF","71bdswcm9k","1440","900","0","1","0","5f591a5a9a49e211efead835","","null","","","","","","","learning/Slide14.JPG","null","","","","","",""
"html-keyboard-response","47","125375","0.0-5.0-2.13","LF","71bdswcm9k","1440","900","0","1","0","5f591a5a9a49e211efead835","","null","","","learningBlock1","","","","<div style=""font-size:60px;""> </div>","null","LF","learning/Slide14.JPG","This is a wug:","","",""
"html-keyboard-response","48","126380","0.0-5.0-0.14","LF","71bdswcm9k","1440","900","0","1","0","5f591a5a9a49e211efead835","","null","","","learningBlock1","","","","This is a tob:","null","","","","","",""
"image-keyboard-response","49","126712","0.0-5.0-1.14","LF","71bdswcm9k","1440","900","0","1","0","5f591a5a9a49e211efead835","","null","","","","","","","learning/Slide15.JPG","null","","","","","",""
"html-keyboard-response","50","127717","0.0-5.0-2.14","LF","71bdswcm9k","1440","900","0","1","0","5f591a5a9a49e211efead835","","null","","","learningBlock1","","","","<div style=""font-size:60px;""> </div>","null","LF","learning/Slide15.JPG","This is a tob:","","",""
"html-keyboard-response","51","128721","0.0-5.0-0.15","LF","71bdswcm9k","1440","900","0","1","0","5f591a5a9a49e211efead835","","null","","","learningBlock1","","","","This is a dep:","null","","","","","",""
"image-keyboard-response","52","129049","0.0-5.0-1.15","LF","71bdswcm9k","1440","900","0","1","0","5f591a5a9a49e211efead835","","null","","","","","","","learning/Slide16.JPG","null","","","","","",""
"html-keyboard-response","53","130055","0.0-5.0-2.15","LF","71bdswcm9k","1440","900","0","1","0","5f591a5a9a49e211efead835","","null","","","learningBlock1","","","","<div style=""font-size:60px;""> </div>","null","LF","learning/Slide16.JPG","This is a dep:","","",""
"html-keyboard-response","54","131060","0.0-5.0-0.16","LF","71bdswcm9k","1440","900","0","1","0","5f591a5a9a49e211efead835","","null","","","learningBlock1","","","","This is a bim:","null","","","","","",""
"image-keyboard-response","55","131391","0.0-5.0-1.16","LF","71bdswcm9k","1440","900","0","1","0","5f591a5a9a49e211efead835","","null","","","","","","","learning/Slide17.JPG","null","","","","","",""
"html-keyboard-response","56","132395","0.0-5.0-2.16","LF","71bdswcm9k","1440","900","0","1","0","5f591a5a9a49e211efead835","","null","","","learningBlock1","","","","<div style=""font-size:60px;""> </div>","null","LF","learning/Slide17.JPG","This is a bim:","","",""
"html-keyboard-response","57","133399","0.0-5.0-0.17","LF","71bdswcm9k","1440","900","0","1","0","5f591a5a9a49e211efead835","","null","","","learningBlock1","","","","This is a tob:","null","","","","","",""
"image-keyboard-response","58","133730","0.0-5.0-1.17","LF","71bdswcm9k","1440","900","0","1","0","5f591a5a9a49e211efead835","","null","","","","","","","learning/Slide18.JPG","null","","","","","",""
"html-keyboard-response","59","134735","0.0-5.0-2.17","LF","71bdswcm9k","1440","900","0","1","0","5f591a5a9a49e211efead835","","null","","","learningBlock1","","","","<div style=""font-size:60px;""> </div>","null","LF","learning/Slide18.JPG","This is a tob:","","",""
"html-keyboard-response","60","135739","0.0-5.0-0.18","LF","71bdswcm9k","1440","900","0","1","0","5f591a5a9a49e211efead835","","null","","","learningBlock1","","","","This is a wug:","null","","","","","",""
"image-keyboard-response","61","136070","0.0-5.0-1.18","LF","71bdswcm9k","1440","900","0","1","0","5f591a5a9a49e211efead835","","null","","","","","","","learning/Slide19.JPG","null","","","","","",""
"html-keyboard-response","62","137075","0.0-5.0-2.18","LF","71bdswcm9k","1440","900","0","1","0","5f591a5a9a49e211efead835","","null","","","learningBlock1","","","","<div style=""font-size:60px;""> </div>","null","LF","learning/Slide19.JPG","This is a wug:","","",""
"html-keyboard-response","63","138079","0.0-5.0-0.19","LF","71bdswcm9k","1440","900","0","1","0","5f591a5a9a49e211efead835","","null","","","learningBlock1","","","","This is a bim:","null","","","","","",""
"image-keyboard-response","64","138410","0.0-5.0-1.19","LF","71bdswcm9k","1440","900","0","1","0","5f591a5a9a49e211efead835","","null","","","","","","","learning/Slide20.JPG","null","","","","","",""
"html-keyboard-response","65","139414","0.0-5.0-2.19","LF","71bdswcm9k","1440","900","0","1","0","5f591a5a9a49e211efead835","","null","","","learningBlock1","","","","<div style=""font-size:60px;""> </div>","null","LF","learning/Slide20.JPG","This is a bim:","","",""
"html-keyboard-response","66","140418","0.0-5.0-0.20","LF","71bdswcm9k","1440","900","0","1","0","5f591a5a9a49e211efead835","","null","","","learningBlock1","","","","This is a dep:","null","","","","","",""
"image-keyboard-response","67","140749","0.0-5.0-1.20","LF","71bdswcm9k","1440","900","0","1","0","5f591a5a9a49e211efead835","","null","","","","","","","learning/Slide21.JPG","null","","","","","",""
"html-keyboard-response","68","141753","0.0-5.0-2.20","LF","71bdswcm9k","1440","900","0","1","0","5f591a5a9a49e211efead835","","null","","","learningBlock1","","","","<div style=""font-size:60px;""> </div>","null","LF","learning/Slide21.JPG","This is a dep:","","",""
"html-keyboard-response","69","142761","0.0-5.0-0.21","LF","71bdswcm9k","1440","900","0","1","0","5f591a5a9a49e211efead835","","null","","","learningBlock1","","","","This is a bim:","null","","","","","",""
"image-keyboard-response","70","143094","0.0-5.0-1.21","LF","71bdswcm9k","1440","900","0","1","0","5f591a5a9a49e211efead835","","null","","","","","","","learning/Slide22.JPG","null","","","","","",""
"html-keyboard-response","71","144097","0.0-5.0-2.21","LF","71bdswcm9k","1440","900","0","1","0","5f591a5a9a49e211efead835","","null","","","learningBlock1","","","","<div style=""font-size:60px;""> </div>","null","LF","learning/Slide22.JPG","This is a bim:","","",""
"html-keyboard-response","72","145102","0.0-5.0-0.22","LF","71bdswcm9k","1440","900","0","1","0","5f591a5a9a49e211efead835","","null","","","learningBlock1","","","","This is a tob:","null","","","","","",""
"image-keyboard-response","73","145434","0.0-5.0-1.22","LF","71bdswcm9k","1440","900","0","1","0","5f591a5a9a49e211efead835","","null","","","","","","","learning/Slide23.JPG","null","","","","","",""
"html-keyboard-response","74","146438","0.0-5.0-2.22","LF","71bdswcm9k","1440","900","0","1","0","5f591a5a9a49e211efead835","","null","","","learningBlock1","","","","<div style=""font-size:60px;""> </div>","null","LF","learning/Slide23.JPG","This is a tob:","","",""
"html-keyboard-response","75","147443","0.0-5.0-0.23","LF","71bdswcm9k","1440","900","0","1","0","5f591a5a9a49e211efead835","","null","","","learningBlock1","","","","This is a wug:","null","","","","","",""
"image-keyboard-response","76","147773","0.0-5.0-1.23","LF","71bdswcm9k","1440","900","0","1","0","5f591a5a9a49e211efead835","","null","","","","","","","learning/Slide24.JPG","null","","","","","",""
"html-keyboard-response","77","148777","0.0-5.0-2.23","LF","71bdswcm9k","1440","900","0","1","0","5f591a5a9a49e211efead835","","null","","","learningBlock1","","","","<div style=""font-size:60px;""> </div>","null","LF","learning/Slide24.JPG","This is a wug:","","",""
"html-keyboard-response","78","149781","0.0-5.0-0.24","LF","71bdswcm9k","1440","900","0","1","0","5f591a5a9a49e211efead835","","null","","","learningBlock1","","","","This is a dep:","null","","","","","",""
"image-keyboard-response","79","150109","0.0-5.0-1.24","LF","71bdswcm9k","1440","900","0","1","0","5f591a5a9a49e211efead835","","null","","","","","","","learning/Slide25.JPG","null","","","","","",""
"html-keyboard-response","80","151111","0.0-5.0-2.24","LF","71bdswcm9k","1440","900","0","1","0","5f591a5a9a49e211efead835","","null","","","learningBlock1","","","","<div style=""font-size:60px;""> </div>","null","LF","learning/Slide25.JPG","This is a dep:","","",""
"html-keyboard-response","81","152116","0.0-5.0-0.25","LF","71bdswcm9k","1440","900","0","1","0","5f591a5a9a49e211efead835","","null","","","learningBlock1","","","","This is a wug:","null","","","","","",""
"image-keyboard-response","82","152445","0.0-5.0-1.25","LF","71bdswcm9k","1440","900","0","1","0","5f591a5a9a49e211efead835","","null","","","","","","","learning/Slide26.JPG","null","","","","","",""
"html-keyboard-response","83","153451","0.0-5.0-2.25","LF","71bdswcm9k","1440","900","0","1","0","5f591a5a9a49e211efead835","","null","","","learningBlock1","","","","<div style=""font-size:60px;""> </div>","null","LF","learning/Slide26.JPG","This is a wug:","","",""
"html-keyboard-response","84","154455","0.0-5.0-0.26","LF","71bdswcm9k","1440","900","0","1","0","5f591a5a9a49e211efead835","","null","","","learningBlock1","","","","This is a bim:","null","","","","","",""
"image-keyboard-response","85","154786","0.0-5.0-1.26","LF","71bdswcm9k","1440","900","0","1","0","5f591a5a9a49e211efead835","","null","","","","","","","learning/Slide27.JPG","null","","","","","",""
"html-keyboard-response","86","155790","0.0-5.0-2.26","LF","71bdswcm9k","1440","900","0","1","0","5f591a5a9a49e211efead835","","null","","","learningBlock1","","","","<div style=""font-size:60px;""> </div>","null","LF","learning/Slide27.JPG","This is a bim:","","",""
"html-keyboard-response","87","156795","0.0-5.0-0.27","LF","71bdswcm9k","1440","900","0","1","0","5f591a5a9a49e211efead835","","null","","","learningBlock1","","","","This is a dep:","null","","","","","",""
"image-keyboard-response","88","157125","0.0-5.0-1.27","LF","71bdswcm9k","1440","900","0","1","0","5f591a5a9a49e211efead835","","null","","","","","","","learning/Slide28.JPG","null","","","","","",""
"html-keyboard-response","89","158129","0.0-5.0-2.27","LF","71bdswcm9k","1440","900","0","1","0","5f591a5a9a49e211efead835","","null","","","learningBlock1","","","","<div style=""font-size:60px;""> </div>","null","LF","learning/Slide28.JPG","This is a dep:","","",""
"html-keyboard-response","90","159134","0.0-5.0-0.28","LF","71bdswcm9k","1440","900","0","1","0","5f591a5a9a49e211efead835","","null","","","learningBlock1","","","","This is a tob:","null","","","","","",""
"image-keyboard-response","91","159471","0.0-5.0-1.28","LF","71bdswcm9k","1440","900","0","1","0","5f591a5a9a49e211efead835","","null","","","","","","","learning/Slide29.JPG","null","","","","","",""
"html-keyboard-response","92","160475","0.0-5.0-2.28","LF","71bdswcm9k","1440","900","0","1","0","5f591a5a9a49e211efead835","","null","","","learningBlock1","","","","<div style=""font-size:60px;""> </div>","null","LF","learning/Slide29.JPG","This is a tob:","","",""
"html-keyboard-response","93","161479","0.0-5.0-0.29","LF","71bdswcm9k","1440","900","0","1","0","5f591a5a9a49e211efead835","","null","","","learningBlock1","","","","This is a dep:","null","","","","","",""
"image-keyboard-response","94","161810","0.0-5.0-1.29","LF","71bdswcm9k","1440","900","0","1","0","5f591a5a9a49e211efead835","","null","","","","","","","learning/Slide30.JPG","null","","","","","",""
"html-keyboard-response","95","162815","0.0-5.0-2.29","LF","71bdswcm9k","1440","900","0","1","0","5f591a5a9a49e211efead835","","null","","","learningBlock1","","","","<div style=""font-size:60px;""> </div>","null","LF","learning/Slide30.JPG","This is a dep:","","",""
"html-keyboard-response","96","163819","0.0-5.0-0.30","LF","71bdswcm9k","1440","900","0","1","0","5f591a5a9a49e211efead835","","null","","","learningBlock1","","","","This is a wug:","null","","","","","",""
"image-keyboard-response","97","164147","0.0-5.0-1.30","LF","71bdswcm9k","1440","900","0","1","0","5f591a5a9a49e211efead835","","null","","","","","","","learning/Slide31.JPG","null","","","","","",""
"html-keyboard-response","98","165148","0.0-5.0-2.30","LF","71bdswcm9k","1440","900","0","1","0","5f591a5a9a49e211efead835","","null","","","learningBlock1","","","","<div style=""font-size:60px;""> </div>","null","LF","learning/Slide31.JPG","This is a wug:","","",""
"html-keyboard-response","99","166153","0.0-5.0-0.31","LF","71bdswcm9k","1440","900","0","1","0","5f591a5a9a49e211efead835","","null","","","learningBlock1","","","","This is a tob:","null","","","","","",""
"image-keyboard-response","100","166483","0.0-5.0-1.31","LF","71bdswcm9k","1440","900","0","1","0","5f591a5a9a49e211efead835","","null","","","","","","","learning/Slide32.JPG","null","","","","","",""
"html-keyboard-response","101","167488","0.0-5.0-2.31","LF","71bdswcm9k","1440","900","0","1","0","5f591a5a9a49e211efead835","","null","","","learningBlock1","","","","<div style=""font-size:60px;""> </div>","null","LF","learning/Slide32.JPG","This is a tob:","","",""
"html-keyboard-response","102","168492","0.0-5.0-0.32","LF","71bdswcm9k","1440","900","0","1","0","5f591a5a9a49e211efead835","","null","","","learningBlock1","","","","This is a bim:","null","","","","","",""
"image-keyboard-response","103","168823","0.0-5.0-1.32","LF","71bdswcm9k","1440","900","0","1","0","5f591a5a9a49e211efead835","","null","","","","","","","learning/Slide33.JPG","null","","","","","",""
"html-keyboard-response","104","169827","0.0-5.0-2.32","LF","71bdswcm9k","1440","900","0","1","0","5f591a5a9a49e211efead835","","null","","","learningBlock1","","","","<div style=""font-size:60px;""> </div>","null","LF","learning/Slide33.JPG","This is a bim:","","",""
"html-keyboard-response","105","170832","0.0-5.0-0.33","LF","71bdswcm9k","1440","900","0","1","0","5f591a5a9a49e211efead835","","null","","","learningBlock1","","","","This is a tob:","null","","","","","",""
"image-keyboard-response","106","171159","0.0-5.0-1.33","LF","71bdswcm9k","1440","900","0","1","0","5f591a5a9a49e211efead835","","null","","","","","","","learning/Slide34.JPG","null","","","","","",""
"html-keyboard-response","107","172161","0.0-5.0-2.33","LF","71bdswcm9k","1440","900","0","1","0","5f591a5a9a49e211efead835","","null","","","learningBlock1","","","","<div style=""font-size:60px;""> </div>","null","LF","learning/Slide34.JPG","This is a tob:","","",""
"html-keyboard-response","108","173165","0.0-5.0-0.34","LF","71bdswcm9k","1440","900","0","1","0","5f591a5a9a49e211efead835","","null","","","learningBlock1","","","","This is a bim:","null","","","","","",""
"image-keyboard-response","109","173496","0.0-5.0-1.34","LF","71bdswcm9k","1440","900","0","1","0","5f591a5a9a49e211efead835","","null","","","","","","","learning/Slide35.JPG","null","","","","","",""
"html-keyboard-response","110","174499","0.0-5.0-2.34","LF","71bdswcm9k","1440","900","0","1","0","5f591a5a9a49e211efead835","","null","","","learningBlock1","","","","<div style=""font-size:60px;""> </div>","null","LF","learning/Slide35.JPG","This is a bim:","","",""
"html-keyboard-response","111","175501","0.0-5.0-0.35","LF","71bdswcm9k","1440","900","0","1","0","5f591a5a9a49e211efead835","","null","","","learningBlock1","","","","This is a dep:","null","","","","","",""
"image-keyboard-response","112","175834","0.0-5.0-1.35","LF","71bdswcm9k","1440","900","0","1","0","5f591a5a9a49e211efead835","","null","","","","","","","learning/Slide36.JPG","null","","","","","",""
"html-keyboard-response","113","176840","0.0-5.0-2.35","LF","71bdswcm9k","1440","900","0","1","0","5f591a5a9a49e211efead835","","null","","","learningBlock1","","","","<div style=""font-size:60px;""> </div>","null","LF","learning/Slide36.JPG","This is a dep:","","",""
"html-keyboard-response","114","177844","0.0-5.0-0.36","LF","71bdswcm9k","1440","900","0","1","0","5f591a5a9a49e211efead835","","null","","","learningBlock1","","","","This is a tob:","null","","","","","",""
"image-keyboard-response","115","178175","0.0-5.0-1.36","LF","71bdswcm9k","1440","900","0","1","0","5f591a5a9a49e211efead835","","null","","","","","","","learning/Slide37.JPG","null","","","","","",""
"html-keyboard-response","116","179179","0.0-5.0-2.36","LF","71bdswcm9k","1440","900","0","1","0","5f591a5a9a49e211efead835","","null","","","learningBlock1","","","","<div style=""font-size:60px;""> </div>","null","LF","learning/Slide37.JPG","This is a tob:","","",""
"html-keyboard-response","117","180184","0.0-5.0-0.37","LF","71bdswcm9k","1440","900","0","1","0","5f591a5a9a49e211efead835","","null","","","learningBlock1","","","","This is a wug:","null","","","","","",""
"image-keyboard-response","118","180515","0.0-5.0-1.37","LF","71bdswcm9k","1440","900","0","1","0","5f591a5a9a49e211efead835","","null","","","","","","","learning/Slide38.JPG","null","","","","","",""
"html-keyboard-response","119","181519","0.0-5.0-2.37","LF","71bdswcm9k","1440","900","0","1","0","5f591a5a9a49e211efead835","","null","","","learningBlock1","","","","<div style=""font-size:60px;""> </div>","null","LF","learning/Slide38.JPG","This is a wug:","","",""
"html-keyboard-response","120","182523","0.0-5.0-0.38","LF","71bdswcm9k","1440","900","0","1","0","5f591a5a9a49e211efead835","","null","","","learningBlock1","","","","This is a bim:","null","","","","","",""
"image-keyboard-response","121","182854","0.0-5.0-1.38","LF","71bdswcm9k","1440","900","0","1","0","5f591a5a9a49e211efead835","","null","","","","","","","learning/Slide39.JPG","null","","","","","",""
"html-keyboard-response","122","183858","0.0-5.0-2.38","LF","71bdswcm9k","1440","900","0","1","0","5f591a5a9a49e211efead835","","null","","","learningBlock1","","","","<div style=""font-size:60px;""> </div>","null","LF","learning/Slide39.JPG","This is a bim:","","",""
"html-keyboard-response","123","184863","0.0-5.0-0.39","LF","71bdswcm9k","1440","900","0","1","0","5f591a5a9a49e211efead835","","null","","","learningBlock1","","","","This is a tob:","null","","","","","",""
"image-keyboard-response","124","185193","0.0-5.0-1.39","LF","71bdswcm9k","1440","900","0","1","0","5f591a5a9a49e211efead835","","null","","","","","","","learning/Slide40.JPG","null","","","","","",""
"html-keyboard-response","125","186198","0.0-5.0-2.39","LF","71bdswcm9k","1440","900","0","1","0","5f591a5a9a49e211efead835","","null","","","learningBlock1","","","","<div style=""font-size:60px;""> </div>","null","LF","learning/Slide40.JPG","This is a tob:","","",""
"html-keyboard-response","126","187202","0.0-5.0-0.40","LF","71bdswcm9k","1440","900","0","1","0","5f591a5a9a49e211efead835","","null","","","learningBlock1","","","","This is a bim:","null","","","","","",""
"image-keyboard-response","127","187533","0.0-5.0-1.40","LF","71bdswcm9k","1440","900","0","1","0","5f591a5a9a49e211efead835","","null","","","","","","","learning/Slide41.JPG","null","","","","","",""
"html-keyboard-response","128","188537","0.0-5.0-2.40","LF","71bdswcm9k","1440","900","0","1","0","5f591a5a9a49e211efead835","","null","","","learningBlock1","","","","<div style=""font-size:60px;""> </div>","null","LF","learning/Slide41.JPG","This is a bim:","","",""
"html-keyboard-response","129","189542","0.0-5.0-0.41","LF","71bdswcm9k","1440","900","0","1","0","5f591a5a9a49e211efead835","","null","","","learningBlock1","","","","This is a dep:","null","","","","","",""
"image-keyboard-response","130","189878","0.0-5.0-1.41","LF","71bdswcm9k","1440","900","0","1","0","5f591a5a9a49e211efead835","","null","","","","","","","learning/Slide42.JPG","null","","","","","",""
"html-keyboard-response","131","190882","0.0-5.0-2.41","LF","71bdswcm9k","1440","900","0","1","0","5f591a5a9a49e211efead835","","null","","","learningBlock1","","","","<div style=""font-size:60px;""> </div>","null","LF","learning/Slide42.JPG","This is a dep:","","",""
"html-keyboard-response","132","191887","0.0-5.0-0.42","LF","71bdswcm9k","1440","900","0","1","0","5f591a5a9a49e211efead835","","null","","","learningBlock1","","","","This is a wug:","null","","","","","",""
"image-keyboard-response","133","192218","0.0-5.0-1.42","LF","71bdswcm9k","1440","900","0","1","0","5f591a5a9a49e211efead835","","null","","","","","","","learning/Slide43.JPG","null","","","","","",""
"html-keyboard-response","134","193222","0.0-5.0-2.42","LF","71bdswcm9k","1440","900","0","1","0","5f591a5a9a49e211efead835","","null","","","learningBlock1","","","","<div style=""font-size:60px;""> </div>","null","LF","learning/Slide43.JPG","This is a wug:","","",""
"html-keyboard-response","135","194226","0.0-5.0-0.43","LF","71bdswcm9k","1440","900","0","1","0","5f591a5a9a49e211efead835","","null","","","learningBlock1","","","","This is a bim:","null","","","","","",""
"image-keyboard-response","136","194557","0.0-5.0-1.43","LF","71bdswcm9k","1440","900","0","1","0","5f591a5a9a49e211efead835","","null","","","","","","","learning/Slide44.JPG","null","","","","","",""
"html-keyboard-response","137","195561","0.0-5.0-2.43","LF","71bdswcm9k","1440","900","0","1","0","5f591a5a9a49e211efead835","","null","","","learningBlock1","","","","<div style=""font-size:60px;""> </div>","null","LF","learning/Slide44.JPG","This is a bim:","","",""
"html-keyboard-response","138","196567","0.0-5.0-0.44","LF","71bdswcm9k","1440","900","0","1","0","5f591a5a9a49e211efead835","","null","","","learningBlock1","","","","This is a wug:","null","","","","","",""
"image-keyboard-response","139","196902","0.0-5.0-1.44","LF","71bdswcm9k","1440","900","0","1","0","5f591a5a9a49e211efead835","","null","","","","","","","learning/Slide45.JPG","null","","","","","",""
"html-keyboard-response","140","197907","0.0-5.0-2.44","LF","71bdswcm9k","1440","900","0","1","0","5f591a5a9a49e211efead835","","null","","","learningBlock1","","","","<div style=""font-size:60px;""> </div>","null","LF","learning/Slide45.JPG","This is a wug:","","",""
"html-keyboard-response","141","198911","0.0-5.0-0.45","LF","71bdswcm9k","1440","900","0","1","0","5f591a5a9a49e211efead835","","null","","","learningBlock1","","","","This is a dep:","null","","","","","",""
"image-keyboard-response","142","199242","0.0-5.0-1.45","LF","71bdswcm9k","1440","900","0","1","0","5f591a5a9a49e211efead835","","null","","","","","","","learning/Slide46.JPG","null","","","","","",""
"html-keyboard-response","143","200246","0.0-5.0-2.45","LF","71bdswcm9k","1440","900","0","1","0","5f591a5a9a49e211efead835","","null","","","learningBlock1","","","","<div style=""font-size:60px;""> </div>","null","LF","learning/Slide46.JPG","This is a dep:","","",""
"html-keyboard-response","144","201251","0.0-5.0-0.46","LF","71bdswcm9k","1440","900","0","1","0","5f591a5a9a49e211efead835","","null","","","learningBlock1","","","","This is a tob:","null","","","","","",""
"image-keyboard-response","145","201581","0.0-5.0-1.46","LF","71bdswcm9k","1440","900","0","1","0","5f591a5a9a49e211efead835","","null","","","","","","","learning/Slide47.JPG","null","","","","","",""
"html-keyboard-response","146","202586","0.0-5.0-2.46","LF","71bdswcm9k","1440","900","0","1","0","5f591a5a9a49e211efead835","","null","","","learningBlock1","","","","<div style=""font-size:60px;""> </div>","null","LF","learning/Slide47.JPG","This is a tob:","","",""
"html-keyboard-response","147","203590","0.0-5.0-0.47","LF","71bdswcm9k","1440","900","0","1","0","5f591a5a9a49e211efead835","","null","","","learningBlock1","","","","This is a bim:","null","","","","","",""
"image-keyboard-response","148","203925","0.0-5.0-1.47","LF","71bdswcm9k","1440","900","0","1","0","5f591a5a9a49e211efead835","","null","","","","","","","learning/Slide48.JPG","null","","","","","",""
"html-keyboard-response","149","204931","0.0-5.0-2.47","LF","71bdswcm9k","1440","900","0","1","0","5f591a5a9a49e211efead835","","null","","","learningBlock1","","","","<div style=""font-size:60px;""> </div>","null","LF","learning/Slide48.JPG","This is a bim:","","",""
"html-keyboard-response","150","205935","0.0-5.0-0.48","LF","71bdswcm9k","1440","900","0","1","0","5f591a5a9a49e211efead835","","null","","","learningBlock1","","","","This is a dep:","null","","","","","",""
"image-keyboard-response","151","206266","0.0-5.0-1.48","LF","71bdswcm9k","1440","900","0","1","0","5f591a5a9a49e211efead835","","null","","","","","","","learning/Slide49.JPG","null","","","","","",""
"html-keyboard-response","152","207270","0.0-5.0-2.48","LF","71bdswcm9k","1440","900","0","1","0","5f591a5a9a49e211efead835","","null","","","learningBlock1","","","","<div style=""font-size:60px;""> </div>","null","LF","learning/Slide49.JPG","This is a dep:","","",""
"html-keyboard-response","153","208275","0.0-5.0-0.49","LF","71bdswcm9k","1440","900","0","1","0","5f591a5a9a49e211efead835","","null","","","learningBlock1","","","","This is a tob:","null","","","","","",""
"image-keyboard-response","154","208606","0.0-5.0-1.49","LF","71bdswcm9k","1440","900","0","1","0","5f591a5a9a49e211efead835","","null","","","","","","","learning/Slide50.JPG","null","","","","","",""
"html-keyboard-response","155","209610","0.0-5.0-2.49","LF","71bdswcm9k","1440","900","0","1","0","5f591a5a9a49e211efead835","","null","","","learningBlock1","","","","<div style=""font-size:60px;""> </div>","null","LF","learning/Slide50.JPG","This is a tob:","","",""
"html-keyboard-response","156","210614","0.0-5.0-0.50","LF","71bdswcm9k","1440","900","0","1","0","5f591a5a9a49e211efead835","","null","","","learningBlock1","","","","This is a bim:","null","","","","","",""
"image-keyboard-response","157","210945","0.0-5.0-1.50","LF","71bdswcm9k","1440","900","0","1","0","5f591a5a9a49e211efead835","","null","","","","","","","learning/Slide51.JPG","null","","","","","",""
"html-keyboard-response","158","211949","0.0-5.0-2.50","LF","71bdswcm9k","1440","900","0","1","0","5f591a5a9a49e211efead835","","null","","","learningBlock1","","","","<div style=""font-size:60px;""> </div>","null","LF","learning/Slide51.JPG","This is a bim:","","",""
"html-keyboard-response","159","212954","0.0-5.0-0.51","LF","71bdswcm9k","1440","900","0","1","0","5f591a5a9a49e211efead835","","null","","","learningBlock1","","","","This is a wug:","null","","","","","",""
"image-keyboard-response","160","213285","0.0-5.0-1.51","LF","71bdswcm9k","1440","900","0","1","0","5f591a5a9a49e211efead835","","null","","","","","","","learning/Slide52.JPG","null","","","","","",""
"html-keyboard-response","161","214288","0.0-5.0-2.51","LF","71bdswcm9k","1440","900","0","1","0","5f591a5a9a49e211efead835","","null","","","learningBlock1","","","","<div style=""font-size:60px;""> </div>","null","LF","learning/Slide52.JPG","This is a wug:","","",""
"html-keyboard-response","162","215292","0.0-5.0-0.52","LF","71bdswcm9k","1440","900","0","1","0","5f591a5a9a49e211efead835","","null","","","learningBlock1","","","","This is a tob:","null","","","","","",""
"image-keyboard-response","163","215626","0.0-5.0-1.52","LF","71bdswcm9k","1440","900","0","1","0","5f591a5a9a49e211efead835","","null","","","","","","","learning/Slide53.JPG","null","","","","","",""
"html-keyboard-response","164","216632","0.0-5.0-2.52","LF","71bdswcm9k","1440","900","0","1","0","5f591a5a9a49e211efead835","","null","","","learningBlock1","","","","<div style=""font-size:60px;""> </div>","null","LF","learning/Slide53.JPG","This is a tob:","","",""
"html-keyboard-response","165","217637","0.0-5.0-0.53","LF","71bdswcm9k","1440","900","0","1","0","5f591a5a9a49e211efead835","","null","","","learningBlock1","","","","This is a dep:","null","","","","","",""
"image-keyboard-response","166","217969","0.0-5.0-1.53","LF","71bdswcm9k","1440","900","0","1","0","5f591a5a9a49e211efead835","","null","","","","","","","learning/Slide54.JPG","null","","","","","",""
"html-keyboard-response","167","218974","0.0-5.0-2.53","LF","71bdswcm9k","1440","900","0","1","0","5f591a5a9a49e211efead835","","null","","","learningBlock1","","","","<div style=""font-size:60px;""> </div>","null","LF","learning/Slide54.JPG","This is a dep:","","",""
"html-keyboard-response","168","219978","0.0-5.0-0.54","LF","71bdswcm9k","1440","900","0","1","0","5f591a5a9a49e211efead835","","null","","","learningBlock1","","","","This is a bim:","null","","","","","",""
"image-keyboard-response","169","220309","0.0-5.0-1.54","LF","71bdswcm9k","1440","900","0","1","0","5f591a5a9a49e211efead835","","null","","","","","","","learning/Slide55.JPG","null","","","","","",""
"html-keyboard-response","170","221313","0.0-5.0-2.54","LF","71bdswcm9k","1440","900","0","1","0","5f591a5a9a49e211efead835","","null","","","learningBlock1","","","","<div style=""font-size:60px;""> </div>","null","LF","learning/Slide55.JPG","This is a bim:","","",""
"html-keyboard-response","171","222317","0.0-5.0-0.55","LF","71bdswcm9k","1440","900","0","1","0","5f591a5a9a49e211efead835","","null","","","learningBlock1","","","","This is a tob:","null","","","","","",""
"image-keyboard-response","172","222648","0.0-5.0-1.55","LF","71bdswcm9k","1440","900","0","1","0","5f591a5a9a49e211efead835","","null","","","","","","","learning/Slide56.JPG","null","","","","","",""
"html-keyboard-response","173","223653","0.0-5.0-2.55","LF","71bdswcm9k","1440","900","0","1","0","5f591a5a9a49e211efead835","","null","","","learningBlock1","","","","<div style=""font-size:60px;""> </div>","null","LF","learning/Slide56.JPG","This is a tob:","","",""
"html-keyboard-response","174","224657","0.0-5.0-0.56","LF","71bdswcm9k","1440","900","0","1","0","5f591a5a9a49e211efead835","","null","","","learningBlock1","","","","This is a dep:","null","","","","","",""
"image-keyboard-response","175","224991","0.0-5.0-1.56","LF","71bdswcm9k","1440","900","0","1","0","5f591a5a9a49e211efead835","","null","","","","","","","learning/Slide57.JPG","null","","","","","",""
"html-keyboard-response","176","225994","0.0-5.0-2.56","LF","71bdswcm9k","1440","900","0","1","0","5f591a5a9a49e211efead835","","null","","","learningBlock1","","","","<div style=""font-size:60px;""> </div>","null","LF","learning/Slide57.JPG","This is a dep:","","",""
"html-keyboard-response","177","226998","0.0-5.0-0.57","LF","71bdswcm9k","1440","900","0","1","0","5f591a5a9a49e211efead835","","null","","","learningBlock1","","","","This is a wug:","null","","","","","",""
"image-keyboard-response","178","227333","0.0-5.0-1.57","LF","71bdswcm9k","1440","900","0","1","0","5f591a5a9a49e211efead835","","null","","","","","","","learning/Slide58.JPG","null","","","","","",""
"html-keyboard-response","179","228337","0.0-5.0-2.57","LF","71bdswcm9k","1440","900","0","1","0","5f591a5a9a49e211efead835","","null","","","learningBlock1","","","","<div style=""font-size:60px;""> </div>","null","LF","learning/Slide58.JPG","This is a wug:","","",""
"html-keyboard-response","180","229341","0.0-5.0-0.58","LF","71bdswcm9k","1440","900","0","1","0","5f591a5a9a49e211efead835","","null","","","learningBlock1","","","","This is a dep:","null","","","","","",""
"image-keyboard-response","181","229673","0.0-5.0-1.58","LF","71bdswcm9k","1440","900","0","1","0","5f591a5a9a49e211efead835","","null","","","","","","","learning/Slide59.JPG","null","","","","","",""
"html-keyboard-response","182","230677","0.0-5.0-2.58","LF","71bdswcm9k","1440","900","0","1","0","5f591a5a9a49e211efead835","","null","","","learningBlock1","","","","<div style=""font-size:60px;""> </div>","null","LF","learning/Slide59.JPG","This is a dep:","","",""
"html-keyboard-response","183","231681","0.0-5.0-0.59","LF","71bdswcm9k","1440","900","0","1","0","5f591a5a9a49e211efead835","","null","","","learningBlock1","","","","This is a wug:","null","","","","","",""
"image-keyboard-response","184","232012","0.0-5.0-1.59","LF","71bdswcm9k","1440","900","0","1","0","5f591a5a9a49e211efead835","","null","","","","","","","learning/Slide60.JPG","null","","","","","",""
"html-keyboard-response","185","233018","0.0-5.0-2.59","LF","71bdswcm9k","1440","900","0","1","0","5f591a5a9a49e211efead835","","null","","","learningBlock1","","","","<div style=""font-size:60px;""> </div>","null","LF","learning/Slide60.JPG","This is a wug:","","",""
"html-keyboard-response","186","234023","0.0-5.0-0.60","LF","71bdswcm9k","1440","900","0","1","0","5f591a5a9a49e211efead835","","null","","","learningBlock1","","","","This is a bim:","null","","","","","",""
"image-keyboard-response","187","234358","0.0-5.0-1.60","LF","71bdswcm9k","1440","900","0","1","0","5f591a5a9a49e211efead835","","null","","","","","","","learning/Slide61.JPG","null","","","","","",""
"html-keyboard-response","188","235362","0.0-5.0-2.60","LF","71bdswcm9k","1440","900","0","1","0","5f591a5a9a49e211efead835","","null","","","learningBlock1","","","","<div style=""font-size:60px;""> </div>","null","LF","learning/Slide61.JPG","This is a bim:","","",""
"html-keyboard-response","189","236365","0.0-5.0-0.61","LF","71bdswcm9k","1440","900","0","1","0","5f591a5a9a49e211efead835","","null","","","learningBlock1","","","","This is a dep:","null","","","","","",""
"image-keyboard-response","190","236693","0.0-5.0-1.61","LF","71bdswcm9k","1440","900","0","1","0","5f591a5a9a49e211efead835","","null","","","","","","","learning/Slide62.JPG","null","","","","","",""
"html-keyboard-response","191","237695","0.0-5.0-2.61","LF","71bdswcm9k","1440","900","0","1","0","5f591a5a9a49e211efead835","","null","","","learningBlock1","","","","<div style=""font-size:60px;""> </div>","null","LF","learning/Slide62.JPG","This is a dep:","","",""
"html-keyboard-response","192","238698","0.0-5.0-0.62","LF","71bdswcm9k","1440","900","0","1","0","5f591a5a9a49e211efead835","","null","","","learningBlock1","","","","This is a bim:","null","","","","","",""
"image-keyboard-response","193","239030","0.0-5.0-1.62","LF","71bdswcm9k","1440","900","0","1","0","5f591a5a9a49e211efead835","","null","","","","","","","learning/Slide63.JPG","null","","","","","",""
"html-keyboard-response","194","240035","0.0-5.0-2.62","LF","71bdswcm9k","1440","900","0","1","0","5f591a5a9a49e211efead835","","null","","","learningBlock1","","","","<div style=""font-size:60px;""> </div>","null","LF","learning/Slide63.JPG","This is a bim:","","",""
"html-keyboard-response","195","241039","0.0-5.0-0.63","LF","71bdswcm9k","1440","900","0","1","0","5f591a5a9a49e211efead835","","null","","","learningBlock1","","","","This is a tob:","null","","","","","",""
"image-keyboard-response","196","241375","0.0-5.0-1.63","LF","71bdswcm9k","1440","900","0","1","0","5f591a5a9a49e211efead835","","null","","","","","","","learning/Slide64.JPG","null","","","","","",""
"html-keyboard-response","197","242378","0.0-5.0-2.63","LF","71bdswcm9k","1440","900","0","1","0","5f591a5a9a49e211efead835","","null","","","learningBlock1","","","","<div style=""font-size:60px;""> </div>","null","LF","learning/Slide64.JPG","This is a tob:","","",""
"html-keyboard-response","198","243379","0.0-5.0-0.64","LF","71bdswcm9k","1440","900","0","1","0","5f591a5a9a49e211efead835","","null","","","learningBlock1","","","","This is a wug:","null","","","","","",""
"image-keyboard-response","199","243709","0.0-5.0-1.64","LF","71bdswcm9k","1440","900","0","1","0","5f591a5a9a49e211efead835","","null","","","","","","","learning/Slide65.JPG","null","","","","","",""
"html-keyboard-response","200","244714","0.0-5.0-2.64","LF","71bdswcm9k","1440","900","0","1","0","5f591a5a9a49e211efead835","","null","","","learningBlock1","","","","<div style=""font-size:60px;""> </div>","null","LF","learning/Slide65.JPG","This is a wug:","","",""
"html-keyboard-response","201","245718","0.0-5.0-0.65","LF","71bdswcm9k","1440","900","0","1","0","5f591a5a9a49e211efead835","","null","","","learningBlock1","","","","This is a dep:","null","","","","","",""
"image-keyboard-response","202","246049","0.0-5.0-1.65","LF","71bdswcm9k","1440","900","0","1","0","5f591a5a9a49e211efead835","","null","","","","","","","learning/Slide66.JPG","null","","","","","",""
"html-keyboard-response","203","247053","0.0-5.0-2.65","LF","71bdswcm9k","1440","900","0","1","0","5f591a5a9a49e211efead835","","null","","","learningBlock1","","","","<div style=""font-size:60px;""> </div>","null","LF","learning/Slide66.JPG","This is a dep:","","",""
"html-keyboard-response","204","248058","0.0-5.0-0.66","LF","71bdswcm9k","1440","900","0","1","0","5f591a5a9a49e211efead835","","null","","","learningBlock1","","","","This is a tob:","null","","","","","",""
"image-keyboard-response","205","248389","0.0-5.0-1.66","LF","71bdswcm9k","1440","900","0","1","0","5f591a5a9a49e211efead835","","null","","","","","","","learning/Slide67.JPG","null","","","","","",""
"html-keyboard-response","206","249393","0.0-5.0-2.66","LF","71bdswcm9k","1440","900","0","1","0","5f591a5a9a49e211efead835","","null","","","learningBlock1","","","","<div style=""font-size:60px;""> </div>","null","LF","learning/Slide67.JPG","This is a tob:","","",""
"html-keyboard-response","207","250397","0.0-5.0-0.67","LF","71bdswcm9k","1440","900","0","1","0","5f591a5a9a49e211efead835","","null","","","learningBlock1","","","","This is a wug:","null","","","","","",""
"image-keyboard-response","208","250728","0.0-5.0-1.67","LF","71bdswcm9k","1440","900","0","1","0","5f591a5a9a49e211efead835","","null","","","","","","","learning/Slide68.JPG","null","","","","","",""
"html-keyboard-response","209","251732","0.0-5.0-2.67","LF","71bdswcm9k","1440","900","0","1","0","5f591a5a9a49e211efead835","","null","","","learningBlock1","","","","<div style=""font-size:60px;""> </div>","null","LF","learning/Slide68.JPG","This is a wug:","","",""
"html-keyboard-response","210","252737","0.0-5.0-0.68","LF","71bdswcm9k","1440","900","0","1","0","5f591a5a9a49e211efead835","","null","","","learningBlock1","","","","This is a tob:","null","","","","","",""
"image-keyboard-response","211","253067","0.0-5.0-1.68","LF","71bdswcm9k","1440","900","0","1","0","5f591a5a9a49e211efead835","","null","","","","","","","learning/Slide69.JPG","null","","","","","",""
"html-keyboard-response","212","254072","0.0-5.0-2.68","LF","71bdswcm9k","1440","900","0","1","0","5f591a5a9a49e211efead835","","null","","","learningBlock1","","","","<div style=""font-size:60px;""> </div>","null","LF","learning/Slide69.JPG","This is a tob:","","",""
"html-keyboard-response","213","255076","0.0-5.0-0.69","LF","71bdswcm9k","1440","900","0","1","0","5f591a5a9a49e211efead835","","null","","","learningBlock1","","","","This is a dep:","null","","","","","",""
"image-keyboard-response","214","255413","0.0-5.0-1.69","LF","71bdswcm9k","1440","900","0","1","0","5f591a5a9a49e211efead835","","null","","","","","","","learning/Slide70.JPG","null","","","","","",""
"html-keyboard-response","215","256417","0.0-5.0-2.69","LF","71bdswcm9k","1440","900","0","1","0","5f591a5a9a49e211efead835","","null","","","learningBlock1","","","","<div style=""font-size:60px;""> </div>","null","LF","learning/Slide70.JPG","This is a dep:","","",""
"html-keyboard-response","216","257421","0.0-5.0-0.70","LF","71bdswcm9k","1440","900","0","1","0","5f591a5a9a49e211efead835","","null","","","learningBlock1","","","","This is a wug:","null","","","","","",""
"image-keyboard-response","217","257752","0.0-5.0-1.70","LF","71bdswcm9k","1440","900","0","1","0","5f591a5a9a49e211efead835","","null","","","","","","","learning/Slide71.JPG","null","","","","","",""
"html-keyboard-response","218","258756","0.0-5.0-2.70","LF","71bdswcm9k","1440","900","0","1","0","5f591a5a9a49e211efead835","","null","","","learningBlock1","","","","<div style=""font-size:60px;""> </div>","null","LF","learning/Slide71.JPG","This is a wug:","","",""
"html-keyboard-response","219","259761","0.0-5.0-0.71","LF","71bdswcm9k","1440","900","0","1","0","5f591a5a9a49e211efead835","","null","","","learningBlock1","","","","This is a bim:","null","","","","","",""
"image-keyboard-response","220","260088","0.0-5.0-1.71","LF","71bdswcm9k","1440","900","0","1","0","5f591a5a9a49e211efead835","","null","","","","","","","learning/Slide72.JPG","null","","","","","",""
"html-keyboard-response","221","261090","0.0-5.0-2.71","LF","71bdswcm9k","1440","900","0","1","0","5f591a5a9a49e211efead835","","null","","","learningBlock1","","","","<div style=""font-size:60px;""> </div>","null","LF","learning/Slide72.JPG","This is a bim:","","",""
"html-keyboard-response","222","262094","0.0-5.0-0.72","LF","71bdswcm9k","1440","900","0","1","0","5f591a5a9a49e211efead835","","null","","","learningBlock1","","","","This is a wug:","null","","","","","",""
"image-keyboard-response","223","262424","0.0-5.0-1.72","LF","71bdswcm9k","1440","900","0","1","0","5f591a5a9a49e211efead835","","null","","","","","","","learning/Slide73.JPG","null","","","","","",""
"html-keyboard-response","224","263430","0.0-5.0-2.72","LF","71bdswcm9k","1440","900","0","1","0","5f591a5a9a49e211efead835","","null","","","learningBlock1","","","","<div style=""font-size:60px;""> </div>","null","LF","learning/Slide73.JPG","This is a wug:","","",""
"html-keyboard-response","225","264434","0.0-5.0-0.73","LF","71bdswcm9k","1440","900","0","1","0","5f591a5a9a49e211efead835","","null","","","learningBlock1","","","","This is a dep:","null","","","","","",""
"image-keyboard-response","226","264764","0.0-5.0-1.73","LF","71bdswcm9k","1440","900","0","1","0","5f591a5a9a49e211efead835","","null","","","","","","","learning/Slide74.JPG","null","","","","","",""
"html-keyboard-response","227","265766","0.0-5.0-2.73","LF","71bdswcm9k","1440","900","0","1","0","5f591a5a9a49e211efead835","","null","","","learningBlock1","","","","<div style=""font-size:60px;""> </div>","null","LF","learning/Slide74.JPG","This is a dep:","","",""
"html-keyboard-response","228","266770","0.0-5.0-0.74","LF","71bdswcm9k","1440","900","0","1","0","5f591a5a9a49e211efead835","","null","","","learningBlock1","","","","This is a tob:","null","","","","","",""
"image-keyboard-response","229","267104","0.0-5.0-1.74","LF","71bdswcm9k","1440","900","0","1","0","5f591a5a9a49e211efead835","","null","","","","","","","learning/Slide75.JPG","null","","","","","",""
"html-keyboard-response","230","268109","0.0-5.0-2.74","LF","71bdswcm9k","1440","900","0","1","0","5f591a5a9a49e211efead835","","null","","","learningBlock1","","","","<div style=""font-size:60px;""> </div>","null","LF","learning/Slide75.JPG","This is a tob:","","",""
"html-keyboard-response","231","269110","0.0-5.0-0.75","LF","71bdswcm9k","1440","900","0","1","0","5f591a5a9a49e211efead835","","null","","","learningBlock1","","","","This is a bim:","null","","","","","",""
"image-keyboard-response","232","269444","0.0-5.0-1.75","LF","71bdswcm9k","1440","900","0","1","0","5f591a5a9a49e211efead835","","null","","","","","","","learning/Slide76.JPG","null","","","","","",""
"html-keyboard-response","233","270448","0.0-5.0-2.75","LF","71bdswcm9k","1440","900","0","1","0","5f591a5a9a49e211efead835","","null","","","learningBlock1","","","","<div style=""font-size:60px;""> </div>","null","LF","learning/Slide76.JPG","This is a bim:","","",""
"html-keyboard-response","234","271452","0.0-5.0-0.76","LF","71bdswcm9k","1440","900","0","1","0","5f591a5a9a49e211efead835","","null","","","learningBlock1","","","","This is a tob:","null","","","","","",""
"image-keyboard-response","235","271783","0.0-5.0-1.76","LF","71bdswcm9k","1440","900","0","1","0","5f591a5a9a49e211efead835","","null","","","","","","","learning/Slide77.JPG","null","","","","","",""
"html-keyboard-response","236","272789","0.0-5.0-2.76","LF","71bdswcm9k","1440","900","0","1","0","5f591a5a9a49e211efead835","","null","","","learningBlock1","","","","<div style=""font-size:60px;""> </div>","null","LF","learning/Slide77.JPG","This is a tob:","","",""
"html-keyboard-response","237","273794","0.0-5.0-0.77","LF","71bdswcm9k","1440","900","0","1","0","5f591a5a9a49e211efead835","","null","","","learningBlock1","","","","This is a wug:","null","","","","","",""
"image-keyboard-response","238","274129","0.0-5.0-1.77","LF","71bdswcm9k","1440","900","0","1","0","5f591a5a9a49e211efead835","","null","","","","","","","learning/Slide78.JPG","null","","","","","",""
"html-keyboard-response","239","275135","0.0-5.0-2.77","LF","71bdswcm9k","1440","900","0","1","0","5f591a5a9a49e211efead835","","null","","","learningBlock1","","","","<div style=""font-size:60px;""> </div>","null","LF","learning/Slide78.JPG","This is a wug:","","",""
"html-keyboard-response","240","276139","0.0-5.0-0.78","LF","71bdswcm9k","1440","900","0","1","0","5f591a5a9a49e211efead835","","null","","","learningBlock1","","","","This is a bim:","null","","","","","",""
"image-keyboard-response","241","276475","0.0-5.0-1.78","LF","71bdswcm9k","1440","900","0","1","0","5f591a5a9a49e211efead835","","null","","","","","","","learning/Slide79.JPG","null","","","","","",""
"html-keyboard-response","242","277478","0.0-5.0-2.78","LF","71bdswcm9k","1440","900","0","1","0","5f591a5a9a49e211efead835","","null","","","learningBlock1","","","","<div style=""font-size:60px;""> </div>","null","LF","learning/Slide79.JPG","This is a bim:","","",""
"html-keyboard-response","243","278482","0.0-5.0-0.79","LF","71bdswcm9k","1440","900","0","1","0","5f591a5a9a49e211efead835","","null","","","learningBlock1","","","","This is a tob:","null","","","","","",""
"image-keyboard-response","244","278813","0.0-5.0-1.79","LF","71bdswcm9k","1440","900","0","1","0","5f591a5a9a49e211efead835","","null","","","","","","","learning/Slide80.JPG","null","","","","","",""
"html-keyboard-response","245","279818","0.0-5.0-2.79","LF","71bdswcm9k","1440","900","0","1","0","5f591a5a9a49e211efead835","","null","","","learningBlock1","","","","<div style=""font-size:60px;""> </div>","null","LF","learning/Slide80.JPG","This is a tob:","","",""
"instructions","246","283265","0.0-6.0","LF","71bdswcm9k","1440","900","0","1","0","5f591a5a9a49e211efead835","","NA","","[{""page_index"":0,""viewing_time"":3446.2249999924097}]","instructions","","","","","","","","","","",""
"html-keyboard-response","247","284270","0.0-7.0-0.0","LF","71bdswcm9k","1440","900","0","1","0","5f591a5a9a49e211efead835","","null","","","learningBlock2","","","","This is a wug:","null","","","","","",""
"image-keyboard-response","248","284601","0.0-7.0-1.0","LF","71bdswcm9k","1440","900","0","1","0","5f591a5a9a49e211efead835","","null","","","","","","","learning/Slide81.JPG","null","","","","","",""
"html-keyboard-response","249","285605","0.0-7.0-2.0","LF","71bdswcm9k","1440","900","0","1","0","5f591a5a9a49e211efead835","","null","","","learningBlock2","","","","<div style=""font-size:60px;""> </div>","null","LF","learning/Slide81.JPG","This is a wug:","","",""
"html-keyboard-response","250","286610","0.0-7.0-0.1","LF","71bdswcm9k","1440","900","0","1","0","5f591a5a9a49e211efead835","","null","","","learningBlock2","","","","This is a bim:","null","","","","","",""
"image-keyboard-response","251","286941","0.0-7.0-1.1","LF","71bdswcm9k","1440","900","0","1","0","5f591a5a9a49e211efead835","","null","","","","","","","learning/Slide82.JPG","null","","","","","",""
"html-keyboard-response","252","287944","0.0-7.0-2.1","LF","71bdswcm9k","1440","900","0","1","0","5f591a5a9a49e211efead835","","null","","","learningBlock2","","","","<div style=""font-size:60px;""> </div>","null","LF","learning/Slide82.JPG","This is a bim:","","",""
"html-keyboard-response","253","288949","0.0-7.0-0.2","LF","71bdswcm9k","1440","900","0","1","0","5f591a5a9a49e211efead835","","null","","","learningBlock2","","","","This is a wug:","null","","","","","",""
"image-keyboard-response","254","289280","0.0-7.0-1.2","LF","71bdswcm9k","1440","900","0","1","0","5f591a5a9a49e211efead835","","null","","","","","","","learning/Slide83.JPG","null","","","","","",""
"html-keyboard-response","255","290284","0.0-7.0-2.2","LF","71bdswcm9k","1440","900","0","1","0","5f591a5a9a49e211efead835","","null","","","learningBlock2","","","","<div style=""font-size:60px;""> </div>","null","LF","learning/Slide83.JPG","This is a wug:","","",""
"html-keyboard-response","256","291288","0.0-7.0-0.3","LF","71bdswcm9k","1440","900","0","1","0","5f591a5a9a49e211efead835","","null","","","learningBlock2","","","","This is a dep:","null","","","","","",""
"image-keyboard-response","257","291619","0.0-7.0-1.3","LF","71bdswcm9k","1440","900","0","1","0","5f591a5a9a49e211efead835","","null","","","","","","","learning/Slide84.JPG","null","","","","","",""
"html-keyboard-response","258","292624","0.0-7.0-2.3","LF","71bdswcm9k","1440","900","0","1","0","5f591a5a9a49e211efead835","","null","","","learningBlock2","","","","<div style=""font-size:60px;""> </div>","null","LF","learning/Slide84.JPG","This is a dep:","","",""
"html-keyboard-response","259","293628","0.0-7.0-0.4","LF","71bdswcm9k","1440","900","0","1","0","5f591a5a9a49e211efead835","","null","","","learningBlock2","","","","This is a bim:","null","","","","","",""
"image-keyboard-response","260","293959","0.0-7.0-1.4","LF","71bdswcm9k","1440","900","0","1","0","5f591a5a9a49e211efead835","","null","","","","","","","learning/Slide85.JPG","null","","","","","",""
"html-keyboard-response","261","294963","0.0-7.0-2.4","LF","71bdswcm9k","1440","900","0","1","0","5f591a5a9a49e211efead835","","null","","","learningBlock2","","","","<div style=""font-size:60px;""> </div>","null","LF","learning/Slide85.JPG","This is a bim:","","",""
"html-keyboard-response","262","295968","0.0-7.0-0.5","LF","71bdswcm9k","1440","900","0","1","0","5f591a5a9a49e211efead835","","null","","","learningBlock2","","","","This is a tob:","null","","","","","",""
"image-keyboard-response","263","296295","0.0-7.0-1.5","LF","71bdswcm9k","1440","900","0","1","0","5f591a5a9a49e211efead835","","null","","","","","","","learning/Slide86.JPG","null","","","","","",""
"html-keyboard-response","264","297297","0.0-7.0-2.5","LF","71bdswcm9k","1440","900","0","1","0","5f591a5a9a49e211efead835","","null","","","learningBlock2","","","","<div style=""font-size:60px;""> </div>","null","LF","learning/Slide86.JPG","This is a tob:","","",""
"html-keyboard-response","265","298301","0.0-7.0-0.6","LF","71bdswcm9k","1440","900","0","1","0","5f591a5a9a49e211efead835","","null","","","learningBlock2","","","","This is a wug:","null","","","","","",""
"image-keyboard-response","266","298632","0.0-7.0-1.6","LF","71bdswcm9k","1440","900","0","1","0","5f591a5a9a49e211efead835","","null","","","","","","","learning/Slide87.JPG","null","","","","","",""
"html-keyboard-response","267","299636","0.0-7.0-2.6","LF","71bdswcm9k","1440","900","0","1","0","5f591a5a9a49e211efead835","","null","","","learningBlock2","","","","<div style=""font-size:60px;""> </div>","null","LF","learning/Slide87.JPG","This is a wug:","","",""
"html-keyboard-response","268","300641","0.0-7.0-0.7","LF","71bdswcm9k","1440","900","0","1","0","5f591a5a9a49e211efead835","","null","","","learningBlock2","","","","This is a tob:","null","","","","","",""
"image-keyboard-response","269","300977","0.0-7.0-1.7","LF","71bdswcm9k","1440","900","0","1","0","5f591a5a9a49e211efead835","","null","","","","","","","learning/Slide88.JPG","null","","","","","",""
"html-keyboard-response","270","301982","0.0-7.0-2.7","LF","71bdswcm9k","1440","900","0","1","0","5f591a5a9a49e211efead835","","null","","","learningBlock2","","","","<div style=""font-size:60px;""> </div>","null","LF","learning/Slide88.JPG","This is a tob:","","",""
"html-keyboard-response","271","302986","0.0-7.0-0.8","LF","71bdswcm9k","1440","900","0","1","0","5f591a5a9a49e211efead835","","null","","","learningBlock2","","","","This is a bim:","null","","","","","",""
"image-keyboard-response","272","303317","0.0-7.0-1.8","LF","71bdswcm9k","1440","900","0","1","0","5f591a5a9a49e211efead835","","null","","","","","","","learning/Slide89.JPG","null","","","","","",""
"html-keyboard-response","273","304319","0.0-7.0-2.8","LF","71bdswcm9k","1440","900","0","1","0","5f591a5a9a49e211efead835","","null","","","learningBlock2","","","","<div style=""font-size:60px;""> </div>","null","LF","learning/Slide89.JPG","This is a bim:","","",""
"html-keyboard-response","274","305323","0.0-7.0-0.9","LF","71bdswcm9k","1440","900","0","1","0","5f591a5a9a49e211efead835","","null","","","learningBlock2","","","","This is a dep:","null","","","","","",""
"image-keyboard-response","275","305655","0.0-7.0-1.9","LF","71bdswcm9k","1440","900","0","1","0","5f591a5a9a49e211efead835","","null","","","","","","","learning/Slide90.JPG","null","","","","","",""
"html-keyboard-response","276","306661","0.0-7.0-2.9","LF","71bdswcm9k","1440","900","0","1","0","5f591a5a9a49e211efead835","","null","","","learningBlock2","","","","<div style=""font-size:60px;""> </div>","null","LF","learning/Slide90.JPG","This is a dep:","","",""
"html-keyboard-response","277","307665","0.0-7.0-0.10","LF","71bdswcm9k","1440","900","0","1","0","5f591a5a9a49e211efead835","","null","","","learningBlock2","","","","This is a wug:","null","","","","","",""
"image-keyboard-response","278","307996","0.0-7.0-1.10","LF","71bdswcm9k","1440","900","0","1","0","5f591a5a9a49e211efead835","","null","","","","","","","learning/Slide91.JPG","null","","","","","",""
"html-keyboard-response","279","309000","0.0-7.0-2.10","LF","71bdswcm9k","1440","900","0","1","0","5f591a5a9a49e211efead835","","null","","","learningBlock2","","","","<div style=""font-size:60px;""> </div>","null","LF","learning/Slide91.JPG","This is a wug:","","",""
"html-keyboard-response","280","310004","0.0-7.0-0.11","LF","71bdswcm9k","1440","900","0","1","0","5f591a5a9a49e211efead835","","null","","","learningBlock2","","","","This is a tob:","null","","","","","",""
"image-keyboard-response","281","310335","0.0-7.0-1.11","LF","71bdswcm9k","1440","900","0","1","0","5f591a5a9a49e211efead835","","null","","","","","","","learning/Slide92.JPG","null","","","","","",""
"html-keyboard-response","282","311341","0.0-7.0-2.11","LF","71bdswcm9k","1440","900","0","1","0","5f591a5a9a49e211efead835","","null","","","learningBlock2","","","","<div style=""font-size:60px;""> </div>","null","LF","learning/Slide92.JPG","This is a tob:","","",""
"html-keyboard-response","283","312342","0.0-7.0-0.12","LF","71bdswcm9k","1440","900","0","1","0","5f591a5a9a49e211efead835","","null","","","learningBlock2","","","","This is a bim:","null","","","","","",""
"image-keyboard-response","284","312672","0.0-7.0-1.12","LF","71bdswcm9k","1440","900","0","1","0","5f591a5a9a49e211efead835","","null","","","","","","","learning/Slide93.JPG","null","","","","","",""
"html-keyboard-response","285","313675","0.0-7.0-2.12","LF","71bdswcm9k","1440","900","0","1","0","5f591a5a9a49e211efead835","","null","","","learningBlock2","","","","<div style=""font-size:60px;""> </div>","null","LF","learning/Slide93.JPG","This is a bim:","","",""
"html-keyboard-response","286","314679","0.0-7.0-0.13","LF","71bdswcm9k","1440","900","0","1","0","5f591a5a9a49e211efead835","","null","","","learningBlock2","","","","This is a tob:","null","","","","","",""
"image-keyboard-response","287","315015","0.0-7.0-1.13","LF","71bdswcm9k","1440","900","0","1","0","5f591a5a9a49e211efead835","","null","","","","","","","learning/Slide94.JPG","null","","","","","",""
"html-keyboard-response","288","316019","0.0-7.0-2.13","LF","71bdswcm9k","1440","900","0","1","0","5f591a5a9a49e211efead835","","null","","","learningBlock2","","","","<div style=""font-size:60px;""> </div>","null","LF","learning/Slide94.JPG","This is a tob:","","",""
"html-keyboard-response","289","317023","0.0-7.0-0.14","LF","71bdswcm9k","1440","900","0","1","0","5f591a5a9a49e211efead835","","null","","","learningBlock2","","","","This is a wug:","null","","","","","",""
"image-keyboard-response","290","317354","0.0-7.0-1.14","LF","71bdswcm9k","1440","900","0","1","0","5f591a5a9a49e211efead835","","null","","","","","","","learning/Slide95.JPG","null","","","","","",""
"html-keyboard-response","291","318358","0.0-7.0-2.14","LF","71bdswcm9k","1440","900","0","1","0","5f591a5a9a49e211efead835","","null","","","learningBlock2","","","","<div style=""font-size:60px;""> </div>","null","LF","learning/Slide95.JPG","This is a wug:","","",""
"html-keyboard-response","292","319362","0.0-7.0-0.15","LF","71bdswcm9k","1440","900","0","1","0","5f591a5a9a49e211efead835","","null","","","learningBlock2","","","","This is a tob:","null","","","","","",""
"image-keyboard-response","293","319693","0.0-7.0-1.15","LF","71bdswcm9k","1440","900","0","1","0","5f591a5a9a49e211efead835","","null","","","","","","","learning/Slide96.JPG","null","","","","","",""
"html-keyboard-response","294","320698","0.0-7.0-2.15","LF","71bdswcm9k","1440","900","0","1","0","5f591a5a9a49e211efead835","","null","","","learningBlock2","","","","<div style=""font-size:60px;""> </div>","null","LF","learning/Slide96.JPG","This is a tob:","","",""
"html-keyboard-response","295","321702","0.0-7.0-0.16","LF","71bdswcm9k","1440","900","0","1","0","5f591a5a9a49e211efead835","","null","","","learningBlock2","","","","This is a dep:","null","","","","","",""
"image-keyboard-response","296","322033","0.0-7.0-1.16","LF","71bdswcm9k","1440","900","0","1","0","5f591a5a9a49e211efead835","","null","","","","","","","learning/Slide97.JPG","null","","","","","",""
"html-keyboard-response","297","323037","0.0-7.0-2.16","LF","71bdswcm9k","1440","900","0","1","0","5f591a5a9a49e211efead835","","null","","","learningBlock2","","","","<div style=""font-size:60px;""> </div>","null","LF","learning/Slide97.JPG","This is a dep:","","",""
"html-keyboard-response","298","324041","0.0-7.0-0.17","LF","71bdswcm9k","1440","900","0","1","0","5f591a5a9a49e211efead835","","null","","","learningBlock2","","","","This is a bim:","null","","","","","",""
"image-keyboard-response","299","324370","0.0-7.0-1.17","LF","71bdswcm9k","1440","900","0","1","0","5f591a5a9a49e211efead835","","null","","","","","","","learning/Slide98.JPG","null","","","","","",""
"html-keyboard-response","300","325377","0.0-7.0-2.17","LF","71bdswcm9k","1440","900","0","1","0","5f591a5a9a49e211efead835","","null","","","learningBlock2","","","","<div style=""font-size:60px;""> </div>","null","LF","learning/Slide98.JPG","This is a bim:","","",""
"html-keyboard-response","301","326381","0.0-7.0-0.18","LF","71bdswcm9k","1440","900","0","1","0","5f591a5a9a49e211efead835","","null","","","learningBlock2","","","","This is a dep:","null","","","","","",""
"image-keyboard-response","302","326712","0.0-7.0-1.18","LF","71bdswcm9k","1440","900","0","1","0","5f591a5a9a49e211efead835","","null","","","","","","","learning/Slide99.JPG","null","","","","","",""
"html-keyboard-response","303","327716","0.0-7.0-2.18","LF","71bdswcm9k","1440","900","0","1","0","5f591a5a9a49e211efead835","","null","","","learningBlock2","","","","<div style=""font-size:60px;""> </div>","null","LF","learning/Slide99.JPG","This is a dep:","","",""
"html-keyboard-response","304","328720","0.0-7.0-0.19","LF","71bdswcm9k","1440","900","0","1","0","5f591a5a9a49e211efead835","","null","","","learningBlock2","","","","This is a bim:","null","","","","","",""
"image-keyboard-response","305","329048","0.0-7.0-1.19","LF","71bdswcm9k","1440","900","0","1","0","5f591a5a9a49e211efead835","","null","","","","","","","learning/Slide100.JPG","null","","","","","",""
"html-keyboard-response","306","330053","0.0-7.0-2.19","LF","71bdswcm9k","1440","900","0","1","0","5f591a5a9a49e211efead835","","null","","","learningBlock2","","","","<div style=""font-size:60px;""> </div>","null","LF","learning/Slide100.JPG","This is a bim:","","",""
"html-keyboard-response","307","331058","0.0-7.0-0.20","LF","71bdswcm9k","1440","900","0","1","0","5f591a5a9a49e211efead835","","null","","","learningBlock2","","","","This is a tob:","null","","","","","",""
"image-keyboard-response","308","331391","0.0-7.0-1.20","LF","71bdswcm9k","1440","900","0","1","0","5f591a5a9a49e211efead835","","null","","","","","","","learning/Slide101.JPG","null","","","","","",""
"html-keyboard-response","309","332395","0.0-7.0-2.20","LF","71bdswcm9k","1440","900","0","1","0","5f591a5a9a49e211efead835","","null","","","learningBlock2","","","","<div style=""font-size:60px;""> </div>","null","LF","learning/Slide101.JPG","This is a tob:","","",""
"html-keyboard-response","310","333399","0.0-7.0-0.21","LF","71bdswcm9k","1440","900","0","1","0","5f591a5a9a49e211efead835","","null","","","learningBlock2","","","","This is a bim:","null","","","","","",""
"image-keyboard-response","311","333730","0.0-7.0-1.21","LF","71bdswcm9k","1440","900","0","1","0","5f591a5a9a49e211efead835","","null","","","","","","","learning/Slide102.JPG","null","","","","","",""
"html-keyboard-response","312","334733","0.0-7.0-2.21","LF","71bdswcm9k","1440","900","0","1","0","5f591a5a9a49e211efead835","","null","","","learningBlock2","","","","<div style=""font-size:60px;""> </div>","null","LF","learning/Slide102.JPG","This is a bim:","","",""
"html-keyboard-response","313","335738","0.0-7.0-0.22","LF","71bdswcm9k","1440","900","0","1","0","5f591a5a9a49e211efead835","","null","","","learningBlock2","","","","This is a dep:","null","","","","","",""
"image-keyboard-response","314","336069","0.0-7.0-1.22","LF","71bdswcm9k","1440","900","0","1","0","5f591a5a9a49e211efead835","","null","","","","","","","learning/Slide103.JPG","null","","","","","",""
"html-keyboard-response","315","337074","0.0-7.0-2.22","LF","71bdswcm9k","1440","900","0","1","0","5f591a5a9a49e211efead835","","null","","","learningBlock2","","","","<div style=""font-size:60px;""> </div>","null","LF","learning/Slide103.JPG","This is a dep:","","",""
"html-keyboard-response","316","338078","0.0-7.0-0.23","LF","71bdswcm9k","1440","900","0","1","0","5f591a5a9a49e211efead835","","null","","","learningBlock2","","","","This is a tob:","null","","","","","",""
"image-keyboard-response","317","338409","0.0-7.0-1.23","LF","71bdswcm9k","1440","900","0","1","0","5f591a5a9a49e211efead835","","null","","","","","","","learning/Slide104.JPG","null","","","","","",""
"html-keyboard-response","318","339413","0.0-7.0-2.23","LF","71bdswcm9k","1440","900","0","1","0","5f591a5a9a49e211efead835","","null","","","learningBlock2","","","","<div style=""font-size:60px;""> </div>","null","LF","learning/Slide104.JPG","This is a tob:","","",""
"html-keyboard-response","319","340418","0.0-7.0-0.24","LF","71bdswcm9k","1440","900","0","1","0","5f591a5a9a49e211efead835","","null","","","learningBlock2","","","","This is a dep:","null","","","","","",""
"image-keyboard-response","320","340749","0.0-7.0-1.24","LF","71bdswcm9k","1440","900","0","1","0","5f591a5a9a49e211efead835","","null","","","","","","","learning/Slide105.JPG","null","","","","","",""
"html-keyboard-response","321","341753","0.0-7.0-2.24","LF","71bdswcm9k","1440","900","0","1","0","5f591a5a9a49e211efead835","","null","","","learningBlock2","","","","<div style=""font-size:60px;""> </div>","null","LF","learning/Slide105.JPG","This is a dep:","","",""
"html-keyboard-response","322","342757","0.0-7.0-0.25","LF","71bdswcm9k","1440","900","0","1","0","5f591a5a9a49e211efead835","","null","","","learningBlock2","","","","This is a wug:","null","","","","","",""
"image-keyboard-response","323","343088","0.0-7.0-1.25","LF","71bdswcm9k","1440","900","0","1","0","5f591a5a9a49e211efead835","","null","","","","","","","learning/Slide106.JPG","null","","","","","",""
"html-keyboard-response","324","344092","0.0-7.0-2.25","LF","71bdswcm9k","1440","900","0","1","0","5f591a5a9a49e211efead835","","null","","","learningBlock2","","","","<div style=""font-size:60px;""> </div>","null","LF","learning/Slide106.JPG","This is a wug:","","",""
"html-keyboard-response","325","345097","0.0-7.0-0.26","LF","71bdswcm9k","1440","900","0","1","0","5f591a5a9a49e211efead835","","null","","","learningBlock2","","","","This is a bim:","null","","","","","",""
"image-keyboard-response","326","345424","0.0-7.0-1.26","LF","71bdswcm9k","1440","900","0","1","0","5f591a5a9a49e211efead835","","null","","","","","","","learning/Slide107.JPG","null","","","","","",""
"html-keyboard-response","327","346426","0.0-7.0-2.26","LF","71bdswcm9k","1440","900","0","1","0","5f591a5a9a49e211efead835","","null","","","learningBlock2","","","","<div style=""font-size:60px;""> </div>","null","LF","learning/Slide107.JPG","This is a bim:","","",""
"html-keyboard-response","328","347430","0.0-7.0-0.27","LF","71bdswcm9k","1440","900","0","1","0","5f591a5a9a49e211efead835","","null","","","learningBlock2","","","","This is a dep:","null","","","","","",""
"image-keyboard-response","329","347758","0.0-7.0-1.27","LF","71bdswcm9k","1440","900","0","1","0","5f591a5a9a49e211efead835","","null","","","","","","","learning/Slide108.JPG","null","","","","","",""
"html-keyboard-response","330","348760","0.0-7.0-2.27","LF","71bdswcm9k","1440","900","0","1","0","5f591a5a9a49e211efead835","","null","","","learningBlock2","","","","<div style=""font-size:60px;""> </div>","null","LF","learning/Slide108.JPG","This is a dep:","","",""
"html-keyboard-response","331","349764","0.0-7.0-0.28","LF","71bdswcm9k","1440","900","0","1","0","5f591a5a9a49e211efead835","","null","","","learningBlock2","","","","This is a wug:","null","","","","","",""
"image-keyboard-response","332","350096","0.0-7.0-1.28","LF","71bdswcm9k","1440","900","0","1","0","5f591a5a9a49e211efead835","","null","","","","","","","learning/Slide109.JPG","null","","","","","",""
"html-keyboard-response","333","351099","0.0-7.0-2.28","LF","71bdswcm9k","1440","900","0","1","0","5f591a5a9a49e211efead835","","null","","","learningBlock2","","","","<div style=""font-size:60px;""> </div>","null","LF","learning/Slide109.JPG","This is a wug:","","",""
"html-keyboard-response","334","352103","0.0-7.0-0.29","LF","71bdswcm9k","1440","900","0","1","0","5f591a5a9a49e211efead835","","null","","","learningBlock2","","","","This is a bim:","null","","","","","",""
"image-keyboard-response","335","352434","0.0-7.0-1.29","LF","71bdswcm9k","1440","900","0","1","0","5f591a5a9a49e211efead835","","null","","","","","","","learning/Slide110.JPG","null","","","","","",""
"html-keyboard-response","336","353439","0.0-7.0-2.29","LF","71bdswcm9k","1440","900","0","1","0","5f591a5a9a49e211efead835","","null","","","learningBlock2","","","","<div style=""font-size:60px;""> </div>","null","LF","learning/Slide110.JPG","This is a bim:","","",""
"html-keyboard-response","337","354443","0.0-7.0-0.30","LF","71bdswcm9k","1440","900","0","1","0","5f591a5a9a49e211efead835","","null","","","learningBlock2","","","","This is a tob:","null","","","","","",""
"image-keyboard-response","338","354774","0.0-7.0-1.30","LF","71bdswcm9k","1440","900","0","1","0","5f591a5a9a49e211efead835","","null","","","","","","","learning/Slide111.JPG","null","","","","","",""
"html-keyboard-response","339","355780","0.0-7.0-2.30","LF","71bdswcm9k","1440","900","0","1","0","5f591a5a9a49e211efead835","","null","","","learningBlock2","","","","<div style=""font-size:60px;""> </div>","null","LF","learning/Slide111.JPG","This is a tob:","","",""
"html-keyboard-response","340","356784","0.0-7.0-0.31","LF","71bdswcm9k","1440","900","0","1","0","5f591a5a9a49e211efead835","","null","","","learningBlock2","","","","This is a wug:","null","","","","","",""
"image-keyboard-response","341","357118","0.0-7.0-1.31","LF","71bdswcm9k","1440","900","0","1","0","5f591a5a9a49e211efead835","","null","","","","","","","learning/Slide112.JPG","null","","","","","",""
"html-keyboard-response","342","358123","0.0-7.0-2.31","LF","71bdswcm9k","1440","900","0","1","0","5f591a5a9a49e211efead835","","null","","","learningBlock2","","","","<div style=""font-size:60px;""> </div>","null","LF","learning/Slide112.JPG","This is a wug:","","",""
"html-keyboard-response","343","359128","0.0-7.0-0.32","LF","71bdswcm9k","1440","900","0","1","0","5f591a5a9a49e211efead835","","null","","","learningBlock2","","","","This is a tob:","null","","","","","",""
"image-keyboard-response","344","359457","0.0-7.0-1.32","LF","71bdswcm9k","1440","900","0","1","0","5f591a5a9a49e211efead835","","null","","","","","","","learning/Slide113.JPG","null","","","","","",""
"html-keyboard-response","345","360459","0.0-7.0-2.32","LF","71bdswcm9k","1440","900","0","1","0","5f591a5a9a49e211efead835","","null","","","learningBlock2","","","","<div style=""font-size:60px;""> </div>","null","LF","learning/Slide113.JPG","This is a tob:","","",""
"html-keyboard-response","346","361464","0.0-7.0-0.33","LF","71bdswcm9k","1440","900","0","1","0","5f591a5a9a49e211efead835","","null","","","learningBlock2","","","","This is a wug:","null","","","","","",""
"image-keyboard-response","347","361798","0.0-7.0-1.33","LF","71bdswcm9k","1440","900","0","1","0","5f591a5a9a49e211efead835","","null","","","","","","","learning/Slide114.JPG","null","","","","","",""
"html-keyboard-response","348","362799","0.0-7.0-2.33","LF","71bdswcm9k","1440","900","0","1","0","5f591a5a9a49e211efead835","","null","","","learningBlock2","","","","<div style=""font-size:60px;""> </div>","null","LF","learning/Slide114.JPG","This is a wug:","","",""
"html-keyboard-response","349","363803","0.0-7.0-0.34","LF","71bdswcm9k","1440","900","0","1","0","5f591a5a9a49e211efead835","","null","","","learningBlock2","","","","This is a bim:","null","","","","","",""
"image-keyboard-response","350","364138","0.0-7.0-1.34","LF","71bdswcm9k","1440","900","0","1","0","5f591a5a9a49e211efead835","","null","","","","","","","learning/Slide115.JPG","null","","","","","",""
"html-keyboard-response","351","365142","0.0-7.0-2.34","LF","71bdswcm9k","1440","900","0","1","0","5f591a5a9a49e211efead835","","null","","","learningBlock2","","","","<div style=""font-size:60px;""> </div>","null","LF","learning/Slide115.JPG","This is a bim:","","",""
"html-keyboard-response","352","366146","0.0-7.0-0.35","LF","71bdswcm9k","1440","900","0","1","0","5f591a5a9a49e211efead835","","null","","","learningBlock2","","","","This is a dep:","null","","","","","",""
"image-keyboard-response","353","366477","0.0-7.0-1.35","LF","71bdswcm9k","1440","900","0","1","0","5f591a5a9a49e211efead835","","null","","","","","","","learning/Slide116.JPG","null","","","","","",""
"html-keyboard-response","354","367481","0.0-7.0-2.35","LF","71bdswcm9k","1440","900","0","1","0","5f591a5a9a49e211efead835","","null","","","learningBlock2","","","","<div style=""font-size:60px;""> </div>","null","LF","learning/Slide116.JPG","This is a dep:","","",""
"html-keyboard-response","355","368486","0.0-7.0-0.36","LF","71bdswcm9k","1440","900","0","1","0","5f591a5a9a49e211efead835","","null","","","learningBlock2","","","","This is a tob:","null","","","","","",""
"image-keyboard-response","356","368815","0.0-7.0-1.36","LF","71bdswcm9k","1440","900","0","1","0","5f591a5a9a49e211efead835","","null","","","","","","","learning/Slide117.JPG","null","","","","","",""
"html-keyboard-response","357","369819","0.0-7.0-2.36","LF","71bdswcm9k","1440","900","0","1","0","5f591a5a9a49e211efead835","","null","","","learningBlock2","","","","<div style=""font-size:60px;""> </div>","null","LF","learning/Slide117.JPG","This is a tob:","","",""
"html-keyboard-response","358","370825","0.0-7.0-0.37","LF","71bdswcm9k","1440","900","0","1","0","5f591a5a9a49e211efead835","","null","","","learningBlock2","","","","This is a dep:","null","","","","","",""
"image-keyboard-response","359","371156","0.0-7.0-1.37","LF","71bdswcm9k","1440","900","0","1","0","5f591a5a9a49e211efead835","","null","","","","","","","learning/Slide118.JPG","null","","","","","",""
"html-keyboard-response","360","372160","0.0-7.0-2.37","LF","71bdswcm9k","1440","900","0","1","0","5f591a5a9a49e211efead835","","null","","","learningBlock2","","","","<div style=""font-size:60px;""> </div>","null","LF","learning/Slide118.JPG","This is a dep:","","",""
"html-keyboard-response","361","373165","0.0-7.0-0.38","LF","71bdswcm9k","1440","900","0","1","0","5f591a5a9a49e211efead835","","null","","","learningBlock2","","","","This is a wug:","null","","","","","",""
"image-keyboard-response","362","373496","0.0-7.0-1.38","LF","71bdswcm9k","1440","900","0","1","0","5f591a5a9a49e211efead835","","null","","","","","","","learning/Slide119.JPG","null","","","","","",""
"html-keyboard-response","363","374500","0.0-7.0-2.38","LF","71bdswcm9k","1440","900","0","1","0","5f591a5a9a49e211efead835","","null","","","learningBlock2","","","","<div style=""font-size:60px;""> </div>","null","LF","learning/Slide119.JPG","This is a wug:","","",""
"html-keyboard-response","364","375506","0.0-7.0-0.39","LF","71bdswcm9k","1440","900","0","1","0","5f591a5a9a49e211efead835","","null","","","learningBlock2","","","","This is a dep:","null","","","","","",""
"image-keyboard-response","365","375841","0.0-7.0-1.39","LF","71bdswcm9k","1440","900","0","1","0","5f591a5a9a49e211efead835","","null","","","","","","","learning/Slide120.JPG","null","","","","","",""
"html-keyboard-response","366","376845","0.0-7.0-2.39","LF","71bdswcm9k","1440","900","0","1","0","5f591a5a9a49e211efead835","","null","","","learningBlock2","","","","<div style=""font-size:60px;""> </div>","null","LF","learning/Slide120.JPG","This is a dep:","","",""
"html-keyboard-response","367","377850","0.0-7.0-0.40","LF","71bdswcm9k","1440","900","0","1","0","5f591a5a9a49e211efead835","","null","","","learningBlock2","","","","This is a bim:","null","","","","","",""
"image-keyboard-response","368","378180","0.0-7.0-1.40","LF","71bdswcm9k","1440","900","0","1","0","5f591a5a9a49e211efead835","","null","","","","","","","learning/Slide121.JPG","null","","","","","",""
"html-keyboard-response","369","379181","0.0-7.0-2.40","LF","71bdswcm9k","1440","900","0","1","0","5f591a5a9a49e211efead835","","null","","","learningBlock2","","","","<div style=""font-size:60px;""> </div>","null","LF","learning/Slide121.JPG","This is a bim:","","",""
"html-keyboard-response","370","380186","0.0-7.0-0.41","LF","71bdswcm9k","1440","900","0","1","0","5f591a5a9a49e211efead835","","null","","","learningBlock2","","","","This is a wug:","null","","","","","",""
"image-keyboard-response","371","380513","0.0-7.0-1.41","LF","71bdswcm9k","1440","900","0","1","0","5f591a5a9a49e211efead835","","null","","","","","","","learning/Slide122.JPG","null","","","","","",""
"html-keyboard-response","372","381518","0.0-7.0-2.41","LF","71bdswcm9k","1440","900","0","1","0","5f591a5a9a49e211efead835","","null","","","learningBlock2","","","","<div style=""font-size:60px;""> </div>","null","LF","learning/Slide122.JPG","This is a wug:","","",""
"html-keyboard-response","373","382523","0.0-7.0-0.42","LF","71bdswcm9k","1440","900","0","1","0","5f591a5a9a49e211efead835","","null","","","learningBlock2","","","","This is a bim:","null","","","","","",""
"image-keyboard-response","374","382854","0.0-7.0-1.42","LF","71bdswcm9k","1440","900","0","1","0","5f591a5a9a49e211efead835","","null","","","","","","","learning/Slide123.JPG","null","","","","","",""
"html-keyboard-response","375","383858","0.0-7.0-2.42","LF","71bdswcm9k","1440","900","0","1","0","5f591a5a9a49e211efead835","","null","","","learningBlock2","","","","<div style=""font-size:60px;""> </div>","null","LF","learning/Slide123.JPG","This is a bim:","","",""
"html-keyboard-response","376","384862","0.0-7.0-0.43","LF","71bdswcm9k","1440","900","0","1","0","5f591a5a9a49e211efead835","","null","","","learningBlock2","","","","This is a tob:","null","","","","","",""
"image-keyboard-response","377","385193","0.0-7.0-1.43","LF","71bdswcm9k","1440","900","0","1","0","5f591a5a9a49e211efead835","","null","","","","","","","learning/Slide124.JPG","null","","","","","",""
"html-keyboard-response","378","386197","0.0-7.0-2.43","LF","71bdswcm9k","1440","900","0","1","0","5f591a5a9a49e211efead835","","null","","","learningBlock2","","","","<div style=""font-size:60px;""> </div>","null","LF","learning/Slide124.JPG","This is a tob:","","",""
"html-keyboard-response","379","387202","0.0-7.0-0.44","LF","71bdswcm9k","1440","900","0","1","0","5f591a5a9a49e211efead835","","null","","","learningBlock2","","","","This is a bim:","null","","","","","",""
"image-keyboard-response","380","387532","0.0-7.0-1.44","LF","71bdswcm9k","1440","900","0","1","0","5f591a5a9a49e211efead835","","null","","","","","","","learning/Slide125.JPG","null","","","","","",""
"html-keyboard-response","381","388537","0.0-7.0-2.44","LF","71bdswcm9k","1440","900","0","1","0","5f591a5a9a49e211efead835","","null","","","learningBlock2","","","","<div style=""font-size:60px;""> </div>","null","LF","learning/Slide125.JPG","This is a bim:","","",""
"html-keyboard-response","382","389541","0.0-7.0-0.45","LF","71bdswcm9k","1440","900","0","1","0","5f591a5a9a49e211efead835","","null","","","learningBlock2","","","","This is a tob:","null","","","","","",""
"image-keyboard-response","383","389872","0.0-7.0-1.45","LF","71bdswcm9k","1440","900","0","1","0","5f591a5a9a49e211efead835","","null","","","","","","","learning/Slide126.JPG","null","","","","","",""
"html-keyboard-response","384","390876","0.0-7.0-2.45","LF","71bdswcm9k","1440","900","0","1","0","5f591a5a9a49e211efead835","","null","","","learningBlock2","","","","<div style=""font-size:60px;""> </div>","null","LF","learning/Slide126.JPG","This is a tob:","","",""
"html-keyboard-response","385","391881","0.0-7.0-0.46","LF","71bdswcm9k","1440","900","0","1","0","5f591a5a9a49e211efead835","","null","","","learningBlock2","","","","This is a dep:","null","","","","","",""
"image-keyboard-response","386","392211","0.0-7.0-1.46","LF","71bdswcm9k","1440","900","0","1","0","5f591a5a9a49e211efead835","","null","","","","","","","learning/Slide127.JPG","null","","","","","",""
"html-keyboard-response","387","393213","0.0-7.0-2.46","LF","71bdswcm9k","1440","900","0","1","0","5f591a5a9a49e211efead835","","null","","","learningBlock2","","","","<div style=""font-size:60px;""> </div>","null","LF","learning/Slide127.JPG","This is a dep:","","",""
"html-keyboard-response","388","394217","0.0-7.0-0.47","LF","71bdswcm9k","1440","900","0","1","0","5f591a5a9a49e211efead835","","null","","","learningBlock2","","","","This is a wug:","null","","","","","",""
"image-keyboard-response","389","394551","0.0-7.0-1.47","LF","71bdswcm9k","1440","900","0","1","0","5f591a5a9a49e211efead835","","null","","","","","","","learning/Slide128.JPG","null","","","","","",""
"html-keyboard-response","390","395555","0.0-7.0-2.47","LF","71bdswcm9k","1440","900","0","1","0","5f591a5a9a49e211efead835","","null","","","learningBlock2","","","","<div style=""font-size:60px;""> </div>","null","LF","learning/Slide128.JPG","This is a wug:","","",""
"html-keyboard-response","391","396559","0.0-7.0-0.48","LF","71bdswcm9k","1440","900","0","1","0","5f591a5a9a49e211efead835","","null","","","learningBlock2","","","","This is a tob:","null","","","","","",""
"image-keyboard-response","392","396890","0.0-7.0-1.48","LF","71bdswcm9k","1440","900","0","1","0","5f591a5a9a49e211efead835","","null","","","","","","","learning/Slide129.JPG","null","","","","","",""
"html-keyboard-response","393","397894","0.0-7.0-2.48","LF","71bdswcm9k","1440","900","0","1","0","5f591a5a9a49e211efead835","","null","","","learningBlock2","","","","<div style=""font-size:60px;""> </div>","null","LF","learning/Slide129.JPG","This is a tob:","","",""
"html-keyboard-response","394","398898","0.0-7.0-0.49","LF","71bdswcm9k","1440","900","0","1","0","5f591a5a9a49e211efead835","","null","","","learningBlock2","","","","This is a wug:","null","","","","","",""
"image-keyboard-response","395","399227","0.0-7.0-1.49","LF","71bdswcm9k","1440","900","0","1","0","5f591a5a9a49e211efead835","","null","","","","","","","learning/Slide130.JPG","null","","","","","",""
"html-keyboard-response","396","400234","0.0-7.0-2.49","LF","71bdswcm9k","1440","900","0","1","0","5f591a5a9a49e211efead835","","null","","","learningBlock2","","","","<div style=""font-size:60px;""> </div>","null","LF","learning/Slide130.JPG","This is a wug:","","",""
"html-keyboard-response","397","401238","0.0-7.0-0.50","LF","71bdswcm9k","1440","900","0","1","0","5f591a5a9a49e211efead835","","null","","","learningBlock2","","","","This is a bim:","null","","","","","",""
"image-keyboard-response","398","401569","0.0-7.0-1.50","LF","71bdswcm9k","1440","900","0","1","0","5f591a5a9a49e211efead835","","null","","","","","","","learning/Slide131.JPG","null","","","","","",""
"html-keyboard-response","399","402573","0.0-7.0-2.50","LF","71bdswcm9k","1440","900","0","1","0","5f591a5a9a49e211efead835","","null","","","learningBlock2","","","","<div style=""font-size:60px;""> </div>","null","LF","learning/Slide131.JPG","This is a bim:","","",""
"html-keyboard-response","400","403578","0.0-7.0-0.51","LF","71bdswcm9k","1440","900","0","1","0","5f591a5a9a49e211efead835","","null","","","learningBlock2","","","","This is a dep:","null","","","","","",""
"image-keyboard-response","401","403909","0.0-7.0-1.51","LF","71bdswcm9k","1440","900","0","1","0","5f591a5a9a49e211efead835","","null","","","","","","","learning/Slide132.JPG","null","","","","","",""
"html-keyboard-response","402","404912","0.0-7.0-2.51","LF","71bdswcm9k","1440","900","0","1","0","5f591a5a9a49e211efead835","","null","","","learningBlock2","","","","<div style=""font-size:60px;""> </div>","null","LF","learning/Slide132.JPG","This is a dep:","","",""
"html-keyboard-response","403","405917","0.0-7.0-0.52","LF","71bdswcm9k","1440","900","0","1","0","5f591a5a9a49e211efead835","","null","","","learningBlock2","","","","This is a tob:","null","","","","","",""
"image-keyboard-response","404","406254","0.0-7.0-1.52","LF","71bdswcm9k","1440","900","0","1","0","5f591a5a9a49e211efead835","","null","","","","","","","learning/Slide133.JPG","null","","","","","",""
"html-keyboard-response","405","407258","0.0-7.0-2.52","LF","71bdswcm9k","1440","900","0","1","0","5f591a5a9a49e211efead835","","null","","","learningBlock2","","","","<div style=""font-size:60px;""> </div>","null","LF","learning/Slide133.JPG","This is a tob:","","",""
"html-keyboard-response","406","408263","0.0-7.0-0.53","LF","71bdswcm9k","1440","900","0","1","0","5f591a5a9a49e211efead835","","null","","","learningBlock2","","","","This is a dep:","null","","","","","",""
"image-keyboard-response","407","408593","0.0-7.0-1.53","LF","71bdswcm9k","1440","900","0","1","0","5f591a5a9a49e211efead835","","null","","","","","","","learning/Slide134.JPG","null","","","","","",""
"html-keyboard-response","408","409598","0.0-7.0-2.53","LF","71bdswcm9k","1440","900","0","1","0","5f591a5a9a49e211efead835","","null","","","learningBlock2","","","","<div style=""font-size:60px;""> </div>","null","LF","learning/Slide134.JPG","This is a dep:","","",""
"html-keyboard-response","409","410602","0.0-7.0-0.54","LF","71bdswcm9k","1440","900","0","1","0","5f591a5a9a49e211efead835","","null","","","learningBlock2","","","","This is a tob:","null","","","","","",""
"image-keyboard-response","410","410933","0.0-7.0-1.54","LF","71bdswcm9k","1440","900","0","1","0","5f591a5a9a49e211efead835","","null","","","","","","","learning/Slide135.JPG","null","","","","","",""
"html-keyboard-response","411","411937","0.0-7.0-2.54","LF","71bdswcm9k","1440","900","0","1","0","5f591a5a9a49e211efead835","","null","","","learningBlock2","","","","<div style=""font-size:60px;""> </div>","null","LF","learning/Slide135.JPG","This is a tob:","","",""
"html-keyboard-response","412","412942","0.0-7.0-0.55","LF","71bdswcm9k","1440","900","0","1","0","5f591a5a9a49e211efead835","","null","","","learningBlock2","","","","This is a wug:","null","","","","","",""
"image-keyboard-response","413","413272","0.0-7.0-1.55","LF","71bdswcm9k","1440","900","0","1","0","5f591a5a9a49e211efead835","","null","","","","","","","learning/Slide136.JPG","null","","","","","",""
"html-keyboard-response","414","414277","0.0-7.0-2.55","LF","71bdswcm9k","1440","900","0","1","0","5f591a5a9a49e211efead835","","null","","","learningBlock2","","","","<div style=""font-size:60px;""> </div>","null","LF","learning/Slide136.JPG","This is a wug:","","",""
"html-keyboard-response","415","415281","0.0-7.0-0.56","LF","71bdswcm9k","1440","900","0","1","0","5f591a5a9a49e211efead835","","null","","","learningBlock2","","","","This is a tob:","null","","","","","",""
"image-keyboard-response","416","415618","0.0-7.0-1.56","LF","71bdswcm9k","1440","900","0","1","0","5f591a5a9a49e211efead835","","null","","","","","","","learning/Slide137.JPG","null","","","","","",""
"html-keyboard-response","417","416622","0.0-7.0-2.56","LF","71bdswcm9k","1440","900","0","1","0","5f591a5a9a49e211efead835","","null","","","learningBlock2","","","","<div style=""font-size:60px;""> </div>","null","LF","learning/Slide137.JPG","This is a tob:","","",""
"html-keyboard-response","418","417626","0.0-7.0-0.57","LF","71bdswcm9k","1440","900","0","1","0","5f591a5a9a49e211efead835","","null","","","learningBlock2","","","","This is a bim:","null","","","","","",""
"image-keyboard-response","419","417954","0.0-7.0-1.57","LF","71bdswcm9k","1440","900","0","1","0","5f591a5a9a49e211efead835","","null","","","","","","","learning/Slide138.JPG","null","","","","","",""
"html-keyboard-response","420","418956","0.0-7.0-2.57","LF","71bdswcm9k","1440","900","0","1","0","5f591a5a9a49e211efead835","","null","","","learningBlock2","","","","<div style=""font-size:60px;""> </div>","null","LF","learning/Slide138.JPG","This is a bim:","","",""
"html-keyboard-response","421","419960","0.0-7.0-0.58","LF","71bdswcm9k","1440","900","0","1","0","5f591a5a9a49e211efead835","","null","","","learningBlock2","","","","This is a wug:","null","","","","","",""
"image-keyboard-response","422","420291","0.0-7.0-1.58","LF","71bdswcm9k","1440","900","0","1","0","5f591a5a9a49e211efead835","","null","","","","","","","learning/Slide139.JPG","null","","","","","",""
"html-keyboard-response","423","421295","0.0-7.0-2.58","LF","71bdswcm9k","1440","900","0","1","0","5f591a5a9a49e211efead835","","null","","","learningBlock2","","","","<div style=""font-size:60px;""> </div>","null","LF","learning/Slide139.JPG","This is a wug:","","",""
"html-keyboard-response","424","422300","0.0-7.0-0.59","LF","71bdswcm9k","1440","900","0","1","0","5f591a5a9a49e211efead835","","null","","","learningBlock2","","","","This is a dep:","null","","","","","",""
"image-keyboard-response","425","422630","0.0-7.0-1.59","LF","71bdswcm9k","1440","900","0","1","0","5f591a5a9a49e211efead835","","null","","","","","","","learning/Slide140.JPG","null","","","","","",""
"html-keyboard-response","426","423635","0.0-7.0-2.59","LF","71bdswcm9k","1440","900","0","1","0","5f591a5a9a49e211efead835","","null","","","learningBlock2","","","","<div style=""font-size:60px;""> </div>","null","LF","learning/Slide140.JPG","This is a dep:","","",""
"html-keyboard-response","427","424639","0.0-7.0-0.60","LF","71bdswcm9k","1440","900","0","1","0","5f591a5a9a49e211efead835","","null","","","learningBlock2","","","","This is a tob:","null","","","","","",""
"image-keyboard-response","428","424970","0.0-7.0-1.60","LF","71bdswcm9k","1440","900","0","1","0","5f591a5a9a49e211efead835","","null","","","","","","","learning/Slide141.JPG","null","","","","","",""
"html-keyboard-response","429","425974","0.0-7.0-2.60","LF","71bdswcm9k","1440","900","0","1","0","5f591a5a9a49e211efead835","","null","","","learningBlock2","","","","<div style=""font-size:60px;""> </div>","null","LF","learning/Slide141.JPG","This is a tob:","","",""
"html-keyboard-response","430","426979","0.0-7.0-0.61","LF","71bdswcm9k","1440","900","0","1","0","5f591a5a9a49e211efead835","","null","","","learningBlock2","","","","This is a wug:","null","","","","","",""
"image-keyboard-response","431","427309","0.0-7.0-1.61","LF","71bdswcm9k","1440","900","0","1","0","5f591a5a9a49e211efead835","","null","","","","","","","learning/Slide142.JPG","null","","","","","",""
"html-keyboard-response","432","428314","0.0-7.0-2.61","LF","71bdswcm9k","1440","900","0","1","0","5f591a5a9a49e211efead835","","null","","","learningBlock2","","","","<div style=""font-size:60px;""> </div>","null","LF","learning/Slide142.JPG","This is a wug:","","",""
"html-keyboard-response","433","429316","0.0-7.0-0.62","LF","71bdswcm9k","1440","900","0","1","0","5f591a5a9a49e211efead835","","null","","","learningBlock2","","","","This is a bim:","null","","","","","",""
"image-keyboard-response","434","429645","0.0-7.0-1.62","LF","71bdswcm9k","1440","900","0","1","0","5f591a5a9a49e211efead835","","null","","","","","","","learning/Slide143.JPG","null","","","","","",""
"html-keyboard-response","435","430647","0.0-7.0-2.62","LF","71bdswcm9k","1440","900","0","1","0","5f591a5a9a49e211efead835","","null","","","learningBlock2","","","","<div style=""font-size:60px;""> </div>","null","LF","learning/Slide143.JPG","This is a bim:","","",""
"html-keyboard-response","436","431651","0.0-7.0-0.63","LF","71bdswcm9k","1440","900","0","1","0","5f591a5a9a49e211efead835","","null","","","learningBlock2","","","","This is a dep:","null","","","","","",""
"image-keyboard-response","437","431983","0.0-7.0-1.63","LF","71bdswcm9k","1440","900","0","1","0","5f591a5a9a49e211efead835","","null","","","","","","","learning/Slide144.JPG","null","","","","","",""
