"trial_type","trial_index","time_elapsed","internal_node_id","condition","subject","screen_width","screen_height","attention","distraction","conscientious","prolificID","success","rt","url","view_history","test_part","final_height_px","final_width_px","scale_factor","stimulus","key_press","learningType","presentedImage","presentedLabel","button_pressed","response","responses"
"pavlovia","0","53","0.0-0.0","FL","s80pnsgly8","1280","1024","0","1","0","5ed09b6985143f000c08b6b8","","","","","","","","","","","","","","","",""
"fullscreen","1","21828","0.0-1.0","FL","s80pnsgly8","1280","1024","0","1","0","5ed09b6985143f000c08b6b8","true","","","","","","","","","","","","","","",""
"external-html","2","40107","0.0-2.0-0.0","FL","s80pnsgly8","1280","1024","0","1","0","5ed09b6985143f000c08b6b8","","18168.000000005122","text/information_english.html","","","","","","","","","","","","",""
"external-html","3","48099","0.0-2.0-1.0","FL","s80pnsgly8","1280","1024","0","1","0","5ed09b6985143f000c08b6b8","","7869.999999995343","text/consent_english.html","","","","","","","","","","","","",""
"instructions","4","61060","0.0-3.0","FL","s80pnsgly8","1280","1024","0","1","0","5ed09b6985143f000c08b6b8","","NA","","[{""page_index"":0,""viewing_time"":3413.0000000004657},{""page_index"":1,""viewing_time"":9543.999999994412}]","instructions","","","","","","","","","","",""
"resize","5","91468","0.0-4.0","FL","s80pnsgly8","1280","1024","0","1","0","5ed09b6985143f000c08b6b8","","","","","","","292","1.853968253968254","","","","","","","",""
"image-keyboard-response","6","91654","0.0-5.0-0.0","FL","s80pnsgly8","1280","1024","0","1","0","5ed09b6985143f000c08b6b8","","null","","","","","","","learning/Slide1.JPG","null","","","","","",""
"html-keyboard-response","7","92821","0.0-5.0-1.0","FL","s80pnsgly8","1280","1024","0","1","0","5ed09b6985143f000c08b6b8","","null","","","learningBlock1","","","","That was a tob.","null","","","","","",""
"html-keyboard-response","8","93835","0.0-5.0-2.0","FL","s80pnsgly8","1280","1024","0","1","0","5ed09b6985143f000c08b6b8","","null","","","learningBlock1","","","","<div style=""font-size:60px;""> </div>","null","FL","learning/Slide1.JPG","That was a tob.","","",""
"image-keyboard-response","9","94025","0.0-5.0-0.1","FL","s80pnsgly8","1280","1024","0","1","0","5ed09b6985143f000c08b6b8","","null","","","","","","","learning/Slide2.JPG","null","","","","","",""
"html-keyboard-response","10","95196","0.0-5.0-1.1","FL","s80pnsgly8","1280","1024","0","1","0","5ed09b6985143f000c08b6b8","","null","","","learningBlock1","","","","That was a wug.","null","","","","","",""
"html-keyboard-response","11","96198","0.0-5.0-2.1","FL","s80pnsgly8","1280","1024","0","1","0","5ed09b6985143f000c08b6b8","","null","","","learningBlock1","","","","<div style=""font-size:60px;""> </div>","null","FL","learning/Slide2.JPG","That was a wug.","","",""
"image-keyboard-response","12","96380","0.0-5.0-0.2","FL","s80pnsgly8","1280","1024","0","1","0","5ed09b6985143f000c08b6b8","","null","","","","","","","learning/Slide3.JPG","null","","","","","",""
"html-keyboard-response","13","97537","0.0-5.0-1.2","FL","s80pnsgly8","1280","1024","0","1","0","5ed09b6985143f000c08b6b8","","null","","","learningBlock1","","","","That was a bim.","null","","","","","",""
"html-keyboard-response","14","98539","0.0-5.0-2.2","FL","s80pnsgly8","1280","1024","0","1","0","5ed09b6985143f000c08b6b8","","null","","","learningBlock1","","","","<div style=""font-size:60px;""> </div>","null","FL","learning/Slide3.JPG","That was a bim.","","",""
"image-keyboard-response","15","98723","0.0-5.0-0.3","FL","s80pnsgly8","1280","1024","0","1","0","5ed09b6985143f000c08b6b8","","null","","","","","","","learning/Slide4.JPG","null","","","","","",""
"html-keyboard-response","16","99893","0.0-5.0-1.3","FL","s80pnsgly8","1280","1024","0","1","0","5ed09b6985143f000c08b6b8","","null","","","learningBlock1","","","","That was a dep.","null","","","","","",""
"html-keyboard-response","17","100905","0.0-5.0-2.3","FL","s80pnsgly8","1280","1024","0","1","0","5ed09b6985143f000c08b6b8","","null","","","learningBlock1","","","","<div style=""font-size:60px;""> </div>","null","FL","learning/Slide4.JPG","That was a dep.","","",""
"image-keyboard-response","18","101095","0.0-5.0-0.4","FL","s80pnsgly8","1280","1024","0","1","0","5ed09b6985143f000c08b6b8","","null","","","","","","","learning/Slide5.JPG","null","","","","","",""
"html-keyboard-response","19","102247","0.0-5.0-1.4","FL","s80pnsgly8","1280","1024","0","1","0","5ed09b6985143f000c08b6b8","","null","","","learningBlock1","","","","That was a wug.","null","","","","","",""
"html-keyboard-response","20","103251","0.0-5.0-2.4","FL","s80pnsgly8","1280","1024","0","1","0","5ed09b6985143f000c08b6b8","","null","","","learningBlock1","","","","<div style=""font-size:60px;""> </div>","null","FL","learning/Slide5.JPG","That was a wug.","","",""
"image-keyboard-response","21","103427","0.0-5.0-0.5","FL","s80pnsgly8","1280","1024","0","1","0","5ed09b6985143f000c08b6b8","","null","","","","","","","learning/Slide6.JPG","null","","","","","",""
"html-keyboard-response","22","104578","0.0-5.0-1.5","FL","s80pnsgly8","1280","1024","0","1","0","5ed09b6985143f000c08b6b8","","null","","","learningBlock1","","","","That was a dep.","null","","","","","",""
"html-keyboard-response","23","105579","0.0-5.0-2.5","FL","s80pnsgly8","1280","1024","0","1","0","5ed09b6985143f000c08b6b8","","null","","","learningBlock1","","","","<div style=""font-size:60px;""> </div>","null","FL","learning/Slide6.JPG","That was a dep.","","",""
"image-keyboard-response","24","105755","0.0-5.0-0.6","FL","s80pnsgly8","1280","1024","0","1","0","5ed09b6985143f000c08b6b8","","null","","","","","","","learning/Slide7.JPG","null","","","","","",""
"html-keyboard-response","25","106915","0.0-5.0-1.6","FL","s80pnsgly8","1280","1024","0","1","0","5ed09b6985143f000c08b6b8","","null","","","learningBlock1","","","","That was a wug.","null","","","","","",""
"html-keyboard-response","26","107927","0.0-5.0-2.6","FL","s80pnsgly8","1280","1024","0","1","0","5ed09b6985143f000c08b6b8","","null","","","learningBlock1","","","","<div style=""font-size:60px;""> </div>","null","FL","learning/Slide7.JPG","That was a wug.","","",""
"image-keyboard-response","27","108118","0.0-5.0-0.7","FL","s80pnsgly8","1280","1024","0","1","0","5ed09b6985143f000c08b6b8","","null","","","","","","","learning/Slide8.JPG","null","","","","","",""
"html-keyboard-response","28","109270","0.0-5.0-1.7","FL","s80pnsgly8","1280","1024","0","1","0","5ed09b6985143f000c08b6b8","","null","","","learningBlock1","","","","That was a bim.","null","","","","","",""
"html-keyboard-response","29","110271","0.0-5.0-2.7","FL","s80pnsgly8","1280","1024","0","1","0","5ed09b6985143f000c08b6b8","","null","","","learningBlock1","","","","<div style=""font-size:60px;""> </div>","null","FL","learning/Slide8.JPG","That was a bim.","","",""
"image-keyboard-response","30","110457","0.0-5.0-0.8","FL","s80pnsgly8","1280","1024","0","1","0","5ed09b6985143f000c08b6b8","","null","","","","","","","learning/Slide9.JPG","null","","","","","",""
"html-keyboard-response","31","111611","0.0-5.0-1.8","FL","s80pnsgly8","1280","1024","0","1","0","5ed09b6985143f000c08b6b8","","null","","","learningBlock1","","","","That was a wug.","null","","","","","",""
"html-keyboard-response","32","112621","0.0-5.0-2.8","FL","s80pnsgly8","1280","1024","0","1","0","5ed09b6985143f000c08b6b8","","null","","","learningBlock1","","","","<div style=""font-size:60px;""> </div>","null","FL","learning/Slide9.JPG","That was a wug.","","",""
"image-keyboard-response","33","112813","0.0-5.0-0.9","FL","s80pnsgly8","1280","1024","0","1","0","5ed09b6985143f000c08b6b8","","null","","","","","","","learning/Slide10.JPG","null","","","","","",""
"html-keyboard-response","34","113983","0.0-5.0-1.9","FL","s80pnsgly8","1280","1024","0","1","0","5ed09b6985143f000c08b6b8","","null","","","learningBlock1","","","","That was a dep.","null","","","","","",""
"html-keyboard-response","35","114985","0.0-5.0-2.9","FL","s80pnsgly8","1280","1024","0","1","0","5ed09b6985143f000c08b6b8","","null","","","learningBlock1","","","","<div style=""font-size:60px;""> </div>","null","FL","learning/Slide10.JPG","That was a dep.","","",""
"image-keyboard-response","36","115173","0.0-5.0-0.10","FL","s80pnsgly8","1280","1024","0","1","0","5ed09b6985143f000c08b6b8","","null","","","","","","","learning/Slide11.JPG","null","","","","","",""
"html-keyboard-response","37","116325","0.0-5.0-1.10","FL","s80pnsgly8","1280","1024","0","1","0","5ed09b6985143f000c08b6b8","","null","","","learningBlock1","","","","That was a tob.","null","","","","","",""
"html-keyboard-response","38","117326","0.0-5.0-2.10","FL","s80pnsgly8","1280","1024","0","1","0","5ed09b6985143f000c08b6b8","","null","","","learningBlock1","","","","<div style=""font-size:60px;""> </div>","null","FL","learning/Slide11.JPG","That was a tob.","","",""
"image-keyboard-response","39","117508","0.0-5.0-0.11","FL","s80pnsgly8","1280","1024","0","1","0","5ed09b6985143f000c08b6b8","","null","","","","","","","learning/Slide12.JPG","null","","","","","",""
"html-keyboard-response","40","118659","0.0-5.0-1.11","FL","s80pnsgly8","1280","1024","0","1","0","5ed09b6985143f000c08b6b8","","null","","","learningBlock1","","","","That was a dep.","null","","","","","",""
"html-keyboard-response","41","119662","0.0-5.0-2.11","FL","s80pnsgly8","1280","1024","0","1","0","5ed09b6985143f000c08b6b8","","null","","","learningBlock1","","","","<div style=""font-size:60px;""> </div>","null","FL","learning/Slide12.JPG","That was a dep.","","",""
"image-keyboard-response","42","119853","0.0-5.0-0.12","FL","s80pnsgly8","1280","1024","0","1","0","5ed09b6985143f000c08b6b8","","null","","","","","","","learning/Slide13.JPG","null","","","","","",""
"html-keyboard-response","43","121023","0.0-5.0-1.12","FL","s80pnsgly8","1280","1024","0","1","0","5ed09b6985143f000c08b6b8","","null","","","learningBlock1","","","","That was a bim.","null","","","","","",""
"html-keyboard-response","44","122030","0.0-5.0-2.12","FL","s80pnsgly8","1280","1024","0","1","0","5ed09b6985143f000c08b6b8","","null","","","learningBlock1","","","","<div style=""font-size:60px;""> </div>","null","FL","learning/Slide13.JPG","That was a bim.","","",""
"image-keyboard-response","45","122217","0.0-5.0-0.13","FL","s80pnsgly8","1280","1024","0","1","0","5ed09b6985143f000c08b6b8","","null","","","","","","","learning/Slide14.JPG","null","","","","","",""
"html-keyboard-response","46","123368","0.0-5.0-1.13","FL","s80pnsgly8","1280","1024","0","1","0","5ed09b6985143f000c08b6b8","","null","","","learningBlock1","","","","That was a wug.","null","","","","","",""
"html-keyboard-response","47","124375","0.0-5.0-2.13","FL","s80pnsgly8","1280","1024","0","1","0","5ed09b6985143f000c08b6b8","","null","","","learningBlock1","","","","<div style=""font-size:60px;""> </div>","null","FL","learning/Slide14.JPG","That was a wug.","","",""
"image-keyboard-response","48","124551","0.0-5.0-0.14","FL","s80pnsgly8","1280","1024","0","1","0","5ed09b6985143f000c08b6b8","","null","","","","","","","learning/Slide15.JPG","null","","","","","",""
"html-keyboard-response","49","125706","0.0-5.0-1.14","FL","s80pnsgly8","1280","1024","0","1","0","5ed09b6985143f000c08b6b8","","null","","","learningBlock1","","","","That was a tob.","null","","","","","",""
"html-keyboard-response","50","126721","0.0-5.0-2.14","FL","s80pnsgly8","1280","1024","0","1","0","5ed09b6985143f000c08b6b8","","null","","","learningBlock1","","","","<div style=""font-size:60px;""> </div>","null","FL","learning/Slide15.JPG","That was a tob.","","",""
"image-keyboard-response","51","126911","0.0-5.0-0.15","FL","s80pnsgly8","1280","1024","0","1","0","5ed09b6985143f000c08b6b8","","null","","","","","","","learning/Slide16.JPG","null","","","","","",""
"html-keyboard-response","52","128083","0.0-5.0-1.15","FL","s80pnsgly8","1280","1024","0","1","0","5ed09b6985143f000c08b6b8","","null","","","learningBlock1","","","","That was a dep.","null","","","","","",""
"html-keyboard-response","53","129093","0.0-5.0-2.15","FL","s80pnsgly8","1280","1024","0","1","0","5ed09b6985143f000c08b6b8","","null","","","learningBlock1","","","","<div style=""font-size:60px;""> </div>","null","FL","learning/Slide16.JPG","That was a dep.","","",""
"image-keyboard-response","54","129284","0.0-5.0-0.16","FL","s80pnsgly8","1280","1024","0","1","0","5ed09b6985143f000c08b6b8","","null","","","","","","","learning/Slide17.JPG","null","","","","","",""
"html-keyboard-response","55","130436","0.0-5.0-1.16","FL","s80pnsgly8","1280","1024","0","1","0","5ed09b6985143f000c08b6b8","","null","","","learningBlock1","","","","That was a bim.","null","","","","","",""
"html-keyboard-response","56","131451","0.0-5.0-2.16","FL","s80pnsgly8","1280","1024","0","1","0","5ed09b6985143f000c08b6b8","","null","","","learningBlock1","","","","<div style=""font-size:60px;""> </div>","null","FL","learning/Slide17.JPG","That was a bim.","","",""
"image-keyboard-response","57","131628","0.0-5.0-0.17","FL","s80pnsgly8","1280","1024","0","1","0","5ed09b6985143f000c08b6b8","","null","","","","","","","learning/Slide18.JPG","null","","","","","",""
"html-keyboard-response","58","132779","0.0-5.0-1.17","FL","s80pnsgly8","1280","1024","0","1","0","5ed09b6985143f000c08b6b8","","null","","","learningBlock1","","","","That was a tob.","null","","","","","",""
"html-keyboard-response","59","133795","0.0-5.0-2.17","FL","s80pnsgly8","1280","1024","0","1","0","5ed09b6985143f000c08b6b8","","null","","","learningBlock1","","","","<div style=""font-size:60px;""> </div>","null","FL","learning/Slide18.JPG","That was a tob.","","",""
"image-keyboard-response","60","133984","0.0-5.0-0.18","FL","s80pnsgly8","1280","1024","0","1","0","5ed09b6985143f000c08b6b8","","null","","","","","","","learning/Slide19.JPG","null","","","","","",""
"html-keyboard-response","61","135135","0.0-5.0-1.18","FL","s80pnsgly8","1280","1024","0","1","0","5ed09b6985143f000c08b6b8","","null","","","learningBlock1","","","","That was a wug.","null","","","","","",""
"html-keyboard-response","62","136139","0.0-5.0-2.18","FL","s80pnsgly8","1280","1024","0","1","0","5ed09b6985143f000c08b6b8","","null","","","learningBlock1","","","","<div style=""font-size:60px;""> </div>","null","FL","learning/Slide19.JPG","That was a wug.","","",""
"image-keyboard-response","63","136330","0.0-5.0-0.19","FL","s80pnsgly8","1280","1024","0","1","0","5ed09b6985143f000c08b6b8","","null","","","","","","","learning/Slide20.JPG","null","","","","","",""
"html-keyboard-response","64","137481","0.0-5.0-1.19","FL","s80pnsgly8","1280","1024","0","1","0","5ed09b6985143f000c08b6b8","","null","","","learningBlock1","","","","That was a bim.","null","","","","","",""
"html-keyboard-response","65","138489","0.0-5.0-2.19","FL","s80pnsgly8","1280","1024","0","1","0","5ed09b6985143f000c08b6b8","","null","","","learningBlock1","","","","<div style=""font-size:60px;""> </div>","null","FL","learning/Slide20.JPG","That was a bim.","","",""
"image-keyboard-response","66","138676","0.0-5.0-0.20","FL","s80pnsgly8","1280","1024","0","1","0","5ed09b6985143f000c08b6b8","","null","","","","","","","learning/Slide21.JPG","null","","","","","",""
"html-keyboard-response","67","139833","0.0-5.0-1.20","FL","s80pnsgly8","1280","1024","0","1","0","5ed09b6985143f000c08b6b8","","null","","","learningBlock1","","","","That was a dep.","null","","","","","",""
"html-keyboard-response","68","140839","0.0-5.0-2.20","FL","s80pnsgly8","1280","1024","0","1","0","5ed09b6985143f000c08b6b8","","null","","","learningBlock1","","","","<div style=""font-size:60px;""> </div>","null","FL","learning/Slide21.JPG","That was a dep.","","",""
"image-keyboard-response","69","141030","0.0-5.0-0.21","FL","s80pnsgly8","1280","1024","0","1","0","5ed09b6985143f000c08b6b8","","null","","","","","","","learning/Slide22.JPG","null","","","","","",""
"html-keyboard-response","70","142187","0.0-5.0-1.21","FL","s80pnsgly8","1280","1024","0","1","0","5ed09b6985143f000c08b6b8","","null","","","learningBlock1","","","","That was a bim.","null","","","","","",""
"html-keyboard-response","71","143201","0.0-5.0-2.21","FL","s80pnsgly8","1280","1024","0","1","0","5ed09b6985143f000c08b6b8","","null","","","learningBlock1","","","","<div style=""font-size:60px;""> </div>","null","FL","learning/Slide22.JPG","That was a bim.","","",""
"image-keyboard-response","72","143389","0.0-5.0-0.22","FL","s80pnsgly8","1280","1024","0","1","0","5ed09b6985143f000c08b6b8","","null","","","","","","","learning/Slide23.JPG","null","","","","","",""
"html-keyboard-response","73","144550","0.0-5.0-1.22","FL","s80pnsgly8","1280","1024","0","1","0","5ed09b6985143f000c08b6b8","","null","","","learningBlock1","","","","That was a tob.","null","","","","","",""
"html-keyboard-response","74","145561","0.0-5.0-2.22","FL","s80pnsgly8","1280","1024","0","1","0","5ed09b6985143f000c08b6b8","","null","","","learningBlock1","","","","<div style=""font-size:60px;""> </div>","null","FL","learning/Slide23.JPG","That was a tob.","","",""
"image-keyboard-response","75","145751","0.0-5.0-0.23","FL","s80pnsgly8","1280","1024","0","1","0","5ed09b6985143f000c08b6b8","","null","","","","","","","learning/Slide24.JPG","null","","","","","",""
"html-keyboard-response","76","146909","0.0-5.0-1.23","FL","s80pnsgly8","1280","1024","0","1","0","5ed09b6985143f000c08b6b8","","null","","","learningBlock1","","","","That was a wug.","null","","","","","",""
"html-keyboard-response","77","147915","0.0-5.0-2.23","FL","s80pnsgly8","1280","1024","0","1","0","5ed09b6985143f000c08b6b8","","null","","","learningBlock1","","","","<div style=""font-size:60px;""> </div>","null","FL","learning/Slide24.JPG","That was a wug.","","",""
"image-keyboard-response","78","148105","0.0-5.0-0.24","FL","s80pnsgly8","1280","1024","0","1","0","5ed09b6985143f000c08b6b8","","null","","","","","","","learning/Slide25.JPG","null","","","","","",""
"html-keyboard-response","79","149279","0.0-5.0-1.24","FL","s80pnsgly8","1280","1024","0","1","0","5ed09b6985143f000c08b6b8","","null","","","learningBlock1","","","","That was a dep.","null","","","","","",""
"html-keyboard-response","80","150293","0.0-5.0-2.24","FL","s80pnsgly8","1280","1024","0","1","0","5ed09b6985143f000c08b6b8","","null","","","learningBlock1","","","","<div style=""font-size:60px;""> </div>","null","FL","learning/Slide25.JPG","That was a dep.","","",""
"image-keyboard-response","81","150482","0.0-5.0-0.25","FL","s80pnsgly8","1280","1024","0","1","0","5ed09b6985143f000c08b6b8","","null","","","","","","","learning/Slide26.JPG","null","","","","","",""
"html-keyboard-response","82","151652","0.0-5.0-1.25","FL","s80pnsgly8","1280","1024","0","1","0","5ed09b6985143f000c08b6b8","","null","","","learningBlock1","","","","That was a wug.","null","","","","","",""
"html-keyboard-response","83","152667","0.0-5.0-2.25","FL","s80pnsgly8","1280","1024","0","1","0","5ed09b6985143f000c08b6b8","","null","","","learningBlock1","","","","<div style=""font-size:60px;""> </div>","null","FL","learning/Slide26.JPG","That was a wug.","","",""
"image-keyboard-response","84","152857","0.0-5.0-0.26","FL","s80pnsgly8","1280","1024","0","1","0","5ed09b6985143f000c08b6b8","","null","","","","","","","learning/Slide27.JPG","null","","","","","",""
"html-keyboard-response","85","154007","0.0-5.0-1.26","FL","s80pnsgly8","1280","1024","0","1","0","5ed09b6985143f000c08b6b8","","null","","","learningBlock1","","","","That was a bim.","null","","","","","",""
"html-keyboard-response","86","155022","0.0-5.0-2.26","FL","s80pnsgly8","1280","1024","0","1","0","5ed09b6985143f000c08b6b8","","null","","","learningBlock1","","","","<div style=""font-size:60px;""> </div>","null","FL","learning/Slide27.JPG","That was a bim.","","",""
"image-keyboard-response","87","155211","0.0-5.0-0.27","FL","s80pnsgly8","1280","1024","0","1","0","5ed09b6985143f000c08b6b8","","null","","","","","","","learning/Slide28.JPG","null","","","","","",""
"html-keyboard-response","88","156371","0.0-5.0-1.27","FL","s80pnsgly8","1280","1024","0","1","0","5ed09b6985143f000c08b6b8","","null","","","learningBlock1","","","","That was a dep.","null","","","","","",""
"html-keyboard-response","89","157387","0.0-5.0-2.27","FL","s80pnsgly8","1280","1024","0","1","0","5ed09b6985143f000c08b6b8","","null","","","learningBlock1","","","","<div style=""font-size:60px;""> </div>","null","FL","learning/Slide28.JPG","That was a dep.","","",""
"image-keyboard-response","90","157577","0.0-5.0-0.28","FL","s80pnsgly8","1280","1024","0","1","0","5ed09b6985143f000c08b6b8","","null","","","","","","","learning/Slide29.JPG","null","","","","","",""
"html-keyboard-response","91","158745","0.0-5.0-1.28","FL","s80pnsgly8","1280","1024","0","1","0","5ed09b6985143f000c08b6b8","","null","","","learningBlock1","","","","That was a tob.","null","","","","","",""
"html-keyboard-response","92","159761","0.0-5.0-2.28","FL","s80pnsgly8","1280","1024","0","1","0","5ed09b6985143f000c08b6b8","","null","","","learningBlock1","","","","<div style=""font-size:60px;""> </div>","null","FL","learning/Slide29.JPG","That was a tob.","","",""
"image-keyboard-response","93","159937","0.0-5.0-0.29","FL","s80pnsgly8","1280","1024","0","1","0","5ed09b6985143f000c08b6b8","","null","","","","","","","learning/Slide30.JPG","null","","","","","",""
"html-keyboard-response","94","161087","0.0-5.0-1.29","FL","s80pnsgly8","1280","1024","0","1","0","5ed09b6985143f000c08b6b8","","null","","","learningBlock1","","","","That was a dep.","null","","","","","",""
"html-keyboard-response","95","162091","0.0-5.0-2.29","FL","s80pnsgly8","1280","1024","0","1","0","5ed09b6985143f000c08b6b8","","null","","","learningBlock1","","","","<div style=""font-size:60px;""> </div>","null","FL","learning/Slide30.JPG","That was a dep.","","",""
"image-keyboard-response","96","162267","0.0-5.0-0.30","FL","s80pnsgly8","1280","1024","0","1","0","5ed09b6985143f000c08b6b8","","null","","","","","","","learning/Slide31.JPG","null","","","","","",""
"html-keyboard-response","97","163422","0.0-5.0-1.30","FL","s80pnsgly8","1280","1024","0","1","0","5ed09b6985143f000c08b6b8","","null","","","learningBlock1","","","","That was a wug.","null","","","","","",""
"html-keyboard-response","98","164436","0.0-5.0-2.30","FL","s80pnsgly8","1280","1024","0","1","0","5ed09b6985143f000c08b6b8","","null","","","learningBlock1","","","","<div style=""font-size:60px;""> </div>","null","FL","learning/Slide31.JPG","That was a wug.","","",""
"image-keyboard-response","99","164625","0.0-5.0-0.31","FL","s80pnsgly8","1280","1024","0","1","0","5ed09b6985143f000c08b6b8","","null","","","","","","","learning/Slide32.JPG","null","","","","","",""
"html-keyboard-response","100","165780","0.0-5.0-1.31","FL","s80pnsgly8","1280","1024","0","1","0","5ed09b6985143f000c08b6b8","","null","","","learningBlock1","","","","That was a tob.","null","","","","","",""
"html-keyboard-response","101","166793","0.0-5.0-2.31","FL","s80pnsgly8","1280","1024","0","1","0","5ed09b6985143f000c08b6b8","","null","","","learningBlock1","","","","<div style=""font-size:60px;""> </div>","null","FL","learning/Slide32.JPG","That was a tob.","","",""
"image-keyboard-response","102","166985","0.0-5.0-0.32","FL","s80pnsgly8","1280","1024","0","1","0","5ed09b6985143f000c08b6b8","","null","","","","","","","learning/Slide33.JPG","null","","","","","",""
"html-keyboard-response","103","168137","0.0-5.0-1.32","FL","s80pnsgly8","1280","1024","0","1","0","5ed09b6985143f000c08b6b8","","null","","","learningBlock1","","","","That was a bim.","null","","","","","",""
"html-keyboard-response","104","169150","0.0-5.0-2.32","FL","s80pnsgly8","1280","1024","0","1","0","5ed09b6985143f000c08b6b8","","null","","","learningBlock1","","","","<div style=""font-size:60px;""> </div>","null","FL","learning/Slide33.JPG","That was a bim.","","",""
"image-keyboard-response","105","169340","0.0-5.0-0.33","FL","s80pnsgly8","1280","1024","0","1","0","5ed09b6985143f000c08b6b8","","null","","","","","","","learning/Slide34.JPG","null","","","","","",""
"html-keyboard-response","106","170513","0.0-5.0-1.33","FL","s80pnsgly8","1280","1024","0","1","0","5ed09b6985143f000c08b6b8","","null","","","learningBlock1","","","","That was a tob.","null","","","","","",""
"html-keyboard-response","107","171527","0.0-5.0-2.33","FL","s80pnsgly8","1280","1024","0","1","0","5ed09b6985143f000c08b6b8","","null","","","learningBlock1","","","","<div style=""font-size:60px;""> </div>","null","FL","learning/Slide34.JPG","That was a tob.","","",""
"image-keyboard-response","108","171718","0.0-5.0-0.34","FL","s80pnsgly8","1280","1024","0","1","0","5ed09b6985143f000c08b6b8","","null","","","","","","","learning/Slide35.JPG","null","","","","","",""
"html-keyboard-response","109","172876","0.0-5.0-1.34","FL","s80pnsgly8","1280","1024","0","1","0","5ed09b6985143f000c08b6b8","","null","","","learningBlock1","","","","That was a bim.","null","","","","","",""
"html-keyboard-response","110","173891","0.0-5.0-2.34","FL","s80pnsgly8","1280","1024","0","1","0","5ed09b6985143f000c08b6b8","","null","","","learningBlock1","","","","<div style=""font-size:60px;""> </div>","null","FL","learning/Slide35.JPG","That was a bim.","","",""
"image-keyboard-response","111","174082","0.0-5.0-0.35","FL","s80pnsgly8","1280","1024","0","1","0","5ed09b6985143f000c08b6b8","","null","","","","","","","learning/Slide36.JPG","null","","","","","",""
"html-keyboard-response","112","175240","0.0-5.0-1.35","FL","s80pnsgly8","1280","1024","0","1","0","5ed09b6985143f000c08b6b8","","null","","","learningBlock1","","","","That was a dep.","null","","","","","",""
"html-keyboard-response","113","176252","0.0-5.0-2.35","FL","s80pnsgly8","1280","1024","0","1","0","5ed09b6985143f000c08b6b8","","null","","","learningBlock1","","","","<div style=""font-size:60px;""> </div>","null","FL","learning/Slide36.JPG","That was a dep.","","",""
"image-keyboard-response","114","176428","0.0-5.0-0.36","FL","s80pnsgly8","1280","1024","0","1","0","5ed09b6985143f000c08b6b8","","null","","","","","","","learning/Slide37.JPG","null","","","","","",""
"html-keyboard-response","115","177604","0.0-5.0-1.36","FL","s80pnsgly8","1280","1024","0","1","0","5ed09b6985143f000c08b6b8","","null","","","learningBlock1","","","","That was a tob.","null","","","","","",""
"html-keyboard-response","116","178610","0.0-5.0-2.36","FL","s80pnsgly8","1280","1024","0","1","0","5ed09b6985143f000c08b6b8","","null","","","learningBlock1","","","","<div style=""font-size:60px;""> </div>","null","FL","learning/Slide37.JPG","That was a tob.","","",""
"image-keyboard-response","117","178798","0.0-5.0-0.37","FL","s80pnsgly8","1280","1024","0","1","0","5ed09b6985143f000c08b6b8","","null","","","","","","","learning/Slide38.JPG","null","","","","","",""
"html-keyboard-response","118","179954","0.0-5.0-1.37","FL","s80pnsgly8","1280","1024","0","1","0","5ed09b6985143f000c08b6b8","","null","","","learningBlock1","","","","That was a wug.","null","","","","","",""
"html-keyboard-response","119","180969","0.0-5.0-2.37","FL","s80pnsgly8","1280","1024","0","1","0","5ed09b6985143f000c08b6b8","","null","","","learningBlock1","","","","<div style=""font-size:60px;""> </div>","null","FL","learning/Slide38.JPG","That was a wug.","","",""
"image-keyboard-response","120","181145","0.0-5.0-0.38","FL","s80pnsgly8","1280","1024","0","1","0","5ed09b6985143f000c08b6b8","","null","","","","","","","learning/Slide39.JPG","null","","","","","",""
"html-keyboard-response","121","182309","0.0-5.0-1.38","FL","s80pnsgly8","1280","1024","0","1","0","5ed09b6985143f000c08b6b8","","null","","","learningBlock1","","","","That was a bim.","null","","","","","",""
"html-keyboard-response","122","183313","0.0-5.0-2.38","FL","s80pnsgly8","1280","1024","0","1","0","5ed09b6985143f000c08b6b8","","null","","","learningBlock1","","","","<div style=""font-size:60px;""> </div>","null","FL","learning/Slide39.JPG","That was a bim.","","",""
"image-keyboard-response","123","183504","0.0-5.0-0.39","FL","s80pnsgly8","1280","1024","0","1","0","5ed09b6985143f000c08b6b8","","null","","","","","","","learning/Slide40.JPG","null","","","","","",""
"html-keyboard-response","124","184669","0.0-5.0-1.39","FL","s80pnsgly8","1280","1024","0","1","0","5ed09b6985143f000c08b6b8","","null","","","learningBlock1","","","","That was a tob.","null","","","","","",""
"html-keyboard-response","125","185671","0.0-5.0-2.39","FL","s80pnsgly8","1280","1024","0","1","0","5ed09b6985143f000c08b6b8","","null","","","learningBlock1","","","","<div style=""font-size:60px;""> </div>","null","FL","learning/Slide40.JPG","That was a tob.","","",""
"image-keyboard-response","126","185847","0.0-5.0-0.40","FL","s80pnsgly8","1280","1024","0","1","0","5ed09b6985143f000c08b6b8","","null","","","","","","","learning/Slide41.JPG","null","","","","","",""
"html-keyboard-response","127","187021","0.0-5.0-1.40","FL","s80pnsgly8","1280","1024","0","1","0","5ed09b6985143f000c08b6b8","","null","","","learningBlock1","","","","That was a bim.","null","","","","","",""
"html-keyboard-response","128","188034","0.0-5.0-2.40","FL","s80pnsgly8","1280","1024","0","1","0","5ed09b6985143f000c08b6b8","","null","","","learningBlock1","","","","<div style=""font-size:60px;""> </div>","null","FL","learning/Slide41.JPG","That was a bim.","","",""
"image-keyboard-response","129","188225","0.0-5.0-0.41","FL","s80pnsgly8","1280","1024","0","1","0","5ed09b6985143f000c08b6b8","","null","","","","","","","learning/Slide42.JPG","null","","","","","",""
"html-keyboard-response","130","189387","0.0-5.0-1.41","FL","s80pnsgly8","1280","1024","0","1","0","5ed09b6985143f000c08b6b8","","null","","","learningBlock1","","","","That was a dep.","null","","","","","",""
"html-keyboard-response","131","190389","0.0-5.0-2.41","FL","s80pnsgly8","1280","1024","0","1","0","5ed09b6985143f000c08b6b8","","null","","","learningBlock1","","","","<div style=""font-size:60px;""> </div>","null","FL","learning/Slide42.JPG","That was a dep.","","",""
"image-keyboard-response","132","190565","0.0-5.0-0.42","FL","s80pnsgly8","1280","1024","0","1","0","5ed09b6985143f000c08b6b8","","null","","","","","","","learning/Slide43.JPG","null","","","","","",""
"html-keyboard-response","133","191729","0.0-5.0-1.42","FL","s80pnsgly8","1280","1024","0","1","0","5ed09b6985143f000c08b6b8","","null","","","learningBlock1","","","","That was a wug.","null","","","","","",""
"html-keyboard-response","134","192731","0.0-5.0-2.42","FL","s80pnsgly8","1280","1024","0","1","0","5ed09b6985143f000c08b6b8","","null","","","learningBlock1","","","","<div style=""font-size:60px;""> </div>","null","FL","learning/Slide43.JPG","That was a wug.","","",""
"image-keyboard-response","135","192907","0.0-5.0-0.43","FL","s80pnsgly8","1280","1024","0","1","0","5ed09b6985143f000c08b6b8","","null","","","","","","","learning/Slide44.JPG","null","","","","","",""
"html-keyboard-response","136","194071","0.0-5.0-1.43","FL","s80pnsgly8","1280","1024","0","1","0","5ed09b6985143f000c08b6b8","","null","","","learningBlock1","","","","That was a bim.","null","","","","","",""
"html-keyboard-response","137","195085","0.0-5.0-2.43","FL","s80pnsgly8","1280","1024","0","1","0","5ed09b6985143f000c08b6b8","","null","","","learningBlock1","","","","<div style=""font-size:60px;""> </div>","null","FL","learning/Slide44.JPG","That was a bim.","","",""
"image-keyboard-response","138","195261","0.0-5.0-0.44","FL","s80pnsgly8","1280","1024","0","1","0","5ed09b6985143f000c08b6b8","","null","","","","","","","learning/Slide45.JPG","null","","","","","",""
"html-keyboard-response","139","196411","0.0-5.0-1.44","FL","s80pnsgly8","1280","1024","0","1","0","5ed09b6985143f000c08b6b8","","null","","","learningBlock1","","","","That was a wug.","null","","","","","",""
"html-keyboard-response","140","197416","0.0-5.0-2.44","FL","s80pnsgly8","1280","1024","0","1","0","5ed09b6985143f000c08b6b8","","null","","","learningBlock1","","","","<div style=""font-size:60px;""> </div>","null","FL","learning/Slide45.JPG","That was a wug.","","",""
"image-keyboard-response","141","197605","0.0-5.0-0.45","FL","s80pnsgly8","1280","1024","0","1","0","5ed09b6985143f000c08b6b8","","null","","","","","","","learning/Slide46.JPG","null","","","","","",""
"html-keyboard-response","142","198761","0.0-5.0-1.45","FL","s80pnsgly8","1280","1024","0","1","0","5ed09b6985143f000c08b6b8","","null","","","learningBlock1","","","","That was a dep.","null","","","","","",""
"html-keyboard-response","143","199775","0.0-5.0-2.45","FL","s80pnsgly8","1280","1024","0","1","0","5ed09b6985143f000c08b6b8","","null","","","learningBlock1","","","","<div style=""font-size:60px;""> </div>","null","FL","learning/Slide46.JPG","That was a dep.","","",""
"image-keyboard-response","144","199965","0.0-5.0-0.46","FL","s80pnsgly8","1280","1024","0","1","0","5ed09b6985143f000c08b6b8","","null","","","","","","","learning/Slide47.JPG","null","","","","","",""
"html-keyboard-response","145","201125","0.0-5.0-1.46","FL","s80pnsgly8","1280","1024","0","1","0","5ed09b6985143f000c08b6b8","","null","","","learningBlock1","","","","That was a tob.","null","","","","","",""
"html-keyboard-response","146","202139","0.0-5.0-2.46","FL","s80pnsgly8","1280","1024","0","1","0","5ed09b6985143f000c08b6b8","","null","","","learningBlock1","","","","<div style=""font-size:60px;""> </div>","null","FL","learning/Slide47.JPG","That was a tob.","","",""
"image-keyboard-response","147","202330","0.0-5.0-0.47","FL","s80pnsgly8","1280","1024","0","1","0","5ed09b6985143f000c08b6b8","","null","","","","","","","learning/Slide48.JPG","null","","","","","",""
"html-keyboard-response","148","203490","0.0-5.0-1.47","FL","s80pnsgly8","1280","1024","0","1","0","5ed09b6985143f000c08b6b8","","null","","","learningBlock1","","","","That was a bim.","null","","","","","",""
"html-keyboard-response","149","204501","0.0-5.0-2.47","FL","s80pnsgly8","1280","1024","0","1","0","5ed09b6985143f000c08b6b8","","null","","","learningBlock1","","","","<div style=""font-size:60px;""> </div>","null","FL","learning/Slide48.JPG","That was a bim.","","",""
"image-keyboard-response","150","204689","0.0-5.0-0.48","FL","s80pnsgly8","1280","1024","0","1","0","5ed09b6985143f000c08b6b8","","null","","","","","","","learning/Slide49.JPG","null","","","","","",""
"html-keyboard-response","151","205847","0.0-5.0-1.48","FL","s80pnsgly8","1280","1024","0","1","0","5ed09b6985143f000c08b6b8","","null","","","learningBlock1","","","","That was a dep.","null","","","","","",""
"html-keyboard-response","152","206853","0.0-5.0-2.48","FL","s80pnsgly8","1280","1024","0","1","0","5ed09b6985143f000c08b6b8","","null","","","learningBlock1","","","","<div style=""font-size:60px;""> </div>","null","FL","learning/Slide49.JPG","That was a dep.","","",""
"image-keyboard-response","153","207044","0.0-5.0-0.49","FL","s80pnsgly8","1280","1024","0","1","0","5ed09b6985143f000c08b6b8","","null","","","","","","","learning/Slide50.JPG","null","","","","","",""
"html-keyboard-response","154","208202","0.0-5.0-1.49","FL","s80pnsgly8","1280","1024","0","1","0","5ed09b6985143f000c08b6b8","","null","","","learningBlock1","","","","That was a tob.","null","","","","","",""
"html-keyboard-response","155","209214","0.0-5.0-2.49","FL","s80pnsgly8","1280","1024","0","1","0","5ed09b6985143f000c08b6b8","","null","","","learningBlock1","","","","<div style=""font-size:60px;""> </div>","null","FL","learning/Slide50.JPG","That was a tob.","","",""
"image-keyboard-response","156","209394","0.0-5.0-0.50","FL","s80pnsgly8","1280","1024","0","1","0","5ed09b6985143f000c08b6b8","","null","","","","","","","learning/Slide51.JPG","null","","","","","",""
"html-keyboard-response","157","210574","0.0-5.0-1.50","FL","s80pnsgly8","1280","1024","0","1","0","5ed09b6985143f000c08b6b8","","null","","","learningBlock1","","","","That was a bim.","null","","","","","",""
"html-keyboard-response","158","211589","0.0-5.0-2.50","FL","s80pnsgly8","1280","1024","0","1","0","5ed09b6985143f000c08b6b8","","null","","","learningBlock1","","","","<div style=""font-size:60px;""> </div>","null","FL","learning/Slide51.JPG","That was a bim.","","",""
"image-keyboard-response","159","211778","0.0-5.0-0.51","FL","s80pnsgly8","1280","1024","0","1","0","5ed09b6985143f000c08b6b8","","null","","","","","","","learning/Slide52.JPG","null","","","","","",""
"html-keyboard-response","160","212952","0.0-5.0-1.51","FL","s80pnsgly8","1280","1024","0","1","0","5ed09b6985143f000c08b6b8","","null","","","learningBlock1","","","","That was a wug.","null","","","","","",""
"html-keyboard-response","161","213966","0.0-5.0-2.51","FL","s80pnsgly8","1280","1024","0","1","0","5ed09b6985143f000c08b6b8","","null","","","learningBlock1","","","","<div style=""font-size:60px;""> </div>","null","FL","learning/Slide52.JPG","That was a wug.","","",""
"image-keyboard-response","162","214152","0.0-5.0-0.52","FL","s80pnsgly8","1280","1024","0","1","0","5ed09b6985143f000c08b6b8","","null","","","","","","","learning/Slide53.JPG","null","","","","","",""
"html-keyboard-response","163","215310","0.0-5.0-1.52","FL","s80pnsgly8","1280","1024","0","1","0","5ed09b6985143f000c08b6b8","","null","","","learningBlock1","","","","That was a tob.","null","","","","","",""
"html-keyboard-response","164","216316","0.0-5.0-2.52","FL","s80pnsgly8","1280","1024","0","1","0","5ed09b6985143f000c08b6b8","","null","","","learningBlock1","","","","<div style=""font-size:60px;""> </div>","null","FL","learning/Slide53.JPG","That was a tob.","","",""
"image-keyboard-response","165","216506","0.0-5.0-0.53","FL","s80pnsgly8","1280","1024","0","1","0","5ed09b6985143f000c08b6b8","","null","","","","","","","learning/Slide54.JPG","null","","","","","",""
"html-keyboard-response","166","217666","0.0-5.0-1.53","FL","s80pnsgly8","1280","1024","0","1","0","5ed09b6985143f000c08b6b8","","null","","","learningBlock1","","","","That was a dep.","null","","","","","",""
"html-keyboard-response","167","218673","0.0-5.0-2.53","FL","s80pnsgly8","1280","1024","0","1","0","5ed09b6985143f000c08b6b8","","null","","","learningBlock1","","","","<div style=""font-size:60px;""> </div>","null","FL","learning/Slide54.JPG","That was a dep.","","",""
"image-keyboard-response","168","218858","0.0-5.0-0.54","FL","s80pnsgly8","1280","1024","0","1","0","5ed09b6985143f000c08b6b8","","null","","","","","","","learning/Slide55.JPG","null","","","","","",""
"html-keyboard-response","169","220031","0.0-5.0-1.54","FL","s80pnsgly8","1280","1024","0","1","0","5ed09b6985143f000c08b6b8","","null","","","learningBlock1","","","","That was a bim.","null","","","","","",""
"html-keyboard-response","170","221042","0.0-5.0-2.54","FL","s80pnsgly8","1280","1024","0","1","0","5ed09b6985143f000c08b6b8","","null","","","learningBlock1","","","","<div style=""font-size:60px;""> </div>","null","FL","learning/Slide55.JPG","That was a bim.","","",""
"image-keyboard-response","171","221233","0.0-5.0-0.55","FL","s80pnsgly8","1280","1024","0","1","0","5ed09b6985143f000c08b6b8","","null","","","","","","","learning/Slide56.JPG","null","","","","","",""
"html-keyboard-response","172","222392","0.0-5.0-1.55","FL","s80pnsgly8","1280","1024","0","1","0","5ed09b6985143f000c08b6b8","","null","","","learningBlock1","","","","That was a tob.","null","","","","","",""
"html-keyboard-response","173","223400","0.0-5.0-2.55","FL","s80pnsgly8","1280","1024","0","1","0","5ed09b6985143f000c08b6b8","","null","","","learningBlock1","","","","<div style=""font-size:60px;""> </div>","null","FL","learning/Slide56.JPG","That was a tob.","","",""
"image-keyboard-response","174","223590","0.0-5.0-0.56","FL","s80pnsgly8","1280","1024","0","1","0","5ed09b6985143f000c08b6b8","","null","","","","","","","learning/Slide57.JPG","null","","","","","",""
"html-keyboard-response","175","224749","0.0-5.0-1.56","FL","s80pnsgly8","1280","1024","0","1","0","5ed09b6985143f000c08b6b8","","null","","","learningBlock1","","","","That was a dep.","null","","","","","",""
"html-keyboard-response","176","225760","0.0-5.0-2.56","FL","s80pnsgly8","1280","1024","0","1","0","5ed09b6985143f000c08b6b8","","null","","","learningBlock1","","","","<div style=""font-size:60px;""> </div>","null","FL","learning/Slide57.JPG","That was a dep.","","",""
"image-keyboard-response","177","225951","0.0-5.0-0.57","FL","s80pnsgly8","1280","1024","0","1","0","5ed09b6985143f000c08b6b8","","null","","","","","","","learning/Slide58.JPG","null","","","","","",""
"html-keyboard-response","178","227104","0.0-5.0-1.57","FL","s80pnsgly8","1280","1024","0","1","0","5ed09b6985143f000c08b6b8","","null","","","learningBlock1","","","","That was a wug.","null","","","","","",""
"html-keyboard-response","179","228106","0.0-5.0-2.57","FL","s80pnsgly8","1280","1024","0","1","0","5ed09b6985143f000c08b6b8","","null","","","learningBlock1","","","","<div style=""font-size:60px;""> </div>","null","FL","learning/Slide58.JPG","That was a wug.","","",""
"image-keyboard-response","180","228297","0.0-5.0-0.58","FL","s80pnsgly8","1280","1024","0","1","0","5ed09b6985143f000c08b6b8","","null","","","","","","","learning/Slide59.JPG","null","","","","","",""
"html-keyboard-response","181","229454","0.0-5.0-1.58","FL","s80pnsgly8","1280","1024","0","1","0","5ed09b6985143f000c08b6b8","","null","","","learningBlock1","","","","That was a dep.","null","","","","","",""
"html-keyboard-response","182","230462","0.0-5.0-2.58","FL","s80pnsgly8","1280","1024","0","1","0","5ed09b6985143f000c08b6b8","","null","","","learningBlock1","","","","<div style=""font-size:60px;""> </div>","null","FL","learning/Slide59.JPG","That was a dep.","","",""
"image-keyboard-response","183","230653","0.0-5.0-0.59","FL","s80pnsgly8","1280","1024","0","1","0","5ed09b6985143f000c08b6b8","","null","","","","","","","learning/Slide60.JPG","null","","","","","",""
"html-keyboard-response","184","231810","0.0-5.0-1.59","FL","s80pnsgly8","1280","1024","0","1","0","5ed09b6985143f000c08b6b8","","null","","","learningBlock1","","","","That was a wug.","null","","","","","",""
"html-keyboard-response","185","232824","0.0-5.0-2.59","FL","s80pnsgly8","1280","1024","0","1","0","5ed09b6985143f000c08b6b8","","null","","","learningBlock1","","","","<div style=""font-size:60px;""> </div>","null","FL","learning/Slide60.JPG","That was a wug.","","",""
"image-keyboard-response","186","233015","0.0-5.0-0.60","FL","s80pnsgly8","1280","1024","0","1","0","5ed09b6985143f000c08b6b8","","null","","","","","","","learning/Slide61.JPG","null","","","","","",""
"html-keyboard-response","187","234186","0.0-5.0-1.60","FL","s80pnsgly8","1280","1024","0","1","0","5ed09b6985143f000c08b6b8","","null","","","learningBlock1","","","","That was a bim.","null","","","","","",""
"html-keyboard-response","188","235194","0.0-5.0-2.60","FL","s80pnsgly8","1280","1024","0","1","0","5ed09b6985143f000c08b6b8","","null","","","learningBlock1","","","","<div style=""font-size:60px;""> </div>","null","FL","learning/Slide61.JPG","That was a bim.","","",""
"image-keyboard-response","189","235384","0.0-5.0-0.61","FL","s80pnsgly8","1280","1024","0","1","0","5ed09b6985143f000c08b6b8","","null","","","","","","","learning/Slide62.JPG","null","","","","","",""
"html-keyboard-response","190","236542","0.0-5.0-1.61","FL","s80pnsgly8","1280","1024","0","1","0","5ed09b6985143f000c08b6b8","","null","","","learningBlock1","","","","That was a dep.","null","","","","","",""
"html-keyboard-response","191","237552","0.0-5.0-2.61","FL","s80pnsgly8","1280","1024","0","1","0","5ed09b6985143f000c08b6b8","","null","","","learningBlock1","","","","<div style=""font-size:60px;""> </div>","null","FL","learning/Slide62.JPG","That was a dep.","","",""
"image-keyboard-response","192","237742","0.0-5.0-0.62","FL","s80pnsgly8","1280","1024","0","1","0","5ed09b6985143f000c08b6b8","","null","","","","","","","learning/Slide63.JPG","null","","","","","",""
"html-keyboard-response","193","238913","0.0-5.0-1.62","FL","s80pnsgly8","1280","1024","0","1","0","5ed09b6985143f000c08b6b8","","null","","","learningBlock1","","","","That was a bim.","null","","","","","",""
"html-keyboard-response","194","239915","0.0-5.0-2.62","FL","s80pnsgly8","1280","1024","0","1","0","5ed09b6985143f000c08b6b8","","null","","","learningBlock1","","","","<div style=""font-size:60px;""> </div>","null","FL","learning/Slide63.JPG","That was a bim.","","",""
"image-keyboard-response","195","240103","0.0-5.0-0.63","FL","s80pnsgly8","1280","1024","0","1","0","5ed09b6985143f000c08b6b8","","null","","","","","","","learning/Slide64.JPG","null","","","","","",""
"html-keyboard-response","196","241254","0.0-5.0-1.63","FL","s80pnsgly8","1280","1024","0","1","0","5ed09b6985143f000c08b6b8","","null","","","learningBlock1","","","","That was a tob.","null","","","","","",""
"html-keyboard-response","197","242257","0.0-5.0-2.63","FL","s80pnsgly8","1280","1024","0","1","0","5ed09b6985143f000c08b6b8","","null","","","learningBlock1","","","","<div style=""font-size:60px;""> </div>","null","FL","learning/Slide64.JPG","That was a tob.","","",""
"image-keyboard-response","198","242448","0.0-5.0-0.64","FL","s80pnsgly8","1280","1024","0","1","0","5ed09b6985143f000c08b6b8","","null","","","","","","","learning/Slide65.JPG","null","","","","","",""
"html-keyboard-response","199","243608","0.0-5.0-1.64","FL","s80pnsgly8","1280","1024","0","1","0","5ed09b6985143f000c08b6b8","","null","","","learningBlock1","","","","That was a wug.","null","","","","","",""
"html-keyboard-response","200","244617","0.0-5.0-2.64","FL","s80pnsgly8","1280","1024","0","1","0","5ed09b6985143f000c08b6b8","","null","","","learningBlock1","","","","<div style=""font-size:60px;""> </div>","null","FL","learning/Slide65.JPG","That was a wug.","","",""
"image-keyboard-response","201","244808","0.0-5.0-0.65","FL","s80pnsgly8","1280","1024","0","1","0","5ed09b6985143f000c08b6b8","","null","","","","","","","learning/Slide66.JPG","null","","","","","",""
"html-keyboard-response","202","245967","0.0-5.0-1.65","FL","s80pnsgly8","1280","1024","0","1","0","5ed09b6985143f000c08b6b8","","null","","","learningBlock1","","","","That was a dep.","null","","","","","",""
"html-keyboard-response","203","246977","0.0-5.0-2.65","FL","s80pnsgly8","1280","1024","0","1","0","5ed09b6985143f000c08b6b8","","null","","","learningBlock1","","","","<div style=""font-size:60px;""> </div>","null","FL","learning/Slide66.JPG","That was a dep.","","",""
"image-keyboard-response","204","247153","0.0-5.0-0.66","FL","s80pnsgly8","1280","1024","0","1","0","5ed09b6985143f000c08b6b8","","null","","","","","","","learning/Slide67.JPG","null","","","","","",""
"html-keyboard-response","205","248321","0.0-5.0-1.66","FL","s80pnsgly8","1280","1024","0","1","0","5ed09b6985143f000c08b6b8","","null","","","learningBlock1","","","","That was a tob.","null","","","","","",""
"html-keyboard-response","206","249337","0.0-5.0-2.66","FL","s80pnsgly8","1280","1024","0","1","0","5ed09b6985143f000c08b6b8","","null","","","learningBlock1","","","","<div style=""font-size:60px;""> </div>","null","FL","learning/Slide67.JPG","That was a tob.","","",""
"image-keyboard-response","207","249527","0.0-5.0-0.67","FL","s80pnsgly8","1280","1024","0","1","0","5ed09b6985143f000c08b6b8","","null","","","","","","","learning/Slide68.JPG","null","","","","","",""
"html-keyboard-response","208","250685","0.0-5.0-1.67","FL","s80pnsgly8","1280","1024","0","1","0","5ed09b6985143f000c08b6b8","","null","","","learningBlock1","","","","That was a wug.","null","","","","","",""
"html-keyboard-response","209","251687","0.0-5.0-2.67","FL","s80pnsgly8","1280","1024","0","1","0","5ed09b6985143f000c08b6b8","","null","","","learningBlock1","","","","<div style=""font-size:60px;""> </div>","null","FL","learning/Slide68.JPG","That was a wug.","","",""
"image-keyboard-response","210","251878","0.0-5.0-0.68","FL","s80pnsgly8","1280","1024","0","1","0","5ed09b6985143f000c08b6b8","","null","","","","","","","learning/Slide69.JPG","null","","","","","",""
"html-keyboard-response","211","253035","0.0-5.0-1.68","FL","s80pnsgly8","1280","1024","0","1","0","5ed09b6985143f000c08b6b8","","null","","","learningBlock1","","","","That was a tob.","null","","","","","",""
"html-keyboard-response","212","254051","0.0-5.0-2.68","FL","s80pnsgly8","1280","1024","0","1","0","5ed09b6985143f000c08b6b8","","null","","","learningBlock1","","","","<div style=""font-size:60px;""> </div>","null","FL","learning/Slide69.JPG","That was a tob.","","",""
"image-keyboard-response","213","254227","0.0-5.0-0.69","FL","s80pnsgly8","1280","1024","0","1","0","5ed09b6985143f000c08b6b8","","null","","","","","","","learning/Slide70.JPG","null","","","","","",""
"html-keyboard-response","214","255401","0.0-5.0-1.69","FL","s80pnsgly8","1280","1024","0","1","0","5ed09b6985143f000c08b6b8","","null","","","learningBlock1","","","","That was a dep.","null","","","","","",""
"html-keyboard-response","215","256414","0.0-5.0-2.69","FL","s80pnsgly8","1280","1024","0","1","0","5ed09b6985143f000c08b6b8","","null","","","learningBlock1","","","","<div style=""font-size:60px;""> </div>","null","FL","learning/Slide70.JPG","That was a dep.","","",""
"image-keyboard-response","216","256603","0.0-5.0-0.70","FL","s80pnsgly8","1280","1024","0","1","0","5ed09b6985143f000c08b6b8","","null","","","","","","","learning/Slide71.JPG","null","","","","","",""
"html-keyboard-response","217","257754","0.0-5.0-1.70","FL","s80pnsgly8","1280","1024","0","1","0","5ed09b6985143f000c08b6b8","","null","","","learningBlock1","","","","That was a wug.","null","","","","","",""
"html-keyboard-response","218","258763","0.0-5.0-2.70","FL","s80pnsgly8","1280","1024","0","1","0","5ed09b6985143f000c08b6b8","","null","","","learningBlock1","","","","<div style=""font-size:60px;""> </div>","null","FL","learning/Slide71.JPG","That was a wug.","","",""
"image-keyboard-response","219","258953","0.0-5.0-0.71","FL","s80pnsgly8","1280","1024","0","1","0","5ed09b6985143f000c08b6b8","","null","","","","","","","learning/Slide72.JPG","null","","","","","",""
"html-keyboard-response","220","260126","0.0-5.0-1.71","FL","s80pnsgly8","1280","1024","0","1","0","5ed09b6985143f000c08b6b8","","null","","","learningBlock1","","","","That was a bim.","null","","","","","",""
"html-keyboard-response","221","261140","0.0-5.0-2.71","FL","s80pnsgly8","1280","1024","0","1","0","5ed09b6985143f000c08b6b8","","null","","","learningBlock1","","","","<div style=""font-size:60px;""> </div>","null","FL","learning/Slide72.JPG","That was a bim.","","",""
"image-keyboard-response","222","261331","0.0-5.0-0.72","FL","s80pnsgly8","1280","1024","0","1","0","5ed09b6985143f000c08b6b8","","null","","","","","","","learning/Slide73.JPG","null","","","","","",""
"html-keyboard-response","223","262489","0.0-5.0-1.72","FL","s80pnsgly8","1280","1024","0","1","0","5ed09b6985143f000c08b6b8","","null","","","learningBlock1","","","","That was a wug.","null","","","","","",""
"html-keyboard-response","224","263492","0.0-5.0-2.72","FL","s80pnsgly8","1280","1024","0","1","0","5ed09b6985143f000c08b6b8","","null","","","learningBlock1","","","","<div style=""font-size:60px;""> </div>","null","FL","learning/Slide73.JPG","That was a wug.","","",""
"image-keyboard-response","225","263681","0.0-5.0-0.73","FL","s80pnsgly8","1280","1024","0","1","0","5ed09b6985143f000c08b6b8","","null","","","","","","","learning/Slide74.JPG","null","","","","","",""
"html-keyboard-response","226","264840","0.0-5.0-1.73","FL","s80pnsgly8","1280","1024","0","1","0","5ed09b6985143f000c08b6b8","","null","","","learningBlock1","","","","That was a dep.","null","","","","","",""
"html-keyboard-response","227","265853","0.0-5.0-2.73","FL","s80pnsgly8","1280","1024","0","1","0","5ed09b6985143f000c08b6b8","","null","","","learningBlock1","","","","<div style=""font-size:60px;""> </div>","null","FL","learning/Slide74.JPG","That was a dep.","","",""
"image-keyboard-response","228","266042","0.0-5.0-0.74","FL","s80pnsgly8","1280","1024","0","1","0","5ed09b6985143f000c08b6b8","","null","","","","","","","learning/Slide75.JPG","null","","","","","",""
"html-keyboard-response","229","267215","0.0-5.0-1.74","FL","s80pnsgly8","1280","1024","0","1","0","5ed09b6985143f000c08b6b8","","null","","","learningBlock1","","","","That was a tob.","null","","","","","",""
"html-keyboard-response","230","268226","0.0-5.0-2.74","FL","s80pnsgly8","1280","1024","0","1","0","5ed09b6985143f000c08b6b8","","null","","","learningBlock1","","","","<div style=""font-size:60px;""> </div>","null","FL","learning/Slide75.JPG","That was a tob.","","",""
"image-keyboard-response","231","268402","0.0-5.0-0.75","FL","s80pnsgly8","1280","1024","0","1","0","5ed09b6985143f000c08b6b8","","null","","","","","","","learning/Slide76.JPG","null","","","","","",""
"html-keyboard-response","232","269560","0.0-5.0-1.75","FL","s80pnsgly8","1280","1024","0","1","0","5ed09b6985143f000c08b6b8","","null","","","learningBlock1","","","","That was a bim.","null","","","","","",""
"html-keyboard-response","233","270568","0.0-5.0-2.75","FL","s80pnsgly8","1280","1024","0","1","0","5ed09b6985143f000c08b6b8","","null","","","learningBlock1","","","","<div style=""font-size:60px;""> </div>","null","FL","learning/Slide76.JPG","That was a bim.","","",""
"image-keyboard-response","234","270758","0.0-5.0-0.76","FL","s80pnsgly8","1280","1024","0","1","0","5ed09b6985143f000c08b6b8","","null","","","","","","","learning/Slide77.JPG","null","","","","","",""
"html-keyboard-response","235","271919","0.0-5.0-1.76","FL","s80pnsgly8","1280","1024","0","1","0","5ed09b6985143f000c08b6b8","","null","","","learningBlock1","","","","That was a tob.","null","","","","","",""
"html-keyboard-response","236","272926","0.0-5.0-2.76","FL","s80pnsgly8","1280","1024","0","1","0","5ed09b6985143f000c08b6b8","","null","","","learningBlock1","","","","<div style=""font-size:60px;""> </div>","null","FL","learning/Slide77.JPG","That was a tob.","","",""
"image-keyboard-response","237","273117","0.0-5.0-0.77","FL","s80pnsgly8","1280","1024","0","1","0","5ed09b6985143f000c08b6b8","","null","","","","","","","learning/Slide78.JPG","null","","","","","",""
"html-keyboard-response","238","274286","0.0-5.0-1.77","FL","s80pnsgly8","1280","1024","0","1","0","5ed09b6985143f000c08b6b8","","null","","","learningBlock1","","","","That was a wug.","null","","","","","",""
"html-keyboard-response","239","275296","0.0-5.0-2.77","FL","s80pnsgly8","1280","1024","0","1","0","5ed09b6985143f000c08b6b8","","null","","","learningBlock1","","","","<div style=""font-size:60px;""> </div>","null","FL","learning/Slide78.JPG","That was a wug.","","",""
"image-keyboard-response","240","275487","0.0-5.0-0.78","FL","s80pnsgly8","1280","1024","0","1","0","5ed09b6985143f000c08b6b8","","null","","","","","","","learning/Slide79.JPG","null","","","","","",""
"html-keyboard-response","241","276650","0.0-5.0-1.78","FL","s80pnsgly8","1280","1024","0","1","0","5ed09b6985143f000c08b6b8","","null","","","learningBlock1","","","","That was a bim.","null","","","","","",""
"html-keyboard-response","242","277662","0.0-5.0-2.78","FL","s80pnsgly8","1280","1024","0","1","0","5ed09b6985143f000c08b6b8","","null","","","learningBlock1","","","","<div style=""font-size:60px;""> </div>","null","FL","learning/Slide79.JPG","That was a bim.","","",""
"image-keyboard-response","243","277853","0.0-5.0-0.79","FL","s80pnsgly8","1280","1024","0","1","0","5ed09b6985143f000c08b6b8","","null","","","","","","","learning/Slide80.JPG","null","","","","","",""
"html-keyboard-response","244","279011","0.0-5.0-1.79","FL","s80pnsgly8","1280","1024","0","1","0","5ed09b6985143f000c08b6b8","","null","","","learningBlock1","","","","That was a tob.","null","","","","","",""
"html-keyboard-response","245","280023","0.0-5.0-2.79","FL","s80pnsgly8","1280","1024","0","1","0","5ed09b6985143f000c08b6b8","","null","","","learningBlock1","","","","<div style=""font-size:60px;""> </div>","null","FL","learning/Slide80.JPG","That was a tob.","","",""
"instructions","246","283236","0.0-6.0","FL","s80pnsgly8","1280","1024","0","1","0","5ed09b6985143f000c08b6b8","","NA","","[{""page_index"":0,""viewing_time"":3210.999999952037}]","instructions","","","","","","","","","","",""
"image-keyboard-response","247","283422","0.0-7.0-0.0","FL","s80pnsgly8","1280","1024","0","1","0","5ed09b6985143f000c08b6b8","","null","","","","","","","learning/Slide81.JPG","null","","","","","",""
"html-keyboard-response","248","284583","0.0-7.0-1.0","FL","s80pnsgly8","1280","1024","0","1","0","5ed09b6985143f000c08b6b8","","null","","","learningBlock2","","","","That was a wug.","null","","","","","",""
"html-keyboard-response","249","285595","0.0-7.0-2.0","FL","s80pnsgly8","1280","1024","0","1","0","5ed09b6985143f000c08b6b8","","null","","","learningBlock2","","","","<div style=""font-size:60px;""> </div>","null","FL","learning/Slide81.JPG","That was a wug.","","",""
"image-keyboard-response","250","285783","0.0-7.0-0.1","FL","s80pnsgly8","1280","1024","0","1","0","5ed09b6985143f000c08b6b8","","null","","","","","","","learning/Slide82.JPG","null","","","","","",""
"html-keyboard-response","251","286952","0.0-7.0-1.1","FL","s80pnsgly8","1280","1024","0","1","0","5ed09b6985143f000c08b6b8","","null","","","learningBlock2","","","","That was a bim.","null","","","","","",""
"html-keyboard-response","252","287968","0.0-7.0-2.1","FL","s80pnsgly8","1280","1024","0","1","0","5ed09b6985143f000c08b6b8","","null","","","learningBlock2","","","","<div style=""font-size:60px;""> </div>","null","FL","learning/Slide82.JPG","That was a bim.","","",""
"image-keyboard-response","253","288158","0.0-7.0-0.2","FL","s80pnsgly8","1280","1024","0","1","0","5ed09b6985143f000c08b6b8","","null","","","","","","","learning/Slide83.JPG","null","","","","","",""
"html-keyboard-response","254","289331","0.0-7.0-1.2","FL","s80pnsgly8","1280","1024","0","1","0","5ed09b6985143f000c08b6b8","","null","","","learningBlock2","","","","That was a wug.","null","","","","","",""
"html-keyboard-response","255","290332","0.0-7.0-2.2","FL","s80pnsgly8","1280","1024","0","1","0","5ed09b6985143f000c08b6b8","","null","","","learningBlock2","","","","<div style=""font-size:60px;""> </div>","null","FL","learning/Slide83.JPG","That was a wug.","","",""
"image-keyboard-response","256","290508","0.0-7.0-0.3","FL","s80pnsgly8","1280","1024","0","1","0","5ed09b6985143f000c08b6b8","","null","","","","","","","learning/Slide84.JPG","null","","","","","",""
"html-keyboard-response","257","291667","0.0-7.0-1.3","FL","s80pnsgly8","1280","1024","0","1","0","5ed09b6985143f000c08b6b8","","null","","","learningBlock2","","","","That was a dep.","null","","","","","",""
"html-keyboard-response","258","292682","0.0-7.0-2.3","FL","s80pnsgly8","1280","1024","0","1","0","5ed09b6985143f000c08b6b8","","null","","","learningBlock2","","","","<div style=""font-size:60px;""> </div>","null","FL","learning/Slide84.JPG","That was a dep.","","",""
"image-keyboard-response","259","292871","0.0-7.0-0.4","FL","s80pnsgly8","1280","1024","0","1","0","5ed09b6985143f000c08b6b8","","null","","","","","","","learning/Slide85.JPG","null","","","","","",""
"html-keyboard-response","260","294027","0.0-7.0-1.4","FL","s80pnsgly8","1280","1024","0","1","0","5ed09b6985143f000c08b6b8","","null","","","learningBlock2","","","","That was a bim.","null","","","","","",""
"html-keyboard-response","261","295038","0.0-7.0-2.4","FL","s80pnsgly8","1280","1024","0","1","0","5ed09b6985143f000c08b6b8","","null","","","learningBlock2","","","","<div style=""font-size:60px;""> </div>","null","FL","learning/Slide85.JPG","That was a bim.","","",""
"image-keyboard-response","262","295229","0.0-7.0-0.5","FL","s80pnsgly8","1280","1024","0","1","0","5ed09b6985143f000c08b6b8","","null","","","","","","","learning/Slide86.JPG","null","","","","","",""
"html-keyboard-response","263","296388","0.0-7.0-1.5","FL","s80pnsgly8","1280","1024","0","1","0","5ed09b6985143f000c08b6b8","","null","","","learningBlock2","","","","That was a tob.","null","","","","","",""
"html-keyboard-response","264","297389","0.0-7.0-2.5","FL","s80pnsgly8","1280","1024","0","1","0","5ed09b6985143f000c08b6b8","","null","","","learningBlock2","","","","<div style=""font-size:60px;""> </div>","null","FL","learning/Slide86.JPG","That was a tob.","","",""
"image-keyboard-response","265","297565","0.0-7.0-0.6","FL","s80pnsgly8","1280","1024","0","1","0","5ed09b6985143f000c08b6b8","","null","","","","","","","learning/Slide87.JPG","null","","","","","",""
"html-keyboard-response","266","298729","0.0-7.0-1.6","FL","s80pnsgly8","1280","1024","0","1","0","5ed09b6985143f000c08b6b8","","null","","","learningBlock2","","","","That was a wug.","null","","","","","",""
"html-keyboard-response","267","299742","0.0-7.0-2.6","FL","s80pnsgly8","1280","1024","0","1","0","5ed09b6985143f000c08b6b8","","null","","","learningBlock2","","","","<div style=""font-size:60px;""> </div>","null","FL","learning/Slide87.JPG","That was a wug.","","",""
"image-keyboard-response","268","299933","0.0-7.0-0.7","FL","s80pnsgly8","1280","1024","0","1","0","5ed09b6985143f000c08b6b8","","null","","","","","","","learning/Slide88.JPG","null","","","","","",""
"html-keyboard-response","269","301104","0.0-7.0-1.7","FL","s80pnsgly8","1280","1024","0","1","0","5ed09b6985143f000c08b6b8","","null","","","learningBlock2","","","","That was a tob.","null","","","","","",""
"html-keyboard-response","270","302118","0.0-7.0-2.7","FL","s80pnsgly8","1280","1024","0","1","0","5ed09b6985143f000c08b6b8","","null","","","learningBlock2","","","","<div style=""font-size:60px;""> </div>","null","FL","learning/Slide88.JPG","That was a tob.","","",""
"image-keyboard-response","271","302309","0.0-7.0-0.8","FL","s80pnsgly8","1280","1024","0","1","0","5ed09b6985143f000c08b6b8","","null","","","","","","","learning/Slide89.JPG","null","","","","","",""
"html-keyboard-response","272","303468","0.0-7.0-1.8","FL","s80pnsgly8","1280","1024","0","1","0","5ed09b6985143f000c08b6b8","","null","","","learningBlock2","","","","That was a bim.","null","","","","","",""
"html-keyboard-response","273","304483","0.0-7.0-2.8","FL","s80pnsgly8","1280","1024","0","1","0","5ed09b6985143f000c08b6b8","","null","","","learningBlock2","","","","<div style=""font-size:60px;""> </div>","null","FL","learning/Slide89.JPG","That was a bim.","","",""
"image-keyboard-response","274","304672","0.0-7.0-0.9","FL","s80pnsgly8","1280","1024","0","1","0","5ed09b6985143f000c08b6b8","","null","","","","","","","learning/Slide90.JPG","null","","","","","",""
"html-keyboard-response","275","305844","0.0-7.0-1.9","FL","s80pnsgly8","1280","1024","0","1","0","5ed09b6985143f000c08b6b8","","null","","","learningBlock2","","","","That was a dep.","null","","","","","",""
"html-keyboard-response","276","306858","0.0-7.0-2.9","FL","s80pnsgly8","1280","1024","0","1","0","5ed09b6985143f000c08b6b8","","null","","","learningBlock2","","","","<div style=""font-size:60px;""> </div>","null","FL","learning/Slide90.JPG","That was a dep.","","",""
"image-keyboard-response","277","307034","0.0-7.0-0.10","FL","s80pnsgly8","1280","1024","0","1","0","5ed09b6985143f000c08b6b8","","null","","","","","","","learning/Slide91.JPG","null","","","","","",""
"html-keyboard-response","278","308208","0.0-7.0-1.10","FL","s80pnsgly8","1280","1024","0","1","0","5ed09b6985143f000c08b6b8","","null","","","learningBlock2","","","","That was a wug.","null","","","","","",""
"html-keyboard-response","279","309222","0.0-7.0-2.10","FL","s80pnsgly8","1280","1024","0","1","0","5ed09b6985143f000c08b6b8","","null","","","learningBlock2","","","","<div style=""font-size:60px;""> </div>","null","FL","learning/Slide91.JPG","That was a wug.","","",""
"image-keyboard-response","280","309412","0.0-7.0-0.11","FL","s80pnsgly8","1280","1024","0","1","0","5ed09b6985143f000c08b6b8","","null","","","","","","","learning/Slide92.JPG","null","","","","","",""
"html-keyboard-response","281","310564","0.0-7.0-1.11","FL","s80pnsgly8","1280","1024","0","1","0","5ed09b6985143f000c08b6b8","","null","","","learningBlock2","","","","That was a tob.","null","","","","","",""
"html-keyboard-response","282","311578","0.0-7.0-2.11","FL","s80pnsgly8","1280","1024","0","1","0","5ed09b6985143f000c08b6b8","","null","","","learningBlock2","","","","<div style=""font-size:60px;""> </div>","null","FL","learning/Slide92.JPG","That was a tob.","","",""
"image-keyboard-response","283","311766","0.0-7.0-0.12","FL","s80pnsgly8","1280","1024","0","1","0","5ed09b6985143f000c08b6b8","","null","","","","","","","learning/Slide93.JPG","null","","","","","",""
"html-keyboard-response","284","312926","0.0-7.0-1.12","FL","s80pnsgly8","1280","1024","0","1","0","5ed09b6985143f000c08b6b8","","null","","","learningBlock2","","","","That was a bim.","null","","","","","",""
"html-keyboard-response","285","313936","0.0-7.0-2.12","FL","s80pnsgly8","1280","1024","0","1","0","5ed09b6985143f000c08b6b8","","null","","","learningBlock2","","","","<div style=""font-size:60px;""> </div>","null","FL","learning/Slide93.JPG","That was a bim.","","",""
"image-keyboard-response","286","314126","0.0-7.0-0.13","FL","s80pnsgly8","1280","1024","0","1","0","5ed09b6985143f000c08b6b8","","null","","","","","","","learning/Slide94.JPG","null","","","","","",""
"html-keyboard-response","287","315285","0.0-7.0-1.13","FL","s80pnsgly8","1280","1024","0","1","0","5ed09b6985143f000c08b6b8","","null","","","learningBlock2","","","","That was a tob.","null","","","","","",""
"html-keyboard-response","288","316294","0.0-7.0-2.13","FL","s80pnsgly8","1280","1024","0","1","0","5ed09b6985143f000c08b6b8","","null","","","learningBlock2","","","","<div style=""font-size:60px;""> </div>","null","FL","learning/Slide94.JPG","That was a tob.","","",""
"image-keyboard-response","289","316485","0.0-7.0-0.14","FL","s80pnsgly8","1280","1024","0","1","0","5ed09b6985143f000c08b6b8","","null","","","","","","","learning/Slide95.JPG","null","","","","","",""
"html-keyboard-response","290","317654","0.0-7.0-1.14","FL","s80pnsgly8","1280","1024","0","1","0","5ed09b6985143f000c08b6b8","","null","","","learningBlock2","","","","That was a wug.","null","","","","","",""
"html-keyboard-response","291","318668","0.0-7.0-2.14","FL","s80pnsgly8","1280","1024","0","1","0","5ed09b6985143f000c08b6b8","","null","","","learningBlock2","","","","<div style=""font-size:60px;""> </div>","null","FL","learning/Slide95.JPG","That was a wug.","","",""
"image-keyboard-response","292","318858","0.0-7.0-0.15","FL","s80pnsgly8","1280","1024","0","1","0","5ed09b6985143f000c08b6b8","","null","","","","","","","learning/Slide96.JPG","null","","","","","",""
"html-keyboard-response","293","320012","0.0-7.0-1.15","FL","s80pnsgly8","1280","1024","0","1","0","5ed09b6985143f000c08b6b8","","null","","","learningBlock2","","","","That was a tob.","null","","","","","",""
"html-keyboard-response","294","321026","0.0-7.0-2.15","FL","s80pnsgly8","1280","1024","0","1","0","5ed09b6985143f000c08b6b8","","null","","","learningBlock2","","","","<div style=""font-size:60px;""> </div>","null","FL","learning/Slide96.JPG","That was a tob.","","",""
"image-keyboard-response","295","321217","0.0-7.0-0.16","FL","s80pnsgly8","1280","1024","0","1","0","5ed09b6985143f000c08b6b8","","null","","","","","","","learning/Slide97.JPG","null","","","","","",""
"html-keyboard-response","296","322388","0.0-7.0-1.16","FL","s80pnsgly8","1280","1024","0","1","0","5ed09b6985143f000c08b6b8","","null","","","learningBlock2","","","","That was a dep.","null","","","","","",""
"html-keyboard-response","297","323404","0.0-7.0-2.16","FL","s80pnsgly8","1280","1024","0","1","0","5ed09b6985143f000c08b6b8","","null","","","learningBlock2","","","","<div style=""font-size:60px;""> </div>","null","FL","learning/Slide97.JPG","That was a dep.","","",""
"image-keyboard-response","298","323594","0.0-7.0-0.17","FL","s80pnsgly8","1280","1024","0","1","0","5ed09b6985143f000c08b6b8","","null","","","","","","","learning/Slide98.JPG","null","","","","","",""
"html-keyboard-response","299","324750","0.0-7.0-1.17","FL","s80pnsgly8","1280","1024","0","1","0","5ed09b6985143f000c08b6b8","","null","","","learningBlock2","","","","That was a bim.","null","","","","","",""
"html-keyboard-response","300","325762","0.0-7.0-2.17","FL","s80pnsgly8","1280","1024","0","1","0","5ed09b6985143f000c08b6b8","","null","","","learningBlock2","","","","<div style=""font-size:60px;""> </div>","null","FL","learning/Slide98.JPG","That was a bim.","","",""
"image-keyboard-response","301","325952","0.0-7.0-0.18","FL","s80pnsgly8","1280","1024","0","1","0","5ed09b6985143f000c08b6b8","","null","","","","","","","learning/Slide99.JPG","null","","","","","",""
"html-keyboard-response","302","327124","0.0-7.0-1.18","FL","s80pnsgly8","1280","1024","0","1","0","5ed09b6985143f000c08b6b8","","null","","","learningBlock2","","","","That was a dep.","null","","","","","",""
"html-keyboard-response","303","328139","0.0-7.0-2.18","FL","s80pnsgly8","1280","1024","0","1","0","5ed09b6985143f000c08b6b8","","null","","","learningBlock2","","","","<div style=""font-size:60px;""> </div>","null","FL","learning/Slide99.JPG","That was a dep.","","",""
"image-keyboard-response","304","328328","0.0-7.0-0.19","FL","s80pnsgly8","1280","1024","0","1","0","5ed09b6985143f000c08b6b8","","null","","","","","","","learning/Slide100.JPG","null","","","","","",""
"html-keyboard-response","305","329478","0.0-7.0-1.19","FL","s80pnsgly8","1280","1024","0","1","0","5ed09b6985143f000c08b6b8","","null","","","learningBlock2","","","","That was a bim.","null","","","","","",""
"html-keyboard-response","306","330484","0.0-7.0-2.19","FL","s80pnsgly8","1280","1024","0","1","0","5ed09b6985143f000c08b6b8","","null","","","learningBlock2","","","","<div style=""font-size:60px;""> </div>","null","FL","learning/Slide100.JPG","That was a bim.","","",""
"image-keyboard-response","307","330672","0.0-7.0-0.20","FL","s80pnsgly8","1280","1024","0","1","0","5ed09b6985143f000c08b6b8","","null","","","","","","","learning/Slide101.JPG","null","","","","","",""
"html-keyboard-response","308","331844","0.0-7.0-1.20","FL","s80pnsgly8","1280","1024","0","1","0","5ed09b6985143f000c08b6b8","","null","","","learningBlock2","","","","That was a tob.","null","","","","","",""
"html-keyboard-response","309","332846","0.0-7.0-2.20","FL","s80pnsgly8","1280","1024","0","1","0","5ed09b6985143f000c08b6b8","","null","","","learningBlock2","","","","<div style=""font-size:60px;""> </div>","null","FL","learning/Slide101.JPG","That was a tob.","","",""
"image-keyboard-response","310","333037","0.0-7.0-0.21","FL","s80pnsgly8","1280","1024","0","1","0","5ed09b6985143f000c08b6b8","","null","","","","","","","learning/Slide102.JPG","null","","","","","",""
"html-keyboard-response","311","334197","0.0-7.0-1.21","FL","s80pnsgly8","1280","1024","0","1","0","5ed09b6985143f000c08b6b8","","null","","","learningBlock2","","","","That was a bim.","null","","","","","",""
"html-keyboard-response","312","335212","0.0-7.0-2.21","FL","s80pnsgly8","1280","1024","0","1","0","5ed09b6985143f000c08b6b8","","null","","","learningBlock2","","","","<div style=""font-size:60px;""> </div>","null","FL","learning/Slide102.JPG","That was a bim.","","",""
"image-keyboard-response","313","335400","0.0-7.0-0.22","FL","s80pnsgly8","1280","1024","0","1","0","5ed09b6985143f000c08b6b8","","null","","","","","","","learning/Slide103.JPG","null","","","","","",""
"html-keyboard-response","314","336572","0.0-7.0-1.22","FL","s80pnsgly8","1280","1024","0","1","0","5ed09b6985143f000c08b6b8","","null","","","learningBlock2","","","","That was a dep.","null","","","","","",""
"html-keyboard-response","315","337586","0.0-7.0-2.22","FL","s80pnsgly8","1280","1024","0","1","0","5ed09b6985143f000c08b6b8","","null","","","learningBlock2","","","","<div style=""font-size:60px;""> </div>","null","FL","learning/Slide103.JPG","That was a dep.","","",""
"image-keyboard-response","316","337777","0.0-7.0-0.23","FL","s80pnsgly8","1280","1024","0","1","0","5ed09b6985143f000c08b6b8","","null","","","","","","","learning/Slide104.JPG","null","","","","","",""
"html-keyboard-response","317","338934","0.0-7.0-1.23","FL","s80pnsgly8","1280","1024","0","1","0","5ed09b6985143f000c08b6b8","","null","","","learningBlock2","","","","That was a tob.","null","","","","","",""
"html-keyboard-response","318","339947","0.0-7.0-2.23","FL","s80pnsgly8","1280","1024","0","1","0","5ed09b6985143f000c08b6b8","","null","","","learningBlock2","","","","<div style=""font-size:60px;""> </div>","null","FL","learning/Slide104.JPG","That was a tob.","","",""
"image-keyboard-response","319","340138","0.0-7.0-0.24","FL","s80pnsgly8","1280","1024","0","1","0","5ed09b6985143f000c08b6b8","","null","","","","","","","learning/Slide105.JPG","null","","","","","",""
"html-keyboard-response","320","341296","0.0-7.0-1.24","FL","s80pnsgly8","1280","1024","0","1","0","5ed09b6985143f000c08b6b8","","null","","","learningBlock2","","","","That was a dep.","null","","","","","",""
"html-keyboard-response","321","342306","0.0-7.0-2.24","FL","s80pnsgly8","1280","1024","0","1","0","5ed09b6985143f000c08b6b8","","null","","","learningBlock2","","","","<div style=""font-size:60px;""> </div>","null","FL","learning/Slide105.JPG","That was a dep.","","",""
"image-keyboard-response","322","342494","0.0-7.0-0.25","FL","s80pnsgly8","1280","1024","0","1","0","5ed09b6985143f000c08b6b8","","null","","","","","","","learning/Slide106.JPG","null","","","","","",""
"html-keyboard-response","323","343655","0.0-7.0-1.25","FL","s80pnsgly8","1280","1024","0","1","0","5ed09b6985143f000c08b6b8","","null","","","learningBlock2","","","","That was a wug.","null","","","","","",""
"html-keyboard-response","324","344657","0.0-7.0-2.25","FL","s80pnsgly8","1280","1024","0","1","0","5ed09b6985143f000c08b6b8","","null","","","learningBlock2","","","","<div style=""font-size:60px;""> </div>","null","FL","learning/Slide106.JPG","That was a wug.","","",""
"image-keyboard-response","325","344848","0.0-7.0-0.26","FL","s80pnsgly8","1280","1024","0","1","0","5ed09b6985143f000c08b6b8","","null","","","","","","","learning/Slide107.JPG","null","","","","","",""
"html-keyboard-response","326","346015","0.0-7.0-1.26","FL","s80pnsgly8","1280","1024","0","1","0","5ed09b6985143f000c08b6b8","","null","","","learningBlock2","","","","That was a bim.","null","","","","","",""
"html-keyboard-response","327","347030","0.0-7.0-2.26","FL","s80pnsgly8","1280","1024","0","1","0","5ed09b6985143f000c08b6b8","","null","","","learningBlock2","","","","<div style=""font-size:60px;""> </div>","null","FL","learning/Slide107.JPG","That was a bim.","","",""
"image-keyboard-response","328","347220","0.0-7.0-0.27","FL","s80pnsgly8","1280","1024","0","1","0","5ed09b6985143f000c08b6b8","","null","","","","","","","learning/Slide108.JPG","null","","","","","",""
"html-keyboard-response","329","348392","0.0-7.0-1.27","FL","s80pnsgly8","1280","1024","0","1","0","5ed09b6985143f000c08b6b8","","null","","","learningBlock2","","","","That was a dep.","null","","","","","",""
"html-keyboard-response","330","349394","0.0-7.0-2.27","FL","s80pnsgly8","1280","1024","0","1","0","5ed09b6985143f000c08b6b8","","null","","","learningBlock2","","","","<div style=""font-size:60px;""> </div>","null","FL","learning/Slide108.JPG","That was a dep.","","",""
"image-keyboard-response","331","349582","0.0-7.0-0.28","FL","s80pnsgly8","1280","1024","0","1","0","5ed09b6985143f000c08b6b8","","null","","","","","","","learning/Slide109.JPG","null","","","","","",""
"html-keyboard-response","332","350735","0.0-7.0-1.28","FL","s80pnsgly8","1280","1024","0","1","0","5ed09b6985143f000c08b6b8","","null","","","learningBlock2","","","","That was a wug.","null","","","","","",""
"html-keyboard-response","333","351744","0.0-7.0-2.28","FL","s80pnsgly8","1280","1024","0","1","0","5ed09b6985143f000c08b6b8","","null","","","learningBlock2","","","","<div style=""font-size:60px;""> </div>","null","FL","learning/Slide109.JPG","That was a wug.","","",""
"image-keyboard-response","334","351935","0.0-7.0-0.29","FL","s80pnsgly8","1280","1024","0","1","0","5ed09b6985143f000c08b6b8","","null","","","","","","","learning/Slide110.JPG","null","","","","","",""
"html-keyboard-response","335","353106","0.0-7.0-1.29","FL","s80pnsgly8","1280","1024","0","1","0","5ed09b6985143f000c08b6b8","","null","","","learningBlock2","","","","That was a bim.","null","","","","","",""
"html-keyboard-response","336","354112","0.0-7.0-2.29","FL","s80pnsgly8","1280","1024","0","1","0","5ed09b6985143f000c08b6b8","","null","","","learningBlock2","","","","<div style=""font-size:60px;""> </div>","null","FL","learning/Slide110.JPG","That was a bim.","","",""
"image-keyboard-response","337","354303","0.0-7.0-0.30","FL","s80pnsgly8","1280","1024","0","1","0","5ed09b6985143f000c08b6b8","","null","","","","","","","learning/Slide111.JPG","null","","","","","",""
"html-keyboard-response","338","355460","0.0-7.0-1.30","FL","s80pnsgly8","1280","1024","0","1","0","5ed09b6985143f000c08b6b8","","null","","","learningBlock2","","","","That was a tob.","null","","","","","",""
"html-keyboard-response","339","356475","0.0-7.0-2.30","FL","s80pnsgly8","1280","1024","0","1","0","5ed09b6985143f000c08b6b8","","null","","","learningBlock2","","","","<div style=""font-size:60px;""> </div>","null","FL","learning/Slide111.JPG","That was a tob.","","",""
"image-keyboard-response","340","356662","0.0-7.0-0.31","FL","s80pnsgly8","1280","1024","0","1","0","5ed09b6985143f000c08b6b8","","null","","","","","","","learning/Slide112.JPG","null","","","","","",""
"html-keyboard-response","341","357822","0.0-7.0-1.31","FL","s80pnsgly8","1280","1024","0","1","0","5ed09b6985143f000c08b6b8","","null","","","learningBlock2","","","","That was a wug.","null","","","","","",""
"html-keyboard-response","342","358826","0.0-7.0-2.31","FL","s80pnsgly8","1280","1024","0","1","0","5ed09b6985143f000c08b6b8","","null","","","learningBlock2","","","","<div style=""font-size:60px;""> </div>","null","FL","learning/Slide112.JPG","That was a wug.","","",""
"image-keyboard-response","343","359017","0.0-7.0-0.32","FL","s80pnsgly8","1280","1024","0","1","0","5ed09b6985143f000c08b6b8","","null","","","","","","","learning/Slide113.JPG","null","","","","","",""
"html-keyboard-response","344","360184","0.0-7.0-1.32","FL","s80pnsgly8","1280","1024","0","1","0","5ed09b6985143f000c08b6b8","","null","","","learningBlock2","","","","That was a tob.","null","","","","","",""
"html-keyboard-response","345","361196","0.0-7.0-2.32","FL","s80pnsgly8","1280","1024","0","1","0","5ed09b6985143f000c08b6b8","","null","","","learningBlock2","","","","<div style=""font-size:60px;""> </div>","null","FL","learning/Slide113.JPG","That was a tob.","","",""
"image-keyboard-response","346","361372","0.0-7.0-0.33","FL","s80pnsgly8","1280","1024","0","1","0","5ed09b6985143f000c08b6b8","","null","","","","","","","learning/Slide114.JPG","null","","","","","",""
"html-keyboard-response","347","362544","0.0-7.0-1.33","FL","s80pnsgly8","1280","1024","0","1","0","5ed09b6985143f000c08b6b8","","null","","","learningBlock2","","","","That was a wug.","null","","","","","",""
"html-keyboard-response","348","363558","0.0-7.0-2.33","FL","s80pnsgly8","1280","1024","0","1","0","5ed09b6985143f000c08b6b8","","null","","","learningBlock2","","","","<div style=""font-size:60px;""> </div>","null","FL","learning/Slide114.JPG","That was a wug.","","",""
"image-keyboard-response","349","363746","0.0-7.0-0.34","FL","s80pnsgly8","1280","1024","0","1","0","5ed09b6985143f000c08b6b8","","null","","","","","","","learning/Slide115.JPG","null","","","","","",""
"html-keyboard-response","350","364898","0.0-7.0-1.34","FL","s80pnsgly8","1280","1024","0","1","0","5ed09b6985143f000c08b6b8","","null","","","learningBlock2","","","","That was a bim.","null","","","","","",""
"html-keyboard-response","351","365899","0.0-7.0-2.34","FL","s80pnsgly8","1280","1024","0","1","0","5ed09b6985143f000c08b6b8","","null","","","learningBlock2","","","","<div style=""font-size:60px;""> </div>","null","FL","learning/Slide115.JPG","That was a bim.","","",""
"image-keyboard-response","352","366078","0.0-7.0-0.35","FL","s80pnsgly8","1280","1024","0","1","0","5ed09b6985143f000c08b6b8","","null","","","","","","","learning/Slide116.JPG","null","","","","","",""
"html-keyboard-response","353","367248","0.0-7.0-1.35","FL","s80pnsgly8","1280","1024","0","1","0","5ed09b6985143f000c08b6b8","","null","","","learningBlock2","","","","That was a dep.","null","","","","","",""
"html-keyboard-response","354","368262","0.0-7.0-2.35","FL","s80pnsgly8","1280","1024","0","1","0","5ed09b6985143f000c08b6b8","","null","","","learningBlock2","","","","<div style=""font-size:60px;""> </div>","null","FL","learning/Slide116.JPG","That was a dep.","","",""
"image-keyboard-response","355","368453","0.0-7.0-0.36","FL","s80pnsgly8","1280","1024","0","1","0","5ed09b6985143f000c08b6b8","","null","","","","","","","learning/Slide117.JPG","null","","","","","",""
"html-keyboard-response","356","369611","0.0-7.0-1.36","FL","s80pnsgly8","1280","1024","0","1","0","5ed09b6985143f000c08b6b8","","null","","","learningBlock2","","","","That was a tob.","null","","","","","",""
"html-keyboard-response","357","370622","0.0-7.0-2.36","FL","s80pnsgly8","1280","1024","0","1","0","5ed09b6985143f000c08b6b8","","null","","","learningBlock2","","","","<div style=""font-size:60px;""> </div>","null","FL","learning/Slide117.JPG","That was a tob.","","",""
"image-keyboard-response","358","370812","0.0-7.0-0.37","FL","s80pnsgly8","1280","1024","0","1","0","5ed09b6985143f000c08b6b8","","null","","","","","","","learning/Slide118.JPG","null","","","","","",""
"html-keyboard-response","359","371971","0.0-7.0-1.37","FL","s80pnsgly8","1280","1024","0","1","0","5ed09b6985143f000c08b6b8","","null","","","learningBlock2","","","","That was a dep.","null","","","","","",""
"html-keyboard-response","360","372982","0.0-7.0-2.37","FL","s80pnsgly8","1280","1024","0","1","0","5ed09b6985143f000c08b6b8","","null","","","learningBlock2","","","","<div style=""font-size:60px;""> </div>","null","FL","learning/Slide118.JPG","That was a dep.","","",""
"image-keyboard-response","361","373172","0.0-7.0-0.38","FL","s80pnsgly8","1280","1024","0","1","0","5ed09b6985143f000c08b6b8","","null","","","","","","","learning/Slide119.JPG","null","","","","","",""
"html-keyboard-response","362","374344","0.0-7.0-1.38","FL","s80pnsgly8","1280","1024","0","1","0","5ed09b6985143f000c08b6b8","","null","","","learningBlock2","","","","That was a wug.","null","","","","","",""
"html-keyboard-response","363","375356","0.0-7.0-2.38","FL","s80pnsgly8","1280","1024","0","1","0","5ed09b6985143f000c08b6b8","","null","","","learningBlock2","","","","<div style=""font-size:60px;""> </div>","null","FL","learning/Slide119.JPG","That was a wug.","","",""
"image-keyboard-response","364","375546","0.0-7.0-0.39","FL","s80pnsgly8","1280","1024","0","1","0","5ed09b6985143f000c08b6b8","","null","","","","","","","learning/Slide120.JPG","null","","","","","",""
"html-keyboard-response","365","376714","0.0-7.0-1.39","FL","s80pnsgly8","1280","1024","0","1","0","5ed09b6985143f000c08b6b8","","null","","","learningBlock2","","","","That was a dep.","null","","","","","",""
"html-keyboard-response","366","377728","0.0-7.0-2.39","FL","s80pnsgly8","1280","1024","0","1","0","5ed09b6985143f000c08b6b8","","null","","","learningBlock2","","","","<div style=""font-size:60px;""> </div>","null","FL","learning/Slide120.JPG","That was a dep.","","",""
"image-keyboard-response","367","377918","0.0-7.0-0.40","FL","s80pnsgly8","1280","1024","0","1","0","5ed09b6985143f000c08b6b8","","null","","","","","","","learning/Slide121.JPG","null","","","","","",""
"html-keyboard-response","368","379069","0.0-7.0-1.40","FL","s80pnsgly8","1280","1024","0","1","0","5ed09b6985143f000c08b6b8","","null","","","learningBlock2","","","","That was a bim.","null","","","","","",""
"html-keyboard-response","369","380084","0.0-7.0-2.40","FL","s80pnsgly8","1280","1024","0","1","0","5ed09b6985143f000c08b6b8","","null","","","learningBlock2","","","","<div style=""font-size:60px;""> </div>","null","FL","learning/Slide121.JPG","That was a bim.","","",""
"image-keyboard-response","370","380274","0.0-7.0-0.41","FL","s80pnsgly8","1280","1024","0","1","0","5ed09b6985143f000c08b6b8","","null","","","","","","","learning/Slide122.JPG","null","","","","","",""
"html-keyboard-response","371","381444","0.0-7.0-1.41","FL","s80pnsgly8","1280","1024","0","1","0","5ed09b6985143f000c08b6b8","","null","","","learningBlock2","","","","That was a wug.","null","","","","","",""
"html-keyboard-response","372","382446","0.0-7.0-2.41","FL","s80pnsgly8","1280","1024","0","1","0","5ed09b6985143f000c08b6b8","","null","","","learningBlock2","","","","<div style=""font-size:60px;""> </div>","null","FL","learning/Slide122.JPG","That was a wug.","","",""
"image-keyboard-response","373","382623","0.0-7.0-0.42","FL","s80pnsgly8","1280","1024","0","1","0","5ed09b6985143f000c08b6b8","","null","","","","","","","learning/Slide123.JPG","null","","","","","",""
"html-keyboard-response","374","383775","0.0-7.0-1.42","FL","s80pnsgly8","1280","1024","0","1","0","5ed09b6985143f000c08b6b8","","null","","","learningBlock2","","","","That was a bim.","null","","","","","",""
"html-keyboard-response","375","384782","0.0-7.0-2.42","FL","s80pnsgly8","1280","1024","0","1","0","5ed09b6985143f000c08b6b8","","null","","","learningBlock2","","","","<div style=""font-size:60px;""> </div>","null","FL","learning/Slide123.JPG","That was a bim.","","",""
"image-keyboard-response","376","384972","0.0-7.0-0.43","FL","s80pnsgly8","1280","1024","0","1","0","5ed09b6985143f000c08b6b8","","null","","","","","","","learning/Slide124.JPG","null","","","","","",""
"html-keyboard-response","377","386131","0.0-7.0-1.43","FL","s80pnsgly8","1280","1024","0","1","0","5ed09b6985143f000c08b6b8","","null","","","learningBlock2","","","","That was a tob.","null","","","","","",""
"html-keyboard-response","378","387140","0.0-7.0-2.43","FL","s80pnsgly8","1280","1024","0","1","0","5ed09b6985143f000c08b6b8","","null","","","learningBlock2","","","","<div style=""font-size:60px;""> </div>","null","FL","learning/Slide124.JPG","That was a tob.","","",""
"image-keyboard-response","379","387330","0.0-7.0-0.44","FL","s80pnsgly8","1280","1024","0","1","0","5ed09b6985143f000c08b6b8","","null","","","","","","","learning/Slide125.JPG","null","","","","","",""
"html-keyboard-response","380","388486","0.0-7.0-1.44","FL","s80pnsgly8","1280","1024","0","1","0","5ed09b6985143f000c08b6b8","","null","","","learningBlock2","","","","That was a bim.","null","","","","","",""
"html-keyboard-response","381","389502","0.0-7.0-2.44","FL","s80pnsgly8","1280","1024","0","1","0","5ed09b6985143f000c08b6b8","","null","","","learningBlock2","","","","<div style=""font-size:60px;""> </div>","null","FL","learning/Slide125.JPG","That was a bim.","","",""
"image-keyboard-response","382","389690","0.0-7.0-0.45","FL","s80pnsgly8","1280","1024","0","1","0","5ed09b6985143f000c08b6b8","","null","","","","","","","learning/Slide126.JPG","null","","","","","",""
"html-keyboard-response","383","390851","0.0-7.0-1.45","FL","s80pnsgly8","1280","1024","0","1","0","5ed09b6985143f000c08b6b8","","null","","","learningBlock2","","","","That was a tob.","null","","","","","",""
"html-keyboard-response","384","391860","0.0-7.0-2.45","FL","s80pnsgly8","1280","1024","0","1","0","5ed09b6985143f000c08b6b8","","null","","","learningBlock2","","","","<div style=""font-size:60px;""> </div>","null","FL","learning/Slide126.JPG","That was a tob.","","",""
"image-keyboard-response","385","392051","0.0-7.0-0.46","FL","s80pnsgly8","1280","1024","0","1","0","5ed09b6985143f000c08b6b8","","null","","","","","","","learning/Slide127.JPG","null","","","","","",""
"html-keyboard-response","386","393211","0.0-7.0-1.46","FL","s80pnsgly8","1280","1024","0","1","0","5ed09b6985143f000c08b6b8","","null","","","learningBlock2","","","","That was a dep.","null","","","","","",""
"html-keyboard-response","387","394220","0.0-7.0-2.46","FL","s80pnsgly8","1280","1024","0","1","0","5ed09b6985143f000c08b6b8","","null","","","learningBlock2","","","","<div style=""font-size:60px;""> </div>","null","FL","learning/Slide127.JPG","That was a dep.","","",""
"image-keyboard-response","388","394410","0.0-7.0-0.47","FL","s80pnsgly8","1280","1024","0","1","0","5ed09b6985143f000c08b6b8","","null","","","","","","","learning/Slide128.JPG","null","","","","","",""
"html-keyboard-response","389","395581","0.0-7.0-1.47","FL","s80pnsgly8","1280","1024","0","1","0","5ed09b6985143f000c08b6b8","","null","","","learningBlock2","","","","That was a wug.","null","","","","","",""
"html-keyboard-response","390","396582","0.0-7.0-2.47","FL","s80pnsgly8","1280","1024","0","1","0","5ed09b6985143f000c08b6b8","","null","","","learningBlock2","","","","<div style=""font-size:60px;""> </div>","null","FL","learning/Slide128.JPG","That was a wug.","","",""
"image-keyboard-response","391","396758","0.0-7.0-0.48","FL","s80pnsgly8","1280","1024","0","1","0","5ed09b6985143f000c08b6b8","","null","","","","","","","learning/Slide129.JPG","null","","","","","",""
"html-keyboard-response","392","397910","0.0-7.0-1.48","FL","s80pnsgly8","1280","1024","0","1","0","5ed09b6985143f000c08b6b8","","null","","","learningBlock2","","","","That was a tob.","null","","","","","",""
"html-keyboard-response","393","398924","0.0-7.0-2.48","FL","s80pnsgly8","1280","1024","0","1","0","5ed09b6985143f000c08b6b8","","null","","","learningBlock2","","","","<div style=""font-size:60px;""> </div>","null","FL","learning/Slide129.JPG","That was a tob.","","",""
"image-keyboard-response","394","399114","0.0-7.0-0.49","FL","s80pnsgly8","1280","1024","0","1","0","5ed09b6985143f000c08b6b8","","null","","","","","","","learning/Slide130.JPG","null","","","","","",""
"html-keyboard-response","395","400274","0.0-7.0-1.49","FL","s80pnsgly8","1280","1024","0","1","0","5ed09b6985143f000c08b6b8","","null","","","learningBlock2","","","","That was a wug.","null","","","","","",""
"html-keyboard-response","396","401278","0.0-7.0-2.49","FL","s80pnsgly8","1280","1024","0","1","0","5ed09b6985143f000c08b6b8","","null","","","learningBlock2","","","","<div style=""font-size:60px;""> </div>","null","FL","learning/Slide130.JPG","That was a wug.","","",""
"image-keyboard-response","397","401454","0.0-7.0-0.50","FL","s80pnsgly8","1280","1024","0","1","0","5ed09b6985143f000c08b6b8","","null","","","","","","","learning/Slide131.JPG","null","","","","","",""
"html-keyboard-response","398","402626","0.0-7.0-1.50","FL","s80pnsgly8","1280","1024","0","1","0","5ed09b6985143f000c08b6b8","","null","","","learningBlock2","","","","That was a bim.","null","","","","","",""
"html-keyboard-response","399","403638","0.0-7.0-2.50","FL","s80pnsgly8","1280","1024","0","1","0","5ed09b6985143f000c08b6b8","","null","","","learningBlock2","","","","<div style=""font-size:60px;""> </div>","null","FL","learning/Slide131.JPG","That was a bim.","","",""
"image-keyboard-response","400","403828","0.0-7.0-0.51","FL","s80pnsgly8","1280","1024","0","1","0","5ed09b6985143f000c08b6b8","","null","","","","","","","learning/Slide132.JPG","null","","","","","",""
"html-keyboard-response","401","404989","0.0-7.0-1.51","FL","s80pnsgly8","1280","1024","0","1","0","5ed09b6985143f000c08b6b8","","null","","","learningBlock2","","","","That was a dep.","null","","","","","",""
"html-keyboard-response","402","405999","0.0-7.0-2.51","FL","s80pnsgly8","1280","1024","0","1","0","5ed09b6985143f000c08b6b8","","null","","","learningBlock2","","","","<div style=""font-size:60px;""> </div>","null","FL","learning/Slide132.JPG","That was a dep.","","",""
"image-keyboard-response","403","406190","0.0-7.0-0.52","FL","s80pnsgly8","1280","1024","0","1","0","5ed09b6985143f000c08b6b8","","null","","","","","","","learning/Slide133.JPG","null","","","","","",""
"html-keyboard-response","404","407363","0.0-7.0-1.52","FL","s80pnsgly8","1280","1024","0","1","0","5ed09b6985143f000c08b6b8","","null","","","learningBlock2","","","","That was a tob.","null","","","","","",""
"html-keyboard-response","405","408367","0.0-7.0-2.52","FL","s80pnsgly8","1280","1024","0","1","0","5ed09b6985143f000c08b6b8","","null","","","learningBlock2","","","","<div style=""font-size:60px;""> </div>","null","FL","learning/Slide133.JPG","That was a tob.","","",""
"image-keyboard-response","406","408557","0.0-7.0-0.53","FL","s80pnsgly8","1280","1024","0","1","0","5ed09b6985143f000c08b6b8","","null","","","","","","","learning/Slide134.JPG","null","","","","","",""
"html-keyboard-response","407","409730","0.0-7.0-1.53","FL","s80pnsgly8","1280","1024","0","1","0","5ed09b6985143f000c08b6b8","","null","","","learningBlock2","","","","That was a dep.","null","","","","","",""
"html-keyboard-response","408","410746","0.0-7.0-2.53","FL","s80pnsgly8","1280","1024","0","1","0","5ed09b6985143f000c08b6b8","","null","","","learningBlock2","","","","<div style=""font-size:60px;""> </div>","null","FL","learning/Slide134.JPG","That was a dep.","","",""
"image-keyboard-response","409","410937","0.0-7.0-0.54","FL","s80pnsgly8","1280","1024","0","1","0","5ed09b6985143f000c08b6b8","","null","","","","","","","learning/Slide135.JPG","null","","","","","",""
"html-keyboard-response","410","412095","0.0-7.0-1.54","FL","s80pnsgly8","1280","1024","0","1","0","5ed09b6985143f000c08b6b8","","null","","","learningBlock2","","","","That was a tob.","null","","","","","",""
"html-keyboard-response","411","413095","0.0-7.0-2.54","FL","s80pnsgly8","1280","1024","0","1","0","5ed09b6985143f000c08b6b8","","null","","","learningBlock2","","","","<div style=""font-size:60px;""> </div>","null","FL","learning/Slide135.JPG","That was a tob.","","",""
"image-keyboard-response","412","413286","0.0-7.0-0.55","FL","s80pnsgly8","1280","1024","0","1","0","5ed09b6985143f000c08b6b8","","null","","","","","","","learning/Slide136.JPG","null","","","","","",""
"html-keyboard-response","413","414436","0.0-7.0-1.55","FL","s80pnsgly8","1280","1024","0","1","0","5ed09b6985143f000c08b6b8","","null","","","learningBlock2","","","","That was a wug.","null","","","","","",""
"html-keyboard-response","414","415443","0.0-7.0-2.55","FL","s80pnsgly8","1280","1024","0","1","0","5ed09b6985143f000c08b6b8","","null","","","learningBlock2","","","","<div style=""font-size:60px;""> </div>","null","FL","learning/Slide136.JPG","That was a wug.","","",""
"image-keyboard-response","415","415633","0.0-7.0-0.56","FL","s80pnsgly8","1280","1024","0","1","0","5ed09b6985143f000c08b6b8","","null","","","","","","","learning/Slide137.JPG","null","","","","","",""
"html-keyboard-response","416","416807","0.0-7.0-1.56","FL","s80pnsgly8","1280","1024","0","1","0","5ed09b6985143f000c08b6b8","","null","","","learningBlock2","","","","That was a tob.","null","","","","","",""
"html-keyboard-response","417","417820","0.0-7.0-2.56","FL","s80pnsgly8","1280","1024","0","1","0","5ed09b6985143f000c08b6b8","","null","","","learningBlock2","","","","<div style=""font-size:60px;""> </div>","null","FL","learning/Slide137.JPG","That was a tob.","","",""
"image-keyboard-response","418","418009","0.0-7.0-0.57","FL","s80pnsgly8","1280","1024","0","1","0","5ed09b6985143f000c08b6b8","","null","","","","","","","learning/Slide138.JPG","null","","","","","",""
"html-keyboard-response","419","419183","0.0-7.0-1.57","FL","s80pnsgly8","1280","1024","0","1","0","5ed09b6985143f000c08b6b8","","null","","","learningBlock2","","","","That was a bim.","null","","","","","",""
"html-keyboard-response","420","420187","0.0-7.0-2.57","FL","s80pnsgly8","1280","1024","0","1","0","5ed09b6985143f000c08b6b8","","null","","","learningBlock2","","","","<div style=""font-size:60px;""> </div>","null","FL","learning/Slide138.JPG","That was a bim.","","",""
"image-keyboard-response","421","420363","0.0-7.0-0.58","FL","s80pnsgly8","1280","1024","0","1","0","5ed09b6985143f000c08b6b8","","null","","","","","","","learning/Slide139.JPG","null","","","","","",""
"html-keyboard-response","422","421527","0.0-7.0-1.58","FL","s80pnsgly8","1280","1024","0","1","0","5ed09b6985143f000c08b6b8","","null","","","learningBlock2","","","","That was a wug.","null","","","","","",""
"html-keyboard-response","423","422528","0.0-7.0-2.58","FL","s80pnsgly8","1280","1024","0","1","0","5ed09b6985143f000c08b6b8","","null","","","learningBlock2","","","","<div style=""font-size:60px;""> </div>","null","FL","learning/Slide139.JPG","That was a wug.","","",""
"image-keyboard-response","424","422717","0.0-7.0-0.59","FL","s80pnsgly8","1280","1024","0","1","0","5ed09b6985143f000c08b6b8","","null","","","","","","","learning/Slide140.JPG","null","","","","","",""
"html-keyboard-response","425","423879","0.0-7.0-1.59","FL","s80pnsgly8","1280","1024","0","1","0","5ed09b6985143f000c08b6b8","","null","","","learningBlock2","","","","That was a dep.","null","","","","","",""
"html-keyboard-response","426","424883","0.0-7.0-2.59","FL","s80pnsgly8","1280","1024","0","1","0","5ed09b6985143f000c08b6b8","","null","","","learningBlock2","","","","<div style=""font-size:60px;""> </div>","null","FL","learning/Slide140.JPG","That was a dep.","","",""
"image-keyboard-response","427","425059","0.0-7.0-0.60","FL","s80pnsgly8","1280","1024","0","1","0","5ed09b6985143f000c08b6b8","","null","","","","","","","learning/Slide141.JPG","null","","","","","",""
"html-keyboard-response","428","426219","0.0-7.0-1.60","FL","s80pnsgly8","1280","1024","0","1","0","5ed09b6985143f000c08b6b8","","null","","","learningBlock2","","","","That was a tob.","null","","","","","",""
"html-keyboard-response","429","427231","0.0-7.0-2.60","FL","s80pnsgly8","1280","1024","0","1","0","5ed09b6985143f000c08b6b8","","null","","","learningBlock2","","","","<div style=""font-size:60px;""> </div>","null","FL","learning/Slide141.JPG","That was a tob.","","",""
"image-keyboard-response","430","427422","0.0-7.0-0.61","FL","s80pnsgly8","1280","1024","0","1","0","5ed09b6985143f000c08b6b8","","null","","","","","","","learning/Slide142.JPG","null","","","","","",""
"html-keyboard-response","431","428581","0.0-7.0-1.61","FL","s80pnsgly8","1280","1024","0","1","0","5ed09b6985143f000c08b6b8","","null","","","learningBlock2","","","","That was a wug.","null","","","","","",""
"html-keyboard-response","432","429595","0.0-7.0-2.61","FL","s80pnsgly8","1280","1024","0","1","0","5ed09b6985143f000c08b6b8","","null","","","learningBlock2","","","","<div style=""font-size:60px;""> </div>","null","FL","learning/Slide142.JPG","That was a wug.","","",""
"image-keyboard-response","433","429786","0.0-7.0-0.62","FL","s80pnsgly8","1280","1024","0","1","0","5ed09b6985143f000c08b6b8","","null","","","","","","","learning/Slide143.JPG","null","","","","","",""
"html-keyboard-response","434","430958","0.0-7.0-1.62","FL","s80pnsgly8","1280","1024","0","1","0","5ed09b6985143f000c08b6b8","","null","","","learningBlock2","","","","That was a bim.","null","","","","","",""
