"trial_type","trial_index","time_elapsed","internal_node_id","condition","subject","screen_width","screen_height","attention","distraction","conscientious","prolificID","success","rt","url","view_history","test_part","final_height_px","final_width_px","scale_factor","stimulus","key_press","learningType","presentedImage","presentedLabel","button_pressed","response","responses"
"pavlovia","0","30","0.0-0.0","LF","o0xz7vf2yt","1280","720","0","1","0","5f2b196c0c610f4ec3eb5451","","","","","","","","","","","","","","","",""
"fullscreen","1","2914","0.0-1.0","LF","o0xz7vf2yt","1280","720","0","1","0","5f2b196c0c610f4ec3eb5451","true","","","","","","","","","","","","","","",""
"external-html","2","6923","0.0-2.0-0.0","LF","o0xz7vf2yt","1280","720","0","1","0","5f2b196c0c610f4ec3eb5451","","3904.6999998390675","text/information_english.html","","","","","","","","","","","","",""
"external-html","3","17870","0.0-2.0-1.0","LF","o0xz7vf2yt","1280","720","0","1","0","5f2b196c0c610f4ec3eb5451","","10641.474999953061","text/consent_english.html","","","","","","","","","","","","",""
"instructions","4","116084","0.0-3.0","LF","o0xz7vf2yt","1280","720","0","1","0","5f2b196c0c610f4ec3eb5451","","NA","","[{""page_index"":0,""viewing_time"":6196.315000066534},{""page_index"":1,""viewing_time"":92016.46500010975}]","instructions","","","","","","","","","","",""
"resize","5","200501","0.0-4.0","LF","o0xz7vf2yt","1280","720","0","1","0","5f2b196c0c610f4ec3eb5451","","","","","","","373","2.3682539682539683","","","","","","","",""
"html-keyboard-response","6","201504","0.0-5.0-0.0","LF","o0xz7vf2yt","1280","720","0","1","0","5f2b196c0c610f4ec3eb5451","","null","","","learningBlock1","","","","This is a tob:","null","","","","","",""
"image-keyboard-response","7","201844","0.0-5.0-1.0","LF","o0xz7vf2yt","1280","720","0","1","0","5f2b196c0c610f4ec3eb5451","","null","","","","","","","learning/Slide1.JPG","null","","","","","",""
"html-keyboard-response","8","202854","0.0-5.0-2.0","LF","o0xz7vf2yt","1280","720","0","1","0","5f2b196c0c610f4ec3eb5451","","null","","","learningBlock1","","","","<div style=""font-size:60px;""> </div>","null","LF","learning/Slide1.JPG","This is a tob:","","",""
"html-keyboard-response","9","203857","0.0-5.0-0.1","LF","o0xz7vf2yt","1280","720","0","1","0","5f2b196c0c610f4ec3eb5451","","null","","","learningBlock1","","","","This is a wug:","null","","","","","",""
"image-keyboard-response","10","204185","0.0-5.0-1.1","LF","o0xz7vf2yt","1280","720","0","1","0","5f2b196c0c610f4ec3eb5451","","null","","","","","","","learning/Slide2.JPG","null","","","","","",""
"html-keyboard-response","11","205200","0.0-5.0-2.1","LF","o0xz7vf2yt","1280","720","0","1","0","5f2b196c0c610f4ec3eb5451","","null","","","learningBlock1","","","","<div style=""font-size:60px;""> </div>","null","LF","learning/Slide2.JPG","This is a wug:","","",""
"html-keyboard-response","12","206205","0.0-5.0-0.2","LF","o0xz7vf2yt","1280","720","0","1","0","5f2b196c0c610f4ec3eb5451","","null","","","learningBlock1","","","","This is a bim:","null","","","","","",""
"image-keyboard-response","13","206536","0.0-5.0-1.2","LF","o0xz7vf2yt","1280","720","0","1","0","5f2b196c0c610f4ec3eb5451","","null","","","","","","","learning/Slide3.JPG","null","","","","","",""
"html-keyboard-response","14","207539","0.0-5.0-2.2","LF","o0xz7vf2yt","1280","720","0","1","0","5f2b196c0c610f4ec3eb5451","","null","","","learningBlock1","","","","<div style=""font-size:60px;""> </div>","null","LF","learning/Slide3.JPG","This is a bim:","","",""
"html-keyboard-response","15","208549","0.0-5.0-0.3","LF","o0xz7vf2yt","1280","720","0","1","0","5f2b196c0c610f4ec3eb5451","","null","","","learningBlock1","","","","This is a dep:","null","","","","","",""
"image-keyboard-response","16","208892","0.0-5.0-1.3","LF","o0xz7vf2yt","1280","720","0","1","0","5f2b196c0c610f4ec3eb5451","","null","","","","","","","learning/Slide4.JPG","null","","","","","",""
"html-keyboard-response","17","209900","0.0-5.0-2.3","LF","o0xz7vf2yt","1280","720","0","1","0","5f2b196c0c610f4ec3eb5451","","null","","","learningBlock1","","","","<div style=""font-size:60px;""> </div>","null","LF","learning/Slide4.JPG","This is a dep:","","",""
"html-keyboard-response","18","210903","0.0-5.0-0.4","LF","o0xz7vf2yt","1280","720","0","1","0","5f2b196c0c610f4ec3eb5451","","null","","","learningBlock1","","","","This is a wug:","null","","","","","",""
"image-keyboard-response","19","211231","0.0-5.0-1.4","LF","o0xz7vf2yt","1280","720","0","1","0","5f2b196c0c610f4ec3eb5451","","null","","","","","","","learning/Slide5.JPG","null","","","","","",""
"html-keyboard-response","20","212242","0.0-5.0-2.4","LF","o0xz7vf2yt","1280","720","0","1","0","5f2b196c0c610f4ec3eb5451","","null","","","learningBlock1","","","","<div style=""font-size:60px;""> </div>","null","LF","learning/Slide5.JPG","This is a wug:","","",""
"html-keyboard-response","21","213250","0.0-5.0-0.5","LF","o0xz7vf2yt","1280","720","0","1","0","5f2b196c0c610f4ec3eb5451","","null","","","learningBlock1","","","","This is a dep:","null","","","","","",""
"image-keyboard-response","22","213579","0.0-5.0-1.5","LF","o0xz7vf2yt","1280","720","0","1","0","5f2b196c0c610f4ec3eb5451","","null","","","","","","","learning/Slide6.JPG","null","","","","","",""
"html-keyboard-response","23","214593","0.0-5.0-2.5","LF","o0xz7vf2yt","1280","720","0","1","0","5f2b196c0c610f4ec3eb5451","","null","","","learningBlock1","","","","<div style=""font-size:60px;""> </div>","null","LF","learning/Slide6.JPG","This is a dep:","","",""
"html-keyboard-response","24","215605","0.0-5.0-0.6","LF","o0xz7vf2yt","1280","720","0","1","0","5f2b196c0c610f4ec3eb5451","","null","","","learningBlock1","","","","This is a wug:","null","","","","","",""
"image-keyboard-response","25","215936","0.0-5.0-1.6","LF","o0xz7vf2yt","1280","720","0","1","0","5f2b196c0c610f4ec3eb5451","","null","","","","","","","learning/Slide7.JPG","null","","","","","",""
"html-keyboard-response","26","216943","0.0-5.0-2.6","LF","o0xz7vf2yt","1280","720","0","1","0","5f2b196c0c610f4ec3eb5451","","null","","","learningBlock1","","","","<div style=""font-size:60px;""> </div>","null","LF","learning/Slide7.JPG","This is a wug:","","",""
"html-keyboard-response","27","217953","0.0-5.0-0.7","LF","o0xz7vf2yt","1280","720","0","1","0","5f2b196c0c610f4ec3eb5451","","null","","","learningBlock1","","","","This is a bim:","null","","","","","",""
"image-keyboard-response","28","218301","0.0-5.0-1.7","LF","o0xz7vf2yt","1280","720","0","1","0","5f2b196c0c610f4ec3eb5451","","null","","","","","","","learning/Slide8.JPG","null","","","","","",""
"html-keyboard-response","29","219310","0.0-5.0-2.7","LF","o0xz7vf2yt","1280","720","0","1","0","5f2b196c0c610f4ec3eb5451","","null","","","learningBlock1","","","","<div style=""font-size:60px;""> </div>","null","LF","learning/Slide8.JPG","This is a bim:","","",""
"html-keyboard-response","30","220314","0.0-5.0-0.8","LF","o0xz7vf2yt","1280","720","0","1","0","5f2b196c0c610f4ec3eb5451","","null","","","learningBlock1","","","","This is a wug:","null","","","","","",""
"image-keyboard-response","31","220645","0.0-5.0-1.8","LF","o0xz7vf2yt","1280","720","0","1","0","5f2b196c0c610f4ec3eb5451","","null","","","","","","","learning/Slide9.JPG","null","","","","","",""
"html-keyboard-response","32","221652","0.0-5.0-2.8","LF","o0xz7vf2yt","1280","720","0","1","0","5f2b196c0c610f4ec3eb5451","","null","","","learningBlock1","","","","<div style=""font-size:60px;""> </div>","null","LF","learning/Slide9.JPG","This is a wug:","","",""
"html-keyboard-response","33","222661","0.0-5.0-0.9","LF","o0xz7vf2yt","1280","720","0","1","0","5f2b196c0c610f4ec3eb5451","","null","","","learningBlock1","","","","This is a dep:","null","","","","","",""
"image-keyboard-response","34","222989","0.0-5.0-1.9","LF","o0xz7vf2yt","1280","720","0","1","0","5f2b196c0c610f4ec3eb5451","","null","","","","","","","learning/Slide10.JPG","null","","","","","",""
"html-keyboard-response","35","223999","0.0-5.0-2.9","LF","o0xz7vf2yt","1280","720","0","1","0","5f2b196c0c610f4ec3eb5451","","null","","","learningBlock1","","","","<div style=""font-size:60px;""> </div>","null","LF","learning/Slide10.JPG","This is a dep:","","",""
"html-keyboard-response","36","225005","0.0-5.0-0.10","LF","o0xz7vf2yt","1280","720","0","1","0","5f2b196c0c610f4ec3eb5451","","null","","","learningBlock1","","","","This is a tob:","null","","","","","",""
"image-keyboard-response","37","225334","0.0-5.0-1.10","LF","o0xz7vf2yt","1280","720","0","1","0","5f2b196c0c610f4ec3eb5451","","null","","","","","","","learning/Slide11.JPG","null","","","","","",""
"html-keyboard-response","38","226349","0.0-5.0-2.10","LF","o0xz7vf2yt","1280","720","0","1","0","5f2b196c0c610f4ec3eb5451","","null","","","learningBlock1","","","","<div style=""font-size:60px;""> </div>","null","LF","learning/Slide11.JPG","This is a tob:","","",""
"html-keyboard-response","39","227356","0.0-5.0-0.11","LF","o0xz7vf2yt","1280","720","0","1","0","5f2b196c0c610f4ec3eb5451","","null","","","learningBlock1","","","","This is a dep:","null","","","","","",""
"image-keyboard-response","40","227689","0.0-5.0-1.11","LF","o0xz7vf2yt","1280","720","0","1","0","5f2b196c0c610f4ec3eb5451","","null","","","","","","","learning/Slide12.JPG","null","","","","","",""
"html-keyboard-response","41","228709","0.0-5.0-2.11","LF","o0xz7vf2yt","1280","720","0","1","0","5f2b196c0c610f4ec3eb5451","","null","","","learningBlock1","","","","<div style=""font-size:60px;""> </div>","null","LF","learning/Slide12.JPG","This is a dep:","","",""
"html-keyboard-response","42","229715","0.0-5.0-0.12","LF","o0xz7vf2yt","1280","720","0","1","0","5f2b196c0c610f4ec3eb5451","","null","","","learningBlock1","","","","This is a bim:","null","","","","","",""
"image-keyboard-response","43","230048","0.0-5.0-1.12","LF","o0xz7vf2yt","1280","720","0","1","0","5f2b196c0c610f4ec3eb5451","","null","","","","","","","learning/Slide13.JPG","null","","","","","",""
"html-keyboard-response","44","231058","0.0-5.0-2.12","LF","o0xz7vf2yt","1280","720","0","1","0","5f2b196c0c610f4ec3eb5451","","null","","","learningBlock1","","","","<div style=""font-size:60px;""> </div>","null","LF","learning/Slide13.JPG","This is a bim:","","",""
"html-keyboard-response","45","232066","0.0-5.0-0.13","LF","o0xz7vf2yt","1280","720","0","1","0","5f2b196c0c610f4ec3eb5451","","null","","","learningBlock1","","","","This is a wug:","null","","","","","",""
"image-keyboard-response","46","232414","0.0-5.0-1.13","LF","o0xz7vf2yt","1280","720","0","1","0","5f2b196c0c610f4ec3eb5451","","null","","","","","","","learning/Slide14.JPG","null","","","","","",""
"html-keyboard-response","47","233419","0.0-5.0-2.13","LF","o0xz7vf2yt","1280","720","0","1","0","5f2b196c0c610f4ec3eb5451","","null","","","learningBlock1","","","","<div style=""font-size:60px;""> </div>","null","LF","learning/Slide14.JPG","This is a wug:","","",""
"html-keyboard-response","48","234426","0.0-5.0-0.14","LF","o0xz7vf2yt","1280","720","0","1","0","5f2b196c0c610f4ec3eb5451","","null","","","learningBlock1","","","","This is a tob:","null","","","","","",""
"image-keyboard-response","49","234753","0.0-5.0-1.14","LF","o0xz7vf2yt","1280","720","0","1","0","5f2b196c0c610f4ec3eb5451","","null","","","","","","","learning/Slide15.JPG","null","","","","","",""
"html-keyboard-response","50","235765","0.0-5.0-2.14","LF","o0xz7vf2yt","1280","720","0","1","0","5f2b196c0c610f4ec3eb5451","","null","","","learningBlock1","","","","<div style=""font-size:60px;""> </div>","null","LF","learning/Slide15.JPG","This is a tob:","","",""
"html-keyboard-response","51","236773","0.0-5.0-0.15","LF","o0xz7vf2yt","1280","720","0","1","0","5f2b196c0c610f4ec3eb5451","","null","","","learningBlock1","","","","This is a dep:","null","","","","","",""
"image-keyboard-response","52","237107","0.0-5.0-1.15","LF","o0xz7vf2yt","1280","720","0","1","0","5f2b196c0c610f4ec3eb5451","","null","","","","","","","learning/Slide16.JPG","null","","","","","",""
"html-keyboard-response","53","238115","0.0-5.0-2.15","LF","o0xz7vf2yt","1280","720","0","1","0","5f2b196c0c610f4ec3eb5451","","null","","","learningBlock1","","","","<div style=""font-size:60px;""> </div>","null","LF","learning/Slide16.JPG","This is a dep:","","",""
"html-keyboard-response","54","239124","0.0-5.0-0.16","LF","o0xz7vf2yt","1280","720","0","1","0","5f2b196c0c610f4ec3eb5451","","null","","","learningBlock1","","","","This is a bim:","null","","","","","",""
"image-keyboard-response","55","239456","0.0-5.0-1.16","LF","o0xz7vf2yt","1280","720","0","1","0","5f2b196c0c610f4ec3eb5451","","null","","","","","","","learning/Slide17.JPG","null","","","","","",""
"html-keyboard-response","56","240459","0.0-5.0-2.16","LF","o0xz7vf2yt","1280","720","0","1","0","5f2b196c0c610f4ec3eb5451","","null","","","learningBlock1","","","","<div style=""font-size:60px;""> </div>","null","LF","learning/Slide17.JPG","This is a bim:","","",""
"html-keyboard-response","57","241462","0.0-5.0-0.17","LF","o0xz7vf2yt","1280","720","0","1","0","5f2b196c0c610f4ec3eb5451","","null","","","learningBlock1","","","","This is a tob:","null","","","","","",""
"image-keyboard-response","58","241791","0.0-5.0-1.17","LF","o0xz7vf2yt","1280","720","0","1","0","5f2b196c0c610f4ec3eb5451","","null","","","","","","","learning/Slide18.JPG","null","","","","","",""
"html-keyboard-response","59","242803","0.0-5.0-2.17","LF","o0xz7vf2yt","1280","720","0","1","0","5f2b196c0c610f4ec3eb5451","","null","","","learningBlock1","","","","<div style=""font-size:60px;""> </div>","null","LF","learning/Slide18.JPG","This is a tob:","","",""
"html-keyboard-response","60","243812","0.0-5.0-0.18","LF","o0xz7vf2yt","1280","720","0","1","0","5f2b196c0c610f4ec3eb5451","","null","","","learningBlock1","","","","This is a wug:","null","","","","","",""
"image-keyboard-response","61","244141","0.0-5.0-1.18","LF","o0xz7vf2yt","1280","720","0","1","0","5f2b196c0c610f4ec3eb5451","","null","","","","","","","learning/Slide19.JPG","null","","","","","",""
"html-keyboard-response","62","245152","0.0-5.0-2.18","LF","o0xz7vf2yt","1280","720","0","1","0","5f2b196c0c610f4ec3eb5451","","null","","","learningBlock1","","","","<div style=""font-size:60px;""> </div>","null","LF","learning/Slide19.JPG","This is a wug:","","",""
"html-keyboard-response","63","246163","0.0-5.0-0.19","LF","o0xz7vf2yt","1280","720","0","1","0","5f2b196c0c610f4ec3eb5451","","null","","","learningBlock1","","","","This is a bim:","null","","","","","",""
"image-keyboard-response","64","246492","0.0-5.0-1.19","LF","o0xz7vf2yt","1280","720","0","1","0","5f2b196c0c610f4ec3eb5451","","null","","","","","","","learning/Slide20.JPG","null","","","","","",""
"html-keyboard-response","65","247504","0.0-5.0-2.19","LF","o0xz7vf2yt","1280","720","0","1","0","5f2b196c0c610f4ec3eb5451","","null","","","learningBlock1","","","","<div style=""font-size:60px;""> </div>","null","LF","learning/Slide20.JPG","This is a bim:","","",""
"html-keyboard-response","66","248514","0.0-5.0-0.20","LF","o0xz7vf2yt","1280","720","0","1","0","5f2b196c0c610f4ec3eb5451","","null","","","learningBlock1","","","","This is a dep:","null","","","","","",""
"image-keyboard-response","67","248864","0.0-5.0-1.20","LF","o0xz7vf2yt","1280","720","0","1","0","5f2b196c0c610f4ec3eb5451","","null","","","","","","","learning/Slide21.JPG","null","","","","","",""
"html-keyboard-response","68","249875","0.0-5.0-2.20","LF","o0xz7vf2yt","1280","720","0","1","0","5f2b196c0c610f4ec3eb5451","","null","","","learningBlock1","","","","<div style=""font-size:60px;""> </div>","null","LF","learning/Slide21.JPG","This is a dep:","","",""
"html-keyboard-response","69","250884","0.0-5.0-0.21","LF","o0xz7vf2yt","1280","720","0","1","0","5f2b196c0c610f4ec3eb5451","","null","","","learningBlock1","","","","This is a bim:","null","","","","","",""
"image-keyboard-response","70","251228","0.0-5.0-1.21","LF","o0xz7vf2yt","1280","720","0","1","0","5f2b196c0c610f4ec3eb5451","","null","","","","","","","learning/Slide22.JPG","null","","","","","",""
"html-keyboard-response","71","252233","0.0-5.0-2.21","LF","o0xz7vf2yt","1280","720","0","1","0","5f2b196c0c610f4ec3eb5451","","null","","","learningBlock1","","","","<div style=""font-size:60px;""> </div>","null","LF","learning/Slide22.JPG","This is a bim:","","",""
"html-keyboard-response","72","253240","0.0-5.0-0.22","LF","o0xz7vf2yt","1280","720","0","1","0","5f2b196c0c610f4ec3eb5451","","null","","","learningBlock1","","","","This is a tob:","null","","","","","",""
"image-keyboard-response","73","253575","0.0-5.0-1.22","LF","o0xz7vf2yt","1280","720","0","1","0","5f2b196c0c610f4ec3eb5451","","null","","","","","","","learning/Slide23.JPG","null","","","","","",""
"html-keyboard-response","74","254588","0.0-5.0-2.22","LF","o0xz7vf2yt","1280","720","0","1","0","5f2b196c0c610f4ec3eb5451","","null","","","learningBlock1","","","","<div style=""font-size:60px;""> </div>","null","LF","learning/Slide23.JPG","This is a tob:","","",""
"html-keyboard-response","75","255602","0.0-5.0-0.23","LF","o0xz7vf2yt","1280","720","0","1","0","5f2b196c0c610f4ec3eb5451","","null","","","learningBlock1","","","","This is a wug:","null","","","","","",""
"image-keyboard-response","76","255930","0.0-5.0-1.23","LF","o0xz7vf2yt","1280","720","0","1","0","5f2b196c0c610f4ec3eb5451","","null","","","","","","","learning/Slide24.JPG","null","","","","","",""
"html-keyboard-response","77","256940","0.0-5.0-2.23","LF","o0xz7vf2yt","1280","720","0","1","0","5f2b196c0c610f4ec3eb5451","","null","","","learningBlock1","","","","<div style=""font-size:60px;""> </div>","null","LF","learning/Slide24.JPG","This is a wug:","","",""
"html-keyboard-response","78","257950","0.0-5.0-0.24","LF","o0xz7vf2yt","1280","720","0","1","0","5f2b196c0c610f4ec3eb5451","","null","","","learningBlock1","","","","This is a dep:","null","","","","","",""
"image-keyboard-response","79","258284","0.0-5.0-1.24","LF","o0xz7vf2yt","1280","720","0","1","0","5f2b196c0c610f4ec3eb5451","","null","","","","","","","learning/Slide25.JPG","null","","","","","",""
"html-keyboard-response","80","259302","0.0-5.0-2.24","LF","o0xz7vf2yt","1280","720","0","1","0","5f2b196c0c610f4ec3eb5451","","null","","","learningBlock1","","","","<div style=""font-size:60px;""> </div>","null","LF","learning/Slide25.JPG","This is a dep:","","",""
"html-keyboard-response","81","260315","0.0-5.0-0.25","LF","o0xz7vf2yt","1280","720","0","1","0","5f2b196c0c610f4ec3eb5451","","null","","","learningBlock1","","","","This is a wug:","null","","","","","",""
"image-keyboard-response","82","260650","0.0-5.0-1.25","LF","o0xz7vf2yt","1280","720","0","1","0","5f2b196c0c610f4ec3eb5451","","null","","","","","","","learning/Slide26.JPG","null","","","","","",""
"html-keyboard-response","83","261657","0.0-5.0-2.25","LF","o0xz7vf2yt","1280","720","0","1","0","5f2b196c0c610f4ec3eb5451","","null","","","learningBlock1","","","","<div style=""font-size:60px;""> </div>","null","LF","learning/Slide26.JPG","This is a wug:","","",""
"html-keyboard-response","84","262666","0.0-5.0-0.26","LF","o0xz7vf2yt","1280","720","0","1","0","5f2b196c0c610f4ec3eb5451","","null","","","learningBlock1","","","","This is a bim:","null","","","","","",""
"image-keyboard-response","85","263001","0.0-5.0-1.26","LF","o0xz7vf2yt","1280","720","0","1","0","5f2b196c0c610f4ec3eb5451","","null","","","","","","","learning/Slide27.JPG","null","","","","","",""
"html-keyboard-response","86","264011","0.0-5.0-2.26","LF","o0xz7vf2yt","1280","720","0","1","0","5f2b196c0c610f4ec3eb5451","","null","","","learningBlock1","","","","<div style=""font-size:60px;""> </div>","null","LF","learning/Slide27.JPG","This is a bim:","","",""
"html-keyboard-response","87","265022","0.0-5.0-0.27","LF","o0xz7vf2yt","1280","720","0","1","0","5f2b196c0c610f4ec3eb5451","","null","","","learningBlock1","","","","This is a dep:","null","","","","","",""
"image-keyboard-response","88","265352","0.0-5.0-1.27","LF","o0xz7vf2yt","1280","720","0","1","0","5f2b196c0c610f4ec3eb5451","","null","","","","","","","learning/Slide28.JPG","null","","","","","",""
"html-keyboard-response","89","266361","0.0-5.0-2.27","LF","o0xz7vf2yt","1280","720","0","1","0","5f2b196c0c610f4ec3eb5451","","null","","","learningBlock1","","","","<div style=""font-size:60px;""> </div>","null","LF","learning/Slide28.JPG","This is a dep:","","",""
"html-keyboard-response","90","267368","0.0-5.0-0.28","LF","o0xz7vf2yt","1280","720","0","1","0","5f2b196c0c610f4ec3eb5451","","null","","","learningBlock1","","","","This is a tob:","null","","","","","",""
"image-keyboard-response","91","267703","0.0-5.0-1.28","LF","o0xz7vf2yt","1280","720","0","1","0","5f2b196c0c610f4ec3eb5451","","null","","","","","","","learning/Slide29.JPG","null","","","","","",""
"html-keyboard-response","92","268709","0.0-5.0-2.28","LF","o0xz7vf2yt","1280","720","0","1","0","5f2b196c0c610f4ec3eb5451","","null","","","learningBlock1","","","","<div style=""font-size:60px;""> </div>","null","LF","learning/Slide29.JPG","This is a tob:","","",""
"html-keyboard-response","93","269719","0.0-5.0-0.29","LF","o0xz7vf2yt","1280","720","0","1","0","5f2b196c0c610f4ec3eb5451","","null","","","learningBlock1","","","","This is a dep:","null","","","","","",""
"image-keyboard-response","94","270051","0.0-5.0-1.29","LF","o0xz7vf2yt","1280","720","0","1","0","5f2b196c0c610f4ec3eb5451","","null","","","","","","","learning/Slide30.JPG","null","","","","","",""
"html-keyboard-response","95","271067","0.0-5.0-2.29","LF","o0xz7vf2yt","1280","720","0","1","0","5f2b196c0c610f4ec3eb5451","","null","","","learningBlock1","","","","<div style=""font-size:60px;""> </div>","null","LF","learning/Slide30.JPG","This is a dep:","","",""
"html-keyboard-response","96","272077","0.0-5.0-0.30","LF","o0xz7vf2yt","1280","720","0","1","0","5f2b196c0c610f4ec3eb5451","","null","","","learningBlock1","","","","This is a wug:","null","","","","","",""
"image-keyboard-response","97","272425","0.0-5.0-1.30","LF","o0xz7vf2yt","1280","720","0","1","0","5f2b196c0c610f4ec3eb5451","","null","","","","","","","learning/Slide31.JPG","null","","","","","",""
"html-keyboard-response","98","273431","0.0-5.0-2.30","LF","o0xz7vf2yt","1280","720","0","1","0","5f2b196c0c610f4ec3eb5451","","null","","","learningBlock1","","","","<div style=""font-size:60px;""> </div>","null","LF","learning/Slide31.JPG","This is a wug:","","",""
"html-keyboard-response","99","274440","0.0-5.0-0.31","LF","o0xz7vf2yt","1280","720","0","1","0","5f2b196c0c610f4ec3eb5451","","null","","","learningBlock1","","","","This is a tob:","null","","","","","",""
"image-keyboard-response","100","274786","0.0-5.0-1.31","LF","o0xz7vf2yt","1280","720","0","1","0","5f2b196c0c610f4ec3eb5451","","null","","","","","","","learning/Slide32.JPG","null","","","","","",""
"html-keyboard-response","101","275797","0.0-5.0-2.31","LF","o0xz7vf2yt","1280","720","0","1","0","5f2b196c0c610f4ec3eb5451","","null","","","learningBlock1","","","","<div style=""font-size:60px;""> </div>","null","LF","learning/Slide32.JPG","This is a tob:","","",""
"html-keyboard-response","102","276805","0.0-5.0-0.32","LF","o0xz7vf2yt","1280","720","0","1","0","5f2b196c0c610f4ec3eb5451","","null","","","learningBlock1","","","","This is a bim:","null","","","","","",""
"image-keyboard-response","103","277133","0.0-5.0-1.32","LF","o0xz7vf2yt","1280","720","0","1","0","5f2b196c0c610f4ec3eb5451","","null","","","","","","","learning/Slide33.JPG","null","","","","","",""
"html-keyboard-response","104","278149","0.0-5.0-2.32","LF","o0xz7vf2yt","1280","720","0","1","0","5f2b196c0c610f4ec3eb5451","","null","","","learningBlock1","","","","<div style=""font-size:60px;""> </div>","null","LF","learning/Slide33.JPG","This is a bim:","","",""
"html-keyboard-response","105","279154","0.0-5.0-0.33","LF","o0xz7vf2yt","1280","720","0","1","0","5f2b196c0c610f4ec3eb5451","","null","","","learningBlock1","","","","This is a tob:","null","","","","","",""
"image-keyboard-response","106","279500","0.0-5.0-1.33","LF","o0xz7vf2yt","1280","720","0","1","0","5f2b196c0c610f4ec3eb5451","","null","","","","","","","learning/Slide34.JPG","null","","","","","",""
"html-keyboard-response","107","280511","0.0-5.0-2.33","LF","o0xz7vf2yt","1280","720","0","1","0","5f2b196c0c610f4ec3eb5451","","null","","","learningBlock1","","","","<div style=""font-size:60px;""> </div>","null","LF","learning/Slide34.JPG","This is a tob:","","",""
"html-keyboard-response","108","281524","0.0-5.0-0.34","LF","o0xz7vf2yt","1280","720","0","1","0","5f2b196c0c610f4ec3eb5451","","null","","","learningBlock1","","","","This is a bim:","null","","","","","",""
"image-keyboard-response","109","281855","0.0-5.0-1.34","LF","o0xz7vf2yt","1280","720","0","1","0","5f2b196c0c610f4ec3eb5451","","null","","","","","","","learning/Slide35.JPG","null","","","","","",""
"html-keyboard-response","110","282862","0.0-5.0-2.34","LF","o0xz7vf2yt","1280","720","0","1","0","5f2b196c0c610f4ec3eb5451","","null","","","learningBlock1","","","","<div style=""font-size:60px;""> </div>","null","LF","learning/Slide35.JPG","This is a bim:","","",""
"html-keyboard-response","111","283871","0.0-5.0-0.35","LF","o0xz7vf2yt","1280","720","0","1","0","5f2b196c0c610f4ec3eb5451","","null","","","learningBlock1","","","","This is a dep:","null","","","","","",""
"image-keyboard-response","112","284201","0.0-5.0-1.35","LF","o0xz7vf2yt","1280","720","0","1","0","5f2b196c0c610f4ec3eb5451","","null","","","","","","","learning/Slide36.JPG","null","","","","","",""
"html-keyboard-response","113","285209","0.0-5.0-2.35","LF","o0xz7vf2yt","1280","720","0","1","0","5f2b196c0c610f4ec3eb5451","","null","","","learningBlock1","","","","<div style=""font-size:60px;""> </div>","null","LF","learning/Slide36.JPG","This is a dep:","","",""
"html-keyboard-response","114","286220","0.0-5.0-0.36","LF","o0xz7vf2yt","1280","720","0","1","0","5f2b196c0c610f4ec3eb5451","","null","","","learningBlock1","","","","This is a tob:","null","","","","","",""
"image-keyboard-response","115","286566","0.0-5.0-1.36","LF","o0xz7vf2yt","1280","720","0","1","0","5f2b196c0c610f4ec3eb5451","","null","","","","","","","learning/Slide37.JPG","null","","","","","",""
"html-keyboard-response","116","287574","0.0-5.0-2.36","LF","o0xz7vf2yt","1280","720","0","1","0","5f2b196c0c610f4ec3eb5451","","null","","","learningBlock1","","","","<div style=""font-size:60px;""> </div>","null","LF","learning/Slide37.JPG","This is a tob:","","",""
"html-keyboard-response","117","288580","0.0-5.0-0.37","LF","o0xz7vf2yt","1280","720","0","1","0","5f2b196c0c610f4ec3eb5451","","null","","","learningBlock1","","","","This is a wug:","null","","","","","",""
"image-keyboard-response","118","288908","0.0-5.0-1.37","LF","o0xz7vf2yt","1280","720","0","1","0","5f2b196c0c610f4ec3eb5451","","null","","","","","","","learning/Slide38.JPG","null","","","","","",""
"html-keyboard-response","119","289925","0.0-5.0-2.37","LF","o0xz7vf2yt","1280","720","0","1","0","5f2b196c0c610f4ec3eb5451","","null","","","learningBlock1","","","","<div style=""font-size:60px;""> </div>","null","LF","learning/Slide38.JPG","This is a wug:","","",""
"html-keyboard-response","120","290928","0.0-5.0-0.38","LF","o0xz7vf2yt","1280","720","0","1","0","5f2b196c0c610f4ec3eb5451","","null","","","learningBlock1","","","","This is a bim:","null","","","","","",""
"image-keyboard-response","121","291255","0.0-5.0-1.38","LF","o0xz7vf2yt","1280","720","0","1","0","5f2b196c0c610f4ec3eb5451","","null","","","","","","","learning/Slide39.JPG","null","","","","","",""
"html-keyboard-response","122","292270","0.0-5.0-2.38","LF","o0xz7vf2yt","1280","720","0","1","0","5f2b196c0c610f4ec3eb5451","","null","","","learningBlock1","","","","<div style=""font-size:60px;""> </div>","null","LF","learning/Slide39.JPG","This is a bim:","","",""
"html-keyboard-response","123","293282","0.0-5.0-0.39","LF","o0xz7vf2yt","1280","720","0","1","0","5f2b196c0c610f4ec3eb5451","","null","","","learningBlock1","","","","This is a tob:","null","","","","","",""
"image-keyboard-response","124","293615","0.0-5.0-1.39","LF","o0xz7vf2yt","1280","720","0","1","0","5f2b196c0c610f4ec3eb5451","","null","","","","","","","learning/Slide40.JPG","null","","","","","",""
"html-keyboard-response","125","294621","0.0-5.0-2.39","LF","o0xz7vf2yt","1280","720","0","1","0","5f2b196c0c610f4ec3eb5451","","null","","","learningBlock1","","","","<div style=""font-size:60px;""> </div>","null","LF","learning/Slide40.JPG","This is a tob:","","",""
"html-keyboard-response","126","295635","0.0-5.0-0.40","LF","o0xz7vf2yt","1280","720","0","1","0","5f2b196c0c610f4ec3eb5451","","null","","","learningBlock1","","","","This is a bim:","null","","","","","",""
"image-keyboard-response","127","295965","0.0-5.0-1.40","LF","o0xz7vf2yt","1280","720","0","1","0","5f2b196c0c610f4ec3eb5451","","null","","","","","","","learning/Slide41.JPG","null","","","","","",""
"html-keyboard-response","128","296973","0.0-5.0-2.40","LF","o0xz7vf2yt","1280","720","0","1","0","5f2b196c0c610f4ec3eb5451","","null","","","learningBlock1","","","","<div style=""font-size:60px;""> </div>","null","LF","learning/Slide41.JPG","This is a bim:","","",""
"html-keyboard-response","129","297983","0.0-5.0-0.41","LF","o0xz7vf2yt","1280","720","0","1","0","5f2b196c0c610f4ec3eb5451","","null","","","learningBlock1","","","","This is a dep:","null","","","","","",""
"image-keyboard-response","130","298314","0.0-5.0-1.41","LF","o0xz7vf2yt","1280","720","0","1","0","5f2b196c0c610f4ec3eb5451","","null","","","","","","","learning/Slide42.JPG","null","","","","","",""
"html-keyboard-response","131","299323","0.0-5.0-2.41","LF","o0xz7vf2yt","1280","720","0","1","0","5f2b196c0c610f4ec3eb5451","","null","","","learningBlock1","","","","<div style=""font-size:60px;""> </div>","null","LF","learning/Slide42.JPG","This is a dep:","","",""
"html-keyboard-response","132","300334","0.0-5.0-0.42","LF","o0xz7vf2yt","1280","720","0","1","0","5f2b196c0c610f4ec3eb5451","","null","","","learningBlock1","","","","This is a wug:","null","","","","","",""
"image-keyboard-response","133","300678","0.0-5.0-1.42","LF","o0xz7vf2yt","1280","720","0","1","0","5f2b196c0c610f4ec3eb5451","","null","","","","","","","learning/Slide43.JPG","null","","","","","",""
"html-keyboard-response","134","301688","0.0-5.0-2.42","LF","o0xz7vf2yt","1280","720","0","1","0","5f2b196c0c610f4ec3eb5451","","null","","","learningBlock1","","","","<div style=""font-size:60px;""> </div>","null","LF","learning/Slide43.JPG","This is a wug:","","",""
"html-keyboard-response","135","302697","0.0-5.0-0.43","LF","o0xz7vf2yt","1280","720","0","1","0","5f2b196c0c610f4ec3eb5451","","null","","","learningBlock1","","","","This is a bim:","null","","","","","",""
"image-keyboard-response","136","303030","0.0-5.0-1.43","LF","o0xz7vf2yt","1280","720","0","1","0","5f2b196c0c610f4ec3eb5451","","null","","","","","","","learning/Slide44.JPG","null","","","","","",""
"html-keyboard-response","137","304031","0.0-5.0-2.43","LF","o0xz7vf2yt","1280","720","0","1","0","5f2b196c0c610f4ec3eb5451","","null","","","learningBlock1","","","","<div style=""font-size:60px;""> </div>","null","LF","learning/Slide44.JPG","This is a bim:","","",""
"html-keyboard-response","138","305043","0.0-5.0-0.44","LF","o0xz7vf2yt","1280","720","0","1","0","5f2b196c0c610f4ec3eb5451","","null","","","learningBlock1","","","","This is a wug:","null","","","","","",""
"image-keyboard-response","139","305370","0.0-5.0-1.44","LF","o0xz7vf2yt","1280","720","0","1","0","5f2b196c0c610f4ec3eb5451","","null","","","","","","","learning/Slide45.JPG","null","","","","","",""
"html-keyboard-response","140","306383","0.0-5.0-2.44","LF","o0xz7vf2yt","1280","720","0","1","0","5f2b196c0c610f4ec3eb5451","","null","","","learningBlock1","","","","<div style=""font-size:60px;""> </div>","null","LF","learning/Slide45.JPG","This is a wug:","","",""
"html-keyboard-response","141","307393","0.0-5.0-0.45","LF","o0xz7vf2yt","1280","720","0","1","0","5f2b196c0c610f4ec3eb5451","","null","","","learningBlock1","","","","This is a dep:","null","","","","","",""
"image-keyboard-response","142","307726","0.0-5.0-1.45","LF","o0xz7vf2yt","1280","720","0","1","0","5f2b196c0c610f4ec3eb5451","","null","","","","","","","learning/Slide46.JPG","null","","","","","",""
"html-keyboard-response","143","308739","0.0-5.0-2.45","LF","o0xz7vf2yt","1280","720","0","1","0","5f2b196c0c610f4ec3eb5451","","null","","","learningBlock1","","","","<div style=""font-size:60px;""> </div>","null","LF","learning/Slide46.JPG","This is a dep:","","",""
"html-keyboard-response","144","309745","0.0-5.0-0.46","LF","o0xz7vf2yt","1280","720","0","1","0","5f2b196c0c610f4ec3eb5451","","null","","","learningBlock1","","","","This is a tob:","null","","","","","",""
"image-keyboard-response","145","310080","0.0-5.0-1.46","LF","o0xz7vf2yt","1280","720","0","1","0","5f2b196c0c610f4ec3eb5451","","null","","","","","","","learning/Slide47.JPG","null","","","","","",""
"html-keyboard-response","146","311085","0.0-5.0-2.46","LF","o0xz7vf2yt","1280","720","0","1","0","5f2b196c0c610f4ec3eb5451","","null","","","learningBlock1","","","","<div style=""font-size:60px;""> </div>","null","LF","learning/Slide47.JPG","This is a tob:","","",""
"html-keyboard-response","147","312090","0.0-5.0-0.47","LF","o0xz7vf2yt","1280","720","0","1","0","5f2b196c0c610f4ec3eb5451","","null","","","learningBlock1","","","","This is a bim:","null","","","","","",""
"image-keyboard-response","148","312439","0.0-5.0-1.47","LF","o0xz7vf2yt","1280","720","0","1","0","5f2b196c0c610f4ec3eb5451","","null","","","","","","","learning/Slide48.JPG","null","","","","","",""
"html-keyboard-response","149","313443","0.0-5.0-2.47","LF","o0xz7vf2yt","1280","720","0","1","0","5f2b196c0c610f4ec3eb5451","","null","","","learningBlock1","","","","<div style=""font-size:60px;""> </div>","null","LF","learning/Slide48.JPG","This is a bim:","","",""
"html-keyboard-response","150","314450","0.0-5.0-0.48","LF","o0xz7vf2yt","1280","720","0","1","0","5f2b196c0c610f4ec3eb5451","","null","","","learningBlock1","","","","This is a dep:","null","","","","","",""
"image-keyboard-response","151","314783","0.0-5.0-1.48","LF","o0xz7vf2yt","1280","720","0","1","0","5f2b196c0c610f4ec3eb5451","","null","","","","","","","learning/Slide49.JPG","null","","","","","",""
"html-keyboard-response","152","315784","0.0-5.0-2.48","LF","o0xz7vf2yt","1280","720","0","1","0","5f2b196c0c610f4ec3eb5451","","null","","","learningBlock1","","","","<div style=""font-size:60px;""> </div>","null","LF","learning/Slide49.JPG","This is a dep:","","",""
"html-keyboard-response","153","316791","0.0-5.0-0.49","LF","o0xz7vf2yt","1280","720","0","1","0","5f2b196c0c610f4ec3eb5451","","null","","","learningBlock1","","","","This is a tob:","null","","","","","",""
"image-keyboard-response","154","317118","0.0-5.0-1.49","LF","o0xz7vf2yt","1280","720","0","1","0","5f2b196c0c610f4ec3eb5451","","null","","","","","","","learning/Slide50.JPG","null","","","","","",""
"html-keyboard-response","155","318132","0.0-5.0-2.49","LF","o0xz7vf2yt","1280","720","0","1","0","5f2b196c0c610f4ec3eb5451","","null","","","learningBlock1","","","","<div style=""font-size:60px;""> </div>","null","LF","learning/Slide50.JPG","This is a tob:","","",""
"html-keyboard-response","156","319142","0.0-5.0-0.50","LF","o0xz7vf2yt","1280","720","0","1","0","5f2b196c0c610f4ec3eb5451","","null","","","learningBlock1","","","","This is a bim:","null","","","","","",""
"image-keyboard-response","157","319470","0.0-5.0-1.50","LF","o0xz7vf2yt","1280","720","0","1","0","5f2b196c0c610f4ec3eb5451","","null","","","","","","","learning/Slide51.JPG","null","","","","","",""
"html-keyboard-response","158","320485","0.0-5.0-2.50","LF","o0xz7vf2yt","1280","720","0","1","0","5f2b196c0c610f4ec3eb5451","","null","","","learningBlock1","","","","<div style=""font-size:60px;""> </div>","null","LF","learning/Slide51.JPG","This is a bim:","","",""
"html-keyboard-response","159","321490","0.0-5.0-0.51","LF","o0xz7vf2yt","1280","720","0","1","0","5f2b196c0c610f4ec3eb5451","","null","","","learningBlock1","","","","This is a wug:","null","","","","","",""
"image-keyboard-response","160","321820","0.0-5.0-1.51","LF","o0xz7vf2yt","1280","720","0","1","0","5f2b196c0c610f4ec3eb5451","","null","","","","","","","learning/Slide52.JPG","null","","","","","",""
"html-keyboard-response","161","322829","0.0-5.0-2.51","LF","o0xz7vf2yt","1280","720","0","1","0","5f2b196c0c610f4ec3eb5451","","null","","","learningBlock1","","","","<div style=""font-size:60px;""> </div>","null","LF","learning/Slide52.JPG","This is a wug:","","",""
"html-keyboard-response","162","323839","0.0-5.0-0.52","LF","o0xz7vf2yt","1280","720","0","1","0","5f2b196c0c610f4ec3eb5451","","null","","","learningBlock1","","","","This is a tob:","null","","","","","",""
"image-keyboard-response","163","324167","0.0-5.0-1.52","LF","o0xz7vf2yt","1280","720","0","1","0","5f2b196c0c610f4ec3eb5451","","null","","","","","","","learning/Slide53.JPG","null","","","","","",""
"html-keyboard-response","164","325181","0.0-5.0-2.52","LF","o0xz7vf2yt","1280","720","0","1","0","5f2b196c0c610f4ec3eb5451","","null","","","learningBlock1","","","","<div style=""font-size:60px;""> </div>","null","LF","learning/Slide53.JPG","This is a tob:","","",""
"html-keyboard-response","165","326192","0.0-5.0-0.53","LF","o0xz7vf2yt","1280","720","0","1","0","5f2b196c0c610f4ec3eb5451","","null","","","learningBlock1","","","","This is a dep:","null","","","","","",""
"image-keyboard-response","166","326521","0.0-5.0-1.53","LF","o0xz7vf2yt","1280","720","0","1","0","5f2b196c0c610f4ec3eb5451","","null","","","","","","","learning/Slide54.JPG","null","","","","","",""
"html-keyboard-response","167","327532","0.0-5.0-2.53","LF","o0xz7vf2yt","1280","720","0","1","0","5f2b196c0c610f4ec3eb5451","","null","","","learningBlock1","","","","<div style=""font-size:60px;""> </div>","null","LF","learning/Slide54.JPG","This is a dep:","","",""
"html-keyboard-response","168","328544","0.0-5.0-0.54","LF","o0xz7vf2yt","1280","720","0","1","0","5f2b196c0c610f4ec3eb5451","","null","","","learningBlock1","","","","This is a bim:","null","","","","","",""
"image-keyboard-response","169","328891","0.0-5.0-1.54","LF","o0xz7vf2yt","1280","720","0","1","0","5f2b196c0c610f4ec3eb5451","","null","","","","","","","learning/Slide55.JPG","null","","","","","",""
"html-keyboard-response","170","329901","0.0-5.0-2.54","LF","o0xz7vf2yt","1280","720","0","1","0","5f2b196c0c610f4ec3eb5451","","null","","","learningBlock1","","","","<div style=""font-size:60px;""> </div>","null","LF","learning/Slide55.JPG","This is a bim:","","",""
"html-keyboard-response","171","330910","0.0-5.0-0.55","LF","o0xz7vf2yt","1280","720","0","1","0","5f2b196c0c610f4ec3eb5451","","null","","","learningBlock1","","","","This is a tob:","null","","","","","",""
"image-keyboard-response","172","331257","0.0-5.0-1.55","LF","o0xz7vf2yt","1280","720","0","1","0","5f2b196c0c610f4ec3eb5451","","null","","","","","","","learning/Slide56.JPG","null","","","","","",""
"html-keyboard-response","173","332264","0.0-5.0-2.55","LF","o0xz7vf2yt","1280","720","0","1","0","5f2b196c0c610f4ec3eb5451","","null","","","learningBlock1","","","","<div style=""font-size:60px;""> </div>","null","LF","learning/Slide56.JPG","This is a tob:","","",""
"html-keyboard-response","174","333274","0.0-5.0-0.56","LF","o0xz7vf2yt","1280","720","0","1","0","5f2b196c0c610f4ec3eb5451","","null","","","learningBlock1","","","","This is a dep:","null","","","","","",""
"image-keyboard-response","175","333607","0.0-5.0-1.56","LF","o0xz7vf2yt","1280","720","0","1","0","5f2b196c0c610f4ec3eb5451","","null","","","","","","","learning/Slide57.JPG","null","","","","","",""
"html-keyboard-response","176","334619","0.0-5.0-2.56","LF","o0xz7vf2yt","1280","720","0","1","0","5f2b196c0c610f4ec3eb5451","","null","","","learningBlock1","","","","<div style=""font-size:60px;""> </div>","null","LF","learning/Slide57.JPG","This is a dep:","","",""
"html-keyboard-response","177","335624","0.0-5.0-0.57","LF","o0xz7vf2yt","1280","720","0","1","0","5f2b196c0c610f4ec3eb5451","","null","","","learningBlock1","","","","This is a wug:","null","","","","","",""
"image-keyboard-response","178","335961","0.0-5.0-1.57","LF","o0xz7vf2yt","1280","720","0","1","0","5f2b196c0c610f4ec3eb5451","","null","","","","","","","learning/Slide58.JPG","null","","","","","",""
"html-keyboard-response","179","336976","0.0-5.0-2.57","LF","o0xz7vf2yt","1280","720","0","1","0","5f2b196c0c610f4ec3eb5451","","null","","","learningBlock1","","","","<div style=""font-size:60px;""> </div>","null","LF","learning/Slide58.JPG","This is a wug:","","",""
"html-keyboard-response","180","337987","0.0-5.0-0.58","LF","o0xz7vf2yt","1280","720","0","1","0","5f2b196c0c610f4ec3eb5451","","null","","","learningBlock1","","","","This is a dep:","null","","","","","",""
"image-keyboard-response","181","338321","0.0-5.0-1.58","LF","o0xz7vf2yt","1280","720","0","1","0","5f2b196c0c610f4ec3eb5451","","null","","","","","","","learning/Slide59.JPG","null","","","","","",""
"html-keyboard-response","182","339327","0.0-5.0-2.58","LF","o0xz7vf2yt","1280","720","0","1","0","5f2b196c0c610f4ec3eb5451","","null","","","learningBlock1","","","","<div style=""font-size:60px;""> </div>","null","LF","learning/Slide59.JPG","This is a dep:","","",""
"html-keyboard-response","183","340334","0.0-5.0-0.59","LF","o0xz7vf2yt","1280","720","0","1","0","5f2b196c0c610f4ec3eb5451","","null","","","learningBlock1","","","","This is a wug:","null","","","","","",""
"image-keyboard-response","184","340667","0.0-5.0-1.59","LF","o0xz7vf2yt","1280","720","0","1","0","5f2b196c0c610f4ec3eb5451","","null","","","","","","","learning/Slide60.JPG","null","","","","","",""
"html-keyboard-response","185","341669","0.0-5.0-2.59","LF","o0xz7vf2yt","1280","720","0","1","0","5f2b196c0c610f4ec3eb5451","","null","","","learningBlock1","","","","<div style=""font-size:60px;""> </div>","null","LF","learning/Slide60.JPG","This is a wug:","","",""
"html-keyboard-response","186","342680","0.0-5.0-0.60","LF","o0xz7vf2yt","1280","720","0","1","0","5f2b196c0c610f4ec3eb5451","","null","","","learningBlock1","","","","This is a bim:","null","","","","","",""
"image-keyboard-response","187","343010","0.0-5.0-1.60","LF","o0xz7vf2yt","1280","720","0","1","0","5f2b196c0c610f4ec3eb5451","","null","","","","","","","learning/Slide61.JPG","null","","","","","",""
"html-keyboard-response","188","344019","0.0-5.0-2.60","LF","o0xz7vf2yt","1280","720","0","1","0","5f2b196c0c610f4ec3eb5451","","null","","","learningBlock1","","","","<div style=""font-size:60px;""> </div>","null","LF","learning/Slide61.JPG","This is a bim:","","",""
"html-keyboard-response","189","345028","0.0-5.0-0.61","LF","o0xz7vf2yt","1280","720","0","1","0","5f2b196c0c610f4ec3eb5451","","null","","","learningBlock1","","","","This is a dep:","null","","","","","",""
"image-keyboard-response","190","345355","0.0-5.0-1.61","LF","o0xz7vf2yt","1280","720","0","1","0","5f2b196c0c610f4ec3eb5451","","null","","","","","","","learning/Slide62.JPG","null","","","","","",""
"html-keyboard-response","191","346368","0.0-5.0-2.61","LF","o0xz7vf2yt","1280","720","0","1","0","5f2b196c0c610f4ec3eb5451","","null","","","learningBlock1","","","","<div style=""font-size:60px;""> </div>","null","LF","learning/Slide62.JPG","This is a dep:","","",""
"html-keyboard-response","192","347378","0.0-5.0-0.62","LF","o0xz7vf2yt","1280","720","0","1","0","5f2b196c0c610f4ec3eb5451","","null","","","learningBlock1","","","","This is a bim:","null","","","","","",""
"image-keyboard-response","193","347714","0.0-5.0-1.62","LF","o0xz7vf2yt","1280","720","0","1","0","5f2b196c0c610f4ec3eb5451","","null","","","","","","","learning/Slide63.JPG","null","","","","","",""
"html-keyboard-response","194","348718","0.0-5.0-2.62","LF","o0xz7vf2yt","1280","720","0","1","0","5f2b196c0c610f4ec3eb5451","","null","","","learningBlock1","","","","<div style=""font-size:60px;""> </div>","null","LF","learning/Slide63.JPG","This is a bim:","","",""
"html-keyboard-response","195","349729","0.0-5.0-0.63","LF","o0xz7vf2yt","1280","720","0","1","0","5f2b196c0c610f4ec3eb5451","","null","","","learningBlock1","","","","This is a tob:","null","","","","","",""
"image-keyboard-response","196","350065","0.0-5.0-1.63","LF","o0xz7vf2yt","1280","720","0","1","0","5f2b196c0c610f4ec3eb5451","","null","","","","","","","learning/Slide64.JPG","null","","","","","",""
"html-keyboard-response","197","351068","0.0-5.0-2.63","LF","o0xz7vf2yt","1280","720","0","1","0","5f2b196c0c610f4ec3eb5451","","null","","","learningBlock1","","","","<div style=""font-size:60px;""> </div>","null","LF","learning/Slide64.JPG","This is a tob:","","",""
"html-keyboard-response","198","352075","0.0-5.0-0.64","LF","o0xz7vf2yt","1280","720","0","1","0","5f2b196c0c610f4ec3eb5451","","null","","","learningBlock1","","","","This is a wug:","null","","","","","",""
"image-keyboard-response","199","352410","0.0-5.0-1.64","LF","o0xz7vf2yt","1280","720","0","1","0","5f2b196c0c610f4ec3eb5451","","null","","","","","","","learning/Slide65.JPG","null","","","","","",""
"html-keyboard-response","200","353418","0.0-5.0-2.64","LF","o0xz7vf2yt","1280","720","0","1","0","5f2b196c0c610f4ec3eb5451","","null","","","learningBlock1","","","","<div style=""font-size:60px;""> </div>","null","LF","learning/Slide65.JPG","This is a wug:","","",""
"html-keyboard-response","201","354427","0.0-5.0-0.65","LF","o0xz7vf2yt","1280","720","0","1","0","5f2b196c0c610f4ec3eb5451","","null","","","learningBlock1","","","","This is a dep:","null","","","","","",""
"image-keyboard-response","202","354761","0.0-5.0-1.65","LF","o0xz7vf2yt","1280","720","0","1","0","5f2b196c0c610f4ec3eb5451","","null","","","","","","","learning/Slide66.JPG","null","","","","","",""
"html-keyboard-response","203","355774","0.0-5.0-2.65","LF","o0xz7vf2yt","1280","720","0","1","0","5f2b196c0c610f4ec3eb5451","","null","","","learningBlock1","","","","<div style=""font-size:60px;""> </div>","null","LF","learning/Slide66.JPG","This is a dep:","","",""
"html-keyboard-response","204","356785","0.0-5.0-0.66","LF","o0xz7vf2yt","1280","720","0","1","0","5f2b196c0c610f4ec3eb5451","","null","","","learningBlock1","","","","This is a tob:","null","","","","","",""
"image-keyboard-response","205","357120","0.0-5.0-1.66","LF","o0xz7vf2yt","1280","720","0","1","0","5f2b196c0c610f4ec3eb5451","","null","","","","","","","learning/Slide67.JPG","null","","","","","",""
"html-keyboard-response","206","358125","0.0-5.0-2.66","LF","o0xz7vf2yt","1280","720","0","1","0","5f2b196c0c610f4ec3eb5451","","null","","","learningBlock1","","","","<div style=""font-size:60px;""> </div>","null","LF","learning/Slide67.JPG","This is a tob:","","",""
"html-keyboard-response","207","359135","0.0-5.0-0.67","LF","o0xz7vf2yt","1280","720","0","1","0","5f2b196c0c610f4ec3eb5451","","null","","","learningBlock1","","","","This is a wug:","null","","","","","",""
"image-keyboard-response","208","359483","0.0-5.0-1.67","LF","o0xz7vf2yt","1280","720","0","1","0","5f2b196c0c610f4ec3eb5451","","null","","","","","","","learning/Slide68.JPG","null","","","","","",""
"html-keyboard-response","209","360487","0.0-5.0-2.67","LF","o0xz7vf2yt","1280","720","0","1","0","5f2b196c0c610f4ec3eb5451","","null","","","learningBlock1","","","","<div style=""font-size:60px;""> </div>","null","LF","learning/Slide68.JPG","This is a wug:","","",""
"html-keyboard-response","210","361493","0.0-5.0-0.68","LF","o0xz7vf2yt","1280","720","0","1","0","5f2b196c0c610f4ec3eb5451","","null","","","learningBlock1","","","","This is a tob:","null","","","","","",""
"image-keyboard-response","211","361823","0.0-5.0-1.68","LF","o0xz7vf2yt","1280","720","0","1","0","5f2b196c0c610f4ec3eb5451","","null","","","","","","","learning/Slide69.JPG","null","","","","","",""
"html-keyboard-response","212","362829","0.0-5.0-2.68","LF","o0xz7vf2yt","1280","720","0","1","0","5f2b196c0c610f4ec3eb5451","","null","","","learningBlock1","","","","<div style=""font-size:60px;""> </div>","null","LF","learning/Slide69.JPG","This is a tob:","","",""
"html-keyboard-response","213","363834","0.0-5.0-0.69","LF","o0xz7vf2yt","1280","720","0","1","0","5f2b196c0c610f4ec3eb5451","","null","","","learningBlock1","","","","This is a dep:","null","","","","","",""
"image-keyboard-response","214","364180","0.0-5.0-1.69","LF","o0xz7vf2yt","1280","720","0","1","0","5f2b196c0c610f4ec3eb5451","","null","","","","","","","learning/Slide70.JPG","null","","","","","",""
"html-keyboard-response","215","365188","0.0-5.0-2.69","LF","o0xz7vf2yt","1280","720","0","1","0","5f2b196c0c610f4ec3eb5451","","null","","","learningBlock1","","","","<div style=""font-size:60px;""> </div>","null","LF","learning/Slide70.JPG","This is a dep:","","",""
"html-keyboard-response","216","366192","0.0-5.0-0.70","LF","o0xz7vf2yt","1280","720","0","1","0","5f2b196c0c610f4ec3eb5451","","null","","","learningBlock1","","","","This is a wug:","null","","","","","",""
"image-keyboard-response","217","366520","0.0-5.0-1.70","LF","o0xz7vf2yt","1280","720","0","1","0","5f2b196c0c610f4ec3eb5451","","null","","","","","","","learning/Slide71.JPG","null","","","","","",""
"html-keyboard-response","218","367528","0.0-5.0-2.70","LF","o0xz7vf2yt","1280","720","0","1","0","5f2b196c0c610f4ec3eb5451","","null","","","learningBlock1","","","","<div style=""font-size:60px;""> </div>","null","LF","learning/Slide71.JPG","This is a wug:","","",""
"html-keyboard-response","219","368539","0.0-5.0-0.71","LF","o0xz7vf2yt","1280","720","0","1","0","5f2b196c0c610f4ec3eb5451","","null","","","learningBlock1","","","","This is a bim:","null","","","","","",""
"image-keyboard-response","220","368866","0.0-5.0-1.71","LF","o0xz7vf2yt","1280","720","0","1","0","5f2b196c0c610f4ec3eb5451","","null","","","","","","","learning/Slide72.JPG","null","","","","","",""
"html-keyboard-response","221","369878","0.0-5.0-2.71","LF","o0xz7vf2yt","1280","720","0","1","0","5f2b196c0c610f4ec3eb5451","","null","","","learningBlock1","","","","<div style=""font-size:60px;""> </div>","null","LF","learning/Slide72.JPG","This is a bim:","","",""
"html-keyboard-response","222","370888","0.0-5.0-0.72","LF","o0xz7vf2yt","1280","720","0","1","0","5f2b196c0c610f4ec3eb5451","","null","","","learningBlock1","","","","This is a wug:","null","","","","","",""
"image-keyboard-response","223","371222","0.0-5.0-1.72","LF","o0xz7vf2yt","1280","720","0","1","0","5f2b196c0c610f4ec3eb5451","","null","","","","","","","learning/Slide73.JPG","null","","","","","",""
"html-keyboard-response","224","372227","0.0-5.0-2.72","LF","o0xz7vf2yt","1280","720","0","1","0","5f2b196c0c610f4ec3eb5451","","null","","","learningBlock1","","","","<div style=""font-size:60px;""> </div>","null","LF","learning/Slide73.JPG","This is a wug:","","",""
"html-keyboard-response","225","373229","0.0-5.0-0.73","LF","o0xz7vf2yt","1280","720","0","1","0","5f2b196c0c610f4ec3eb5451","","null","","","learningBlock1","","","","This is a dep:","null","","","","","",""
"image-keyboard-response","226","373559","0.0-5.0-1.73","LF","o0xz7vf2yt","1280","720","0","1","0","5f2b196c0c610f4ec3eb5451","","null","","","","","","","learning/Slide74.JPG","null","","","","","",""
"html-keyboard-response","227","374568","0.0-5.0-2.73","LF","o0xz7vf2yt","1280","720","0","1","0","5f2b196c0c610f4ec3eb5451","","null","","","learningBlock1","","","","<div style=""font-size:60px;""> </div>","null","LF","learning/Slide74.JPG","This is a dep:","","",""
"html-keyboard-response","228","375576","0.0-5.0-0.74","LF","o0xz7vf2yt","1280","720","0","1","0","5f2b196c0c610f4ec3eb5451","","null","","","learningBlock1","","","","This is a tob:","null","","","","","",""
"image-keyboard-response","229","375922","0.0-5.0-1.74","LF","o0xz7vf2yt","1280","720","0","1","0","5f2b196c0c610f4ec3eb5451","","null","","","","","","","learning/Slide75.JPG","null","","","","","",""
"html-keyboard-response","230","376927","0.0-5.0-2.74","LF","o0xz7vf2yt","1280","720","0","1","0","5f2b196c0c610f4ec3eb5451","","null","","","learningBlock1","","","","<div style=""font-size:60px;""> </div>","null","LF","learning/Slide75.JPG","This is a tob:","","",""
"html-keyboard-response","231","377932","0.0-5.0-0.75","LF","o0xz7vf2yt","1280","720","0","1","0","5f2b196c0c610f4ec3eb5451","","null","","","learningBlock1","","","","This is a bim:","null","","","","","",""
"image-keyboard-response","232","378266","0.0-5.0-1.75","LF","o0xz7vf2yt","1280","720","0","1","0","5f2b196c0c610f4ec3eb5451","","null","","","","","","","learning/Slide76.JPG","null","","","","","",""
"html-keyboard-response","233","379270","0.0-5.0-2.75","LF","o0xz7vf2yt","1280","720","0","1","0","5f2b196c0c610f4ec3eb5451","","null","","","learningBlock1","","","","<div style=""font-size:60px;""> </div>","null","LF","learning/Slide76.JPG","This is a bim:","","",""
"html-keyboard-response","234","380278","0.0-5.0-0.76","LF","o0xz7vf2yt","1280","720","0","1","0","5f2b196c0c610f4ec3eb5451","","null","","","learningBlock1","","","","This is a tob:","null","","","","","",""
"image-keyboard-response","235","380606","0.0-5.0-1.76","LF","o0xz7vf2yt","1280","720","0","1","0","5f2b196c0c610f4ec3eb5451","","null","","","","","","","learning/Slide77.JPG","null","","","","","",""
"html-keyboard-response","236","381615","0.0-5.0-2.76","LF","o0xz7vf2yt","1280","720","0","1","0","5f2b196c0c610f4ec3eb5451","","null","","","learningBlock1","","","","<div style=""font-size:60px;""> </div>","null","LF","learning/Slide77.JPG","This is a tob:","","",""
"html-keyboard-response","237","382619","0.0-5.0-0.77","LF","o0xz7vf2yt","1280","720","0","1","0","5f2b196c0c610f4ec3eb5451","","null","","","learningBlock1","","","","This is a wug:","null","","","","","",""
"image-keyboard-response","238","382964","0.0-5.0-1.77","LF","o0xz7vf2yt","1280","720","0","1","0","5f2b196c0c610f4ec3eb5451","","null","","","","","","","learning/Slide78.JPG","null","","","","","",""
"html-keyboard-response","239","383969","0.0-5.0-2.77","LF","o0xz7vf2yt","1280","720","0","1","0","5f2b196c0c610f4ec3eb5451","","null","","","learningBlock1","","","","<div style=""font-size:60px;""> </div>","null","LF","learning/Slide78.JPG","This is a wug:","","",""
"html-keyboard-response","240","384976","0.0-5.0-0.78","LF","o0xz7vf2yt","1280","720","0","1","0","5f2b196c0c610f4ec3eb5451","","null","","","learningBlock1","","","","This is a bim:","null","","","","","",""
"image-keyboard-response","241","385304","0.0-5.0-1.78","LF","o0xz7vf2yt","1280","720","0","1","0","5f2b196c0c610f4ec3eb5451","","null","","","","","","","learning/Slide79.JPG","null","","","","","",""
"html-keyboard-response","242","386313","0.0-5.0-2.78","LF","o0xz7vf2yt","1280","720","0","1","0","5f2b196c0c610f4ec3eb5451","","null","","","learningBlock1","","","","<div style=""font-size:60px;""> </div>","null","LF","learning/Slide79.JPG","This is a bim:","","",""
"html-keyboard-response","243","387315","0.0-5.0-0.79","LF","o0xz7vf2yt","1280","720","0","1","0","5f2b196c0c610f4ec3eb5451","","null","","","learningBlock1","","","","This is a tob:","null","","","","","",""
"image-keyboard-response","244","387642","0.0-5.0-1.79","LF","o0xz7vf2yt","1280","720","0","1","0","5f2b196c0c610f4ec3eb5451","","null","","","","","","","learning/Slide80.JPG","null","","","","","",""
"html-keyboard-response","245","388652","0.0-5.0-2.79","LF","o0xz7vf2yt","1280","720","0","1","0","5f2b196c0c610f4ec3eb5451","","null","","","learningBlock1","","","","<div style=""font-size:60px;""> </div>","null","LF","learning/Slide80.JPG","This is a tob:","","",""
"instructions","246","390565","0.0-6.0","LF","o0xz7vf2yt","1280","720","0","1","0","5f2b196c0c610f4ec3eb5451","","NA","","[{""page_index"":0,""viewing_time"":1912.03000000678}]","instructions","","","","","","","","","","",""
"html-keyboard-response","247","391567","0.0-7.0-0.0","LF","o0xz7vf2yt","1280","720","0","1","0","5f2b196c0c610f4ec3eb5451","","null","","","learningBlock2","","","","This is a wug:","null","","","","","",""
"image-keyboard-response","248","391894","0.0-7.0-1.0","LF","o0xz7vf2yt","1280","720","0","1","0","5f2b196c0c610f4ec3eb5451","","null","","","","","","","learning/Slide81.JPG","null","","","","","",""
"html-keyboard-response","249","392909","0.0-7.0-2.0","LF","o0xz7vf2yt","1280","720","0","1","0","5f2b196c0c610f4ec3eb5451","","null","","","learningBlock2","","","","<div style=""font-size:60px;""> </div>","null","LF","learning/Slide81.JPG","This is a wug:","","",""
"html-keyboard-response","250","393918","0.0-7.0-0.1","LF","o0xz7vf2yt","1280","720","0","1","0","5f2b196c0c610f4ec3eb5451","","null","","","learningBlock2","","","","This is a bim:","null","","","","","",""
"image-keyboard-response","251","394247","0.0-7.0-1.1","LF","o0xz7vf2yt","1280","720","0","1","0","5f2b196c0c610f4ec3eb5451","","null","","","","","","","learning/Slide82.JPG","null","","","","","",""
"html-keyboard-response","252","395249","0.0-7.0-2.1","LF","o0xz7vf2yt","1280","720","0","1","0","5f2b196c0c610f4ec3eb5451","","null","","","learningBlock2","","","","<div style=""font-size:60px;""> </div>","null","LF","learning/Slide82.JPG","This is a bim:","","",""
"html-keyboard-response","253","396259","0.0-7.0-0.2","LF","o0xz7vf2yt","1280","720","0","1","0","5f2b196c0c610f4ec3eb5451","","null","","","learningBlock2","","","","This is a wug:","null","","","","","",""
"image-keyboard-response","254","396585","0.0-7.0-1.2","LF","o0xz7vf2yt","1280","720","0","1","0","5f2b196c0c610f4ec3eb5451","","null","","","","","","","learning/Slide83.JPG","null","","","","","",""
"html-keyboard-response","255","397588","0.0-7.0-2.2","LF","o0xz7vf2yt","1280","720","0","1","0","5f2b196c0c610f4ec3eb5451","","null","","","learningBlock2","","","","<div style=""font-size:60px;""> </div>","null","LF","learning/Slide83.JPG","This is a wug:","","",""
"html-keyboard-response","256","398596","0.0-7.0-0.3","LF","o0xz7vf2yt","1280","720","0","1","0","5f2b196c0c610f4ec3eb5451","","null","","","learningBlock2","","","","This is a dep:","null","","","","","",""
"image-keyboard-response","257","398928","0.0-7.0-1.3","LF","o0xz7vf2yt","1280","720","0","1","0","5f2b196c0c610f4ec3eb5451","","null","","","","","","","learning/Slide84.JPG","null","","","","","",""
"html-keyboard-response","258","399932","0.0-7.0-2.3","LF","o0xz7vf2yt","1280","720","0","1","0","5f2b196c0c610f4ec3eb5451","","null","","","learningBlock2","","","","<div style=""font-size:60px;""> </div>","null","LF","learning/Slide84.JPG","This is a dep:","","",""
"html-keyboard-response","259","400937","0.0-7.0-0.4","LF","o0xz7vf2yt","1280","720","0","1","0","5f2b196c0c610f4ec3eb5451","","null","","","learningBlock2","","","","This is a bim:","null","","","","","",""
"image-keyboard-response","260","401283","0.0-7.0-1.4","LF","o0xz7vf2yt","1280","720","0","1","0","5f2b196c0c610f4ec3eb5451","","null","","","","","","","learning/Slide85.JPG","null","","","","","",""
"html-keyboard-response","261","402292","0.0-7.0-2.4","LF","o0xz7vf2yt","1280","720","0","1","0","5f2b196c0c610f4ec3eb5451","","null","","","learningBlock2","","","","<div style=""font-size:60px;""> </div>","null","LF","learning/Slide85.JPG","This is a bim:","","",""
"html-keyboard-response","262","403298","0.0-7.0-0.5","LF","o0xz7vf2yt","1280","720","0","1","0","5f2b196c0c610f4ec3eb5451","","null","","","learningBlock2","","","","This is a tob:","null","","","","","",""
"image-keyboard-response","263","403648","0.0-7.0-1.5","LF","o0xz7vf2yt","1280","720","0","1","0","5f2b196c0c610f4ec3eb5451","","null","","","","","","","learning/Slide86.JPG","null","","","","","",""
"html-keyboard-response","264","404654","0.0-7.0-2.5","LF","o0xz7vf2yt","1280","720","0","1","0","5f2b196c0c610f4ec3eb5451","","null","","","learningBlock2","","","","<div style=""font-size:60px;""> </div>","null","LF","learning/Slide86.JPG","This is a tob:","","",""
"html-keyboard-response","265","405661","0.0-7.0-0.6","LF","o0xz7vf2yt","1280","720","0","1","0","5f2b196c0c610f4ec3eb5451","","null","","","learningBlock2","","","","This is a wug:","null","","","","","",""
"image-keyboard-response","266","405988","0.0-7.0-1.6","LF","o0xz7vf2yt","1280","720","0","1","0","5f2b196c0c610f4ec3eb5451","","null","","","","","","","learning/Slide87.JPG","null","","","","","",""
"html-keyboard-response","267","406995","0.0-7.0-2.6","LF","o0xz7vf2yt","1280","720","0","1","0","5f2b196c0c610f4ec3eb5451","","null","","","learningBlock2","","","","<div style=""font-size:60px;""> </div>","null","LF","learning/Slide87.JPG","This is a wug:","","",""
"html-keyboard-response","268","407998","0.0-7.0-0.7","LF","o0xz7vf2yt","1280","720","0","1","0","5f2b196c0c610f4ec3eb5451","","null","","","learningBlock2","","","","This is a tob:","null","","","","","",""
"image-keyboard-response","269","408327","0.0-7.0-1.7","LF","o0xz7vf2yt","1280","720","0","1","0","5f2b196c0c610f4ec3eb5451","","null","","","","","","","learning/Slide88.JPG","null","","","","","",""
"html-keyboard-response","270","409341","0.0-7.0-2.7","LF","o0xz7vf2yt","1280","720","0","1","0","5f2b196c0c610f4ec3eb5451","","null","","","learningBlock2","","","","<div style=""font-size:60px;""> </div>","null","LF","learning/Slide88.JPG","This is a tob:","","",""
"html-keyboard-response","271","410348","0.0-7.0-0.8","LF","o0xz7vf2yt","1280","720","0","1","0","5f2b196c0c610f4ec3eb5451","","null","","","learningBlock2","","","","This is a bim:","null","","","","","",""
"image-keyboard-response","272","410678","0.0-7.0-1.8","LF","o0xz7vf2yt","1280","720","0","1","0","5f2b196c0c610f4ec3eb5451","","null","","","","","","","learning/Slide89.JPG","null","","","","","",""
"html-keyboard-response","273","411690","0.0-7.0-2.8","LF","o0xz7vf2yt","1280","720","0","1","0","5f2b196c0c610f4ec3eb5451","","null","","","learningBlock2","","","","<div style=""font-size:60px;""> </div>","null","LF","learning/Slide89.JPG","This is a bim:","","",""
"html-keyboard-response","274","412695","0.0-7.0-0.9","LF","o0xz7vf2yt","1280","720","0","1","0","5f2b196c0c610f4ec3eb5451","","null","","","learningBlock2","","","","This is a dep:","null","","","","","",""
"image-keyboard-response","275","413042","0.0-7.0-1.9","LF","o0xz7vf2yt","1280","720","0","1","0","5f2b196c0c610f4ec3eb5451","","null","","","","","","","learning/Slide90.JPG","null","","","","","",""
"html-keyboard-response","276","414047","0.0-7.0-2.9","LF","o0xz7vf2yt","1280","720","0","1","0","5f2b196c0c610f4ec3eb5451","","null","","","learningBlock2","","","","<div style=""font-size:60px;""> </div>","null","LF","learning/Slide90.JPG","This is a dep:","","",""
"html-keyboard-response","277","415061","0.0-7.0-0.10","LF","o0xz7vf2yt","1280","720","0","1","0","5f2b196c0c610f4ec3eb5451","","null","","","learningBlock2","","","","This is a wug:","null","","","","","",""
"image-keyboard-response","278","415395","0.0-7.0-1.10","LF","o0xz7vf2yt","1280","720","0","1","0","5f2b196c0c610f4ec3eb5451","","null","","","","","","","learning/Slide91.JPG","null","","","","","",""
"html-keyboard-response","279","416398","0.0-7.0-2.10","LF","o0xz7vf2yt","1280","720","0","1","0","5f2b196c0c610f4ec3eb5451","","null","","","learningBlock2","","","","<div style=""font-size:60px;""> </div>","null","LF","learning/Slide91.JPG","This is a wug:","","",""
"html-keyboard-response","280","417408","0.0-7.0-0.11","LF","o0xz7vf2yt","1280","720","0","1","0","5f2b196c0c610f4ec3eb5451","","null","","","learningBlock2","","","","This is a tob:","null","","","","","",""
"image-keyboard-response","281","417741","0.0-7.0-1.11","LF","o0xz7vf2yt","1280","720","0","1","0","5f2b196c0c610f4ec3eb5451","","null","","","","","","","learning/Slide92.JPG","null","","","","","",""
"html-keyboard-response","282","418746","0.0-7.0-2.11","LF","o0xz7vf2yt","1280","720","0","1","0","5f2b196c0c610f4ec3eb5451","","null","","","learningBlock2","","","","<div style=""font-size:60px;""> </div>","null","LF","learning/Slide92.JPG","This is a tob:","","",""
"html-keyboard-response","283","419753","0.0-7.0-0.12","LF","o0xz7vf2yt","1280","720","0","1","0","5f2b196c0c610f4ec3eb5451","","null","","","learningBlock2","","","","This is a bim:","null","","","","","",""
"image-keyboard-response","284","420086","0.0-7.0-1.12","LF","o0xz7vf2yt","1280","720","0","1","0","5f2b196c0c610f4ec3eb5451","","null","","","","","","","learning/Slide93.JPG","null","","","","","",""
"html-keyboard-response","285","421093","0.0-7.0-2.12","LF","o0xz7vf2yt","1280","720","0","1","0","5f2b196c0c610f4ec3eb5451","","null","","","learningBlock2","","","","<div style=""font-size:60px;""> </div>","null","LF","learning/Slide93.JPG","This is a bim:","","",""
"html-keyboard-response","286","422100","0.0-7.0-0.13","LF","o0xz7vf2yt","1280","720","0","1","0","5f2b196c0c610f4ec3eb5451","","null","","","learningBlock2","","","","This is a tob:","null","","","","","",""
"image-keyboard-response","287","422437","0.0-7.0-1.13","LF","o0xz7vf2yt","1280","720","0","1","0","5f2b196c0c610f4ec3eb5451","","null","","","","","","","learning/Slide94.JPG","null","","","","","",""
"html-keyboard-response","288","423442","0.0-7.0-2.13","LF","o0xz7vf2yt","1280","720","0","1","0","5f2b196c0c610f4ec3eb5451","","null","","","learningBlock2","","","","<div style=""font-size:60px;""> </div>","null","LF","learning/Slide94.JPG","This is a tob:","","",""
"html-keyboard-response","289","424453","0.0-7.0-0.14","LF","o0xz7vf2yt","1280","720","0","1","0","5f2b196c0c610f4ec3eb5451","","null","","","learningBlock2","","","","This is a wug:","null","","","","","",""
"image-keyboard-response","290","424798","0.0-7.0-1.14","LF","o0xz7vf2yt","1280","720","0","1","0","5f2b196c0c610f4ec3eb5451","","null","","","","","","","learning/Slide95.JPG","null","","","","","",""
"html-keyboard-response","291","425807","0.0-7.0-2.14","LF","o0xz7vf2yt","1280","720","0","1","0","5f2b196c0c610f4ec3eb5451","","null","","","learningBlock2","","","","<div style=""font-size:60px;""> </div>","null","LF","learning/Slide95.JPG","This is a wug:","","",""
"html-keyboard-response","292","426823","0.0-7.0-0.15","LF","o0xz7vf2yt","1280","720","0","1","0","5f2b196c0c610f4ec3eb5451","","null","","","learningBlock2","","","","This is a tob:","null","","","","","",""
"image-keyboard-response","293","427167","0.0-7.0-1.15","LF","o0xz7vf2yt","1280","720","0","1","0","5f2b196c0c610f4ec3eb5451","","null","","","","","","","learning/Slide96.JPG","null","","","","","",""
"html-keyboard-response","294","428170","0.0-7.0-2.15","LF","o0xz7vf2yt","1280","720","0","1","0","5f2b196c0c610f4ec3eb5451","","null","","","learningBlock2","","","","<div style=""font-size:60px;""> </div>","null","LF","learning/Slide96.JPG","This is a tob:","","",""
"html-keyboard-response","295","429178","0.0-7.0-0.16","LF","o0xz7vf2yt","1280","720","0","1","0","5f2b196c0c610f4ec3eb5451","","null","","","learningBlock2","","","","This is a dep:","null","","","","","",""
"image-keyboard-response","296","429507","0.0-7.0-1.16","LF","o0xz7vf2yt","1280","720","0","1","0","5f2b196c0c610f4ec3eb5451","","null","","","","","","","learning/Slide97.JPG","null","","","","","",""
"html-keyboard-response","297","430515","0.0-7.0-2.16","LF","o0xz7vf2yt","1280","720","0","1","0","5f2b196c0c610f4ec3eb5451","","null","","","learningBlock2","","","","<div style=""font-size:60px;""> </div>","null","LF","learning/Slide97.JPG","This is a dep:","","",""
"html-keyboard-response","298","431524","0.0-7.0-0.17","LF","o0xz7vf2yt","1280","720","0","1","0","5f2b196c0c610f4ec3eb5451","","null","","","learningBlock2","","","","This is a bim:","null","","","","","",""
"image-keyboard-response","299","431856","0.0-7.0-1.17","LF","o0xz7vf2yt","1280","720","0","1","0","5f2b196c0c610f4ec3eb5451","","null","","","","","","","learning/Slide98.JPG","null","","","","","",""
"html-keyboard-response","300","432860","0.0-7.0-2.17","LF","o0xz7vf2yt","1280","720","0","1","0","5f2b196c0c610f4ec3eb5451","","null","","","learningBlock2","","","","<div style=""font-size:60px;""> </div>","null","LF","learning/Slide98.JPG","This is a bim:","","",""
"html-keyboard-response","301","433867","0.0-7.0-0.18","LF","o0xz7vf2yt","1280","720","0","1","0","5f2b196c0c610f4ec3eb5451","","null","","","learningBlock2","","","","This is a dep:","null","","","","","",""
"image-keyboard-response","302","434194","0.0-7.0-1.18","LF","o0xz7vf2yt","1280","720","0","1","0","5f2b196c0c610f4ec3eb5451","","null","","","","","","","learning/Slide99.JPG","null","","","","","",""
"html-keyboard-response","303","435206","0.0-7.0-2.18","LF","o0xz7vf2yt","1280","720","0","1","0","5f2b196c0c610f4ec3eb5451","","null","","","learningBlock2","","","","<div style=""font-size:60px;""> </div>","null","LF","learning/Slide99.JPG","This is a dep:","","",""
"html-keyboard-response","304","436210","0.0-7.0-0.19","LF","o0xz7vf2yt","1280","720","0","1","0","5f2b196c0c610f4ec3eb5451","","null","","","learningBlock2","","","","This is a bim:","null","","","","","",""
"image-keyboard-response","305","436560","0.0-7.0-1.19","LF","o0xz7vf2yt","1280","720","0","1","0","5f2b196c0c610f4ec3eb5451","","null","","","","","","","learning/Slide100.JPG","null","","","","","",""
"html-keyboard-response","306","437566","0.0-7.0-2.19","LF","o0xz7vf2yt","1280","720","0","1","0","5f2b196c0c610f4ec3eb5451","","null","","","learningBlock2","","","","<div style=""font-size:60px;""> </div>","null","LF","learning/Slide100.JPG","This is a bim:","","",""
"html-keyboard-response","307","438569","0.0-7.0-0.20","LF","o0xz7vf2yt","1280","720","0","1","0","5f2b196c0c610f4ec3eb5451","","null","","","learningBlock2","","","","This is a tob:","null","","","","","",""
"image-keyboard-response","308","438902","0.0-7.0-1.20","LF","o0xz7vf2yt","1280","720","0","1","0","5f2b196c0c610f4ec3eb5451","","null","","","","","","","learning/Slide101.JPG","null","","","","","",""
"html-keyboard-response","309","439904","0.0-7.0-2.20","LF","o0xz7vf2yt","1280","720","0","1","0","5f2b196c0c610f4ec3eb5451","","null","","","learningBlock2","","","","<div style=""font-size:60px;""> </div>","null","LF","learning/Slide101.JPG","This is a tob:","","",""
"html-keyboard-response","310","440906","0.0-7.0-0.21","LF","o0xz7vf2yt","1280","720","0","1","0","5f2b196c0c610f4ec3eb5451","","null","","","learningBlock2","","","","This is a bim:","null","","","","","",""
"image-keyboard-response","311","441256","0.0-7.0-1.21","LF","o0xz7vf2yt","1280","720","0","1","0","5f2b196c0c610f4ec3eb5451","","null","","","","","","","learning/Slide102.JPG","null","","","","","",""
"html-keyboard-response","312","442264","0.0-7.0-2.21","LF","o0xz7vf2yt","1280","720","0","1","0","5f2b196c0c610f4ec3eb5451","","null","","","learningBlock2","","","","<div style=""font-size:60px;""> </div>","null","LF","learning/Slide102.JPG","This is a bim:","","",""
"html-keyboard-response","313","443272","0.0-7.0-0.22","LF","o0xz7vf2yt","1280","720","0","1","0","5f2b196c0c610f4ec3eb5451","","null","","","learningBlock2","","","","This is a dep:","null","","","","","",""
"image-keyboard-response","314","443607","0.0-7.0-1.22","LF","o0xz7vf2yt","1280","720","0","1","0","5f2b196c0c610f4ec3eb5451","","null","","","","","","","learning/Slide103.JPG","null","","","","","",""
"html-keyboard-response","315","444609","0.0-7.0-2.22","LF","o0xz7vf2yt","1280","720","0","1","0","5f2b196c0c610f4ec3eb5451","","null","","","learningBlock2","","","","<div style=""font-size:60px;""> </div>","null","LF","learning/Slide103.JPG","This is a dep:","","",""
"html-keyboard-response","316","445615","0.0-7.0-0.23","LF","o0xz7vf2yt","1280","720","0","1","0","5f2b196c0c610f4ec3eb5451","","null","","","learningBlock2","","","","This is a tob:","null","","","","","",""
"image-keyboard-response","317","445949","0.0-7.0-1.23","LF","o0xz7vf2yt","1280","720","0","1","0","5f2b196c0c610f4ec3eb5451","","null","","","","","","","learning/Slide104.JPG","null","","","","","",""
"html-keyboard-response","318","446956","0.0-7.0-2.23","LF","o0xz7vf2yt","1280","720","0","1","0","5f2b196c0c610f4ec3eb5451","","null","","","learningBlock2","","","","<div style=""font-size:60px;""> </div>","null","LF","learning/Slide104.JPG","This is a tob:","","",""
"html-keyboard-response","319","447965","0.0-7.0-0.24","LF","o0xz7vf2yt","1280","720","0","1","0","5f2b196c0c610f4ec3eb5451","","null","","","learningBlock2","","","","This is a dep:","null","","","","","",""
"image-keyboard-response","320","448314","0.0-7.0-1.24","LF","o0xz7vf2yt","1280","720","0","1","0","5f2b196c0c610f4ec3eb5451","","null","","","","","","","learning/Slide105.JPG","null","","","","","",""
"html-keyboard-response","321","449320","0.0-7.0-2.24","LF","o0xz7vf2yt","1280","720","0","1","0","5f2b196c0c610f4ec3eb5451","","null","","","learningBlock2","","","","<div style=""font-size:60px;""> </div>","null","LF","learning/Slide105.JPG","This is a dep:","","",""
"html-keyboard-response","322","450325","0.0-7.0-0.25","LF","o0xz7vf2yt","1280","720","0","1","0","5f2b196c0c610f4ec3eb5451","","null","","","learningBlock2","","","","This is a wug:","null","","","","","",""
"image-keyboard-response","323","450670","0.0-7.0-1.25","LF","o0xz7vf2yt","1280","720","0","1","0","5f2b196c0c610f4ec3eb5451","","null","","","","","","","learning/Slide106.JPG","null","","","","","",""
"html-keyboard-response","324","451677","0.0-7.0-2.25","LF","o0xz7vf2yt","1280","720","0","1","0","5f2b196c0c610f4ec3eb5451","","null","","","learningBlock2","","","","<div style=""font-size:60px;""> </div>","null","LF","learning/Slide106.JPG","This is a wug:","","",""
"html-keyboard-response","325","452688","0.0-7.0-0.26","LF","o0xz7vf2yt","1280","720","0","1","0","5f2b196c0c610f4ec3eb5451","","null","","","learningBlock2","","","","This is a bim:","null","","","","","",""
"image-keyboard-response","326","453022","0.0-7.0-1.26","LF","o0xz7vf2yt","1280","720","0","1","0","5f2b196c0c610f4ec3eb5451","","null","","","","","","","learning/Slide107.JPG","null","","","","","",""
"html-keyboard-response","327","454026","0.0-7.0-2.26","LF","o0xz7vf2yt","1280","720","0","1","0","5f2b196c0c610f4ec3eb5451","","null","","","learningBlock2","","","","<div style=""font-size:60px;""> </div>","null","LF","learning/Slide107.JPG","This is a bim:","","",""
"html-keyboard-response","328","455037","0.0-7.0-0.27","LF","o0xz7vf2yt","1280","720","0","1","0","5f2b196c0c610f4ec3eb5451","","null","","","learningBlock2","","","","This is a dep:","null","","","","","",""
"image-keyboard-response","329","455369","0.0-7.0-1.27","LF","o0xz7vf2yt","1280","720","0","1","0","5f2b196c0c610f4ec3eb5451","","null","","","","","","","learning/Slide108.JPG","null","","","","","",""
"html-keyboard-response","330","456382","0.0-7.0-2.27","LF","o0xz7vf2yt","1280","720","0","1","0","5f2b196c0c610f4ec3eb5451","","null","","","learningBlock2","","","","<div style=""font-size:60px;""> </div>","null","LF","learning/Slide108.JPG","This is a dep:","","",""
"html-keyboard-response","331","457385","0.0-7.0-0.28","LF","o0xz7vf2yt","1280","720","0","1","0","5f2b196c0c610f4ec3eb5451","","null","","","learningBlock2","","","","This is a wug:","null","","","","","",""
"image-keyboard-response","332","457714","0.0-7.0-1.28","LF","o0xz7vf2yt","1280","720","0","1","0","5f2b196c0c610f4ec3eb5451","","null","","","","","","","learning/Slide109.JPG","null","","","","","",""
"html-keyboard-response","333","458721","0.0-7.0-2.28","LF","o0xz7vf2yt","1280","720","0","1","0","5f2b196c0c610f4ec3eb5451","","null","","","learningBlock2","","","","<div style=""font-size:60px;""> </div>","null","LF","learning/Slide109.JPG","This is a wug:","","",""
"html-keyboard-response","334","459737","0.0-7.0-0.29","LF","o0xz7vf2yt","1280","720","0","1","0","5f2b196c0c610f4ec3eb5451","","null","","","learningBlock2","","","","This is a bim:","null","","","","","",""
"image-keyboard-response","335","460085","0.0-7.0-1.29","LF","o0xz7vf2yt","1280","720","0","1","0","5f2b196c0c610f4ec3eb5451","","null","","","","","","","learning/Slide110.JPG","null","","","","","",""
"html-keyboard-response","336","461097","0.0-7.0-2.29","LF","o0xz7vf2yt","1280","720","0","1","0","5f2b196c0c610f4ec3eb5451","","null","","","learningBlock2","","","","<div style=""font-size:60px;""> </div>","null","LF","learning/Slide110.JPG","This is a bim:","","",""
"html-keyboard-response","337","462100","0.0-7.0-0.30","LF","o0xz7vf2yt","1280","720","0","1","0","5f2b196c0c610f4ec3eb5451","","null","","","learningBlock2","","","","This is a tob:","null","","","","","",""
"image-keyboard-response","338","462427","0.0-7.0-1.30","LF","o0xz7vf2yt","1280","720","0","1","0","5f2b196c0c610f4ec3eb5451","","null","","","","","","","learning/Slide111.JPG","null","","","","","",""
"html-keyboard-response","339","463435","0.0-7.0-2.30","LF","o0xz7vf2yt","1280","720","0","1","0","5f2b196c0c610f4ec3eb5451","","null","","","learningBlock2","","","","<div style=""font-size:60px;""> </div>","null","LF","learning/Slide111.JPG","This is a tob:","","",""
"html-keyboard-response","340","464447","0.0-7.0-0.31","LF","o0xz7vf2yt","1280","720","0","1","0","5f2b196c0c610f4ec3eb5451","","null","","","learningBlock2","","","","This is a wug:","null","","","","","",""
"image-keyboard-response","341","464792","0.0-7.0-1.31","LF","o0xz7vf2yt","1280","720","0","1","0","5f2b196c0c610f4ec3eb5451","","null","","","","","","","learning/Slide112.JPG","null","","","","","",""
"html-keyboard-response","342","465798","0.0-7.0-2.31","LF","o0xz7vf2yt","1280","720","0","1","0","5f2b196c0c610f4ec3eb5451","","null","","","learningBlock2","","","","<div style=""font-size:60px;""> </div>","null","LF","learning/Slide112.JPG","This is a wug:","","",""
"html-keyboard-response","343","466806","0.0-7.0-0.32","LF","o0xz7vf2yt","1280","720","0","1","0","5f2b196c0c610f4ec3eb5451","","null","","","learningBlock2","","","","This is a tob:","null","","","","","",""
"image-keyboard-response","344","467153","0.0-7.0-1.32","LF","o0xz7vf2yt","1280","720","0","1","0","5f2b196c0c610f4ec3eb5451","","null","","","","","","","learning/Slide113.JPG","null","","","","","",""
"html-keyboard-response","345","468159","0.0-7.0-2.32","LF","o0xz7vf2yt","1280","720","0","1","0","5f2b196c0c610f4ec3eb5451","","null","","","learningBlock2","","","","<div style=""font-size:60px;""> </div>","null","LF","learning/Slide113.JPG","This is a tob:","","",""
"html-keyboard-response","346","469168","0.0-7.0-0.33","LF","o0xz7vf2yt","1280","720","0","1","0","5f2b196c0c610f4ec3eb5451","","null","","","learningBlock2","","","","This is a wug:","null","","","","","",""
"image-keyboard-response","347","469514","0.0-7.0-1.33","LF","o0xz7vf2yt","1280","720","0","1","0","5f2b196c0c610f4ec3eb5451","","null","","","","","","","learning/Slide114.JPG","null","","","","","",""
"html-keyboard-response","348","470517","0.0-7.0-2.33","LF","o0xz7vf2yt","1280","720","0","1","0","5f2b196c0c610f4ec3eb5451","","null","","","learningBlock2","","","","<div style=""font-size:60px;""> </div>","null","LF","learning/Slide114.JPG","This is a wug:","","",""
"html-keyboard-response","349","471523","0.0-7.0-0.34","LF","o0xz7vf2yt","1280","720","0","1","0","5f2b196c0c610f4ec3eb5451","","null","","","learningBlock2","","","","This is a bim:","null","","","","","",""
"image-keyboard-response","350","471866","0.0-7.0-1.34","LF","o0xz7vf2yt","1280","720","0","1","0","5f2b196c0c610f4ec3eb5451","","null","","","","","","","learning/Slide115.JPG","null","","","","","",""
"html-keyboard-response","351","472870","0.0-7.0-2.34","LF","o0xz7vf2yt","1280","720","0","1","0","5f2b196c0c610f4ec3eb5451","","null","","","learningBlock2","","","","<div style=""font-size:60px;""> </div>","null","LF","learning/Slide115.JPG","This is a bim:","","",""
"html-keyboard-response","352","473881","0.0-7.0-0.35","LF","o0xz7vf2yt","1280","720","0","1","0","5f2b196c0c610f4ec3eb5451","","null","","","learningBlock2","","","","This is a dep:","null","","","","","",""
"image-keyboard-response","353","474215","0.0-7.0-1.35","LF","o0xz7vf2yt","1280","720","0","1","0","5f2b196c0c610f4ec3eb5451","","null","","","","","","","learning/Slide116.JPG","null","","","","","",""
"html-keyboard-response","354","475221","0.0-7.0-2.35","LF","o0xz7vf2yt","1280","720","0","1","0","5f2b196c0c610f4ec3eb5451","","null","","","learningBlock2","","","","<div style=""font-size:60px;""> </div>","null","LF","learning/Slide116.JPG","This is a dep:","","",""
"html-keyboard-response","355","476230","0.0-7.0-0.36","LF","o0xz7vf2yt","1280","720","0","1","0","5f2b196c0c610f4ec3eb5451","","null","","","learningBlock2","","","","This is a tob:","null","","","","","",""
"image-keyboard-response","356","476560","0.0-7.0-1.36","LF","o0xz7vf2yt","1280","720","0","1","0","5f2b196c0c610f4ec3eb5451","","null","","","","","","","learning/Slide117.JPG","null","","","","","",""
"html-keyboard-response","357","477566","0.0-7.0-2.36","LF","o0xz7vf2yt","1280","720","0","1","0","5f2b196c0c610f4ec3eb5451","","null","","","learningBlock2","","","","<div style=""font-size:60px;""> </div>","null","LF","learning/Slide117.JPG","This is a tob:","","",""
"html-keyboard-response","358","478578","0.0-7.0-0.37","LF","o0xz7vf2yt","1280","720","0","1","0","5f2b196c0c610f4ec3eb5451","","null","","","learningBlock2","","","","This is a dep:","null","","","","","",""
"image-keyboard-response","359","478905","0.0-7.0-1.37","LF","o0xz7vf2yt","1280","720","0","1","0","5f2b196c0c610f4ec3eb5451","","null","","","","","","","learning/Slide118.JPG","null","","","","","",""
"html-keyboard-response","360","479921","0.0-7.0-2.37","LF","o0xz7vf2yt","1280","720","0","1","0","5f2b196c0c610f4ec3eb5451","","null","","","learningBlock2","","","","<div style=""font-size:60px;""> </div>","null","LF","learning/Slide118.JPG","This is a dep:","","",""
"html-keyboard-response","361","480928","0.0-7.0-0.38","LF","o0xz7vf2yt","1280","720","0","1","0","5f2b196c0c610f4ec3eb5451","","null","","","learningBlock2","","","","This is a wug:","null","","","","","",""
"image-keyboard-response","362","481256","0.0-7.0-1.38","LF","o0xz7vf2yt","1280","720","0","1","0","5f2b196c0c610f4ec3eb5451","","null","","","","","","","learning/Slide119.JPG","null","","","","","",""
"html-keyboard-response","363","482261","0.0-7.0-2.38","LF","o0xz7vf2yt","1280","720","0","1","0","5f2b196c0c610f4ec3eb5451","","null","","","learningBlock2","","","","<div style=""font-size:60px;""> </div>","null","LF","learning/Slide119.JPG","This is a wug:","","",""
"html-keyboard-response","364","483265","0.0-7.0-0.39","LF","o0xz7vf2yt","1280","720","0","1","0","5f2b196c0c610f4ec3eb5451","","null","","","learningBlock2","","","","This is a dep:","null","","","","","",""
"image-keyboard-response","365","483606","0.0-7.0-1.39","LF","o0xz7vf2yt","1280","720","0","1","0","5f2b196c0c610f4ec3eb5451","","null","","","","","","","learning/Slide120.JPG","null","","","","","",""
"html-keyboard-response","366","484620","0.0-7.0-2.39","LF","o0xz7vf2yt","1280","720","0","1","0","5f2b196c0c610f4ec3eb5451","","null","","","learningBlock2","","","","<div style=""font-size:60px;""> </div>","null","LF","learning/Slide120.JPG","This is a dep:","","",""
"html-keyboard-response","367","485624","0.0-7.0-0.40","LF","o0xz7vf2yt","1280","720","0","1","0","5f2b196c0c610f4ec3eb5451","","null","","","learningBlock2","","","","This is a bim:","null","","","","","",""
"image-keyboard-response","368","485951","0.0-7.0-1.40","LF","o0xz7vf2yt","1280","720","0","1","0","5f2b196c0c610f4ec3eb5451","","null","","","","","","","learning/Slide121.JPG","null","","","","","",""
"html-keyboard-response","369","486956","0.0-7.0-2.40","LF","o0xz7vf2yt","1280","720","0","1","0","5f2b196c0c610f4ec3eb5451","","null","","","learningBlock2","","","","<div style=""font-size:60px;""> </div>","null","LF","learning/Slide121.JPG","This is a bim:","","",""
"html-keyboard-response","370","487960","0.0-7.0-0.41","LF","o0xz7vf2yt","1280","720","0","1","0","5f2b196c0c610f4ec3eb5451","","null","","","learningBlock2","","","","This is a wug:","null","","","","","",""
"image-keyboard-response","371","488305","0.0-7.0-1.41","LF","o0xz7vf2yt","1280","720","0","1","0","5f2b196c0c610f4ec3eb5451","","null","","","","","","","learning/Slide122.JPG","null","","","","","",""
"html-keyboard-response","372","489314","0.0-7.0-2.41","LF","o0xz7vf2yt","1280","720","0","1","0","5f2b196c0c610f4ec3eb5451","","null","","","learningBlock2","","","","<div style=""font-size:60px;""> </div>","null","LF","learning/Slide122.JPG","This is a wug:","","",""
"html-keyboard-response","373","490317","0.0-7.0-0.42","LF","o0xz7vf2yt","1280","720","0","1","0","5f2b196c0c610f4ec3eb5451","","null","","","learningBlock2","","","","This is a bim:","null","","","","","",""
"image-keyboard-response","374","490647","0.0-7.0-1.42","LF","o0xz7vf2yt","1280","720","0","1","0","5f2b196c0c610f4ec3eb5451","","null","","","","","","","learning/Slide123.JPG","null","","","","","",""
"html-keyboard-response","375","491664","0.0-7.0-2.42","LF","o0xz7vf2yt","1280","720","0","1","0","5f2b196c0c610f4ec3eb5451","","null","","","learningBlock2","","","","<div style=""font-size:60px;""> </div>","null","LF","learning/Slide123.JPG","This is a bim:","","",""
"html-keyboard-response","376","492674","0.0-7.0-0.43","LF","o0xz7vf2yt","1280","720","0","1","0","5f2b196c0c610f4ec3eb5451","","null","","","learningBlock2","","","","This is a tob:","null","","","","","",""
"image-keyboard-response","377","493008","0.0-7.0-1.43","LF","o0xz7vf2yt","1280","720","0","1","0","5f2b196c0c610f4ec3eb5451","","null","","","","","","","learning/Slide124.JPG","null","","","","","",""
"html-keyboard-response","378","494019","0.0-7.0-2.43","LF","o0xz7vf2yt","1280","720","0","1","0","5f2b196c0c610f4ec3eb5451","","null","","","learningBlock2","","","","<div style=""font-size:60px;""> </div>","null","LF","learning/Slide124.JPG","This is a tob:","","",""
"html-keyboard-response","379","495021","0.0-7.0-0.44","LF","o0xz7vf2yt","1280","720","0","1","0","5f2b196c0c610f4ec3eb5451","","null","","","learningBlock2","","","","This is a bim:","null","","","","","",""
"image-keyboard-response","380","495364","0.0-7.0-1.44","LF","o0xz7vf2yt","1280","720","0","1","0","5f2b196c0c610f4ec3eb5451","","null","","","","","","","learning/Slide125.JPG","null","","","","","",""
"html-keyboard-response","381","496382","0.0-7.0-2.44","LF","o0xz7vf2yt","1280","720","0","1","0","5f2b196c0c610f4ec3eb5451","","null","","","learningBlock2","","","","<div style=""font-size:60px;""> </div>","null","LF","learning/Slide125.JPG","This is a bim:","","",""
"html-keyboard-response","382","497385","0.0-7.0-0.45","LF","o0xz7vf2yt","1280","720","0","1","0","5f2b196c0c610f4ec3eb5451","","null","","","learningBlock2","","","","This is a tob:","null","","","","","",""
"image-keyboard-response","383","497713","0.0-7.0-1.45","LF","o0xz7vf2yt","1280","720","0","1","0","5f2b196c0c610f4ec3eb5451","","null","","","","","","","learning/Slide126.JPG","null","","","","","",""
"html-keyboard-response","384","498723","0.0-7.0-2.45","LF","o0xz7vf2yt","1280","720","0","1","0","5f2b196c0c610f4ec3eb5451","","null","","","learningBlock2","","","","<div style=""font-size:60px;""> </div>","null","LF","learning/Slide126.JPG","This is a tob:","","",""
"html-keyboard-response","385","499726","0.0-7.0-0.46","LF","o0xz7vf2yt","1280","720","0","1","0","5f2b196c0c610f4ec3eb5451","","null","","","learningBlock2","","","","This is a dep:","null","","","","","",""
"image-keyboard-response","386","500054","0.0-7.0-1.46","LF","o0xz7vf2yt","1280","720","0","1","0","5f2b196c0c610f4ec3eb5451","","null","","","","","","","learning/Slide127.JPG","null","","","","","",""
"html-keyboard-response","387","501057","0.0-7.0-2.46","LF","o0xz7vf2yt","1280","720","0","1","0","5f2b196c0c610f4ec3eb5451","","null","","","learningBlock2","","","","<div style=""font-size:60px;""> </div>","null","LF","learning/Slide127.JPG","This is a dep:","","",""
"html-keyboard-response","388","502061","0.0-7.0-0.47","LF","o0xz7vf2yt","1280","720","0","1","0","5f2b196c0c610f4ec3eb5451","","null","","","learningBlock2","","","","This is a wug:","null","","","","","",""
"image-keyboard-response","389","502395","0.0-7.0-1.47","LF","o0xz7vf2yt","1280","720","0","1","0","5f2b196c0c610f4ec3eb5451","","null","","","","","","","learning/Slide128.JPG","null","","","","","",""
"html-keyboard-response","390","503405","0.0-7.0-2.47","LF","o0xz7vf2yt","1280","720","0","1","0","5f2b196c0c610f4ec3eb5451","","null","","","learningBlock2","","","","<div style=""font-size:60px;""> </div>","null","LF","learning/Slide128.JPG","This is a wug:","","",""
"html-keyboard-response","391","504410","0.0-7.0-0.48","LF","o0xz7vf2yt","1280","720","0","1","0","5f2b196c0c610f4ec3eb5451","","null","","","learningBlock2","","","","This is a tob:","null","","","","","",""
"image-keyboard-response","392","504737","0.0-7.0-1.48","LF","o0xz7vf2yt","1280","720","0","1","0","5f2b196c0c610f4ec3eb5451","","null","","","","","","","learning/Slide129.JPG","null","","","","","",""
"html-keyboard-response","393","505741","0.0-7.0-2.48","LF","o0xz7vf2yt","1280","720","0","1","0","5f2b196c0c610f4ec3eb5451","","null","","","learningBlock2","","","","<div style=""font-size:60px;""> </div>","null","LF","learning/Slide129.JPG","This is a tob:","","",""
"html-keyboard-response","394","506752","0.0-7.0-0.49","LF","o0xz7vf2yt","1280","720","0","1","0","5f2b196c0c610f4ec3eb5451","","null","","","learningBlock2","","","","This is a wug:","null","","","","","",""
"image-keyboard-response","395","507080","0.0-7.0-1.49","LF","o0xz7vf2yt","1280","720","0","1","0","5f2b196c0c610f4ec3eb5451","","null","","","","","","","learning/Slide130.JPG","null","","","","","",""
"html-keyboard-response","396","508097","0.0-7.0-2.49","LF","o0xz7vf2yt","1280","720","0","1","0","5f2b196c0c610f4ec3eb5451","","null","","","learningBlock2","","","","<div style=""font-size:60px;""> </div>","null","LF","learning/Slide130.JPG","This is a wug:","","",""
"html-keyboard-response","397","509106","0.0-7.0-0.50","LF","o0xz7vf2yt","1280","720","0","1","0","5f2b196c0c610f4ec3eb5451","","null","","","learningBlock2","","","","This is a bim:","null","","","","","",""
"image-keyboard-response","398","509450","0.0-7.0-1.50","LF","o0xz7vf2yt","1280","720","0","1","0","5f2b196c0c610f4ec3eb5451","","null","","","","","","","learning/Slide131.JPG","null","","","","","",""
"html-keyboard-response","399","510456","0.0-7.0-2.50","LF","o0xz7vf2yt","1280","720","0","1","0","5f2b196c0c610f4ec3eb5451","","null","","","learningBlock2","","","","<div style=""font-size:60px;""> </div>","null","LF","learning/Slide131.JPG","This is a bim:","","",""
"html-keyboard-response","400","511458","0.0-7.0-0.51","LF","o0xz7vf2yt","1280","720","0","1","0","5f2b196c0c610f4ec3eb5451","","null","","","learningBlock2","","","","This is a dep:","null","","","","","",""
"image-keyboard-response","401","511790","0.0-7.0-1.51","LF","o0xz7vf2yt","1280","720","0","1","0","5f2b196c0c610f4ec3eb5451","","null","","","","","","","learning/Slide132.JPG","null","","","","","",""
"html-keyboard-response","402","512797","0.0-7.0-2.51","LF","o0xz7vf2yt","1280","720","0","1","0","5f2b196c0c610f4ec3eb5451","","null","","","learningBlock2","","","","<div style=""font-size:60px;""> </div>","null","LF","learning/Slide132.JPG","This is a dep:","","",""
"html-keyboard-response","403","513805","0.0-7.0-0.52","LF","o0xz7vf2yt","1280","720","0","1","0","5f2b196c0c610f4ec3eb5451","","null","","","learningBlock2","","","","This is a tob:","null","","","","","",""
"image-keyboard-response","404","514141","0.0-7.0-1.52","LF","o0xz7vf2yt","1280","720","0","1","0","5f2b196c0c610f4ec3eb5451","","null","","","","","","","learning/Slide133.JPG","null","","","","","",""
"html-keyboard-response","405","515154","0.0-7.0-2.52","LF","o0xz7vf2yt","1280","720","0","1","0","5f2b196c0c610f4ec3eb5451","","null","","","learningBlock2","","","","<div style=""font-size:60px;""> </div>","null","LF","learning/Slide133.JPG","This is a tob:","","",""
"html-keyboard-response","406","516163","0.0-7.0-0.53","LF","o0xz7vf2yt","1280","720","0","1","0","5f2b196c0c610f4ec3eb5451","","null","","","learningBlock2","","","","This is a dep:","null","","","","","",""
"image-keyboard-response","407","516510","0.0-7.0-1.53","LF","o0xz7vf2yt","1280","720","0","1","0","5f2b196c0c610f4ec3eb5451","","null","","","","","","","learning/Slide134.JPG","null","","","","","",""
"html-keyboard-response","408","517514","0.0-7.0-2.53","LF","o0xz7vf2yt","1280","720","0","1","0","5f2b196c0c610f4ec3eb5451","","null","","","learningBlock2","","","","<div style=""font-size:60px;""> </div>","null","LF","learning/Slide134.JPG","This is a dep:","","",""
"html-keyboard-response","409","518516","0.0-7.0-0.54","LF","o0xz7vf2yt","1280","720","0","1","0","5f2b196c0c610f4ec3eb5451","","null","","","learningBlock2","","","","This is a tob:","null","","","","","",""
"image-keyboard-response","410","518858","0.0-7.0-1.54","LF","o0xz7vf2yt","1280","720","0","1","0","5f2b196c0c610f4ec3eb5451","","null","","","","","","","learning/Slide135.JPG","null","","","","","",""
"html-keyboard-response","411","519865","0.0-7.0-2.54","LF","o0xz7vf2yt","1280","720","0","1","0","5f2b196c0c610f4ec3eb5451","","null","","","learningBlock2","","","","<div style=""font-size:60px;""> </div>","null","LF","learning/Slide135.JPG","This is a tob:","","",""
"html-keyboard-response","412","520866","0.0-7.0-0.55","LF","o0xz7vf2yt","1280","720","0","1","0","5f2b196c0c610f4ec3eb5451","","null","","","learningBlock2","","","","This is a wug:","null","","","","","",""
"image-keyboard-response","413","521193","0.0-7.0-1.55","LF","o0xz7vf2yt","1280","720","0","1","0","5f2b196c0c610f4ec3eb5451","","null","","","","","","","learning/Slide136.JPG","null","","","","","",""
"html-keyboard-response","414","522195","0.0-7.0-2.55","LF","o0xz7vf2yt","1280","720","0","1","0","5f2b196c0c610f4ec3eb5451","","null","","","learningBlock2","","","","<div style=""font-size:60px;""> </div>","null","LF","learning/Slide136.JPG","This is a wug:","","",""
"html-keyboard-response","415","523203","0.0-7.0-0.56","LF","o0xz7vf2yt","1280","720","0","1","0","5f2b196c0c610f4ec3eb5451","","null","","","learningBlock2","","","","This is a tob:","null","","","","","",""
"image-keyboard-response","416","523549","0.0-7.0-1.56","LF","o0xz7vf2yt","1280","720","0","1","0","5f2b196c0c610f4ec3eb5451","","null","","","","","","","learning/Slide137.JPG","null","","","","","",""
"html-keyboard-response","417","524560","0.0-7.0-2.56","LF","o0xz7vf2yt","1280","720","0","1","0","5f2b196c0c610f4ec3eb5451","","null","","","learningBlock2","","","","<div style=""font-size:60px;""> </div>","null","LF","learning/Slide137.JPG","This is a tob:","","",""
"html-keyboard-response","418","525570","0.0-7.0-0.57","LF","o0xz7vf2yt","1280","720","0","1","0","5f2b196c0c610f4ec3eb5451","","null","","","learningBlock2","","","","This is a bim:","null","","","","","",""
"image-keyboard-response","419","525908","0.0-7.0-1.57","LF","o0xz7vf2yt","1280","720","0","1","0","5f2b196c0c610f4ec3eb5451","","null","","","","","","","learning/Slide138.JPG","null","","","","","",""
"html-keyboard-response","420","526923","0.0-7.0-2.57","LF","o0xz7vf2yt","1280","720","0","1","0","5f2b196c0c610f4ec3eb5451","","null","","","learningBlock2","","","","<div style=""font-size:60px;""> </div>","null","LF","learning/Slide138.JPG","This is a bim:","","",""
"html-keyboard-response","421","527929","0.0-7.0-0.58","LF","o0xz7vf2yt","1280","720","0","1","0","5f2b196c0c610f4ec3eb5451","","null","","","learningBlock2","","","","This is a wug:","null","","","","","",""
"image-keyboard-response","422","528258","0.0-7.0-1.58","LF","o0xz7vf2yt","1280","720","0","1","0","5f2b196c0c610f4ec3eb5451","","null","","","","","","","learning/Slide139.JPG","null","","","","","",""
"html-keyboard-response","423","529266","0.0-7.0-2.58","LF","o0xz7vf2yt","1280","720","0","1","0","5f2b196c0c610f4ec3eb5451","","null","","","learningBlock2","","","","<div style=""font-size:60px;""> </div>","null","LF","learning/Slide139.JPG","This is a wug:","","",""
"html-keyboard-response","424","530269","0.0-7.0-0.59","LF","o0xz7vf2yt","1280","720","0","1","0","5f2b196c0c610f4ec3eb5451","","null","","","learningBlock2","","","","This is a dep:","null","","","","","",""
"image-keyboard-response","425","530621","0.0-7.0-1.59","LF","o0xz7vf2yt","1280","720","0","1","0","5f2b196c0c610f4ec3eb5451","","null","","","","","","","learning/Slide140.JPG","null","","","","","",""
"html-keyboard-response","426","531626","0.0-7.0-2.59","LF","o0xz7vf2yt","1280","720","0","1","0","5f2b196c0c610f4ec3eb5451","","null","","","learningBlock2","","","","<div style=""font-size:60px;""> </div>","null","LF","learning/Slide140.JPG","This is a dep:","","",""
"html-keyboard-response","427","532637","0.0-7.0-0.60","LF","o0xz7vf2yt","1280","720","0","1","0","5f2b196c0c610f4ec3eb5451","","null","","","learningBlock2","","","","This is a tob:","null","","","","","",""
"image-keyboard-response","428","532966","0.0-7.0-1.60","LF","o0xz7vf2yt","1280","720","0","1","0","5f2b196c0c610f4ec3eb5451","","null","","","","","","","learning/Slide141.JPG","null","","","","","",""
"html-keyboard-response","429","533979","0.0-7.0-2.60","LF","o0xz7vf2yt","1280","720","0","1","0","5f2b196c0c610f4ec3eb5451","","null","","","learningBlock2","","","","<div style=""font-size:60px;""> </div>","null","LF","learning/Slide141.JPG","This is a tob:","","",""
"html-keyboard-response","430","534986","0.0-7.0-0.61","LF","o0xz7vf2yt","1280","720","0","1","0","5f2b196c0c610f4ec3eb5451","","null","","","learningBlock2","","","","This is a wug:","null","","","","","",""
"image-keyboard-response","431","535316","0.0-7.0-1.61","LF","o0xz7vf2yt","1280","720","0","1","0","5f2b196c0c610f4ec3eb5451","","null","","","","","","","learning/Slide142.JPG","null","","","","","",""
"html-keyboard-response","432","536325","0.0-7.0-2.61","LF","o0xz7vf2yt","1280","720","0","1","0","5f2b196c0c610f4ec3eb5451","","null","","","learningBlock2","","","","<div style=""font-size:60px;""> </div>","null","LF","learning/Slide142.JPG","This is a wug:","","",""
"html-keyboard-response","433","537337","0.0-7.0-0.62","LF","o0xz7vf2yt","1280","720","0","1","0","5f2b196c0c610f4ec3eb5451","","null","","","learningBlock2","","","","This is a bim:","null","","","","","",""
"image-keyboard-response","434","537670","0.0-7.0-1.62","LF","o0xz7vf2yt","1280","720","0","1","0","5f2b196c0c610f4ec3eb5451","","null","","","","","","","learning/Slide143.JPG","null","","","","","",""
"html-keyboard-response","435","538674","0.0-7.0-2.62","LF","o0xz7vf2yt","1280","720","0","1","0","5f2b196c0c610f4ec3eb5451","","null","","","learningBlock2","","","","<div style=""font-size:60px;""> </div>","null","LF","learning/Slide143.JPG","This is a bim:","","",""
"html-keyboard-response","436","539680","0.0-7.0-0.63","LF","o0xz7vf2yt","1280","720","0","1","0","5f2b196c0c610f4ec3eb5451","","null","","","learningBlock2","","","","This is a dep:","null","","","","","",""
"image-keyboard-response","437","540008","0.0-7.0-1.63","LF","o0xz7vf2yt","1280","720","0","1","0","5f2b196c0c610f4ec3eb5451","","null","","","","","","","learning/Slide144.JPG","null","","","","","",""
