"trial_type","trial_index","time_elapsed","internal_node_id","condition","subject","screen_width","screen_height","attention","distraction","conscientious","prolificID","success","rt","url","view_history","test_part","final_height_px","final_width_px","scale_factor","stimulus","key_press","learningType","presentedImage","presentedLabel","button_pressed","response","responses"
"pavlovia","0","25","0.0-0.0","LF","32gxlbaw1s","1920","1080","0","1","0","5ea2381ad0a4b71481c298e7","","","","","","","","","","","","","","","",""
"fullscreen","1","17840","0.0-1.0","LF","32gxlbaw1s","1920","1080","0","1","0","5ea2381ad0a4b71481c298e7","true","","","","","","","","","","","","","","",""
"external-html","2","47024","0.0-2.0-0.0","LF","32gxlbaw1s","1920","1080","0","1","0","5ea2381ad0a4b71481c298e7","","29137.000000002445","text/information_english.html","","","","","","","","","","","","",""
"external-html","3","79402","0.0-2.0-1.0","LF","32gxlbaw1s","1920","1080","0","1","0","5ea2381ad0a4b71481c298e7","","32332.27500000794","text/consent_english.html","","","","","","","","","","","","",""
"instructions","4","98409","0.0-3.0","LF","32gxlbaw1s","1920","1080","0","1","0","5ea2381ad0a4b71481c298e7","","NA","","[{""page_index"":0,""viewing_time"":4248.470000005909},{""page_index"":1,""viewing_time"":14756.815000000643}]","instructions","","","","","","","","","","",""
"resize","5","152442","0.0-4.0","LF","32gxlbaw1s","1920","1080","0","1","0","5ea2381ad0a4b71481c298e7","","","","","","","316","2.0063492063492063","","","","","","","",""
"html-keyboard-response","6","153444","0.0-5.0-0.0","LF","32gxlbaw1s","1920","1080","0","1","0","5ea2381ad0a4b71481c298e7","","null","","","learningBlock1","","","","This is a tob:","null","","","","","",""
"image-keyboard-response","7","153772","0.0-5.0-1.0","LF","32gxlbaw1s","1920","1080","0","1","0","5ea2381ad0a4b71481c298e7","","null","","","","","","","learning/Slide1.JPG","null","","","","","",""
"html-keyboard-response","8","154774","0.0-5.0-2.0","LF","32gxlbaw1s","1920","1080","0","1","0","5ea2381ad0a4b71481c298e7","","null","","","learningBlock1","","","","<div style=""font-size:60px;""> </div>","null","LF","learning/Slide1.JPG","This is a tob:","","",""
"html-keyboard-response","9","155776","0.0-5.0-0.1","LF","32gxlbaw1s","1920","1080","0","1","0","5ea2381ad0a4b71481c298e7","","null","","","learningBlock1","","","","This is a wug:","null","","","","","",""
"image-keyboard-response","10","156103","0.0-5.0-1.1","LF","32gxlbaw1s","1920","1080","0","1","0","5ea2381ad0a4b71481c298e7","","null","","","","","","","learning/Slide2.JPG","null","","","","","",""
"html-keyboard-response","11","157104","0.0-5.0-2.1","LF","32gxlbaw1s","1920","1080","0","1","0","5ea2381ad0a4b71481c298e7","","null","","","learningBlock1","","","","<div style=""font-size:60px;""> </div>","null","LF","learning/Slide2.JPG","This is a wug:","","",""
"html-keyboard-response","12","158106","0.0-5.0-0.2","LF","32gxlbaw1s","1920","1080","0","1","0","5ea2381ad0a4b71481c298e7","","null","","","learningBlock1","","","","This is a bim:","null","","","","","",""
"image-keyboard-response","13","158433","0.0-5.0-1.2","LF","32gxlbaw1s","1920","1080","0","1","0","5ea2381ad0a4b71481c298e7","","null","","","","","","","learning/Slide3.JPG","null","","","","","",""
"html-keyboard-response","14","159434","0.0-5.0-2.2","LF","32gxlbaw1s","1920","1080","0","1","0","5ea2381ad0a4b71481c298e7","","null","","","learningBlock1","","","","<div style=""font-size:60px;""> </div>","null","LF","learning/Slide3.JPG","This is a bim:","","",""
"html-keyboard-response","15","160435","0.0-5.0-0.3","LF","32gxlbaw1s","1920","1080","0","1","0","5ea2381ad0a4b71481c298e7","","null","","","learningBlock1","","","","This is a dep:","null","","","","","",""
"image-keyboard-response","16","160763","0.0-5.0-1.3","LF","32gxlbaw1s","1920","1080","0","1","0","5ea2381ad0a4b71481c298e7","","null","","","","","","","learning/Slide4.JPG","null","","","","","",""
"html-keyboard-response","17","161764","0.0-5.0-2.3","LF","32gxlbaw1s","1920","1080","0","1","0","5ea2381ad0a4b71481c298e7","","null","","","learningBlock1","","","","<div style=""font-size:60px;""> </div>","null","LF","learning/Slide4.JPG","This is a dep:","","",""
"html-keyboard-response","18","162765","0.0-5.0-0.4","LF","32gxlbaw1s","1920","1080","0","1","0","5ea2381ad0a4b71481c298e7","","null","","","learningBlock1","","","","This is a wug:","null","","","","","",""
"image-keyboard-response","19","163092","0.0-5.0-1.4","LF","32gxlbaw1s","1920","1080","0","1","0","5ea2381ad0a4b71481c298e7","","null","","","","","","","learning/Slide5.JPG","null","","","","","",""
"html-keyboard-response","20","164094","0.0-5.0-2.4","LF","32gxlbaw1s","1920","1080","0","1","0","5ea2381ad0a4b71481c298e7","","null","","","learningBlock1","","","","<div style=""font-size:60px;""> </div>","null","LF","learning/Slide5.JPG","This is a wug:","","",""
"html-keyboard-response","21","165095","0.0-5.0-0.5","LF","32gxlbaw1s","1920","1080","0","1","0","5ea2381ad0a4b71481c298e7","","null","","","learningBlock1","","","","This is a dep:","null","","","","","",""
"image-keyboard-response","22","165423","0.0-5.0-1.5","LF","32gxlbaw1s","1920","1080","0","1","0","5ea2381ad0a4b71481c298e7","","null","","","","","","","learning/Slide6.JPG","null","","","","","",""
"html-keyboard-response","23","166425","0.0-5.0-2.5","LF","32gxlbaw1s","1920","1080","0","1","0","5ea2381ad0a4b71481c298e7","","null","","","learningBlock1","","","","<div style=""font-size:60px;""> </div>","null","LF","learning/Slide6.JPG","This is a dep:","","",""
"html-keyboard-response","24","167426","0.0-5.0-0.6","LF","32gxlbaw1s","1920","1080","0","1","0","5ea2381ad0a4b71481c298e7","","null","","","learningBlock1","","","","This is a wug:","null","","","","","",""
"image-keyboard-response","25","167754","0.0-5.0-1.6","LF","32gxlbaw1s","1920","1080","0","1","0","5ea2381ad0a4b71481c298e7","","null","","","","","","","learning/Slide7.JPG","null","","","","","",""
"html-keyboard-response","26","168755","0.0-5.0-2.6","LF","32gxlbaw1s","1920","1080","0","1","0","5ea2381ad0a4b71481c298e7","","null","","","learningBlock1","","","","<div style=""font-size:60px;""> </div>","null","LF","learning/Slide7.JPG","This is a wug:","","",""
"html-keyboard-response","27","169756","0.0-5.0-0.7","LF","32gxlbaw1s","1920","1080","0","1","0","5ea2381ad0a4b71481c298e7","","null","","","learningBlock1","","","","This is a bim:","null","","","","","",""
"image-keyboard-response","28","170083","0.0-5.0-1.7","LF","32gxlbaw1s","1920","1080","0","1","0","5ea2381ad0a4b71481c298e7","","null","","","","","","","learning/Slide8.JPG","null","","","","","",""
"html-keyboard-response","29","171085","0.0-5.0-2.7","LF","32gxlbaw1s","1920","1080","0","1","0","5ea2381ad0a4b71481c298e7","","null","","","learningBlock1","","","","<div style=""font-size:60px;""> </div>","null","LF","learning/Slide8.JPG","This is a bim:","","",""
"html-keyboard-response","30","172087","0.0-5.0-0.8","LF","32gxlbaw1s","1920","1080","0","1","0","5ea2381ad0a4b71481c298e7","","null","","","learningBlock1","","","","This is a wug:","null","","","","","",""
"image-keyboard-response","31","172414","0.0-5.0-1.8","LF","32gxlbaw1s","1920","1080","0","1","0","5ea2381ad0a4b71481c298e7","","null","","","","","","","learning/Slide9.JPG","null","","","","","",""
"html-keyboard-response","32","173415","0.0-5.0-2.8","LF","32gxlbaw1s","1920","1080","0","1","0","5ea2381ad0a4b71481c298e7","","null","","","learningBlock1","","","","<div style=""font-size:60px;""> </div>","null","LF","learning/Slide9.JPG","This is a wug:","","",""
"html-keyboard-response","33","174416","0.0-5.0-0.9","LF","32gxlbaw1s","1920","1080","0","1","0","5ea2381ad0a4b71481c298e7","","null","","","learningBlock1","","","","This is a dep:","null","","","","","",""
"image-keyboard-response","34","174744","0.0-5.0-1.9","LF","32gxlbaw1s","1920","1080","0","1","0","5ea2381ad0a4b71481c298e7","","null","","","","","","","learning/Slide10.JPG","null","","","","","",""
"html-keyboard-response","35","175746","0.0-5.0-2.9","LF","32gxlbaw1s","1920","1080","0","1","0","5ea2381ad0a4b71481c298e7","","null","","","learningBlock1","","","","<div style=""font-size:60px;""> </div>","null","LF","learning/Slide10.JPG","This is a dep:","","",""
"html-keyboard-response","36","176747","0.0-5.0-0.10","LF","32gxlbaw1s","1920","1080","0","1","0","5ea2381ad0a4b71481c298e7","","null","","","learningBlock1","","","","This is a tob:","null","","","","","",""
"image-keyboard-response","37","177075","0.0-5.0-1.10","LF","32gxlbaw1s","1920","1080","0","1","0","5ea2381ad0a4b71481c298e7","","null","","","","","","","learning/Slide11.JPG","null","","","","","",""
"html-keyboard-response","38","178077","0.0-5.0-2.10","LF","32gxlbaw1s","1920","1080","0","1","0","5ea2381ad0a4b71481c298e7","","null","","","learningBlock1","","","","<div style=""font-size:60px;""> </div>","null","LF","learning/Slide11.JPG","This is a tob:","","",""
"html-keyboard-response","39","179079","0.0-5.0-0.11","LF","32gxlbaw1s","1920","1080","0","1","0","5ea2381ad0a4b71481c298e7","","null","","","learningBlock1","","","","This is a dep:","null","","","","","",""
"image-keyboard-response","40","179407","0.0-5.0-1.11","LF","32gxlbaw1s","1920","1080","0","1","0","5ea2381ad0a4b71481c298e7","","null","","","","","","","learning/Slide12.JPG","null","","","","","",""
"html-keyboard-response","41","180408","0.0-5.0-2.11","LF","32gxlbaw1s","1920","1080","0","1","0","5ea2381ad0a4b71481c298e7","","null","","","learningBlock1","","","","<div style=""font-size:60px;""> </div>","null","LF","learning/Slide12.JPG","This is a dep:","","",""
"html-keyboard-response","42","181409","0.0-5.0-0.12","LF","32gxlbaw1s","1920","1080","0","1","0","5ea2381ad0a4b71481c298e7","","null","","","learningBlock1","","","","This is a bim:","null","","","","","",""
"image-keyboard-response","43","181737","0.0-5.0-1.12","LF","32gxlbaw1s","1920","1080","0","1","0","5ea2381ad0a4b71481c298e7","","null","","","","","","","learning/Slide13.JPG","null","","","","","",""
"html-keyboard-response","44","182738","0.0-5.0-2.12","LF","32gxlbaw1s","1920","1080","0","1","0","5ea2381ad0a4b71481c298e7","","null","","","learningBlock1","","","","<div style=""font-size:60px;""> </div>","null","LF","learning/Slide13.JPG","This is a bim:","","",""
"html-keyboard-response","45","183740","0.0-5.0-0.13","LF","32gxlbaw1s","1920","1080","0","1","0","5ea2381ad0a4b71481c298e7","","null","","","learningBlock1","","","","This is a wug:","null","","","","","",""
"image-keyboard-response","46","184068","0.0-5.0-1.13","LF","32gxlbaw1s","1920","1080","0","1","0","5ea2381ad0a4b71481c298e7","","null","","","","","","","learning/Slide14.JPG","null","","","","","",""
"html-keyboard-response","47","185069","0.0-5.0-2.13","LF","32gxlbaw1s","1920","1080","0","1","0","5ea2381ad0a4b71481c298e7","","null","","","learningBlock1","","","","<div style=""font-size:60px;""> </div>","null","LF","learning/Slide14.JPG","This is a wug:","","",""
"html-keyboard-response","48","186070","0.0-5.0-0.14","LF","32gxlbaw1s","1920","1080","0","1","0","5ea2381ad0a4b71481c298e7","","null","","","learningBlock1","","","","This is a tob:","null","","","","","",""
"image-keyboard-response","49","186397","0.0-5.0-1.14","LF","32gxlbaw1s","1920","1080","0","1","0","5ea2381ad0a4b71481c298e7","","null","","","","","","","learning/Slide15.JPG","null","","","","","",""
"html-keyboard-response","50","187398","0.0-5.0-2.14","LF","32gxlbaw1s","1920","1080","0","1","0","5ea2381ad0a4b71481c298e7","","null","","","learningBlock1","","","","<div style=""font-size:60px;""> </div>","null","LF","learning/Slide15.JPG","This is a tob:","","",""
"html-keyboard-response","51","188400","0.0-5.0-0.15","LF","32gxlbaw1s","1920","1080","0","1","0","5ea2381ad0a4b71481c298e7","","null","","","learningBlock1","","","","This is a dep:","null","","","","","",""
"image-keyboard-response","52","188727","0.0-5.0-1.15","LF","32gxlbaw1s","1920","1080","0","1","0","5ea2381ad0a4b71481c298e7","","null","","","","","","","learning/Slide16.JPG","null","","","","","",""
"html-keyboard-response","53","189729","0.0-5.0-2.15","LF","32gxlbaw1s","1920","1080","0","1","0","5ea2381ad0a4b71481c298e7","","null","","","learningBlock1","","","","<div style=""font-size:60px;""> </div>","null","LF","learning/Slide16.JPG","This is a dep:","","",""
"html-keyboard-response","54","190731","0.0-5.0-0.16","LF","32gxlbaw1s","1920","1080","0","1","0","5ea2381ad0a4b71481c298e7","","null","","","learningBlock1","","","","This is a bim:","null","","","","","",""
"image-keyboard-response","55","191059","0.0-5.0-1.16","LF","32gxlbaw1s","1920","1080","0","1","0","5ea2381ad0a4b71481c298e7","","null","","","","","","","learning/Slide17.JPG","null","","","","","",""
"html-keyboard-response","56","192062","0.0-5.0-2.16","LF","32gxlbaw1s","1920","1080","0","1","0","5ea2381ad0a4b71481c298e7","","null","","","learningBlock1","","","","<div style=""font-size:60px;""> </div>","null","LF","learning/Slide17.JPG","This is a bim:","","",""
"html-keyboard-response","57","193063","0.0-5.0-0.17","LF","32gxlbaw1s","1920","1080","0","1","0","5ea2381ad0a4b71481c298e7","","null","","","learningBlock1","","","","This is a tob:","null","","","","","",""
"image-keyboard-response","58","193390","0.0-5.0-1.17","LF","32gxlbaw1s","1920","1080","0","1","0","5ea2381ad0a4b71481c298e7","","null","","","","","","","learning/Slide18.JPG","null","","","","","",""
"html-keyboard-response","59","194391","0.0-5.0-2.17","LF","32gxlbaw1s","1920","1080","0","1","0","5ea2381ad0a4b71481c298e7","","null","","","learningBlock1","","","","<div style=""font-size:60px;""> </div>","null","LF","learning/Slide18.JPG","This is a tob:","","",""
"html-keyboard-response","60","195393","0.0-5.0-0.18","LF","32gxlbaw1s","1920","1080","0","1","0","5ea2381ad0a4b71481c298e7","","null","","","learningBlock1","","","","This is a wug:","null","","","","","",""
"image-keyboard-response","61","195721","0.0-5.0-1.18","LF","32gxlbaw1s","1920","1080","0","1","0","5ea2381ad0a4b71481c298e7","","null","","","","","","","learning/Slide19.JPG","null","","","","","",""
"html-keyboard-response","62","196723","0.0-5.0-2.18","LF","32gxlbaw1s","1920","1080","0","1","0","5ea2381ad0a4b71481c298e7","","null","","","learningBlock1","","","","<div style=""font-size:60px;""> </div>","null","LF","learning/Slide19.JPG","This is a wug:","","",""
"html-keyboard-response","63","197724","0.0-5.0-0.19","LF","32gxlbaw1s","1920","1080","0","1","0","5ea2381ad0a4b71481c298e7","","null","","","learningBlock1","","","","This is a bim:","null","","","","","",""
"image-keyboard-response","64","198051","0.0-5.0-1.19","LF","32gxlbaw1s","1920","1080","0","1","0","5ea2381ad0a4b71481c298e7","","null","","","","","","","learning/Slide20.JPG","null","","","","","",""
"html-keyboard-response","65","199053","0.0-5.0-2.19","LF","32gxlbaw1s","1920","1080","0","1","0","5ea2381ad0a4b71481c298e7","","null","","","learningBlock1","","","","<div style=""font-size:60px;""> </div>","null","LF","learning/Slide20.JPG","This is a bim:","","",""
"html-keyboard-response","66","200055","0.0-5.0-0.20","LF","32gxlbaw1s","1920","1080","0","1","0","5ea2381ad0a4b71481c298e7","","null","","","learningBlock1","","","","This is a dep:","null","","","","","",""
"image-keyboard-response","67","200382","0.0-5.0-1.20","LF","32gxlbaw1s","1920","1080","0","1","0","5ea2381ad0a4b71481c298e7","","null","","","","","","","learning/Slide21.JPG","null","","","","","",""
"html-keyboard-response","68","201384","0.0-5.0-2.20","LF","32gxlbaw1s","1920","1080","0","1","0","5ea2381ad0a4b71481c298e7","","null","","","learningBlock1","","","","<div style=""font-size:60px;""> </div>","null","LF","learning/Slide21.JPG","This is a dep:","","",""
"html-keyboard-response","69","202387","0.0-5.0-0.21","LF","32gxlbaw1s","1920","1080","0","1","0","5ea2381ad0a4b71481c298e7","","null","","","learningBlock1","","","","This is a bim:","null","","","","","",""
"image-keyboard-response","70","202715","0.0-5.0-1.21","LF","32gxlbaw1s","1920","1080","0","1","0","5ea2381ad0a4b71481c298e7","","null","","","","","","","learning/Slide22.JPG","null","","","","","",""
"html-keyboard-response","71","203716","0.0-5.0-2.21","LF","32gxlbaw1s","1920","1080","0","1","0","5ea2381ad0a4b71481c298e7","","null","","","learningBlock1","","","","<div style=""font-size:60px;""> </div>","null","LF","learning/Slide22.JPG","This is a bim:","","",""
"html-keyboard-response","72","204718","0.0-5.0-0.22","LF","32gxlbaw1s","1920","1080","0","1","0","5ea2381ad0a4b71481c298e7","","null","","","learningBlock1","","","","This is a tob:","null","","","","","",""
"image-keyboard-response","73","205045","0.0-5.0-1.22","LF","32gxlbaw1s","1920","1080","0","1","0","5ea2381ad0a4b71481c298e7","","null","","","","","","","learning/Slide23.JPG","null","","","","","",""
"html-keyboard-response","74","206047","0.0-5.0-2.22","LF","32gxlbaw1s","1920","1080","0","1","0","5ea2381ad0a4b71481c298e7","","null","","","learningBlock1","","","","<div style=""font-size:60px;""> </div>","null","LF","learning/Slide23.JPG","This is a tob:","","",""
"html-keyboard-response","75","207048","0.0-5.0-0.23","LF","32gxlbaw1s","1920","1080","0","1","0","5ea2381ad0a4b71481c298e7","","null","","","learningBlock1","","","","This is a wug:","null","","","","","",""
"image-keyboard-response","76","207375","0.0-5.0-1.23","LF","32gxlbaw1s","1920","1080","0","1","0","5ea2381ad0a4b71481c298e7","","null","","","","","","","learning/Slide24.JPG","null","","","","","",""
"html-keyboard-response","77","208376","0.0-5.0-2.23","LF","32gxlbaw1s","1920","1080","0","1","0","5ea2381ad0a4b71481c298e7","","null","","","learningBlock1","","","","<div style=""font-size:60px;""> </div>","null","LF","learning/Slide24.JPG","This is a wug:","","",""
"html-keyboard-response","78","209378","0.0-5.0-0.24","LF","32gxlbaw1s","1920","1080","0","1","0","5ea2381ad0a4b71481c298e7","","null","","","learningBlock1","","","","This is a dep:","null","","","","","",""
"image-keyboard-response","79","209705","0.0-5.0-1.24","LF","32gxlbaw1s","1920","1080","0","1","0","5ea2381ad0a4b71481c298e7","","null","","","","","","","learning/Slide25.JPG","null","","","","","",""
"html-keyboard-response","80","210706","0.0-5.0-2.24","LF","32gxlbaw1s","1920","1080","0","1","0","5ea2381ad0a4b71481c298e7","","null","","","learningBlock1","","","","<div style=""font-size:60px;""> </div>","null","LF","learning/Slide25.JPG","This is a dep:","","",""
"html-keyboard-response","81","211707","0.0-5.0-0.25","LF","32gxlbaw1s","1920","1080","0","1","0","5ea2381ad0a4b71481c298e7","","null","","","learningBlock1","","","","This is a wug:","null","","","","","",""
"image-keyboard-response","82","212035","0.0-5.0-1.25","LF","32gxlbaw1s","1920","1080","0","1","0","5ea2381ad0a4b71481c298e7","","null","","","","","","","learning/Slide26.JPG","null","","","","","",""
"html-keyboard-response","83","213037","0.0-5.0-2.25","LF","32gxlbaw1s","1920","1080","0","1","0","5ea2381ad0a4b71481c298e7","","null","","","learningBlock1","","","","<div style=""font-size:60px;""> </div>","null","LF","learning/Slide26.JPG","This is a wug:","","",""
"html-keyboard-response","84","214038","0.0-5.0-0.26","LF","32gxlbaw1s","1920","1080","0","1","0","5ea2381ad0a4b71481c298e7","","null","","","learningBlock1","","","","This is a bim:","null","","","","","",""
"image-keyboard-response","85","214365","0.0-5.0-1.26","LF","32gxlbaw1s","1920","1080","0","1","0","5ea2381ad0a4b71481c298e7","","null","","","","","","","learning/Slide27.JPG","null","","","","","",""
"html-keyboard-response","86","215367","0.0-5.0-2.26","LF","32gxlbaw1s","1920","1080","0","1","0","5ea2381ad0a4b71481c298e7","","null","","","learningBlock1","","","","<div style=""font-size:60px;""> </div>","null","LF","learning/Slide27.JPG","This is a bim:","","",""
"html-keyboard-response","87","216369","0.0-5.0-0.27","LF","32gxlbaw1s","1920","1080","0","1","0","5ea2381ad0a4b71481c298e7","","null","","","learningBlock1","","","","This is a dep:","null","","","","","",""
"image-keyboard-response","88","216696","0.0-5.0-1.27","LF","32gxlbaw1s","1920","1080","0","1","0","5ea2381ad0a4b71481c298e7","","null","","","","","","","learning/Slide28.JPG","null","","","","","",""
"html-keyboard-response","89","217697","0.0-5.0-2.27","LF","32gxlbaw1s","1920","1080","0","1","0","5ea2381ad0a4b71481c298e7","","null","","","learningBlock1","","","","<div style=""font-size:60px;""> </div>","null","LF","learning/Slide28.JPG","This is a dep:","","",""
"html-keyboard-response","90","218698","0.0-5.0-0.28","LF","32gxlbaw1s","1920","1080","0","1","0","5ea2381ad0a4b71481c298e7","","null","","","learningBlock1","","","","This is a tob:","null","","","","","",""
"image-keyboard-response","91","219024","0.0-5.0-1.28","LF","32gxlbaw1s","1920","1080","0","1","0","5ea2381ad0a4b71481c298e7","","null","","","","","","","learning/Slide29.JPG","null","","","","","",""
"html-keyboard-response","92","220026","0.0-5.0-2.28","LF","32gxlbaw1s","1920","1080","0","1","0","5ea2381ad0a4b71481c298e7","","null","","","learningBlock1","","","","<div style=""font-size:60px;""> </div>","null","LF","learning/Slide29.JPG","This is a tob:","","",""
"html-keyboard-response","93","221027","0.0-5.0-0.29","LF","32gxlbaw1s","1920","1080","0","1","0","5ea2381ad0a4b71481c298e7","","null","","","learningBlock1","","","","This is a dep:","null","","","","","",""
"image-keyboard-response","94","221355","0.0-5.0-1.29","LF","32gxlbaw1s","1920","1080","0","1","0","5ea2381ad0a4b71481c298e7","","null","","","","","","","learning/Slide30.JPG","null","","","","","",""
"html-keyboard-response","95","222356","0.0-5.0-2.29","LF","32gxlbaw1s","1920","1080","0","1","0","5ea2381ad0a4b71481c298e7","","null","","","learningBlock1","","","","<div style=""font-size:60px;""> </div>","null","LF","learning/Slide30.JPG","This is a dep:","","",""
"html-keyboard-response","96","223358","0.0-5.0-0.30","LF","32gxlbaw1s","1920","1080","0","1","0","5ea2381ad0a4b71481c298e7","","null","","","learningBlock1","","","","This is a wug:","null","","","","","",""
"image-keyboard-response","97","223685","0.0-5.0-1.30","LF","32gxlbaw1s","1920","1080","0","1","0","5ea2381ad0a4b71481c298e7","","null","","","","","","","learning/Slide31.JPG","null","","","","","",""
"html-keyboard-response","98","224688","0.0-5.0-2.30","LF","32gxlbaw1s","1920","1080","0","1","0","5ea2381ad0a4b71481c298e7","","null","","","learningBlock1","","","","<div style=""font-size:60px;""> </div>","null","LF","learning/Slide31.JPG","This is a wug:","","",""
"html-keyboard-response","99","225689","0.0-5.0-0.31","LF","32gxlbaw1s","1920","1080","0","1","0","5ea2381ad0a4b71481c298e7","","null","","","learningBlock1","","","","This is a tob:","null","","","","","",""
"image-keyboard-response","100","226016","0.0-5.0-1.31","LF","32gxlbaw1s","1920","1080","0","1","0","5ea2381ad0a4b71481c298e7","","null","","","","","","","learning/Slide32.JPG","null","","","","","",""
"html-keyboard-response","101","227017","0.0-5.0-2.31","LF","32gxlbaw1s","1920","1080","0","1","0","5ea2381ad0a4b71481c298e7","","null","","","learningBlock1","","","","<div style=""font-size:60px;""> </div>","null","LF","learning/Slide32.JPG","This is a tob:","","",""
"html-keyboard-response","102","228018","0.0-5.0-0.32","LF","32gxlbaw1s","1920","1080","0","1","0","5ea2381ad0a4b71481c298e7","","null","","","learningBlock1","","","","This is a bim:","null","","","","","",""
"image-keyboard-response","103","228345","0.0-5.0-1.32","LF","32gxlbaw1s","1920","1080","0","1","0","5ea2381ad0a4b71481c298e7","","null","","","","","","","learning/Slide33.JPG","null","","","","","",""
"html-keyboard-response","104","229346","0.0-5.0-2.32","LF","32gxlbaw1s","1920","1080","0","1","0","5ea2381ad0a4b71481c298e7","","null","","","learningBlock1","","","","<div style=""font-size:60px;""> </div>","null","LF","learning/Slide33.JPG","This is a bim:","","",""
"html-keyboard-response","105","230348","0.0-5.0-0.33","LF","32gxlbaw1s","1920","1080","0","1","0","5ea2381ad0a4b71481c298e7","","null","","","learningBlock1","","","","This is a tob:","null","","","","","",""
"image-keyboard-response","106","230675","0.0-5.0-1.33","LF","32gxlbaw1s","1920","1080","0","1","0","5ea2381ad0a4b71481c298e7","","null","","","","","","","learning/Slide34.JPG","null","","","","","",""
"html-keyboard-response","107","231676","0.0-5.0-2.33","LF","32gxlbaw1s","1920","1080","0","1","0","5ea2381ad0a4b71481c298e7","","null","","","learningBlock1","","","","<div style=""font-size:60px;""> </div>","null","LF","learning/Slide34.JPG","This is a tob:","","",""
"html-keyboard-response","108","232678","0.0-5.0-0.34","LF","32gxlbaw1s","1920","1080","0","1","0","5ea2381ad0a4b71481c298e7","","null","","","learningBlock1","","","","This is a bim:","null","","","","","",""
"image-keyboard-response","109","233005","0.0-5.0-1.34","LF","32gxlbaw1s","1920","1080","0","1","0","5ea2381ad0a4b71481c298e7","","null","","","","","","","learning/Slide35.JPG","null","","","","","",""
"html-keyboard-response","110","234006","0.0-5.0-2.34","LF","32gxlbaw1s","1920","1080","0","1","0","5ea2381ad0a4b71481c298e7","","null","","","learningBlock1","","","","<div style=""font-size:60px;""> </div>","null","LF","learning/Slide35.JPG","This is a bim:","","",""
"html-keyboard-response","111","235007","0.0-5.0-0.35","LF","32gxlbaw1s","1920","1080","0","1","0","5ea2381ad0a4b71481c298e7","","null","","","learningBlock1","","","","This is a dep:","null","","","","","",""
"image-keyboard-response","112","235334","0.0-5.0-1.35","LF","32gxlbaw1s","1920","1080","0","1","0","5ea2381ad0a4b71481c298e7","","null","","","","","","","learning/Slide36.JPG","null","","","","","",""
"html-keyboard-response","113","236335","0.0-5.0-2.35","LF","32gxlbaw1s","1920","1080","0","1","0","5ea2381ad0a4b71481c298e7","","null","","","learningBlock1","","","","<div style=""font-size:60px;""> </div>","null","LF","learning/Slide36.JPG","This is a dep:","","",""
"html-keyboard-response","114","237337","0.0-5.0-0.36","LF","32gxlbaw1s","1920","1080","0","1","0","5ea2381ad0a4b71481c298e7","","null","","","learningBlock1","","","","This is a tob:","null","","","","","",""
"image-keyboard-response","115","237664","0.0-5.0-1.36","LF","32gxlbaw1s","1920","1080","0","1","0","5ea2381ad0a4b71481c298e7","","null","","","","","","","learning/Slide37.JPG","null","","","","","",""
"html-keyboard-response","116","238665","0.0-5.0-2.36","LF","32gxlbaw1s","1920","1080","0","1","0","5ea2381ad0a4b71481c298e7","","null","","","learningBlock1","","","","<div style=""font-size:60px;""> </div>","null","LF","learning/Slide37.JPG","This is a tob:","","",""
"html-keyboard-response","117","239667","0.0-5.0-0.37","LF","32gxlbaw1s","1920","1080","0","1","0","5ea2381ad0a4b71481c298e7","","null","","","learningBlock1","","","","This is a wug:","null","","","","","",""
"image-keyboard-response","118","239994","0.0-5.0-1.37","LF","32gxlbaw1s","1920","1080","0","1","0","5ea2381ad0a4b71481c298e7","","null","","","","","","","learning/Slide38.JPG","null","","","","","",""
"html-keyboard-response","119","240996","0.0-5.0-2.37","LF","32gxlbaw1s","1920","1080","0","1","0","5ea2381ad0a4b71481c298e7","","null","","","learningBlock1","","","","<div style=""font-size:60px;""> </div>","null","LF","learning/Slide38.JPG","This is a wug:","","",""
"html-keyboard-response","120","241997","0.0-5.0-0.38","LF","32gxlbaw1s","1920","1080","0","1","0","5ea2381ad0a4b71481c298e7","","null","","","learningBlock1","","","","This is a bim:","null","","","","","",""
"image-keyboard-response","121","242323","0.0-5.0-1.38","LF","32gxlbaw1s","1920","1080","0","1","0","5ea2381ad0a4b71481c298e7","","null","","","","","","","learning/Slide39.JPG","null","","","","","",""
"html-keyboard-response","122","243325","0.0-5.0-2.38","LF","32gxlbaw1s","1920","1080","0","1","0","5ea2381ad0a4b71481c298e7","","null","","","learningBlock1","","","","<div style=""font-size:60px;""> </div>","null","LF","learning/Slide39.JPG","This is a bim:","","",""
"html-keyboard-response","123","244326","0.0-5.0-0.39","LF","32gxlbaw1s","1920","1080","0","1","0","5ea2381ad0a4b71481c298e7","","null","","","learningBlock1","","","","This is a tob:","null","","","","","",""
"image-keyboard-response","124","244653","0.0-5.0-1.39","LF","32gxlbaw1s","1920","1080","0","1","0","5ea2381ad0a4b71481c298e7","","null","","","","","","","learning/Slide40.JPG","null","","","","","",""
"html-keyboard-response","125","245655","0.0-5.0-2.39","LF","32gxlbaw1s","1920","1080","0","1","0","5ea2381ad0a4b71481c298e7","","null","","","learningBlock1","","","","<div style=""font-size:60px;""> </div>","null","LF","learning/Slide40.JPG","This is a tob:","","",""
"html-keyboard-response","126","246656","0.0-5.0-0.40","LF","32gxlbaw1s","1920","1080","0","1","0","5ea2381ad0a4b71481c298e7","","null","","","learningBlock1","","","","This is a bim:","null","","","","","",""
"image-keyboard-response","127","246983","0.0-5.0-1.40","LF","32gxlbaw1s","1920","1080","0","1","0","5ea2381ad0a4b71481c298e7","","null","","","","","","","learning/Slide41.JPG","null","","","","","",""
"html-keyboard-response","128","247984","0.0-5.0-2.40","LF","32gxlbaw1s","1920","1080","0","1","0","5ea2381ad0a4b71481c298e7","","null","","","learningBlock1","","","","<div style=""font-size:60px;""> </div>","null","LF","learning/Slide41.JPG","This is a bim:","","",""
"html-keyboard-response","129","248985","0.0-5.0-0.41","LF","32gxlbaw1s","1920","1080","0","1","0","5ea2381ad0a4b71481c298e7","","null","","","learningBlock1","","","","This is a dep:","null","","","","","",""
"image-keyboard-response","130","249314","0.0-5.0-1.41","LF","32gxlbaw1s","1920","1080","0","1","0","5ea2381ad0a4b71481c298e7","","null","","","","","","","learning/Slide42.JPG","null","","","","","",""
"html-keyboard-response","131","250316","0.0-5.0-2.41","LF","32gxlbaw1s","1920","1080","0","1","0","5ea2381ad0a4b71481c298e7","","null","","","learningBlock1","","","","<div style=""font-size:60px;""> </div>","null","LF","learning/Slide42.JPG","This is a dep:","","",""
"html-keyboard-response","132","251317","0.0-5.0-0.42","LF","32gxlbaw1s","1920","1080","0","1","0","5ea2381ad0a4b71481c298e7","","null","","","learningBlock1","","","","This is a wug:","null","","","","","",""
"image-keyboard-response","133","251644","0.0-5.0-1.42","LF","32gxlbaw1s","1920","1080","0","1","0","5ea2381ad0a4b71481c298e7","","null","","","","","","","learning/Slide43.JPG","null","","","","","",""
"html-keyboard-response","134","252645","0.0-5.0-2.42","LF","32gxlbaw1s","1920","1080","0","1","0","5ea2381ad0a4b71481c298e7","","null","","","learningBlock1","","","","<div style=""font-size:60px;""> </div>","null","LF","learning/Slide43.JPG","This is a wug:","","",""
"html-keyboard-response","135","253647","0.0-5.0-0.43","LF","32gxlbaw1s","1920","1080","0","1","0","5ea2381ad0a4b71481c298e7","","null","","","learningBlock1","","","","This is a bim:","null","","","","","",""
"image-keyboard-response","136","253977","0.0-5.0-1.43","LF","32gxlbaw1s","1920","1080","0","1","0","5ea2381ad0a4b71481c298e7","","null","","","","","","","learning/Slide44.JPG","null","","","","","",""
"html-keyboard-response","137","254979","0.0-5.0-2.43","LF","32gxlbaw1s","1920","1080","0","1","0","5ea2381ad0a4b71481c298e7","","null","","","learningBlock1","","","","<div style=""font-size:60px;""> </div>","null","LF","learning/Slide44.JPG","This is a bim:","","",""
"html-keyboard-response","138","255981","0.0-5.0-0.44","LF","32gxlbaw1s","1920","1080","0","1","0","5ea2381ad0a4b71481c298e7","","null","","","learningBlock1","","","","This is a wug:","null","","","","","",""
"image-keyboard-response","139","256308","0.0-5.0-1.44","LF","32gxlbaw1s","1920","1080","0","1","0","5ea2381ad0a4b71481c298e7","","null","","","","","","","learning/Slide45.JPG","null","","","","","",""
"html-keyboard-response","140","257309","0.0-5.0-2.44","LF","32gxlbaw1s","1920","1080","0","1","0","5ea2381ad0a4b71481c298e7","","null","","","learningBlock1","","","","<div style=""font-size:60px;""> </div>","null","LF","learning/Slide45.JPG","This is a wug:","","",""
"html-keyboard-response","141","258310","0.0-5.0-0.45","LF","32gxlbaw1s","1920","1080","0","1","0","5ea2381ad0a4b71481c298e7","","null","","","learningBlock1","","","","This is a dep:","null","","","","","",""
"image-keyboard-response","142","258637","0.0-5.0-1.45","LF","32gxlbaw1s","1920","1080","0","1","0","5ea2381ad0a4b71481c298e7","","null","","","","","","","learning/Slide46.JPG","null","","","","","",""
"html-keyboard-response","143","259639","0.0-5.0-2.45","LF","32gxlbaw1s","1920","1080","0","1","0","5ea2381ad0a4b71481c298e7","","null","","","learningBlock1","","","","<div style=""font-size:60px;""> </div>","null","LF","learning/Slide46.JPG","This is a dep:","","",""
"html-keyboard-response","144","260640","0.0-5.0-0.46","LF","32gxlbaw1s","1920","1080","0","1","0","5ea2381ad0a4b71481c298e7","","null","","","learningBlock1","","","","This is a tob:","null","","","","","",""
"image-keyboard-response","145","260967","0.0-5.0-1.46","LF","32gxlbaw1s","1920","1080","0","1","0","5ea2381ad0a4b71481c298e7","","null","","","","","","","learning/Slide47.JPG","null","","","","","",""
"html-keyboard-response","146","261969","0.0-5.0-2.46","LF","32gxlbaw1s","1920","1080","0","1","0","5ea2381ad0a4b71481c298e7","","null","","","learningBlock1","","","","<div style=""font-size:60px;""> </div>","null","LF","learning/Slide47.JPG","This is a tob:","","",""
"html-keyboard-response","147","262970","0.0-5.0-0.47","LF","32gxlbaw1s","1920","1080","0","1","0","5ea2381ad0a4b71481c298e7","","null","","","learningBlock1","","","","This is a bim:","null","","","","","",""
"image-keyboard-response","148","263298","0.0-5.0-1.47","LF","32gxlbaw1s","1920","1080","0","1","0","5ea2381ad0a4b71481c298e7","","null","","","","","","","learning/Slide48.JPG","null","","","","","",""
"html-keyboard-response","149","264299","0.0-5.0-2.47","LF","32gxlbaw1s","1920","1080","0","1","0","5ea2381ad0a4b71481c298e7","","null","","","learningBlock1","","","","<div style=""font-size:60px;""> </div>","null","LF","learning/Slide48.JPG","This is a bim:","","",""
"html-keyboard-response","150","265300","0.0-5.0-0.48","LF","32gxlbaw1s","1920","1080","0","1","0","5ea2381ad0a4b71481c298e7","","null","","","learningBlock1","","","","This is a dep:","null","","","","","",""
"image-keyboard-response","151","265627","0.0-5.0-1.48","LF","32gxlbaw1s","1920","1080","0","1","0","5ea2381ad0a4b71481c298e7","","null","","","","","","","learning/Slide49.JPG","null","","","","","",""
"html-keyboard-response","152","266629","0.0-5.0-2.48","LF","32gxlbaw1s","1920","1080","0","1","0","5ea2381ad0a4b71481c298e7","","null","","","learningBlock1","","","","<div style=""font-size:60px;""> </div>","null","LF","learning/Slide49.JPG","This is a dep:","","",""
"html-keyboard-response","153","267630","0.0-5.0-0.49","LF","32gxlbaw1s","1920","1080","0","1","0","5ea2381ad0a4b71481c298e7","","null","","","learningBlock1","","","","This is a tob:","null","","","","","",""
"image-keyboard-response","154","267957","0.0-5.0-1.49","LF","32gxlbaw1s","1920","1080","0","1","0","5ea2381ad0a4b71481c298e7","","null","","","","","","","learning/Slide50.JPG","null","","","","","",""
"html-keyboard-response","155","268958","0.0-5.0-2.49","LF","32gxlbaw1s","1920","1080","0","1","0","5ea2381ad0a4b71481c298e7","","null","","","learningBlock1","","","","<div style=""font-size:60px;""> </div>","null","LF","learning/Slide50.JPG","This is a tob:","","",""
"html-keyboard-response","156","269959","0.0-5.0-0.50","LF","32gxlbaw1s","1920","1080","0","1","0","5ea2381ad0a4b71481c298e7","","null","","","learningBlock1","","","","This is a bim:","null","","","","","",""
"image-keyboard-response","157","270287","0.0-5.0-1.50","LF","32gxlbaw1s","1920","1080","0","1","0","5ea2381ad0a4b71481c298e7","","null","","","","","","","learning/Slide51.JPG","null","","","","","",""
"html-keyboard-response","158","271289","0.0-5.0-2.50","LF","32gxlbaw1s","1920","1080","0","1","0","5ea2381ad0a4b71481c298e7","","null","","","learningBlock1","","","","<div style=""font-size:60px;""> </div>","null","LF","learning/Slide51.JPG","This is a bim:","","",""
"html-keyboard-response","159","272291","0.0-5.0-0.51","LF","32gxlbaw1s","1920","1080","0","1","0","5ea2381ad0a4b71481c298e7","","null","","","learningBlock1","","","","This is a wug:","null","","","","","",""
"image-keyboard-response","160","272618","0.0-5.0-1.51","LF","32gxlbaw1s","1920","1080","0","1","0","5ea2381ad0a4b71481c298e7","","null","","","","","","","learning/Slide52.JPG","null","","","","","",""
"html-keyboard-response","161","273619","0.0-5.0-2.51","LF","32gxlbaw1s","1920","1080","0","1","0","5ea2381ad0a4b71481c298e7","","null","","","learningBlock1","","","","<div style=""font-size:60px;""> </div>","null","LF","learning/Slide52.JPG","This is a wug:","","",""
"html-keyboard-response","162","274621","0.0-5.0-0.52","LF","32gxlbaw1s","1920","1080","0","1","0","5ea2381ad0a4b71481c298e7","","null","","","learningBlock1","","","","This is a tob:","null","","","","","",""
"image-keyboard-response","163","274949","0.0-5.0-1.52","LF","32gxlbaw1s","1920","1080","0","1","0","5ea2381ad0a4b71481c298e7","","null","","","","","","","learning/Slide53.JPG","null","","","","","",""
"html-keyboard-response","164","275951","0.0-5.0-2.52","LF","32gxlbaw1s","1920","1080","0","1","0","5ea2381ad0a4b71481c298e7","","null","","","learningBlock1","","","","<div style=""font-size:60px;""> </div>","null","LF","learning/Slide53.JPG","This is a tob:","","",""
"html-keyboard-response","165","276952","0.0-5.0-0.53","LF","32gxlbaw1s","1920","1080","0","1","0","5ea2381ad0a4b71481c298e7","","null","","","learningBlock1","","","","This is a dep:","null","","","","","",""
"image-keyboard-response","166","277279","0.0-5.0-1.53","LF","32gxlbaw1s","1920","1080","0","1","0","5ea2381ad0a4b71481c298e7","","null","","","","","","","learning/Slide54.JPG","null","","","","","",""
"html-keyboard-response","167","278281","0.0-5.0-2.53","LF","32gxlbaw1s","1920","1080","0","1","0","5ea2381ad0a4b71481c298e7","","null","","","learningBlock1","","","","<div style=""font-size:60px;""> </div>","null","LF","learning/Slide54.JPG","This is a dep:","","",""
"html-keyboard-response","168","279283","0.0-5.0-0.54","LF","32gxlbaw1s","1920","1080","0","1","0","5ea2381ad0a4b71481c298e7","","null","","","learningBlock1","","","","This is a bim:","null","","","","","",""
"image-keyboard-response","169","279611","0.0-5.0-1.54","LF","32gxlbaw1s","1920","1080","0","1","0","5ea2381ad0a4b71481c298e7","","null","","","","","","","learning/Slide55.JPG","null","","","","","",""
"html-keyboard-response","170","280613","0.0-5.0-2.54","LF","32gxlbaw1s","1920","1080","0","1","0","5ea2381ad0a4b71481c298e7","","null","","","learningBlock1","","","","<div style=""font-size:60px;""> </div>","null","LF","learning/Slide55.JPG","This is a bim:","","",""
"html-keyboard-response","171","281614","0.0-5.0-0.55","LF","32gxlbaw1s","1920","1080","0","1","0","5ea2381ad0a4b71481c298e7","","null","","","learningBlock1","","","","This is a tob:","null","","","","","",""
"image-keyboard-response","172","281941","0.0-5.0-1.55","LF","32gxlbaw1s","1920","1080","0","1","0","5ea2381ad0a4b71481c298e7","","null","","","","","","","learning/Slide56.JPG","null","","","","","",""
"html-keyboard-response","173","282943","0.0-5.0-2.55","LF","32gxlbaw1s","1920","1080","0","1","0","5ea2381ad0a4b71481c298e7","","null","","","learningBlock1","","","","<div style=""font-size:60px;""> </div>","null","LF","learning/Slide56.JPG","This is a tob:","","",""
"html-keyboard-response","174","283945","0.0-5.0-0.56","LF","32gxlbaw1s","1920","1080","0","1","0","5ea2381ad0a4b71481c298e7","","null","","","learningBlock1","","","","This is a dep:","null","","","","","",""
"image-keyboard-response","175","284272","0.0-5.0-1.56","LF","32gxlbaw1s","1920","1080","0","1","0","5ea2381ad0a4b71481c298e7","","null","","","","","","","learning/Slide57.JPG","null","","","","","",""
"html-keyboard-response","176","285273","0.0-5.0-2.56","LF","32gxlbaw1s","1920","1080","0","1","0","5ea2381ad0a4b71481c298e7","","null","","","learningBlock1","","","","<div style=""font-size:60px;""> </div>","null","LF","learning/Slide57.JPG","This is a dep:","","",""
"html-keyboard-response","177","286274","0.0-5.0-0.57","LF","32gxlbaw1s","1920","1080","0","1","0","5ea2381ad0a4b71481c298e7","","null","","","learningBlock1","","","","This is a wug:","null","","","","","",""
"image-keyboard-response","178","286601","0.0-5.0-1.57","LF","32gxlbaw1s","1920","1080","0","1","0","5ea2381ad0a4b71481c298e7","","null","","","","","","","learning/Slide58.JPG","null","","","","","",""
"html-keyboard-response","179","287603","0.0-5.0-2.57","LF","32gxlbaw1s","1920","1080","0","1","0","5ea2381ad0a4b71481c298e7","","null","","","learningBlock1","","","","<div style=""font-size:60px;""> </div>","null","LF","learning/Slide58.JPG","This is a wug:","","",""
"html-keyboard-response","180","288604","0.0-5.0-0.58","LF","32gxlbaw1s","1920","1080","0","1","0","5ea2381ad0a4b71481c298e7","","null","","","learningBlock1","","","","This is a dep:","null","","","","","",""
"image-keyboard-response","181","288931","0.0-5.0-1.58","LF","32gxlbaw1s","1920","1080","0","1","0","5ea2381ad0a4b71481c298e7","","null","","","","","","","learning/Slide59.JPG","null","","","","","",""
"html-keyboard-response","182","289933","0.0-5.0-2.58","LF","32gxlbaw1s","1920","1080","0","1","0","5ea2381ad0a4b71481c298e7","","null","","","learningBlock1","","","","<div style=""font-size:60px;""> </div>","null","LF","learning/Slide59.JPG","This is a dep:","","",""
"html-keyboard-response","183","290934","0.0-5.0-0.59","LF","32gxlbaw1s","1920","1080","0","1","0","5ea2381ad0a4b71481c298e7","","null","","","learningBlock1","","","","This is a wug:","null","","","","","",""
"image-keyboard-response","184","291260","0.0-5.0-1.59","LF","32gxlbaw1s","1920","1080","0","1","0","5ea2381ad0a4b71481c298e7","","null","","","","","","","learning/Slide60.JPG","null","","","","","",""
"html-keyboard-response","185","292262","0.0-5.0-2.59","LF","32gxlbaw1s","1920","1080","0","1","0","5ea2381ad0a4b71481c298e7","","null","","","learningBlock1","","","","<div style=""font-size:60px;""> </div>","null","LF","learning/Slide60.JPG","This is a wug:","","",""
"html-keyboard-response","186","293263","0.0-5.0-0.60","LF","32gxlbaw1s","1920","1080","0","1","0","5ea2381ad0a4b71481c298e7","","null","","","learningBlock1","","","","This is a bim:","null","","","","","",""
"image-keyboard-response","187","293590","0.0-5.0-1.60","LF","32gxlbaw1s","1920","1080","0","1","0","5ea2381ad0a4b71481c298e7","","null","","","","","","","learning/Slide61.JPG","null","","","","","",""
"html-keyboard-response","188","294592","0.0-5.0-2.60","LF","32gxlbaw1s","1920","1080","0","1","0","5ea2381ad0a4b71481c298e7","","null","","","learningBlock1","","","","<div style=""font-size:60px;""> </div>","null","LF","learning/Slide61.JPG","This is a bim:","","",""
"html-keyboard-response","189","295593","0.0-5.0-0.61","LF","32gxlbaw1s","1920","1080","0","1","0","5ea2381ad0a4b71481c298e7","","null","","","learningBlock1","","","","This is a dep:","null","","","","","",""
"image-keyboard-response","190","295921","0.0-5.0-1.61","LF","32gxlbaw1s","1920","1080","0","1","0","5ea2381ad0a4b71481c298e7","","null","","","","","","","learning/Slide62.JPG","null","","","","","",""
"html-keyboard-response","191","296922","0.0-5.0-2.61","LF","32gxlbaw1s","1920","1080","0","1","0","5ea2381ad0a4b71481c298e7","","null","","","learningBlock1","","","","<div style=""font-size:60px;""> </div>","null","LF","learning/Slide62.JPG","This is a dep:","","",""
"html-keyboard-response","192","297924","0.0-5.0-0.62","LF","32gxlbaw1s","1920","1080","0","1","0","5ea2381ad0a4b71481c298e7","","null","","","learningBlock1","","","","This is a bim:","null","","","","","",""
"image-keyboard-response","193","298251","0.0-5.0-1.62","LF","32gxlbaw1s","1920","1080","0","1","0","5ea2381ad0a4b71481c298e7","","null","","","","","","","learning/Slide63.JPG","null","","","","","",""
"html-keyboard-response","194","299252","0.0-5.0-2.62","LF","32gxlbaw1s","1920","1080","0","1","0","5ea2381ad0a4b71481c298e7","","null","","","learningBlock1","","","","<div style=""font-size:60px;""> </div>","null","LF","learning/Slide63.JPG","This is a bim:","","",""
"html-keyboard-response","195","300254","0.0-5.0-0.63","LF","32gxlbaw1s","1920","1080","0","1","0","5ea2381ad0a4b71481c298e7","","null","","","learningBlock1","","","","This is a tob:","null","","","","","",""
"image-keyboard-response","196","300581","0.0-5.0-1.63","LF","32gxlbaw1s","1920","1080","0","1","0","5ea2381ad0a4b71481c298e7","","null","","","","","","","learning/Slide64.JPG","null","","","","","",""
"html-keyboard-response","197","301583","0.0-5.0-2.63","LF","32gxlbaw1s","1920","1080","0","1","0","5ea2381ad0a4b71481c298e7","","null","","","learningBlock1","","","","<div style=""font-size:60px;""> </div>","null","LF","learning/Slide64.JPG","This is a tob:","","",""
"html-keyboard-response","198","302584","0.0-5.0-0.64","LF","32gxlbaw1s","1920","1080","0","1","0","5ea2381ad0a4b71481c298e7","","null","","","learningBlock1","","","","This is a wug:","null","","","","","",""
"image-keyboard-response","199","302911","0.0-5.0-1.64","LF","32gxlbaw1s","1920","1080","0","1","0","5ea2381ad0a4b71481c298e7","","null","","","","","","","learning/Slide65.JPG","null","","","","","",""
"html-keyboard-response","200","303913","0.0-5.0-2.64","LF","32gxlbaw1s","1920","1080","0","1","0","5ea2381ad0a4b71481c298e7","","null","","","learningBlock1","","","","<div style=""font-size:60px;""> </div>","null","LF","learning/Slide65.JPG","This is a wug:","","",""
"html-keyboard-response","201","304914","0.0-5.0-0.65","LF","32gxlbaw1s","1920","1080","0","1","0","5ea2381ad0a4b71481c298e7","","null","","","learningBlock1","","","","This is a dep:","null","","","","","",""
"image-keyboard-response","202","305243","0.0-5.0-1.65","LF","32gxlbaw1s","1920","1080","0","1","0","5ea2381ad0a4b71481c298e7","","null","","","","","","","learning/Slide66.JPG","null","","","","","",""
"html-keyboard-response","203","306245","0.0-5.0-2.65","LF","32gxlbaw1s","1920","1080","0","1","0","5ea2381ad0a4b71481c298e7","","null","","","learningBlock1","","","","<div style=""font-size:60px;""> </div>","null","LF","learning/Slide66.JPG","This is a dep:","","",""
"html-keyboard-response","204","307247","0.0-5.0-0.66","LF","32gxlbaw1s","1920","1080","0","1","0","5ea2381ad0a4b71481c298e7","","null","","","learningBlock1","","","","This is a tob:","null","","","","","",""
"image-keyboard-response","205","307575","0.0-5.0-1.66","LF","32gxlbaw1s","1920","1080","0","1","0","5ea2381ad0a4b71481c298e7","","null","","","","","","","learning/Slide67.JPG","null","","","","","",""
"html-keyboard-response","206","308576","0.0-5.0-2.66","LF","32gxlbaw1s","1920","1080","0","1","0","5ea2381ad0a4b71481c298e7","","null","","","learningBlock1","","","","<div style=""font-size:60px;""> </div>","null","LF","learning/Slide67.JPG","This is a tob:","","",""
"html-keyboard-response","207","309577","0.0-5.0-0.67","LF","32gxlbaw1s","1920","1080","0","1","0","5ea2381ad0a4b71481c298e7","","null","","","learningBlock1","","","","This is a wug:","null","","","","","",""
"image-keyboard-response","208","309904","0.0-5.0-1.67","LF","32gxlbaw1s","1920","1080","0","1","0","5ea2381ad0a4b71481c298e7","","null","","","","","","","learning/Slide68.JPG","null","","","","","",""
"html-keyboard-response","209","310906","0.0-5.0-2.67","LF","32gxlbaw1s","1920","1080","0","1","0","5ea2381ad0a4b71481c298e7","","null","","","learningBlock1","","","","<div style=""font-size:60px;""> </div>","null","LF","learning/Slide68.JPG","This is a wug:","","",""
"html-keyboard-response","210","311908","0.0-5.0-0.68","LF","32gxlbaw1s","1920","1080","0","1","0","5ea2381ad0a4b71481c298e7","","null","","","learningBlock1","","","","This is a tob:","null","","","","","",""
"image-keyboard-response","211","312235","0.0-5.0-1.68","LF","32gxlbaw1s","1920","1080","0","1","0","5ea2381ad0a4b71481c298e7","","null","","","","","","","learning/Slide69.JPG","null","","","","","",""
"html-keyboard-response","212","313237","0.0-5.0-2.68","LF","32gxlbaw1s","1920","1080","0","1","0","5ea2381ad0a4b71481c298e7","","null","","","learningBlock1","","","","<div style=""font-size:60px;""> </div>","null","LF","learning/Slide69.JPG","This is a tob:","","",""
"html-keyboard-response","213","314238","0.0-5.0-0.69","LF","32gxlbaw1s","1920","1080","0","1","0","5ea2381ad0a4b71481c298e7","","null","","","learningBlock1","","","","This is a dep:","null","","","","","",""
"image-keyboard-response","214","314566","0.0-5.0-1.69","LF","32gxlbaw1s","1920","1080","0","1","0","5ea2381ad0a4b71481c298e7","","null","","","","","","","learning/Slide70.JPG","null","","","","","",""
"html-keyboard-response","215","315567","0.0-5.0-2.69","LF","32gxlbaw1s","1920","1080","0","1","0","5ea2381ad0a4b71481c298e7","","null","","","learningBlock1","","","","<div style=""font-size:60px;""> </div>","null","LF","learning/Slide70.JPG","This is a dep:","","",""
"html-keyboard-response","216","316569","0.0-5.0-0.70","LF","32gxlbaw1s","1920","1080","0","1","0","5ea2381ad0a4b71481c298e7","","null","","","learningBlock1","","","","This is a wug:","null","","","","","",""
"image-keyboard-response","217","316896","0.0-5.0-1.70","LF","32gxlbaw1s","1920","1080","0","1","0","5ea2381ad0a4b71481c298e7","","null","","","","","","","learning/Slide71.JPG","null","","","","","",""
"html-keyboard-response","218","317897","0.0-5.0-2.70","LF","32gxlbaw1s","1920","1080","0","1","0","5ea2381ad0a4b71481c298e7","","null","","","learningBlock1","","","","<div style=""font-size:60px;""> </div>","null","LF","learning/Slide71.JPG","This is a wug:","","",""
"html-keyboard-response","219","318898","0.0-5.0-0.71","LF","32gxlbaw1s","1920","1080","0","1","0","5ea2381ad0a4b71481c298e7","","null","","","learningBlock1","","","","This is a bim:","null","","","","","",""
"image-keyboard-response","220","319225","0.0-5.0-1.71","LF","32gxlbaw1s","1920","1080","0","1","0","5ea2381ad0a4b71481c298e7","","null","","","","","","","learning/Slide72.JPG","null","","","","","",""
"html-keyboard-response","221","320226","0.0-5.0-2.71","LF","32gxlbaw1s","1920","1080","0","1","0","5ea2381ad0a4b71481c298e7","","null","","","learningBlock1","","","","<div style=""font-size:60px;""> </div>","null","LF","learning/Slide72.JPG","This is a bim:","","",""
"html-keyboard-response","222","321228","0.0-5.0-0.72","LF","32gxlbaw1s","1920","1080","0","1","0","5ea2381ad0a4b71481c298e7","","null","","","learningBlock1","","","","This is a wug:","null","","","","","",""
"image-keyboard-response","223","321555","0.0-5.0-1.72","LF","32gxlbaw1s","1920","1080","0","1","0","5ea2381ad0a4b71481c298e7","","null","","","","","","","learning/Slide73.JPG","null","","","","","",""
"html-keyboard-response","224","322556","0.0-5.0-2.72","LF","32gxlbaw1s","1920","1080","0","1","0","5ea2381ad0a4b71481c298e7","","null","","","learningBlock1","","","","<div style=""font-size:60px;""> </div>","null","LF","learning/Slide73.JPG","This is a wug:","","",""
"html-keyboard-response","225","323557","0.0-5.0-0.73","LF","32gxlbaw1s","1920","1080","0","1","0","5ea2381ad0a4b71481c298e7","","null","","","learningBlock1","","","","This is a dep:","null","","","","","",""
"image-keyboard-response","226","323885","0.0-5.0-1.73","LF","32gxlbaw1s","1920","1080","0","1","0","5ea2381ad0a4b71481c298e7","","null","","","","","","","learning/Slide74.JPG","null","","","","","",""
"html-keyboard-response","227","324886","0.0-5.0-2.73","LF","32gxlbaw1s","1920","1080","0","1","0","5ea2381ad0a4b71481c298e7","","null","","","learningBlock1","","","","<div style=""font-size:60px;""> </div>","null","LF","learning/Slide74.JPG","This is a dep:","","",""
"html-keyboard-response","228","325888","0.0-5.0-0.74","LF","32gxlbaw1s","1920","1080","0","1","0","5ea2381ad0a4b71481c298e7","","null","","","learningBlock1","","","","This is a tob:","null","","","","","",""
"image-keyboard-response","229","326215","0.0-5.0-1.74","LF","32gxlbaw1s","1920","1080","0","1","0","5ea2381ad0a4b71481c298e7","","null","","","","","","","learning/Slide75.JPG","null","","","","","",""
"html-keyboard-response","230","327216","0.0-5.0-2.74","LF","32gxlbaw1s","1920","1080","0","1","0","5ea2381ad0a4b71481c298e7","","null","","","learningBlock1","","","","<div style=""font-size:60px;""> </div>","null","LF","learning/Slide75.JPG","This is a tob:","","",""
"html-keyboard-response","231","328217","0.0-5.0-0.75","LF","32gxlbaw1s","1920","1080","0","1","0","5ea2381ad0a4b71481c298e7","","null","","","learningBlock1","","","","This is a bim:","null","","","","","",""
"image-keyboard-response","232","328545","0.0-5.0-1.75","LF","32gxlbaw1s","1920","1080","0","1","0","5ea2381ad0a4b71481c298e7","","null","","","","","","","learning/Slide76.JPG","null","","","","","",""
"html-keyboard-response","233","329547","0.0-5.0-2.75","LF","32gxlbaw1s","1920","1080","0","1","0","5ea2381ad0a4b71481c298e7","","null","","","learningBlock1","","","","<div style=""font-size:60px;""> </div>","null","LF","learning/Slide76.JPG","This is a bim:","","",""
"html-keyboard-response","234","330549","0.0-5.0-0.76","LF","32gxlbaw1s","1920","1080","0","1","0","5ea2381ad0a4b71481c298e7","","null","","","learningBlock1","","","","This is a tob:","null","","","","","",""
"image-keyboard-response","235","330877","0.0-5.0-1.76","LF","32gxlbaw1s","1920","1080","0","1","0","5ea2381ad0a4b71481c298e7","","null","","","","","","","learning/Slide77.JPG","null","","","","","",""
"html-keyboard-response","236","331879","0.0-5.0-2.76","LF","32gxlbaw1s","1920","1080","0","1","0","5ea2381ad0a4b71481c298e7","","null","","","learningBlock1","","","","<div style=""font-size:60px;""> </div>","null","LF","learning/Slide77.JPG","This is a tob:","","",""
"html-keyboard-response","237","332880","0.0-5.0-0.77","LF","32gxlbaw1s","1920","1080","0","1","0","5ea2381ad0a4b71481c298e7","","null","","","learningBlock1","","","","This is a wug:","null","","","","","",""
"image-keyboard-response","238","333208","0.0-5.0-1.77","LF","32gxlbaw1s","1920","1080","0","1","0","5ea2381ad0a4b71481c298e7","","null","","","","","","","learning/Slide78.JPG","null","","","","","",""
"html-keyboard-response","239","334210","0.0-5.0-2.77","LF","32gxlbaw1s","1920","1080","0","1","0","5ea2381ad0a4b71481c298e7","","null","","","learningBlock1","","","","<div style=""font-size:60px;""> </div>","null","LF","learning/Slide78.JPG","This is a wug:","","",""
"html-keyboard-response","240","335211","0.0-5.0-0.78","LF","32gxlbaw1s","1920","1080","0","1","0","5ea2381ad0a4b71481c298e7","","null","","","learningBlock1","","","","This is a bim:","null","","","","","",""
"image-keyboard-response","241","335538","0.0-5.0-1.78","LF","32gxlbaw1s","1920","1080","0","1","0","5ea2381ad0a4b71481c298e7","","null","","","","","","","learning/Slide79.JPG","null","","","","","",""
"html-keyboard-response","242","336540","0.0-5.0-2.78","LF","32gxlbaw1s","1920","1080","0","1","0","5ea2381ad0a4b71481c298e7","","null","","","learningBlock1","","","","<div style=""font-size:60px;""> </div>","null","LF","learning/Slide79.JPG","This is a bim:","","",""
"html-keyboard-response","243","337541","0.0-5.0-0.79","LF","32gxlbaw1s","1920","1080","0","1","0","5ea2381ad0a4b71481c298e7","","null","","","learningBlock1","","","","This is a tob:","null","","","","","",""
"image-keyboard-response","244","337869","0.0-5.0-1.79","LF","32gxlbaw1s","1920","1080","0","1","0","5ea2381ad0a4b71481c298e7","","null","","","","","","","learning/Slide80.JPG","null","","","","","",""
"html-keyboard-response","245","338871","0.0-5.0-2.79","LF","32gxlbaw1s","1920","1080","0","1","0","5ea2381ad0a4b71481c298e7","","null","","","learningBlock1","","","","<div style=""font-size:60px;""> </div>","null","LF","learning/Slide80.JPG","This is a tob:","","",""
"instructions","246","341908","0.0-6.0","LF","32gxlbaw1s","1920","1080","0","1","0","5ea2381ad0a4b71481c298e7","","NA","","[{""page_index"":0,""viewing_time"":3036.59499999776}]","instructions","","","","","","","","","","",""
"html-keyboard-response","247","342911","0.0-7.0-0.0","LF","32gxlbaw1s","1920","1080","0","1","0","5ea2381ad0a4b71481c298e7","","null","","","learningBlock2","","","","This is a wug:","null","","","","","",""
"image-keyboard-response","248","343237","0.0-7.0-1.0","LF","32gxlbaw1s","1920","1080","0","1","0","5ea2381ad0a4b71481c298e7","","null","","","","","","","learning/Slide81.JPG","null","","","","","",""
"html-keyboard-response","249","344239","0.0-7.0-2.0","LF","32gxlbaw1s","1920","1080","0","1","0","5ea2381ad0a4b71481c298e7","","null","","","learningBlock2","","","","<div style=""font-size:60px;""> </div>","null","LF","learning/Slide81.JPG","This is a wug:","","",""
"html-keyboard-response","250","345241","0.0-7.0-0.1","LF","32gxlbaw1s","1920","1080","0","1","0","5ea2381ad0a4b71481c298e7","","null","","","learningBlock2","","","","This is a bim:","null","","","","","",""
"image-keyboard-response","251","345569","0.0-7.0-1.1","LF","32gxlbaw1s","1920","1080","0","1","0","5ea2381ad0a4b71481c298e7","","null","","","","","","","learning/Slide82.JPG","null","","","","","",""
"html-keyboard-response","252","346570","0.0-7.0-2.1","LF","32gxlbaw1s","1920","1080","0","1","0","5ea2381ad0a4b71481c298e7","","null","","","learningBlock2","","","","<div style=""font-size:60px;""> </div>","null","LF","learning/Slide82.JPG","This is a bim:","","",""
"html-keyboard-response","253","347572","0.0-7.0-0.2","LF","32gxlbaw1s","1920","1080","0","1","0","5ea2381ad0a4b71481c298e7","","null","","","learningBlock2","","","","This is a wug:","null","","","","","",""
"image-keyboard-response","254","347899","0.0-7.0-1.2","LF","32gxlbaw1s","1920","1080","0","1","0","5ea2381ad0a4b71481c298e7","","null","","","","","","","learning/Slide83.JPG","null","","","","","",""
"html-keyboard-response","255","348901","0.0-7.0-2.2","LF","32gxlbaw1s","1920","1080","0","1","0","5ea2381ad0a4b71481c298e7","","null","","","learningBlock2","","","","<div style=""font-size:60px;""> </div>","null","LF","learning/Slide83.JPG","This is a wug:","","",""
"html-keyboard-response","256","349903","0.0-7.0-0.3","LF","32gxlbaw1s","1920","1080","0","1","0","5ea2381ad0a4b71481c298e7","","null","","","learningBlock2","","","","This is a dep:","null","","","","","",""
"image-keyboard-response","257","350229","0.0-7.0-1.3","LF","32gxlbaw1s","1920","1080","0","1","0","5ea2381ad0a4b71481c298e7","","null","","","","","","","learning/Slide84.JPG","null","","","","","",""
"html-keyboard-response","258","351231","0.0-7.0-2.3","LF","32gxlbaw1s","1920","1080","0","1","0","5ea2381ad0a4b71481c298e7","","null","","","learningBlock2","","","","<div style=""font-size:60px;""> </div>","null","LF","learning/Slide84.JPG","This is a dep:","","",""
"html-keyboard-response","259","352233","0.0-7.0-0.4","LF","32gxlbaw1s","1920","1080","0","1","0","5ea2381ad0a4b71481c298e7","","null","","","learningBlock2","","","","This is a bim:","null","","","","","",""
"image-keyboard-response","260","352560","0.0-7.0-1.4","LF","32gxlbaw1s","1920","1080","0","1","0","5ea2381ad0a4b71481c298e7","","null","","","","","","","learning/Slide85.JPG","null","","","","","",""
"html-keyboard-response","261","353561","0.0-7.0-2.4","LF","32gxlbaw1s","1920","1080","0","1","0","5ea2381ad0a4b71481c298e7","","null","","","learningBlock2","","","","<div style=""font-size:60px;""> </div>","null","LF","learning/Slide85.JPG","This is a bim:","","",""
"html-keyboard-response","262","354563","0.0-7.0-0.5","LF","32gxlbaw1s","1920","1080","0","1","0","5ea2381ad0a4b71481c298e7","","null","","","learningBlock2","","","","This is a tob:","null","","","","","",""
"image-keyboard-response","263","354891","0.0-7.0-1.5","LF","32gxlbaw1s","1920","1080","0","1","0","5ea2381ad0a4b71481c298e7","","null","","","","","","","learning/Slide86.JPG","null","","","","","",""
"html-keyboard-response","264","355894","0.0-7.0-2.5","LF","32gxlbaw1s","1920","1080","0","1","0","5ea2381ad0a4b71481c298e7","","null","","","learningBlock2","","","","<div style=""font-size:60px;""> </div>","null","LF","learning/Slide86.JPG","This is a tob:","","",""
"html-keyboard-response","265","356896","0.0-7.0-0.6","LF","32gxlbaw1s","1920","1080","0","1","0","5ea2381ad0a4b71481c298e7","","null","","","learningBlock2","","","","This is a wug:","null","","","","","",""
"image-keyboard-response","266","357223","0.0-7.0-1.6","LF","32gxlbaw1s","1920","1080","0","1","0","5ea2381ad0a4b71481c298e7","","null","","","","","","","learning/Slide87.JPG","null","","","","","",""
"html-keyboard-response","267","358225","0.0-7.0-2.6","LF","32gxlbaw1s","1920","1080","0","1","0","5ea2381ad0a4b71481c298e7","","null","","","learningBlock2","","","","<div style=""font-size:60px;""> </div>","null","LF","learning/Slide87.JPG","This is a wug:","","",""
"html-keyboard-response","268","359227","0.0-7.0-0.7","LF","32gxlbaw1s","1920","1080","0","1","0","5ea2381ad0a4b71481c298e7","","null","","","learningBlock2","","","","This is a tob:","null","","","","","",""
"image-keyboard-response","269","359554","0.0-7.0-1.7","LF","32gxlbaw1s","1920","1080","0","1","0","5ea2381ad0a4b71481c298e7","","null","","","","","","","learning/Slide88.JPG","null","","","","","",""
"html-keyboard-response","270","360555","0.0-7.0-2.7","LF","32gxlbaw1s","1920","1080","0","1","0","5ea2381ad0a4b71481c298e7","","null","","","learningBlock2","","","","<div style=""font-size:60px;""> </div>","null","LF","learning/Slide88.JPG","This is a tob:","","",""
"html-keyboard-response","271","361557","0.0-7.0-0.8","LF","32gxlbaw1s","1920","1080","0","1","0","5ea2381ad0a4b71481c298e7","","null","","","learningBlock2","","","","This is a bim:","null","","","","","",""
"image-keyboard-response","272","361885","0.0-7.0-1.8","LF","32gxlbaw1s","1920","1080","0","1","0","5ea2381ad0a4b71481c298e7","","null","","","","","","","learning/Slide89.JPG","null","","","","","",""
"html-keyboard-response","273","362886","0.0-7.0-2.8","LF","32gxlbaw1s","1920","1080","0","1","0","5ea2381ad0a4b71481c298e7","","null","","","learningBlock2","","","","<div style=""font-size:60px;""> </div>","null","LF","learning/Slide89.JPG","This is a bim:","","",""
"html-keyboard-response","274","363888","0.0-7.0-0.9","LF","32gxlbaw1s","1920","1080","0","1","0","5ea2381ad0a4b71481c298e7","","null","","","learningBlock2","","","","This is a dep:","null","","","","","",""
"image-keyboard-response","275","364214","0.0-7.0-1.9","LF","32gxlbaw1s","1920","1080","0","1","0","5ea2381ad0a4b71481c298e7","","null","","","","","","","learning/Slide90.JPG","null","","","","","",""
"html-keyboard-response","276","365215","0.0-7.0-2.9","LF","32gxlbaw1s","1920","1080","0","1","0","5ea2381ad0a4b71481c298e7","","null","","","learningBlock2","","","","<div style=""font-size:60px;""> </div>","null","LF","learning/Slide90.JPG","This is a dep:","","",""
"html-keyboard-response","277","366218","0.0-7.0-0.10","LF","32gxlbaw1s","1920","1080","0","1","0","5ea2381ad0a4b71481c298e7","","null","","","learningBlock2","","","","This is a wug:","null","","","","","",""
"image-keyboard-response","278","366545","0.0-7.0-1.10","LF","32gxlbaw1s","1920","1080","0","1","0","5ea2381ad0a4b71481c298e7","","null","","","","","","","learning/Slide91.JPG","null","","","","","",""
"html-keyboard-response","279","367546","0.0-7.0-2.10","LF","32gxlbaw1s","1920","1080","0","1","0","5ea2381ad0a4b71481c298e7","","null","","","learningBlock2","","","","<div style=""font-size:60px;""> </div>","null","LF","learning/Slide91.JPG","This is a wug:","","",""
"html-keyboard-response","280","368547","0.0-7.0-0.11","LF","32gxlbaw1s","1920","1080","0","1","0","5ea2381ad0a4b71481c298e7","","null","","","learningBlock2","","","","This is a tob:","null","","","","","",""
"image-keyboard-response","281","368875","0.0-7.0-1.11","LF","32gxlbaw1s","1920","1080","0","1","0","5ea2381ad0a4b71481c298e7","","null","","","","","","","learning/Slide92.JPG","null","","","","","",""
"html-keyboard-response","282","369877","0.0-7.0-2.11","LF","32gxlbaw1s","1920","1080","0","1","0","5ea2381ad0a4b71481c298e7","","null","","","learningBlock2","","","","<div style=""font-size:60px;""> </div>","null","LF","learning/Slide92.JPG","This is a tob:","","",""
"html-keyboard-response","283","370879","0.0-7.0-0.12","LF","32gxlbaw1s","1920","1080","0","1","0","5ea2381ad0a4b71481c298e7","","null","","","learningBlock2","","","","This is a bim:","null","","","","","",""
"image-keyboard-response","284","371206","0.0-7.0-1.12","LF","32gxlbaw1s","1920","1080","0","1","0","5ea2381ad0a4b71481c298e7","","null","","","","","","","learning/Slide93.JPG","null","","","","","",""
"html-keyboard-response","285","372208","0.0-7.0-2.12","LF","32gxlbaw1s","1920","1080","0","1","0","5ea2381ad0a4b71481c298e7","","null","","","learningBlock2","","","","<div style=""font-size:60px;""> </div>","null","LF","learning/Slide93.JPG","This is a bim:","","",""
"html-keyboard-response","286","373210","0.0-7.0-0.13","LF","32gxlbaw1s","1920","1080","0","1","0","5ea2381ad0a4b71481c298e7","","null","","","learningBlock2","","","","This is a tob:","null","","","","","",""
"image-keyboard-response","287","373538","0.0-7.0-1.13","LF","32gxlbaw1s","1920","1080","0","1","0","5ea2381ad0a4b71481c298e7","","null","","","","","","","learning/Slide94.JPG","null","","","","","",""
"html-keyboard-response","288","374539","0.0-7.0-2.13","LF","32gxlbaw1s","1920","1080","0","1","0","5ea2381ad0a4b71481c298e7","","null","","","learningBlock2","","","","<div style=""font-size:60px;""> </div>","null","LF","learning/Slide94.JPG","This is a tob:","","",""
"html-keyboard-response","289","375541","0.0-7.0-0.14","LF","32gxlbaw1s","1920","1080","0","1","0","5ea2381ad0a4b71481c298e7","","null","","","learningBlock2","","","","This is a wug:","null","","","","","",""
"image-keyboard-response","290","375867","0.0-7.0-1.14","LF","32gxlbaw1s","1920","1080","0","1","0","5ea2381ad0a4b71481c298e7","","null","","","","","","","learning/Slide95.JPG","null","","","","","",""
"html-keyboard-response","291","376869","0.0-7.0-2.14","LF","32gxlbaw1s","1920","1080","0","1","0","5ea2381ad0a4b71481c298e7","","null","","","learningBlock2","","","","<div style=""font-size:60px;""> </div>","null","LF","learning/Slide95.JPG","This is a wug:","","",""
"html-keyboard-response","292","377870","0.0-7.0-0.15","LF","32gxlbaw1s","1920","1080","0","1","0","5ea2381ad0a4b71481c298e7","","null","","","learningBlock2","","","","This is a tob:","null","","","","","",""
"image-keyboard-response","293","378198","0.0-7.0-1.15","LF","32gxlbaw1s","1920","1080","0","1","0","5ea2381ad0a4b71481c298e7","","null","","","","","","","learning/Slide96.JPG","null","","","","","",""
"html-keyboard-response","294","379201","0.0-7.0-2.15","LF","32gxlbaw1s","1920","1080","0","1","0","5ea2381ad0a4b71481c298e7","","null","","","learningBlock2","","","","<div style=""font-size:60px;""> </div>","null","LF","learning/Slide96.JPG","This is a tob:","","",""
"html-keyboard-response","295","380203","0.0-7.0-0.16","LF","32gxlbaw1s","1920","1080","0","1","0","5ea2381ad0a4b71481c298e7","","null","","","learningBlock2","","","","This is a dep:","null","","","","","",""
"image-keyboard-response","296","380530","0.0-7.0-1.16","LF","32gxlbaw1s","1920","1080","0","1","0","5ea2381ad0a4b71481c298e7","","null","","","","","","","learning/Slide97.JPG","null","","","","","",""
"html-keyboard-response","297","381532","0.0-7.0-2.16","LF","32gxlbaw1s","1920","1080","0","1","0","5ea2381ad0a4b71481c298e7","","null","","","learningBlock2","","","","<div style=""font-size:60px;""> </div>","null","LF","learning/Slide97.JPG","This is a dep:","","",""
"html-keyboard-response","298","382535","0.0-7.0-0.17","LF","32gxlbaw1s","1920","1080","0","1","0","5ea2381ad0a4b71481c298e7","","null","","","learningBlock2","","","","This is a bim:","null","","","","","",""
"image-keyboard-response","299","382861","0.0-7.0-1.17","LF","32gxlbaw1s","1920","1080","0","1","0","5ea2381ad0a4b71481c298e7","","null","","","","","","","learning/Slide98.JPG","null","","","","","",""
"html-keyboard-response","300","383863","0.0-7.0-2.17","LF","32gxlbaw1s","1920","1080","0","1","0","5ea2381ad0a4b71481c298e7","","null","","","learningBlock2","","","","<div style=""font-size:60px;""> </div>","null","LF","learning/Slide98.JPG","This is a bim:","","",""
"html-keyboard-response","301","384865","0.0-7.0-0.18","LF","32gxlbaw1s","1920","1080","0","1","0","5ea2381ad0a4b71481c298e7","","null","","","learningBlock2","","","","This is a dep:","null","","","","","",""
"image-keyboard-response","302","385192","0.0-7.0-1.18","LF","32gxlbaw1s","1920","1080","0","1","0","5ea2381ad0a4b71481c298e7","","null","","","","","","","learning/Slide99.JPG","null","","","","","",""
"html-keyboard-response","303","386194","0.0-7.0-2.18","LF","32gxlbaw1s","1920","1080","0","1","0","5ea2381ad0a4b71481c298e7","","null","","","learningBlock2","","","","<div style=""font-size:60px;""> </div>","null","LF","learning/Slide99.JPG","This is a dep:","","",""
"html-keyboard-response","304","387195","0.0-7.0-0.19","LF","32gxlbaw1s","1920","1080","0","1","0","5ea2381ad0a4b71481c298e7","","null","","","learningBlock2","","","","This is a bim:","null","","","","","",""
"image-keyboard-response","305","387522","0.0-7.0-1.19","LF","32gxlbaw1s","1920","1080","0","1","0","5ea2381ad0a4b71481c298e7","","null","","","","","","","learning/Slide100.JPG","null","","","","","",""
"html-keyboard-response","306","388523","0.0-7.0-2.19","LF","32gxlbaw1s","1920","1080","0","1","0","5ea2381ad0a4b71481c298e7","","null","","","learningBlock2","","","","<div style=""font-size:60px;""> </div>","null","LF","learning/Slide100.JPG","This is a bim:","","",""
"html-keyboard-response","307","389524","0.0-7.0-0.20","LF","32gxlbaw1s","1920","1080","0","1","0","5ea2381ad0a4b71481c298e7","","null","","","learningBlock2","","","","This is a tob:","null","","","","","",""
"image-keyboard-response","308","389852","0.0-7.0-1.20","LF","32gxlbaw1s","1920","1080","0","1","0","5ea2381ad0a4b71481c298e7","","null","","","","","","","learning/Slide101.JPG","null","","","","","",""
"html-keyboard-response","309","390853","0.0-7.0-2.20","LF","32gxlbaw1s","1920","1080","0","1","0","5ea2381ad0a4b71481c298e7","","null","","","learningBlock2","","","","<div style=""font-size:60px;""> </div>","null","LF","learning/Slide101.JPG","This is a tob:","","",""
"html-keyboard-response","310","391854","0.0-7.0-0.21","LF","32gxlbaw1s","1920","1080","0","1","0","5ea2381ad0a4b71481c298e7","","null","","","learningBlock2","","","","This is a bim:","null","","","","","",""
"image-keyboard-response","311","392183","0.0-7.0-1.21","LF","32gxlbaw1s","1920","1080","0","1","0","5ea2381ad0a4b71481c298e7","","null","","","","","","","learning/Slide102.JPG","null","","","","","",""
"html-keyboard-response","312","393184","0.0-7.0-2.21","LF","32gxlbaw1s","1920","1080","0","1","0","5ea2381ad0a4b71481c298e7","","null","","","learningBlock2","","","","<div style=""font-size:60px;""> </div>","null","LF","learning/Slide102.JPG","This is a bim:","","",""
"html-keyboard-response","313","394186","0.0-7.0-0.22","LF","32gxlbaw1s","1920","1080","0","1","0","5ea2381ad0a4b71481c298e7","","null","","","learningBlock2","","","","This is a dep:","null","","","","","",""
"image-keyboard-response","314","394513","0.0-7.0-1.22","LF","32gxlbaw1s","1920","1080","0","1","0","5ea2381ad0a4b71481c298e7","","null","","","","","","","learning/Slide103.JPG","null","","","","","",""
"html-keyboard-response","315","395515","0.0-7.0-2.22","LF","32gxlbaw1s","1920","1080","0","1","0","5ea2381ad0a4b71481c298e7","","null","","","learningBlock2","","","","<div style=""font-size:60px;""> </div>","null","LF","learning/Slide103.JPG","This is a dep:","","",""
"html-keyboard-response","316","396517","0.0-7.0-0.23","LF","32gxlbaw1s","1920","1080","0","1","0","5ea2381ad0a4b71481c298e7","","null","","","learningBlock2","","","","This is a tob:","null","","","","","",""
"image-keyboard-response","317","396844","0.0-7.0-1.23","LF","32gxlbaw1s","1920","1080","0","1","0","5ea2381ad0a4b71481c298e7","","null","","","","","","","learning/Slide104.JPG","null","","","","","",""
"html-keyboard-response","318","397846","0.0-7.0-2.23","LF","32gxlbaw1s","1920","1080","0","1","0","5ea2381ad0a4b71481c298e7","","null","","","learningBlock2","","","","<div style=""font-size:60px;""> </div>","null","LF","learning/Slide104.JPG","This is a tob:","","",""
"html-keyboard-response","319","398848","0.0-7.0-0.24","LF","32gxlbaw1s","1920","1080","0","1","0","5ea2381ad0a4b71481c298e7","","null","","","learningBlock2","","","","This is a dep:","null","","","","","",""
"image-keyboard-response","320","399176","0.0-7.0-1.24","LF","32gxlbaw1s","1920","1080","0","1","0","5ea2381ad0a4b71481c298e7","","null","","","","","","","learning/Slide105.JPG","null","","","","","",""
"html-keyboard-response","321","400177","0.0-7.0-2.24","LF","32gxlbaw1s","1920","1080","0","1","0","5ea2381ad0a4b71481c298e7","","null","","","learningBlock2","","","","<div style=""font-size:60px;""> </div>","null","LF","learning/Slide105.JPG","This is a dep:","","",""
"html-keyboard-response","322","401178","0.0-7.0-0.25","LF","32gxlbaw1s","1920","1080","0","1","0","5ea2381ad0a4b71481c298e7","","null","","","learningBlock2","","","","This is a wug:","null","","","","","",""
"image-keyboard-response","323","401506","0.0-7.0-1.25","LF","32gxlbaw1s","1920","1080","0","1","0","5ea2381ad0a4b71481c298e7","","null","","","","","","","learning/Slide106.JPG","null","","","","","",""
"html-keyboard-response","324","402507","0.0-7.0-2.25","LF","32gxlbaw1s","1920","1080","0","1","0","5ea2381ad0a4b71481c298e7","","null","","","learningBlock2","","","","<div style=""font-size:60px;""> </div>","null","LF","learning/Slide106.JPG","This is a wug:","","",""
"html-keyboard-response","325","403509","0.0-7.0-0.26","LF","32gxlbaw1s","1920","1080","0","1","0","5ea2381ad0a4b71481c298e7","","null","","","learningBlock2","","","","This is a bim:","null","","","","","",""
"image-keyboard-response","326","403837","0.0-7.0-1.26","LF","32gxlbaw1s","1920","1080","0","1","0","5ea2381ad0a4b71481c298e7","","null","","","","","","","learning/Slide107.JPG","null","","","","","",""
"html-keyboard-response","327","404838","0.0-7.0-2.26","LF","32gxlbaw1s","1920","1080","0","1","0","5ea2381ad0a4b71481c298e7","","null","","","learningBlock2","","","","<div style=""font-size:60px;""> </div>","null","LF","learning/Slide107.JPG","This is a bim:","","",""
"html-keyboard-response","328","405840","0.0-7.0-0.27","LF","32gxlbaw1s","1920","1080","0","1","0","5ea2381ad0a4b71481c298e7","","null","","","learningBlock2","","","","This is a dep:","null","","","","","",""
"image-keyboard-response","329","406168","0.0-7.0-1.27","LF","32gxlbaw1s","1920","1080","0","1","0","5ea2381ad0a4b71481c298e7","","null","","","","","","","learning/Slide108.JPG","null","","","","","",""
"html-keyboard-response","330","407169","0.0-7.0-2.27","LF","32gxlbaw1s","1920","1080","0","1","0","5ea2381ad0a4b71481c298e7","","null","","","learningBlock2","","","","<div style=""font-size:60px;""> </div>","null","LF","learning/Slide108.JPG","This is a dep:","","",""
"html-keyboard-response","331","408170","0.0-7.0-0.28","LF","32gxlbaw1s","1920","1080","0","1","0","5ea2381ad0a4b71481c298e7","","null","","","learningBlock2","","","","This is a wug:","null","","","","","",""
"image-keyboard-response","332","408497","0.0-7.0-1.28","LF","32gxlbaw1s","1920","1080","0","1","0","5ea2381ad0a4b71481c298e7","","null","","","","","","","learning/Slide109.JPG","null","","","","","",""
"html-keyboard-response","333","409499","0.0-7.0-2.28","LF","32gxlbaw1s","1920","1080","0","1","0","5ea2381ad0a4b71481c298e7","","null","","","learningBlock2","","","","<div style=""font-size:60px;""> </div>","null","LF","learning/Slide109.JPG","This is a wug:","","",""
"html-keyboard-response","334","410501","0.0-7.0-0.29","LF","32gxlbaw1s","1920","1080","0","1","0","5ea2381ad0a4b71481c298e7","","null","","","learningBlock2","","","","This is a bim:","null","","","","","",""
"image-keyboard-response","335","410829","0.0-7.0-1.29","LF","32gxlbaw1s","1920","1080","0","1","0","5ea2381ad0a4b71481c298e7","","null","","","","","","","learning/Slide110.JPG","null","","","","","",""
"html-keyboard-response","336","411832","0.0-7.0-2.29","LF","32gxlbaw1s","1920","1080","0","1","0","5ea2381ad0a4b71481c298e7","","null","","","learningBlock2","","","","<div style=""font-size:60px;""> </div>","null","LF","learning/Slide110.JPG","This is a bim:","","",""
"html-keyboard-response","337","412834","0.0-7.0-0.30","LF","32gxlbaw1s","1920","1080","0","1","0","5ea2381ad0a4b71481c298e7","","null","","","learningBlock2","","","","This is a tob:","null","","","","","",""
"image-keyboard-response","338","413161","0.0-7.0-1.30","LF","32gxlbaw1s","1920","1080","0","1","0","5ea2381ad0a4b71481c298e7","","null","","","","","","","learning/Slide111.JPG","null","","","","","",""
"html-keyboard-response","339","414162","0.0-7.0-2.30","LF","32gxlbaw1s","1920","1080","0","1","0","5ea2381ad0a4b71481c298e7","","null","","","learningBlock2","","","","<div style=""font-size:60px;""> </div>","null","LF","learning/Slide111.JPG","This is a tob:","","",""
"html-keyboard-response","340","415163","0.0-7.0-0.31","LF","32gxlbaw1s","1920","1080","0","1","0","5ea2381ad0a4b71481c298e7","","null","","","learningBlock2","","","","This is a wug:","null","","","","","",""
"image-keyboard-response","341","415491","0.0-7.0-1.31","LF","32gxlbaw1s","1920","1080","0","1","0","5ea2381ad0a4b71481c298e7","","null","","","","","","","learning/Slide112.JPG","null","","","","","",""
"html-keyboard-response","342","416493","0.0-7.0-2.31","LF","32gxlbaw1s","1920","1080","0","1","0","5ea2381ad0a4b71481c298e7","","null","","","learningBlock2","","","","<div style=""font-size:60px;""> </div>","null","LF","learning/Slide112.JPG","This is a wug:","","",""
"html-keyboard-response","343","417495","0.0-7.0-0.32","LF","32gxlbaw1s","1920","1080","0","1","0","5ea2381ad0a4b71481c298e7","","null","","","learningBlock2","","","","This is a tob:","null","","","","","",""
"image-keyboard-response","344","417822","0.0-7.0-1.32","LF","32gxlbaw1s","1920","1080","0","1","0","5ea2381ad0a4b71481c298e7","","null","","","","","","","learning/Slide113.JPG","null","","","","","",""
"html-keyboard-response","345","418823","0.0-7.0-2.32","LF","32gxlbaw1s","1920","1080","0","1","0","5ea2381ad0a4b71481c298e7","","null","","","learningBlock2","","","","<div style=""font-size:60px;""> </div>","null","LF","learning/Slide113.JPG","This is a tob:","","",""
"html-keyboard-response","346","419825","0.0-7.0-0.33","LF","32gxlbaw1s","1920","1080","0","1","0","5ea2381ad0a4b71481c298e7","","null","","","learningBlock2","","","","This is a wug:","null","","","","","",""
"image-keyboard-response","347","420153","0.0-7.0-1.33","LF","32gxlbaw1s","1920","1080","0","1","0","5ea2381ad0a4b71481c298e7","","null","","","","","","","learning/Slide114.JPG","null","","","","","",""
"html-keyboard-response","348","421155","0.0-7.0-2.33","LF","32gxlbaw1s","1920","1080","0","1","0","5ea2381ad0a4b71481c298e7","","null","","","learningBlock2","","","","<div style=""font-size:60px;""> </div>","null","LF","learning/Slide114.JPG","This is a wug:","","",""
"html-keyboard-response","349","422157","0.0-7.0-0.34","LF","32gxlbaw1s","1920","1080","0","1","0","5ea2381ad0a4b71481c298e7","","null","","","learningBlock2","","","","This is a bim:","null","","","","","",""
"image-keyboard-response","350","422484","0.0-7.0-1.34","LF","32gxlbaw1s","1920","1080","0","1","0","5ea2381ad0a4b71481c298e7","","null","","","","","","","learning/Slide115.JPG","null","","","","","",""
"html-keyboard-response","351","423486","0.0-7.0-2.34","LF","32gxlbaw1s","1920","1080","0","1","0","5ea2381ad0a4b71481c298e7","","null","","","learningBlock2","","","","<div style=""font-size:60px;""> </div>","null","LF","learning/Slide115.JPG","This is a bim:","","",""
"html-keyboard-response","352","424487","0.0-7.0-0.35","LF","32gxlbaw1s","1920","1080","0","1","0","5ea2381ad0a4b71481c298e7","","null","","","learningBlock2","","","","This is a dep:","null","","","","","",""
"image-keyboard-response","353","424814","0.0-7.0-1.35","LF","32gxlbaw1s","1920","1080","0","1","0","5ea2381ad0a4b71481c298e7","","null","","","","","","","learning/Slide116.JPG","null","","","","","",""
"html-keyboard-response","354","425815","0.0-7.0-2.35","LF","32gxlbaw1s","1920","1080","0","1","0","5ea2381ad0a4b71481c298e7","","null","","","learningBlock2","","","","<div style=""font-size:60px;""> </div>","null","LF","learning/Slide116.JPG","This is a dep:","","",""
"html-keyboard-response","355","426817","0.0-7.0-0.36","LF","32gxlbaw1s","1920","1080","0","1","0","5ea2381ad0a4b71481c298e7","","null","","","learningBlock2","","","","This is a tob:","null","","","","","",""
"image-keyboard-response","356","427145","0.0-7.0-1.36","LF","32gxlbaw1s","1920","1080","0","1","0","5ea2381ad0a4b71481c298e7","","null","","","","","","","learning/Slide117.JPG","null","","","","","",""
"html-keyboard-response","357","428146","0.0-7.0-2.36","LF","32gxlbaw1s","1920","1080","0","1","0","5ea2381ad0a4b71481c298e7","","null","","","learningBlock2","","","","<div style=""font-size:60px;""> </div>","null","LF","learning/Slide117.JPG","This is a tob:","","",""
"html-keyboard-response","358","429147","0.0-7.0-0.37","LF","32gxlbaw1s","1920","1080","0","1","0","5ea2381ad0a4b71481c298e7","","null","","","learningBlock2","","","","This is a dep:","null","","","","","",""
"image-keyboard-response","359","429474","0.0-7.0-1.37","LF","32gxlbaw1s","1920","1080","0","1","0","5ea2381ad0a4b71481c298e7","","null","","","","","","","learning/Slide118.JPG","null","","","","","",""
"html-keyboard-response","360","430475","0.0-7.0-2.37","LF","32gxlbaw1s","1920","1080","0","1","0","5ea2381ad0a4b71481c298e7","","null","","","learningBlock2","","","","<div style=""font-size:60px;""> </div>","null","LF","learning/Slide118.JPG","This is a dep:","","",""
"html-keyboard-response","361","431477","0.0-7.0-0.38","LF","32gxlbaw1s","1920","1080","0","1","0","5ea2381ad0a4b71481c298e7","","null","","","learningBlock2","","","","This is a wug:","null","","","","","",""
"image-keyboard-response","362","431804","0.0-7.0-1.38","LF","32gxlbaw1s","1920","1080","0","1","0","5ea2381ad0a4b71481c298e7","","null","","","","","","","learning/Slide119.JPG","null","","","","","",""
"html-keyboard-response","363","432805","0.0-7.0-2.38","LF","32gxlbaw1s","1920","1080","0","1","0","5ea2381ad0a4b71481c298e7","","null","","","learningBlock2","","","","<div style=""font-size:60px;""> </div>","null","LF","learning/Slide119.JPG","This is a wug:","","",""
"html-keyboard-response","364","433806","0.0-7.0-0.39","LF","32gxlbaw1s","1920","1080","0","1","0","5ea2381ad0a4b71481c298e7","","null","","","learningBlock2","","","","This is a dep:","null","","","","","",""
"image-keyboard-response","365","434134","0.0-7.0-1.39","LF","32gxlbaw1s","1920","1080","0","1","0","5ea2381ad0a4b71481c298e7","","null","","","","","","","learning/Slide120.JPG","null","","","","","",""
"html-keyboard-response","366","435135","0.0-7.0-2.39","LF","32gxlbaw1s","1920","1080","0","1","0","5ea2381ad0a4b71481c298e7","","null","","","learningBlock2","","","","<div style=""font-size:60px;""> </div>","null","LF","learning/Slide120.JPG","This is a dep:","","",""
"html-keyboard-response","367","436136","0.0-7.0-0.40","LF","32gxlbaw1s","1920","1080","0","1","0","5ea2381ad0a4b71481c298e7","","null","","","learningBlock2","","","","This is a bim:","null","","","","","",""
"image-keyboard-response","368","436463","0.0-7.0-1.40","LF","32gxlbaw1s","1920","1080","0","1","0","5ea2381ad0a4b71481c298e7","","null","","","","","","","learning/Slide121.JPG","null","","","","","",""
"html-keyboard-response","369","437465","0.0-7.0-2.40","LF","32gxlbaw1s","1920","1080","0","1","0","5ea2381ad0a4b71481c298e7","","null","","","learningBlock2","","","","<div style=""font-size:60px;""> </div>","null","LF","learning/Slide121.JPG","This is a bim:","","",""
"html-keyboard-response","370","438466","0.0-7.0-0.41","LF","32gxlbaw1s","1920","1080","0","1","0","5ea2381ad0a4b71481c298e7","","null","","","learningBlock2","","","","This is a wug:","null","","","","","",""
"image-keyboard-response","371","438793","0.0-7.0-1.41","LF","32gxlbaw1s","1920","1080","0","1","0","5ea2381ad0a4b71481c298e7","","null","","","","","","","learning/Slide122.JPG","null","","","","","",""
"html-keyboard-response","372","439794","0.0-7.0-2.41","LF","32gxlbaw1s","1920","1080","0","1","0","5ea2381ad0a4b71481c298e7","","null","","","learningBlock2","","","","<div style=""font-size:60px;""> </div>","null","LF","learning/Slide122.JPG","This is a wug:","","",""
"html-keyboard-response","373","440796","0.0-7.0-0.42","LF","32gxlbaw1s","1920","1080","0","1","0","5ea2381ad0a4b71481c298e7","","null","","","learningBlock2","","","","This is a bim:","null","","","","","",""
"image-keyboard-response","374","441124","0.0-7.0-1.42","LF","32gxlbaw1s","1920","1080","0","1","0","5ea2381ad0a4b71481c298e7","","null","","","","","","","learning/Slide123.JPG","null","","","","","",""
"html-keyboard-response","375","442125","0.0-7.0-2.42","LF","32gxlbaw1s","1920","1080","0","1","0","5ea2381ad0a4b71481c298e7","","null","","","learningBlock2","","","","<div style=""font-size:60px;""> </div>","null","LF","learning/Slide123.JPG","This is a bim:","","",""
"html-keyboard-response","376","443127","0.0-7.0-0.43","LF","32gxlbaw1s","1920","1080","0","1","0","5ea2381ad0a4b71481c298e7","","null","","","learningBlock2","","","","This is a tob:","null","","","","","",""
"image-keyboard-response","377","443453","0.0-7.0-1.43","LF","32gxlbaw1s","1920","1080","0","1","0","5ea2381ad0a4b71481c298e7","","null","","","","","","","learning/Slide124.JPG","null","","","","","",""
"html-keyboard-response","378","444454","0.0-7.0-2.43","LF","32gxlbaw1s","1920","1080","0","1","0","5ea2381ad0a4b71481c298e7","","null","","","learningBlock2","","","","<div style=""font-size:60px;""> </div>","null","LF","learning/Slide124.JPG","This is a tob:","","",""
"html-keyboard-response","379","445456","0.0-7.0-0.44","LF","32gxlbaw1s","1920","1080","0","1","0","5ea2381ad0a4b71481c298e7","","null","","","learningBlock2","","","","This is a bim:","null","","","","","",""
"image-keyboard-response","380","445784","0.0-7.0-1.44","LF","32gxlbaw1s","1920","1080","0","1","0","5ea2381ad0a4b71481c298e7","","null","","","","","","","learning/Slide125.JPG","null","","","","","",""
"html-keyboard-response","381","446786","0.0-7.0-2.44","LF","32gxlbaw1s","1920","1080","0","1","0","5ea2381ad0a4b71481c298e7","","null","","","learningBlock2","","","","<div style=""font-size:60px;""> </div>","null","LF","learning/Slide125.JPG","This is a bim:","","",""
"html-keyboard-response","382","447788","0.0-7.0-0.45","LF","32gxlbaw1s","1920","1080","0","1","0","5ea2381ad0a4b71481c298e7","","null","","","learningBlock2","","","","This is a tob:","null","","","","","",""
"image-keyboard-response","383","448115","0.0-7.0-1.45","LF","32gxlbaw1s","1920","1080","0","1","0","5ea2381ad0a4b71481c298e7","","null","","","","","","","learning/Slide126.JPG","null","","","","","",""
"html-keyboard-response","384","449117","0.0-7.0-2.45","LF","32gxlbaw1s","1920","1080","0","1","0","5ea2381ad0a4b71481c298e7","","null","","","learningBlock2","","","","<div style=""font-size:60px;""> </div>","null","LF","learning/Slide126.JPG","This is a tob:","","",""
"html-keyboard-response","385","450119","0.0-7.0-0.46","LF","32gxlbaw1s","1920","1080","0","1","0","5ea2381ad0a4b71481c298e7","","null","","","learningBlock2","","","","This is a dep:","null","","","","","",""
"image-keyboard-response","386","450446","0.0-7.0-1.46","LF","32gxlbaw1s","1920","1080","0","1","0","5ea2381ad0a4b71481c298e7","","null","","","","","","","learning/Slide127.JPG","null","","","","","",""
"html-keyboard-response","387","451447","0.0-7.0-2.46","LF","32gxlbaw1s","1920","1080","0","1","0","5ea2381ad0a4b71481c298e7","","null","","","learningBlock2","","","","<div style=""font-size:60px;""> </div>","null","LF","learning/Slide127.JPG","This is a dep:","","",""
"html-keyboard-response","388","452449","0.0-7.0-0.47","LF","32gxlbaw1s","1920","1080","0","1","0","5ea2381ad0a4b71481c298e7","","null","","","learningBlock2","","","","This is a wug:","null","","","","","",""
"image-keyboard-response","389","452776","0.0-7.0-1.47","LF","32gxlbaw1s","1920","1080","0","1","0","5ea2381ad0a4b71481c298e7","","null","","","","","","","learning/Slide128.JPG","null","","","","","",""
"html-keyboard-response","390","453777","0.0-7.0-2.47","LF","32gxlbaw1s","1920","1080","0","1","0","5ea2381ad0a4b71481c298e7","","null","","","learningBlock2","","","","<div style=""font-size:60px;""> </div>","null","LF","learning/Slide128.JPG","This is a wug:","","",""
"html-keyboard-response","391","454778","0.0-7.0-0.48","LF","32gxlbaw1s","1920","1080","0","1","0","5ea2381ad0a4b71481c298e7","","null","","","learningBlock2","","","","This is a tob:","null","","","","","",""
"image-keyboard-response","392","455106","0.0-7.0-1.48","LF","32gxlbaw1s","1920","1080","0","1","0","5ea2381ad0a4b71481c298e7","","null","","","","","","","learning/Slide129.JPG","null","","","","","",""
"html-keyboard-response","393","456108","0.0-7.0-2.48","LF","32gxlbaw1s","1920","1080","0","1","0","5ea2381ad0a4b71481c298e7","","null","","","learningBlock2","","","","<div style=""font-size:60px;""> </div>","null","LF","learning/Slide129.JPG","This is a tob:","","",""
"html-keyboard-response","394","457110","0.0-7.0-0.49","LF","32gxlbaw1s","1920","1080","0","1","0","5ea2381ad0a4b71481c298e7","","null","","","learningBlock2","","","","This is a wug:","null","","","","","",""
"image-keyboard-response","395","457437","0.0-7.0-1.49","LF","32gxlbaw1s","1920","1080","0","1","0","5ea2381ad0a4b71481c298e7","","null","","","","","","","learning/Slide130.JPG","null","","","","","",""
"html-keyboard-response","396","458438","0.0-7.0-2.49","LF","32gxlbaw1s","1920","1080","0","1","0","5ea2381ad0a4b71481c298e7","","null","","","learningBlock2","","","","<div style=""font-size:60px;""> </div>","null","LF","learning/Slide130.JPG","This is a wug:","","",""
"html-keyboard-response","397","459440","0.0-7.0-0.50","LF","32gxlbaw1s","1920","1080","0","1","0","5ea2381ad0a4b71481c298e7","","null","","","learningBlock2","","","","This is a bim:","null","","","","","",""
"image-keyboard-response","398","459766","0.0-7.0-1.50","LF","32gxlbaw1s","1920","1080","0","1","0","5ea2381ad0a4b71481c298e7","","null","","","","","","","learning/Slide131.JPG","null","","","","","",""
"html-keyboard-response","399","460768","0.0-7.0-2.50","LF","32gxlbaw1s","1920","1080","0","1","0","5ea2381ad0a4b71481c298e7","","null","","","learningBlock2","","","","<div style=""font-size:60px;""> </div>","null","LF","learning/Slide131.JPG","This is a bim:","","",""
"html-keyboard-response","400","461770","0.0-7.0-0.51","LF","32gxlbaw1s","1920","1080","0","1","0","5ea2381ad0a4b71481c298e7","","null","","","learningBlock2","","","","This is a dep:","null","","","","","",""
"image-keyboard-response","401","462097","0.0-7.0-1.51","LF","32gxlbaw1s","1920","1080","0","1","0","5ea2381ad0a4b71481c298e7","","null","","","","","","","learning/Slide132.JPG","null","","","","","",""
"html-keyboard-response","402","463098","0.0-7.0-2.51","LF","32gxlbaw1s","1920","1080","0","1","0","5ea2381ad0a4b71481c298e7","","null","","","learningBlock2","","","","<div style=""font-size:60px;""> </div>","null","LF","learning/Slide132.JPG","This is a dep:","","",""
"html-keyboard-response","403","464101","0.0-7.0-0.52","LF","32gxlbaw1s","1920","1080","0","1","0","5ea2381ad0a4b71481c298e7","","null","","","learningBlock2","","","","This is a tob:","null","","","","","",""
"image-keyboard-response","404","464429","0.0-7.0-1.52","LF","32gxlbaw1s","1920","1080","0","1","0","5ea2381ad0a4b71481c298e7","","null","","","","","","","learning/Slide133.JPG","null","","","","","",""
"html-keyboard-response","405","465431","0.0-7.0-2.52","LF","32gxlbaw1s","1920","1080","0","1","0","5ea2381ad0a4b71481c298e7","","null","","","learningBlock2","","","","<div style=""font-size:60px;""> </div>","null","LF","learning/Slide133.JPG","This is a tob:","","",""
"html-keyboard-response","406","466433","0.0-7.0-0.53","LF","32gxlbaw1s","1920","1080","0","1","0","5ea2381ad0a4b71481c298e7","","null","","","learningBlock2","","","","This is a dep:","null","","","","","",""
"image-keyboard-response","407","466760","0.0-7.0-1.53","LF","32gxlbaw1s","1920","1080","0","1","0","5ea2381ad0a4b71481c298e7","","null","","","","","","","learning/Slide134.JPG","null","","","","","",""
"html-keyboard-response","408","467760","0.0-7.0-2.53","LF","32gxlbaw1s","1920","1080","0","1","0","5ea2381ad0a4b71481c298e7","","null","","","learningBlock2","","","","<div style=""font-size:60px;""> </div>","null","LF","learning/Slide134.JPG","This is a dep:","","",""
"html-keyboard-response","409","468762","0.0-7.0-0.54","LF","32gxlbaw1s","1920","1080","0","1","0","5ea2381ad0a4b71481c298e7","","null","","","learningBlock2","","","","This is a tob:","null","","","","","",""
"image-keyboard-response","410","469090","0.0-7.0-1.54","LF","32gxlbaw1s","1920","1080","0","1","0","5ea2381ad0a4b71481c298e7","","null","","","","","","","learning/Slide135.JPG","null","","","","","",""
"html-keyboard-response","411","470091","0.0-7.0-2.54","LF","32gxlbaw1s","1920","1080","0","1","0","5ea2381ad0a4b71481c298e7","","null","","","learningBlock2","","","","<div style=""font-size:60px;""> </div>","null","LF","learning/Slide135.JPG","This is a tob:","","",""
"html-keyboard-response","412","471093","0.0-7.0-0.55","LF","32gxlbaw1s","1920","1080","0","1","0","5ea2381ad0a4b71481c298e7","","null","","","learningBlock2","","","","This is a wug:","null","","","","","",""
"image-keyboard-response","413","471420","0.0-7.0-1.55","LF","32gxlbaw1s","1920","1080","0","1","0","5ea2381ad0a4b71481c298e7","","null","","","","","","","learning/Slide136.JPG","null","","","","","",""
"html-keyboard-response","414","472423","0.0-7.0-2.55","LF","32gxlbaw1s","1920","1080","0","1","0","5ea2381ad0a4b71481c298e7","","null","","","learningBlock2","","","","<div style=""font-size:60px;""> </div>","null","LF","learning/Slide136.JPG","This is a wug:","","",""
"html-keyboard-response","415","473425","0.0-7.0-0.56","LF","32gxlbaw1s","1920","1080","0","1","0","5ea2381ad0a4b71481c298e7","","null","","","learningBlock2","","","","This is a tob:","null","","","","","",""
"image-keyboard-response","416","473752","0.0-7.0-1.56","LF","32gxlbaw1s","1920","1080","0","1","0","5ea2381ad0a4b71481c298e7","","null","","","","","","","learning/Slide137.JPG","null","","","","","",""
"html-keyboard-response","417","474753","0.0-7.0-2.56","LF","32gxlbaw1s","1920","1080","0","1","0","5ea2381ad0a4b71481c298e7","","null","","","learningBlock2","","","","<div style=""font-size:60px;""> </div>","null","LF","learning/Slide137.JPG","This is a tob:","","",""
"html-keyboard-response","418","475754","0.0-7.0-0.57","LF","32gxlbaw1s","1920","1080","0","1","0","5ea2381ad0a4b71481c298e7","","null","","","learningBlock2","","","","This is a bim:","null","","","","","",""
"image-keyboard-response","419","476081","0.0-7.0-1.57","LF","32gxlbaw1s","1920","1080","0","1","0","5ea2381ad0a4b71481c298e7","","null","","","","","","","learning/Slide138.JPG","null","","","","","",""
"html-keyboard-response","420","477083","0.0-7.0-2.57","LF","32gxlbaw1s","1920","1080","0","1","0","5ea2381ad0a4b71481c298e7","","null","","","learningBlock2","","","","<div style=""font-size:60px;""> </div>","null","LF","learning/Slide138.JPG","This is a bim:","","",""
"html-keyboard-response","421","478085","0.0-7.0-0.58","LF","32gxlbaw1s","1920","1080","0","1","0","5ea2381ad0a4b71481c298e7","","null","","","learningBlock2","","","","This is a wug:","null","","","","","",""
"image-keyboard-response","422","478414","0.0-7.0-1.58","LF","32gxlbaw1s","1920","1080","0","1","0","5ea2381ad0a4b71481c298e7","","null","","","","","","","learning/Slide139.JPG","null","","","","","",""
"html-keyboard-response","423","479415","0.0-7.0-2.58","LF","32gxlbaw1s","1920","1080","0","1","0","5ea2381ad0a4b71481c298e7","","null","","","learningBlock2","","","","<div style=""font-size:60px;""> </div>","null","LF","learning/Slide139.JPG","This is a wug:","","",""
"html-keyboard-response","424","480418","0.0-7.0-0.59","LF","32gxlbaw1s","1920","1080","0","1","0","5ea2381ad0a4b71481c298e7","","null","","","learningBlock2","","","","This is a dep:","null","","","","","",""
"image-keyboard-response","425","480745","0.0-7.0-1.59","LF","32gxlbaw1s","1920","1080","0","1","0","5ea2381ad0a4b71481c298e7","","null","","","","","","","learning/Slide140.JPG","null","","","","","",""
"html-keyboard-response","426","481746","0.0-7.0-2.59","LF","32gxlbaw1s","1920","1080","0","1","0","5ea2381ad0a4b71481c298e7","","null","","","learningBlock2","","","","<div style=""font-size:60px;""> </div>","null","LF","learning/Slide140.JPG","This is a dep:","","",""
"html-keyboard-response","427","482748","0.0-7.0-0.60","LF","32gxlbaw1s","1920","1080","0","1","0","5ea2381ad0a4b71481c298e7","","null","","","learningBlock2","","","","This is a tob:","null","","","","","",""
"image-keyboard-response","428","483075","0.0-7.0-1.60","LF","32gxlbaw1s","1920","1080","0","1","0","5ea2381ad0a4b71481c298e7","","null","","","","","","","learning/Slide141.JPG","null","","","","","",""
"html-keyboard-response","429","484077","0.0-7.0-2.60","LF","32gxlbaw1s","1920","1080","0","1","0","5ea2381ad0a4b71481c298e7","","null","","","learningBlock2","","","","<div style=""font-size:60px;""> </div>","null","LF","learning/Slide141.JPG","This is a tob:","","",""
"html-keyboard-response","430","485079","0.0-7.0-0.61","LF","32gxlbaw1s","1920","1080","0","1","0","5ea2381ad0a4b71481c298e7","","null","","","learningBlock2","","","","This is a wug:","null","","","","","",""
"image-keyboard-response","431","485406","0.0-7.0-1.61","LF","32gxlbaw1s","1920","1080","0","1","0","5ea2381ad0a4b71481c298e7","","null","","","","","","","learning/Slide142.JPG","null","","","","","",""
"html-keyboard-response","432","486408","0.0-7.0-2.61","LF","32gxlbaw1s","1920","1080","0","1","0","5ea2381ad0a4b71481c298e7","","null","","","learningBlock2","","","","<div style=""font-size:60px;""> </div>","null","LF","learning/Slide142.JPG","This is a wug:","","",""
"html-keyboard-response","433","487409","0.0-7.0-0.62","LF","32gxlbaw1s","1920","1080","0","1","0","5ea2381ad0a4b71481c298e7","","null","","","learningBlock2","","","","This is a bim:","null","","","","","",""
"image-keyboard-response","434","487737","0.0-7.0-1.62","LF","32gxlbaw1s","1920","1080","0","1","0","5ea2381ad0a4b71481c298e7","","null","","","","","","","learning/Slide143.JPG","null","","","","","",""
"html-keyboard-response","435","488739","0.0-7.0-2.62","LF","32gxlbaw1s","1920","1080","0","1","0","5ea2381ad0a4b71481c298e7","","null","","","learningBlock2","","","","<div style=""font-size:60px;""> </div>","null","LF","learning/Slide143.JPG","This is a bim:","","",""
