"trial_type","trial_index","time_elapsed","internal_node_id","condition","subject","screen_width","screen_height","attention","distraction","conscientious","prolificID","success","rt","url","view_history","test_part","final_height_px","final_width_px","scale_factor","stimulus","key_press","learningType","presentedImage","presentedLabel","button_pressed","response","responses"
"pavlovia","0","32","0.0-0.0","LF","6j0z0b0c72","1440","900","0","1","0","5ea44104a980d23d4f21f7ad","","","","","","","","","","","","","","","",""
"fullscreen","1","5360","0.0-1.0","LF","6j0z0b0c72","1440","900","0","1","0","5ea44104a980d23d4f21f7ad","true","","","","","","","","","","","","","","",""
"external-html","2","21133","0.0-2.0-0.0","LF","6j0z0b0c72","1440","900","0","1","0","5ea44104a980d23d4f21f7ad","","15641.479999991134","text/information_english.html","","","","","","","","","","","","",""
"external-html","3","34939","0.0-2.0-1.0","LF","6j0z0b0c72","1440","900","0","1","0","5ea44104a980d23d4f21f7ad","","13733.474999986356","text/consent_english.html","","","","","","","","","","","","",""
"instructions","4","45585","0.0-3.0","LF","6j0z0b0c72","1440","900","0","1","0","5ea44104a980d23d4f21f7ad","","NA","","[{""page_index"":0,""viewing_time"":2468.495000008261},{""page_index"":1,""viewing_time"":8173.065000009956}]","instructions","","","","","","","","","","",""
"resize","5","53865","0.0-4.0","LF","6j0z0b0c72","1440","900","0","1","0","5ea44104a980d23d4f21f7ad","","","","","","","358","2.273015873015873","","","","","","","",""
"html-keyboard-response","6","54869","0.0-5.0-0.0","LF","6j0z0b0c72","1440","900","0","1","0","5ea44104a980d23d4f21f7ad","","null","","","learningBlock1","","","","This is a tob:","null","","","","","",""
"image-keyboard-response","7","55206","0.0-5.0-1.0","LF","6j0z0b0c72","1440","900","0","1","0","5ea44104a980d23d4f21f7ad","","null","","","","","","","learning/Slide1.JPG","null","","","","","",""
"html-keyboard-response","8","56208","0.0-5.0-2.0","LF","6j0z0b0c72","1440","900","0","1","0","5ea44104a980d23d4f21f7ad","","null","","","learningBlock1","","","","<div style=""font-size:60px;""> </div>","null","LF","learning/Slide1.JPG","This is a tob:","","",""
"html-keyboard-response","9","57210","0.0-5.0-0.1","LF","6j0z0b0c72","1440","900","0","1","0","5ea44104a980d23d4f21f7ad","","null","","","learningBlock1","","","","This is a wug:","null","","","","","",""
"image-keyboard-response","10","57542","0.0-5.0-1.1","LF","6j0z0b0c72","1440","900","0","1","0","5ea44104a980d23d4f21f7ad","","null","","","","","","","learning/Slide2.JPG","null","","","","","",""
"html-keyboard-response","11","58546","0.0-5.0-2.1","LF","6j0z0b0c72","1440","900","0","1","0","5ea44104a980d23d4f21f7ad","","null","","","learningBlock1","","","","<div style=""font-size:60px;""> </div>","null","LF","learning/Slide2.JPG","This is a wug:","","",""
"html-keyboard-response","12","59549","0.0-5.0-0.2","LF","6j0z0b0c72","1440","900","0","1","0","5ea44104a980d23d4f21f7ad","","null","","","learningBlock1","","","","This is a bim:","null","","","","","",""
"image-keyboard-response","13","59883","0.0-5.0-1.2","LF","6j0z0b0c72","1440","900","0","1","0","5ea44104a980d23d4f21f7ad","","null","","","","","","","learning/Slide3.JPG","null","","","","","",""
"html-keyboard-response","14","60887","0.0-5.0-2.2","LF","6j0z0b0c72","1440","900","0","1","0","5ea44104a980d23d4f21f7ad","","null","","","learningBlock1","","","","<div style=""font-size:60px;""> </div>","null","LF","learning/Slide3.JPG","This is a bim:","","",""
"html-keyboard-response","15","61893","0.0-5.0-0.3","LF","6j0z0b0c72","1440","900","0","1","0","5ea44104a980d23d4f21f7ad","","null","","","learningBlock1","","","","This is a dep:","null","","","","","",""
"image-keyboard-response","16","62225","0.0-5.0-1.3","LF","6j0z0b0c72","1440","900","0","1","0","5ea44104a980d23d4f21f7ad","","null","","","","","","","learning/Slide4.JPG","null","","","","","",""
"html-keyboard-response","17","63229","0.0-5.0-2.3","LF","6j0z0b0c72","1440","900","0","1","0","5ea44104a980d23d4f21f7ad","","null","","","learningBlock1","","","","<div style=""font-size:60px;""> </div>","null","LF","learning/Slide4.JPG","This is a dep:","","",""
"html-keyboard-response","18","64235","0.0-5.0-0.4","LF","6j0z0b0c72","1440","900","0","1","0","5ea44104a980d23d4f21f7ad","","null","","","learningBlock1","","","","This is a wug:","null","","","","","",""
"image-keyboard-response","19","64572","0.0-5.0-1.4","LF","6j0z0b0c72","1440","900","0","1","0","5ea44104a980d23d4f21f7ad","","null","","","","","","","learning/Slide5.JPG","null","","","","","",""
"html-keyboard-response","20","65576","0.0-5.0-2.4","LF","6j0z0b0c72","1440","900","0","1","0","5ea44104a980d23d4f21f7ad","","null","","","learningBlock1","","","","<div style=""font-size:60px;""> </div>","null","LF","learning/Slide5.JPG","This is a wug:","","",""
"html-keyboard-response","21","66583","0.0-5.0-0.5","LF","6j0z0b0c72","1440","900","0","1","0","5ea44104a980d23d4f21f7ad","","null","","","learningBlock1","","","","This is a dep:","null","","","","","",""
"image-keyboard-response","22","66913","0.0-5.0-1.5","LF","6j0z0b0c72","1440","900","0","1","0","5ea44104a980d23d4f21f7ad","","null","","","","","","","learning/Slide6.JPG","null","","","","","",""
"html-keyboard-response","23","67920","0.0-5.0-2.5","LF","6j0z0b0c72","1440","900","0","1","0","5ea44104a980d23d4f21f7ad","","null","","","learningBlock1","","","","<div style=""font-size:60px;""> </div>","null","LF","learning/Slide6.JPG","This is a dep:","","",""
"html-keyboard-response","24","68926","0.0-5.0-0.6","LF","6j0z0b0c72","1440","900","0","1","0","5ea44104a980d23d4f21f7ad","","null","","","learningBlock1","","","","This is a wug:","null","","","","","",""
"image-keyboard-response","25","69255","0.0-5.0-1.6","LF","6j0z0b0c72","1440","900","0","1","0","5ea44104a980d23d4f21f7ad","","null","","","","","","","learning/Slide7.JPG","null","","","","","",""
"html-keyboard-response","26","70258","0.0-5.0-2.6","LF","6j0z0b0c72","1440","900","0","1","0","5ea44104a980d23d4f21f7ad","","null","","","learningBlock1","","","","<div style=""font-size:60px;""> </div>","null","LF","learning/Slide7.JPG","This is a wug:","","",""
"html-keyboard-response","27","71266","0.0-5.0-0.7","LF","6j0z0b0c72","1440","900","0","1","0","5ea44104a980d23d4f21f7ad","","null","","","learningBlock1","","","","This is a bim:","null","","","","","",""
"image-keyboard-response","28","71595","0.0-5.0-1.7","LF","6j0z0b0c72","1440","900","0","1","0","5ea44104a980d23d4f21f7ad","","null","","","","","","","learning/Slide8.JPG","null","","","","","",""
"html-keyboard-response","29","72597","0.0-5.0-2.7","LF","6j0z0b0c72","1440","900","0","1","0","5ea44104a980d23d4f21f7ad","","null","","","learningBlock1","","","","<div style=""font-size:60px;""> </div>","null","LF","learning/Slide8.JPG","This is a bim:","","",""
"html-keyboard-response","30","73599","0.0-5.0-0.8","LF","6j0z0b0c72","1440","900","0","1","0","5ea44104a980d23d4f21f7ad","","null","","","learningBlock1","","","","This is a wug:","null","","","","","",""
"image-keyboard-response","31","73931","0.0-5.0-1.8","LF","6j0z0b0c72","1440","900","0","1","0","5ea44104a980d23d4f21f7ad","","null","","","","","","","learning/Slide9.JPG","null","","","","","",""
"html-keyboard-response","32","74936","0.0-5.0-2.8","LF","6j0z0b0c72","1440","900","0","1","0","5ea44104a980d23d4f21f7ad","","null","","","learningBlock1","","","","<div style=""font-size:60px;""> </div>","null","LF","learning/Slide9.JPG","This is a wug:","","",""
"html-keyboard-response","33","75941","0.0-5.0-0.9","LF","6j0z0b0c72","1440","900","0","1","0","5ea44104a980d23d4f21f7ad","","null","","","learningBlock1","","","","This is a dep:","null","","","","","",""
"image-keyboard-response","34","76270","0.0-5.0-1.9","LF","6j0z0b0c72","1440","900","0","1","0","5ea44104a980d23d4f21f7ad","","null","","","","","","","learning/Slide10.JPG","null","","","","","",""
"html-keyboard-response","35","77274","0.0-5.0-2.9","LF","6j0z0b0c72","1440","900","0","1","0","5ea44104a980d23d4f21f7ad","","null","","","learningBlock1","","","","<div style=""font-size:60px;""> </div>","null","LF","learning/Slide10.JPG","This is a dep:","","",""
"html-keyboard-response","36","78280","0.0-5.0-0.10","LF","6j0z0b0c72","1440","900","0","1","0","5ea44104a980d23d4f21f7ad","","null","","","learningBlock1","","","","This is a tob:","null","","","","","",""
"image-keyboard-response","37","78611","0.0-5.0-1.10","LF","6j0z0b0c72","1440","900","0","1","0","5ea44104a980d23d4f21f7ad","","null","","","","","","","learning/Slide11.JPG","null","","","","","",""
"html-keyboard-response","38","79613","0.0-5.0-2.10","LF","6j0z0b0c72","1440","900","0","1","0","5ea44104a980d23d4f21f7ad","","null","","","learningBlock1","","","","<div style=""font-size:60px;""> </div>","null","LF","learning/Slide11.JPG","This is a tob:","","",""
"html-keyboard-response","39","80619","0.0-5.0-0.11","LF","6j0z0b0c72","1440","900","0","1","0","5ea44104a980d23d4f21f7ad","","null","","","learningBlock1","","","","This is a dep:","null","","","","","",""
"image-keyboard-response","40","80956","0.0-5.0-1.11","LF","6j0z0b0c72","1440","900","0","1","0","5ea44104a980d23d4f21f7ad","","null","","","","","","","learning/Slide12.JPG","null","","","","","",""
"html-keyboard-response","41","81960","0.0-5.0-2.11","LF","6j0z0b0c72","1440","900","0","1","0","5ea44104a980d23d4f21f7ad","","null","","","learningBlock1","","","","<div style=""font-size:60px;""> </div>","null","LF","learning/Slide12.JPG","This is a dep:","","",""
"html-keyboard-response","42","82965","0.0-5.0-0.12","LF","6j0z0b0c72","1440","900","0","1","0","5ea44104a980d23d4f21f7ad","","null","","","learningBlock1","","","","This is a bim:","null","","","","","",""
"image-keyboard-response","43","83298","0.0-5.0-1.12","LF","6j0z0b0c72","1440","900","0","1","0","5ea44104a980d23d4f21f7ad","","null","","","","","","","learning/Slide13.JPG","null","","","","","",""
"html-keyboard-response","44","84307","0.0-5.0-2.12","LF","6j0z0b0c72","1440","900","0","1","0","5ea44104a980d23d4f21f7ad","","null","","","learningBlock1","","","","<div style=""font-size:60px;""> </div>","null","LF","learning/Slide13.JPG","This is a bim:","","",""
"html-keyboard-response","45","85313","0.0-5.0-0.13","LF","6j0z0b0c72","1440","900","0","1","0","5ea44104a980d23d4f21f7ad","","null","","","learningBlock1","","","","This is a wug:","null","","","","","",""
"image-keyboard-response","46","85654","0.0-5.0-1.13","LF","6j0z0b0c72","1440","900","0","1","0","5ea44104a980d23d4f21f7ad","","null","","","","","","","learning/Slide14.JPG","null","","","","","",""
"html-keyboard-response","47","86661","0.0-5.0-2.13","LF","6j0z0b0c72","1440","900","0","1","0","5ea44104a980d23d4f21f7ad","","null","","","learningBlock1","","","","<div style=""font-size:60px;""> </div>","null","LF","learning/Slide14.JPG","This is a wug:","","",""
"html-keyboard-response","48","87663","0.0-5.0-0.14","LF","6j0z0b0c72","1440","900","0","1","0","5ea44104a980d23d4f21f7ad","","null","","","learningBlock1","","","","This is a tob:","null","","","","","",""
"image-keyboard-response","49","87998","0.0-5.0-1.14","LF","6j0z0b0c72","1440","900","0","1","0","5ea44104a980d23d4f21f7ad","","null","","","","","","","learning/Slide15.JPG","null","","","","","",""
"html-keyboard-response","50","89003","0.0-5.0-2.14","LF","6j0z0b0c72","1440","900","0","1","0","5ea44104a980d23d4f21f7ad","","null","","","learningBlock1","","","","<div style=""font-size:60px;""> </div>","null","LF","learning/Slide15.JPG","This is a tob:","","",""
"html-keyboard-response","51","90009","0.0-5.0-0.15","LF","6j0z0b0c72","1440","900","0","1","0","5ea44104a980d23d4f21f7ad","","null","","","learningBlock1","","","","This is a dep:","null","","","","","",""
"image-keyboard-response","52","90338","0.0-5.0-1.15","LF","6j0z0b0c72","1440","900","0","1","0","5ea44104a980d23d4f21f7ad","","null","","","","","","","learning/Slide16.JPG","null","","","","","",""
"html-keyboard-response","53","91344","0.0-5.0-2.15","LF","6j0z0b0c72","1440","900","0","1","0","5ea44104a980d23d4f21f7ad","","null","","","learningBlock1","","","","<div style=""font-size:60px;""> </div>","null","LF","learning/Slide16.JPG","This is a dep:","","",""
"html-keyboard-response","54","92350","0.0-5.0-0.16","LF","6j0z0b0c72","1440","900","0","1","0","5ea44104a980d23d4f21f7ad","","null","","","learningBlock1","","","","This is a bim:","null","","","","","",""
"image-keyboard-response","55","92680","0.0-5.0-1.16","LF","6j0z0b0c72","1440","900","0","1","0","5ea44104a980d23d4f21f7ad","","null","","","","","","","learning/Slide17.JPG","null","","","","","",""
"html-keyboard-response","56","93684","0.0-5.0-2.16","LF","6j0z0b0c72","1440","900","0","1","0","5ea44104a980d23d4f21f7ad","","null","","","learningBlock1","","","","<div style=""font-size:60px;""> </div>","null","LF","learning/Slide17.JPG","This is a bim:","","",""
"html-keyboard-response","57","94691","0.0-5.0-0.17","LF","6j0z0b0c72","1440","900","0","1","0","5ea44104a980d23d4f21f7ad","","null","","","learningBlock1","","","","This is a tob:","null","","","","","",""
"image-keyboard-response","58","95021","0.0-5.0-1.17","LF","6j0z0b0c72","1440","900","0","1","0","5ea44104a980d23d4f21f7ad","","null","","","","","","","learning/Slide18.JPG","null","","","","","",""
"html-keyboard-response","59","96023","0.0-5.0-2.17","LF","6j0z0b0c72","1440","900","0","1","0","5ea44104a980d23d4f21f7ad","","null","","","learningBlock1","","","","<div style=""font-size:60px;""> </div>","null","LF","learning/Slide18.JPG","This is a tob:","","",""
"html-keyboard-response","60","97029","0.0-5.0-0.18","LF","6j0z0b0c72","1440","900","0","1","0","5ea44104a980d23d4f21f7ad","","null","","","learningBlock1","","","","This is a wug:","null","","","","","",""
"image-keyboard-response","61","97359","0.0-5.0-1.18","LF","6j0z0b0c72","1440","900","0","1","0","5ea44104a980d23d4f21f7ad","","null","","","","","","","learning/Slide19.JPG","null","","","","","",""
"html-keyboard-response","62","98365","0.0-5.0-2.18","LF","6j0z0b0c72","1440","900","0","1","0","5ea44104a980d23d4f21f7ad","","null","","","learningBlock1","","","","<div style=""font-size:60px;""> </div>","null","LF","learning/Slide19.JPG","This is a wug:","","",""
"html-keyboard-response","63","99373","0.0-5.0-0.19","LF","6j0z0b0c72","1440","900","0","1","0","5ea44104a980d23d4f21f7ad","","null","","","learningBlock1","","","","This is a bim:","null","","","","","",""
"image-keyboard-response","64","99704","0.0-5.0-1.19","LF","6j0z0b0c72","1440","900","0","1","0","5ea44104a980d23d4f21f7ad","","null","","","","","","","learning/Slide20.JPG","null","","","","","",""
"html-keyboard-response","65","100710","0.0-5.0-2.19","LF","6j0z0b0c72","1440","900","0","1","0","5ea44104a980d23d4f21f7ad","","null","","","learningBlock1","","","","<div style=""font-size:60px;""> </div>","null","LF","learning/Slide20.JPG","This is a bim:","","",""
"html-keyboard-response","66","101716","0.0-5.0-0.20","LF","6j0z0b0c72","1440","900","0","1","0","5ea44104a980d23d4f21f7ad","","null","","","learningBlock1","","","","This is a dep:","null","","","","","",""
"image-keyboard-response","67","102047","0.0-5.0-1.20","LF","6j0z0b0c72","1440","900","0","1","0","5ea44104a980d23d4f21f7ad","","null","","","","","","","learning/Slide21.JPG","null","","","","","",""
"html-keyboard-response","68","103049","0.0-5.0-2.20","LF","6j0z0b0c72","1440","900","0","1","0","5ea44104a980d23d4f21f7ad","","null","","","learningBlock1","","","","<div style=""font-size:60px;""> </div>","null","LF","learning/Slide21.JPG","This is a dep:","","",""
"html-keyboard-response","69","104057","0.0-5.0-0.21","LF","6j0z0b0c72","1440","900","0","1","0","5ea44104a980d23d4f21f7ad","","null","","","learningBlock1","","","","This is a bim:","null","","","","","",""
"image-keyboard-response","70","104386","0.0-5.0-1.21","LF","6j0z0b0c72","1440","900","0","1","0","5ea44104a980d23d4f21f7ad","","null","","","","","","","learning/Slide22.JPG","null","","","","","",""
"html-keyboard-response","71","105389","0.0-5.0-2.21","LF","6j0z0b0c72","1440","900","0","1","0","5ea44104a980d23d4f21f7ad","","null","","","learningBlock1","","","","<div style=""font-size:60px;""> </div>","null","LF","learning/Slide22.JPG","This is a bim:","","",""
"html-keyboard-response","72","106397","0.0-5.0-0.22","LF","6j0z0b0c72","1440","900","0","1","0","5ea44104a980d23d4f21f7ad","","null","","","learningBlock1","","","","This is a tob:","null","","","","","",""
"image-keyboard-response","73","106727","0.0-5.0-1.22","LF","6j0z0b0c72","1440","900","0","1","0","5ea44104a980d23d4f21f7ad","","null","","","","","","","learning/Slide23.JPG","null","","","","","",""
"html-keyboard-response","74","107734","0.0-5.0-2.22","LF","6j0z0b0c72","1440","900","0","1","0","5ea44104a980d23d4f21f7ad","","null","","","learningBlock1","","","","<div style=""font-size:60px;""> </div>","null","LF","learning/Slide23.JPG","This is a tob:","","",""
"html-keyboard-response","75","108740","0.0-5.0-0.23","LF","6j0z0b0c72","1440","900","0","1","0","5ea44104a980d23d4f21f7ad","","null","","","learningBlock1","","","","This is a wug:","null","","","","","",""
"image-keyboard-response","76","109075","0.0-5.0-1.23","LF","6j0z0b0c72","1440","900","0","1","0","5ea44104a980d23d4f21f7ad","","null","","","","","","","learning/Slide24.JPG","null","","","","","",""
"html-keyboard-response","77","110081","0.0-5.0-2.23","LF","6j0z0b0c72","1440","900","0","1","0","5ea44104a980d23d4f21f7ad","","null","","","learningBlock1","","","","<div style=""font-size:60px;""> </div>","null","LF","learning/Slide24.JPG","This is a wug:","","",""
"html-keyboard-response","78","111086","0.0-5.0-0.24","LF","6j0z0b0c72","1440","900","0","1","0","5ea44104a980d23d4f21f7ad","","null","","","learningBlock1","","","","This is a dep:","null","","","","","",""
"image-keyboard-response","79","111420","0.0-5.0-1.24","LF","6j0z0b0c72","1440","900","0","1","0","5ea44104a980d23d4f21f7ad","","null","","","","","","","learning/Slide25.JPG","null","","","","","",""
"html-keyboard-response","80","112424","0.0-5.0-2.24","LF","6j0z0b0c72","1440","900","0","1","0","5ea44104a980d23d4f21f7ad","","null","","","learningBlock1","","","","<div style=""font-size:60px;""> </div>","null","LF","learning/Slide25.JPG","This is a dep:","","",""
"html-keyboard-response","81","113429","0.0-5.0-0.25","LF","6j0z0b0c72","1440","900","0","1","0","5ea44104a980d23d4f21f7ad","","null","","","learningBlock1","","","","This is a wug:","null","","","","","",""
"image-keyboard-response","82","113759","0.0-5.0-1.25","LF","6j0z0b0c72","1440","900","0","1","0","5ea44104a980d23d4f21f7ad","","null","","","","","","","learning/Slide26.JPG","null","","","","","",""
"html-keyboard-response","83","114763","0.0-5.0-2.25","LF","6j0z0b0c72","1440","900","0","1","0","5ea44104a980d23d4f21f7ad","","null","","","learningBlock1","","","","<div style=""font-size:60px;""> </div>","null","LF","learning/Slide26.JPG","This is a wug:","","",""
"html-keyboard-response","84","115770","0.0-5.0-0.26","LF","6j0z0b0c72","1440","900","0","1","0","5ea44104a980d23d4f21f7ad","","null","","","learningBlock1","","","","This is a bim:","null","","","","","",""
"image-keyboard-response","85","116102","0.0-5.0-1.26","LF","6j0z0b0c72","1440","900","0","1","0","5ea44104a980d23d4f21f7ad","","null","","","","","","","learning/Slide27.JPG","null","","","","","",""
"html-keyboard-response","86","117103","0.0-5.0-2.26","LF","6j0z0b0c72","1440","900","0","1","0","5ea44104a980d23d4f21f7ad","","null","","","learningBlock1","","","","<div style=""font-size:60px;""> </div>","null","LF","learning/Slide27.JPG","This is a bim:","","",""
"html-keyboard-response","87","118109","0.0-5.0-0.27","LF","6j0z0b0c72","1440","900","0","1","0","5ea44104a980d23d4f21f7ad","","null","","","learningBlock1","","","","This is a dep:","null","","","","","",""
"image-keyboard-response","88","118443","0.0-5.0-1.27","LF","6j0z0b0c72","1440","900","0","1","0","5ea44104a980d23d4f21f7ad","","null","","","","","","","learning/Slide28.JPG","null","","","","","",""
"html-keyboard-response","89","119447","0.0-5.0-2.27","LF","6j0z0b0c72","1440","900","0","1","0","5ea44104a980d23d4f21f7ad","","null","","","learningBlock1","","","","<div style=""font-size:60px;""> </div>","null","LF","learning/Slide28.JPG","This is a dep:","","",""
"html-keyboard-response","90","120453","0.0-5.0-0.28","LF","6j0z0b0c72","1440","900","0","1","0","5ea44104a980d23d4f21f7ad","","null","","","learningBlock1","","","","This is a tob:","null","","","","","",""
"image-keyboard-response","91","120788","0.0-5.0-1.28","LF","6j0z0b0c72","1440","900","0","1","0","5ea44104a980d23d4f21f7ad","","null","","","","","","","learning/Slide29.JPG","null","","","","","",""
"html-keyboard-response","92","121794","0.0-5.0-2.28","LF","6j0z0b0c72","1440","900","0","1","0","5ea44104a980d23d4f21f7ad","","null","","","learningBlock1","","","","<div style=""font-size:60px;""> </div>","null","LF","learning/Slide29.JPG","This is a tob:","","",""
"html-keyboard-response","93","122802","0.0-5.0-0.29","LF","6j0z0b0c72","1440","900","0","1","0","5ea44104a980d23d4f21f7ad","","null","","","learningBlock1","","","","This is a dep:","null","","","","","",""
"image-keyboard-response","94","123133","0.0-5.0-1.29","LF","6j0z0b0c72","1440","900","0","1","0","5ea44104a980d23d4f21f7ad","","null","","","","","","","learning/Slide30.JPG","null","","","","","",""
"html-keyboard-response","95","124137","0.0-5.0-2.29","LF","6j0z0b0c72","1440","900","0","1","0","5ea44104a980d23d4f21f7ad","","null","","","learningBlock1","","","","<div style=""font-size:60px;""> </div>","null","LF","learning/Slide30.JPG","This is a dep:","","",""
"html-keyboard-response","96","125143","0.0-5.0-0.30","LF","6j0z0b0c72","1440","900","0","1","0","5ea44104a980d23d4f21f7ad","","null","","","learningBlock1","","","","This is a wug:","null","","","","","",""
"image-keyboard-response","97","125473","0.0-5.0-1.30","LF","6j0z0b0c72","1440","900","0","1","0","5ea44104a980d23d4f21f7ad","","null","","","","","","","learning/Slide31.JPG","null","","","","","",""
"html-keyboard-response","98","126479","0.0-5.0-2.30","LF","6j0z0b0c72","1440","900","0","1","0","5ea44104a980d23d4f21f7ad","","null","","","learningBlock1","","","","<div style=""font-size:60px;""> </div>","null","LF","learning/Slide31.JPG","This is a wug:","","",""
"html-keyboard-response","99","127484","0.0-5.0-0.31","LF","6j0z0b0c72","1440","900","0","1","0","5ea44104a980d23d4f21f7ad","","null","","","learningBlock1","","","","This is a tob:","null","","","","","",""
"image-keyboard-response","100","127816","0.0-5.0-1.31","LF","6j0z0b0c72","1440","900","0","1","0","5ea44104a980d23d4f21f7ad","","null","","","","","","","learning/Slide32.JPG","null","","","","","",""
"html-keyboard-response","101","128818","0.0-5.0-2.31","LF","6j0z0b0c72","1440","900","0","1","0","5ea44104a980d23d4f21f7ad","","null","","","learningBlock1","","","","<div style=""font-size:60px;""> </div>","null","LF","learning/Slide32.JPG","This is a tob:","","",""
"html-keyboard-response","102","129822","0.0-5.0-0.32","LF","6j0z0b0c72","1440","900","0","1","0","5ea44104a980d23d4f21f7ad","","null","","","learningBlock1","","","","This is a bim:","null","","","","","",""
"image-keyboard-response","103","130155","0.0-5.0-1.32","LF","6j0z0b0c72","1440","900","0","1","0","5ea44104a980d23d4f21f7ad","","null","","","","","","","learning/Slide33.JPG","null","","","","","",""
"html-keyboard-response","104","131160","0.0-5.0-2.32","LF","6j0z0b0c72","1440","900","0","1","0","5ea44104a980d23d4f21f7ad","","null","","","learningBlock1","","","","<div style=""font-size:60px;""> </div>","null","LF","learning/Slide33.JPG","This is a bim:","","",""
"html-keyboard-response","105","132166","0.0-5.0-0.33","LF","6j0z0b0c72","1440","900","0","1","0","5ea44104a980d23d4f21f7ad","","null","","","learningBlock1","","","","This is a tob:","null","","","","","",""
"image-keyboard-response","106","132499","0.0-5.0-1.33","LF","6j0z0b0c72","1440","900","0","1","0","5ea44104a980d23d4f21f7ad","","null","","","","","","","learning/Slide34.JPG","null","","","","","",""
"html-keyboard-response","107","133501","0.0-5.0-2.33","LF","6j0z0b0c72","1440","900","0","1","0","5ea44104a980d23d4f21f7ad","","null","","","learningBlock1","","","","<div style=""font-size:60px;""> </div>","null","LF","learning/Slide34.JPG","This is a tob:","","",""
"html-keyboard-response","108","134508","0.0-5.0-0.34","LF","6j0z0b0c72","1440","900","0","1","0","5ea44104a980d23d4f21f7ad","","null","","","learningBlock1","","","","This is a bim:","null","","","","","",""
"image-keyboard-response","109","134847","0.0-5.0-1.34","LF","6j0z0b0c72","1440","900","0","1","0","5ea44104a980d23d4f21f7ad","","null","","","","","","","learning/Slide35.JPG","null","","","","","",""
"html-keyboard-response","110","135850","0.0-5.0-2.34","LF","6j0z0b0c72","1440","900","0","1","0","5ea44104a980d23d4f21f7ad","","null","","","learningBlock1","","","","<div style=""font-size:60px;""> </div>","null","LF","learning/Slide35.JPG","This is a bim:","","",""
"html-keyboard-response","111","136855","0.0-5.0-0.35","LF","6j0z0b0c72","1440","900","0","1","0","5ea44104a980d23d4f21f7ad","","null","","","learningBlock1","","","","This is a dep:","null","","","","","",""
"image-keyboard-response","112","137188","0.0-5.0-1.35","LF","6j0z0b0c72","1440","900","0","1","0","5ea44104a980d23d4f21f7ad","","null","","","","","","","learning/Slide36.JPG","null","","","","","",""
"html-keyboard-response","113","138193","0.0-5.0-2.35","LF","6j0z0b0c72","1440","900","0","1","0","5ea44104a980d23d4f21f7ad","","null","","","learningBlock1","","","","<div style=""font-size:60px;""> </div>","null","LF","learning/Slide36.JPG","This is a dep:","","",""
"html-keyboard-response","114","139199","0.0-5.0-0.36","LF","6j0z0b0c72","1440","900","0","1","0","5ea44104a980d23d4f21f7ad","","null","","","learningBlock1","","","","This is a tob:","null","","","","","",""
"image-keyboard-response","115","139532","0.0-5.0-1.36","LF","6j0z0b0c72","1440","900","0","1","0","5ea44104a980d23d4f21f7ad","","null","","","","","","","learning/Slide37.JPG","null","","","","","",""
"html-keyboard-response","116","140539","0.0-5.0-2.36","LF","6j0z0b0c72","1440","900","0","1","0","5ea44104a980d23d4f21f7ad","","null","","","learningBlock1","","","","<div style=""font-size:60px;""> </div>","null","LF","learning/Slide37.JPG","This is a tob:","","",""
"html-keyboard-response","117","141545","0.0-5.0-0.37","LF","6j0z0b0c72","1440","900","0","1","0","5ea44104a980d23d4f21f7ad","","null","","","learningBlock1","","","","This is a wug:","null","","","","","",""
"image-keyboard-response","118","141877","0.0-5.0-1.37","LF","6j0z0b0c72","1440","900","0","1","0","5ea44104a980d23d4f21f7ad","","null","","","","","","","learning/Slide38.JPG","null","","","","","",""
"html-keyboard-response","119","142879","0.0-5.0-2.37","LF","6j0z0b0c72","1440","900","0","1","0","5ea44104a980d23d4f21f7ad","","null","","","learningBlock1","","","","<div style=""font-size:60px;""> </div>","null","LF","learning/Slide38.JPG","This is a wug:","","",""
"html-keyboard-response","120","143884","0.0-5.0-0.38","LF","6j0z0b0c72","1440","900","0","1","0","5ea44104a980d23d4f21f7ad","","null","","","learningBlock1","","","","This is a bim:","null","","","","","",""
"image-keyboard-response","121","144218","0.0-5.0-1.38","LF","6j0z0b0c72","1440","900","0","1","0","5ea44104a980d23d4f21f7ad","","null","","","","","","","learning/Slide39.JPG","null","","","","","",""
"html-keyboard-response","122","145222","0.0-5.0-2.38","LF","6j0z0b0c72","1440","900","0","1","0","5ea44104a980d23d4f21f7ad","","null","","","learningBlock1","","","","<div style=""font-size:60px;""> </div>","null","LF","learning/Slide39.JPG","This is a bim:","","",""
"html-keyboard-response","123","146224","0.0-5.0-0.39","LF","6j0z0b0c72","1440","900","0","1","0","5ea44104a980d23d4f21f7ad","","null","","","learningBlock1","","","","This is a tob:","null","","","","","",""
"image-keyboard-response","124","146561","0.0-5.0-1.39","LF","6j0z0b0c72","1440","900","0","1","0","5ea44104a980d23d4f21f7ad","","null","","","","","","","learning/Slide40.JPG","null","","","","","",""
"html-keyboard-response","125","147565","0.0-5.0-2.39","LF","6j0z0b0c72","1440","900","0","1","0","5ea44104a980d23d4f21f7ad","","null","","","learningBlock1","","","","<div style=""font-size:60px;""> </div>","null","LF","learning/Slide40.JPG","This is a tob:","","",""
"html-keyboard-response","126","148570","0.0-5.0-0.40","LF","6j0z0b0c72","1440","900","0","1","0","5ea44104a980d23d4f21f7ad","","null","","","learningBlock1","","","","This is a bim:","null","","","","","",""
"image-keyboard-response","127","148899","0.0-5.0-1.40","LF","6j0z0b0c72","1440","900","0","1","0","5ea44104a980d23d4f21f7ad","","null","","","","","","","learning/Slide41.JPG","null","","","","","",""
"html-keyboard-response","128","149906","0.0-5.0-2.40","LF","6j0z0b0c72","1440","900","0","1","0","5ea44104a980d23d4f21f7ad","","null","","","learningBlock1","","","","<div style=""font-size:60px;""> </div>","null","LF","learning/Slide41.JPG","This is a bim:","","",""
"html-keyboard-response","129","150913","0.0-5.0-0.41","LF","6j0z0b0c72","1440","900","0","1","0","5ea44104a980d23d4f21f7ad","","null","","","learningBlock1","","","","This is a dep:","null","","","","","",""
"image-keyboard-response","130","151250","0.0-5.0-1.41","LF","6j0z0b0c72","1440","900","0","1","0","5ea44104a980d23d4f21f7ad","","null","","","","","","","learning/Slide42.JPG","null","","","","","",""
"html-keyboard-response","131","152258","0.0-5.0-2.41","LF","6j0z0b0c72","1440","900","0","1","0","5ea44104a980d23d4f21f7ad","","null","","","learningBlock1","","","","<div style=""font-size:60px;""> </div>","null","LF","learning/Slide42.JPG","This is a dep:","","",""
"html-keyboard-response","132","153264","0.0-5.0-0.42","LF","6j0z0b0c72","1440","900","0","1","0","5ea44104a980d23d4f21f7ad","","null","","","learningBlock1","","","","This is a wug:","null","","","","","",""
"image-keyboard-response","133","153597","0.0-5.0-1.42","LF","6j0z0b0c72","1440","900","0","1","0","5ea44104a980d23d4f21f7ad","","null","","","","","","","learning/Slide43.JPG","null","","","","","",""
"html-keyboard-response","134","154601","0.0-5.0-2.42","LF","6j0z0b0c72","1440","900","0","1","0","5ea44104a980d23d4f21f7ad","","null","","","learningBlock1","","","","<div style=""font-size:60px;""> </div>","null","LF","learning/Slide43.JPG","This is a wug:","","",""
"html-keyboard-response","135","155606","0.0-5.0-0.43","LF","6j0z0b0c72","1440","900","0","1","0","5ea44104a980d23d4f21f7ad","","null","","","learningBlock1","","","","This is a bim:","null","","","","","",""
"image-keyboard-response","136","155935","0.0-5.0-1.43","LF","6j0z0b0c72","1440","900","0","1","0","5ea44104a980d23d4f21f7ad","","null","","","","","","","learning/Slide44.JPG","null","","","","","",""
"html-keyboard-response","137","156941","0.0-5.0-2.43","LF","6j0z0b0c72","1440","900","0","1","0","5ea44104a980d23d4f21f7ad","","null","","","learningBlock1","","","","<div style=""font-size:60px;""> </div>","null","LF","learning/Slide44.JPG","This is a bim:","","",""
"html-keyboard-response","138","157950","0.0-5.0-0.44","LF","6j0z0b0c72","1440","900","0","1","0","5ea44104a980d23d4f21f7ad","","null","","","learningBlock1","","","","This is a wug:","null","","","","","",""
"image-keyboard-response","139","158287","0.0-5.0-1.44","LF","6j0z0b0c72","1440","900","0","1","0","5ea44104a980d23d4f21f7ad","","null","","","","","","","learning/Slide45.JPG","null","","","","","",""
"html-keyboard-response","140","159293","0.0-5.0-2.44","LF","6j0z0b0c72","1440","900","0","1","0","5ea44104a980d23d4f21f7ad","","null","","","learningBlock1","","","","<div style=""font-size:60px;""> </div>","null","LF","learning/Slide45.JPG","This is a wug:","","",""
"html-keyboard-response","141","160299","0.0-5.0-0.45","LF","6j0z0b0c72","1440","900","0","1","0","5ea44104a980d23d4f21f7ad","","null","","","learningBlock1","","","","This is a dep:","null","","","","","",""
"image-keyboard-response","142","160636","0.0-5.0-1.45","LF","6j0z0b0c72","1440","900","0","1","0","5ea44104a980d23d4f21f7ad","","null","","","","","","","learning/Slide46.JPG","null","","","","","",""
"html-keyboard-response","143","161643","0.0-5.0-2.45","LF","6j0z0b0c72","1440","900","0","1","0","5ea44104a980d23d4f21f7ad","","null","","","learningBlock1","","","","<div style=""font-size:60px;""> </div>","null","LF","learning/Slide46.JPG","This is a dep:","","",""
"html-keyboard-response","144","162649","0.0-5.0-0.46","LF","6j0z0b0c72","1440","900","0","1","0","5ea44104a980d23d4f21f7ad","","null","","","learningBlock1","","","","This is a tob:","null","","","","","",""
"image-keyboard-response","145","162988","0.0-5.0-1.46","LF","6j0z0b0c72","1440","900","0","1","0","5ea44104a980d23d4f21f7ad","","null","","","","","","","learning/Slide47.JPG","null","","","","","",""
"html-keyboard-response","146","163997","0.0-5.0-2.46","LF","6j0z0b0c72","1440","900","0","1","0","5ea44104a980d23d4f21f7ad","","null","","","learningBlock1","","","","<div style=""font-size:60px;""> </div>","null","LF","learning/Slide47.JPG","This is a tob:","","",""
"html-keyboard-response","147","165005","0.0-5.0-0.47","LF","6j0z0b0c72","1440","900","0","1","0","5ea44104a980d23d4f21f7ad","","null","","","learningBlock1","","","","This is a bim:","null","","","","","",""
"image-keyboard-response","148","165342","0.0-5.0-1.47","LF","6j0z0b0c72","1440","900","0","1","0","5ea44104a980d23d4f21f7ad","","null","","","","","","","learning/Slide48.JPG","null","","","","","",""
"html-keyboard-response","149","166351","0.0-5.0-2.47","LF","6j0z0b0c72","1440","900","0","1","0","5ea44104a980d23d4f21f7ad","","null","","","learningBlock1","","","","<div style=""font-size:60px;""> </div>","null","LF","learning/Slide48.JPG","This is a bim:","","",""
"html-keyboard-response","150","167359","0.0-5.0-0.48","LF","6j0z0b0c72","1440","900","0","1","0","5ea44104a980d23d4f21f7ad","","null","","","learningBlock1","","","","This is a dep:","null","","","","","",""
"image-keyboard-response","151","167698","0.0-5.0-1.48","LF","6j0z0b0c72","1440","900","0","1","0","5ea44104a980d23d4f21f7ad","","null","","","","","","","learning/Slide49.JPG","null","","","","","",""
"html-keyboard-response","152","168704","0.0-5.0-2.48","LF","6j0z0b0c72","1440","900","0","1","0","5ea44104a980d23d4f21f7ad","","null","","","learningBlock1","","","","<div style=""font-size:60px;""> </div>","null","LF","learning/Slide49.JPG","This is a dep:","","",""
"html-keyboard-response","153","169709","0.0-5.0-0.49","LF","6j0z0b0c72","1440","900","0","1","0","5ea44104a980d23d4f21f7ad","","null","","","learningBlock1","","","","This is a tob:","null","","","","","",""
"image-keyboard-response","154","170047","0.0-5.0-1.49","LF","6j0z0b0c72","1440","900","0","1","0","5ea44104a980d23d4f21f7ad","","null","","","","","","","learning/Slide50.JPG","null","","","","","",""
"html-keyboard-response","155","171053","0.0-5.0-2.49","LF","6j0z0b0c72","1440","900","0","1","0","5ea44104a980d23d4f21f7ad","","null","","","learningBlock1","","","","<div style=""font-size:60px;""> </div>","null","LF","learning/Slide50.JPG","This is a tob:","","",""
"html-keyboard-response","156","172059","0.0-5.0-0.50","LF","6j0z0b0c72","1440","900","0","1","0","5ea44104a980d23d4f21f7ad","","null","","","learningBlock1","","","","This is a bim:","null","","","","","",""
"image-keyboard-response","157","172393","0.0-5.0-1.50","LF","6j0z0b0c72","1440","900","0","1","0","5ea44104a980d23d4f21f7ad","","null","","","","","","","learning/Slide51.JPG","null","","","","","",""
"html-keyboard-response","158","173400","0.0-5.0-2.50","LF","6j0z0b0c72","1440","900","0","1","0","5ea44104a980d23d4f21f7ad","","null","","","learningBlock1","","","","<div style=""font-size:60px;""> </div>","null","LF","learning/Slide51.JPG","This is a bim:","","",""
"html-keyboard-response","159","174406","0.0-5.0-0.51","LF","6j0z0b0c72","1440","900","0","1","0","5ea44104a980d23d4f21f7ad","","null","","","learningBlock1","","","","This is a wug:","null","","","","","",""
"image-keyboard-response","160","174746","0.0-5.0-1.51","LF","6j0z0b0c72","1440","900","0","1","0","5ea44104a980d23d4f21f7ad","","null","","","","","","","learning/Slide52.JPG","null","","","","","",""
"html-keyboard-response","161","175752","0.0-5.0-2.51","LF","6j0z0b0c72","1440","900","0","1","0","5ea44104a980d23d4f21f7ad","","null","","","learningBlock1","","","","<div style=""font-size:60px;""> </div>","null","LF","learning/Slide52.JPG","This is a wug:","","",""
"html-keyboard-response","162","176762","0.0-5.0-0.52","LF","6j0z0b0c72","1440","900","0","1","0","5ea44104a980d23d4f21f7ad","","null","","","learningBlock1","","","","This is a tob:","null","","","","","",""
"image-keyboard-response","163","177096","0.0-5.0-1.52","LF","6j0z0b0c72","1440","900","0","1","0","5ea44104a980d23d4f21f7ad","","null","","","","","","","learning/Slide53.JPG","null","","","","","",""
"html-keyboard-response","164","178103","0.0-5.0-2.52","LF","6j0z0b0c72","1440","900","0","1","0","5ea44104a980d23d4f21f7ad","","null","","","learningBlock1","","","","<div style=""font-size:60px;""> </div>","null","LF","learning/Slide53.JPG","This is a tob:","","",""
"html-keyboard-response","165","179110","0.0-5.0-0.53","LF","6j0z0b0c72","1440","900","0","1","0","5ea44104a980d23d4f21f7ad","","null","","","learningBlock1","","","","This is a dep:","null","","","","","",""
"image-keyboard-response","166","179448","0.0-5.0-1.53","LF","6j0z0b0c72","1440","900","0","1","0","5ea44104a980d23d4f21f7ad","","null","","","","","","","learning/Slide54.JPG","null","","","","","",""
"html-keyboard-response","167","180455","0.0-5.0-2.53","LF","6j0z0b0c72","1440","900","0","1","0","5ea44104a980d23d4f21f7ad","","null","","","learningBlock1","","","","<div style=""font-size:60px;""> </div>","null","LF","learning/Slide54.JPG","This is a dep:","","",""
"html-keyboard-response","168","181461","0.0-5.0-0.54","LF","6j0z0b0c72","1440","900","0","1","0","5ea44104a980d23d4f21f7ad","","null","","","learningBlock1","","","","This is a bim:","null","","","","","",""
"image-keyboard-response","169","181801","0.0-5.0-1.54","LF","6j0z0b0c72","1440","900","0","1","0","5ea44104a980d23d4f21f7ad","","null","","","","","","","learning/Slide55.JPG","null","","","","","",""
"html-keyboard-response","170","182810","0.0-5.0-2.54","LF","6j0z0b0c72","1440","900","0","1","0","5ea44104a980d23d4f21f7ad","","null","","","learningBlock1","","","","<div style=""font-size:60px;""> </div>","null","LF","learning/Slide55.JPG","This is a bim:","","",""
"html-keyboard-response","171","183818","0.0-5.0-0.55","LF","6j0z0b0c72","1440","900","0","1","0","5ea44104a980d23d4f21f7ad","","null","","","learningBlock1","","","","This is a tob:","null","","","","","",""
"image-keyboard-response","172","184154","0.0-5.0-1.55","LF","6j0z0b0c72","1440","900","0","1","0","5ea44104a980d23d4f21f7ad","","null","","","","","","","learning/Slide56.JPG","null","","","","","",""
"html-keyboard-response","173","185161","0.0-5.0-2.55","LF","6j0z0b0c72","1440","900","0","1","0","5ea44104a980d23d4f21f7ad","","null","","","learningBlock1","","","","<div style=""font-size:60px;""> </div>","null","LF","learning/Slide56.JPG","This is a tob:","","",""
"html-keyboard-response","174","186165","0.0-5.0-0.56","LF","6j0z0b0c72","1440","900","0","1","0","5ea44104a980d23d4f21f7ad","","null","","","learningBlock1","","","","This is a dep:","null","","","","","",""
"image-keyboard-response","175","186501","0.0-5.0-1.56","LF","6j0z0b0c72","1440","900","0","1","0","5ea44104a980d23d4f21f7ad","","null","","","","","","","learning/Slide57.JPG","null","","","","","",""
"html-keyboard-response","176","187508","0.0-5.0-2.56","LF","6j0z0b0c72","1440","900","0","1","0","5ea44104a980d23d4f21f7ad","","null","","","learningBlock1","","","","<div style=""font-size:60px;""> </div>","null","LF","learning/Slide57.JPG","This is a dep:","","",""
"html-keyboard-response","177","188514","0.0-5.0-0.57","LF","6j0z0b0c72","1440","900","0","1","0","5ea44104a980d23d4f21f7ad","","null","","","learningBlock1","","","","This is a wug:","null","","","","","",""
"image-keyboard-response","178","188845","0.0-5.0-1.57","LF","6j0z0b0c72","1440","900","0","1","0","5ea44104a980d23d4f21f7ad","","null","","","","","","","learning/Slide58.JPG","null","","","","","",""
"html-keyboard-response","179","189853","0.0-5.0-2.57","LF","6j0z0b0c72","1440","900","0","1","0","5ea44104a980d23d4f21f7ad","","null","","","learningBlock1","","","","<div style=""font-size:60px;""> </div>","null","LF","learning/Slide58.JPG","This is a wug:","","",""
"html-keyboard-response","180","190858","0.0-5.0-0.58","LF","6j0z0b0c72","1440","900","0","1","0","5ea44104a980d23d4f21f7ad","","null","","","learningBlock1","","","","This is a dep:","null","","","","","",""
"image-keyboard-response","181","191197","0.0-5.0-1.58","LF","6j0z0b0c72","1440","900","0","1","0","5ea44104a980d23d4f21f7ad","","null","","","","","","","learning/Slide59.JPG","null","","","","","",""
"html-keyboard-response","182","192200","0.0-5.0-2.58","LF","6j0z0b0c72","1440","900","0","1","0","5ea44104a980d23d4f21f7ad","","null","","","learningBlock1","","","","<div style=""font-size:60px;""> </div>","null","LF","learning/Slide59.JPG","This is a dep:","","",""
"html-keyboard-response","183","193208","0.0-5.0-0.59","LF","6j0z0b0c72","1440","900","0","1","0","5ea44104a980d23d4f21f7ad","","null","","","learningBlock1","","","","This is a wug:","null","","","","","",""
"image-keyboard-response","184","193549","0.0-5.0-1.59","LF","6j0z0b0c72","1440","900","0","1","0","5ea44104a980d23d4f21f7ad","","null","","","","","","","learning/Slide60.JPG","null","","","","","",""
"html-keyboard-response","185","194556","0.0-5.0-2.59","LF","6j0z0b0c72","1440","900","0","1","0","5ea44104a980d23d4f21f7ad","","null","","","learningBlock1","","","","<div style=""font-size:60px;""> </div>","null","LF","learning/Slide60.JPG","This is a wug:","","",""
"html-keyboard-response","186","195562","0.0-5.0-0.60","LF","6j0z0b0c72","1440","900","0","1","0","5ea44104a980d23d4f21f7ad","","null","","","learningBlock1","","","","This is a bim:","null","","","","","",""
"image-keyboard-response","187","195903","0.0-5.0-1.60","LF","6j0z0b0c72","1440","900","0","1","0","5ea44104a980d23d4f21f7ad","","null","","","","","","","learning/Slide61.JPG","null","","","","","",""
"html-keyboard-response","188","196912","0.0-5.0-2.60","LF","6j0z0b0c72","1440","900","0","1","0","5ea44104a980d23d4f21f7ad","","null","","","learningBlock1","","","","<div style=""font-size:60px;""> </div>","null","LF","learning/Slide61.JPG","This is a bim:","","",""
"html-keyboard-response","189","197920","0.0-5.0-0.61","LF","6j0z0b0c72","1440","900","0","1","0","5ea44104a980d23d4f21f7ad","","null","","","learningBlock1","","","","This is a dep:","null","","","","","",""
"image-keyboard-response","190","198259","0.0-5.0-1.61","LF","6j0z0b0c72","1440","900","0","1","0","5ea44104a980d23d4f21f7ad","","null","","","","","","","learning/Slide62.JPG","null","","","","","",""
"html-keyboard-response","191","199263","0.0-5.0-2.61","LF","6j0z0b0c72","1440","900","0","1","0","5ea44104a980d23d4f21f7ad","","null","","","learningBlock1","","","","<div style=""font-size:60px;""> </div>","null","LF","learning/Slide62.JPG","This is a dep:","","",""
"html-keyboard-response","192","200269","0.0-5.0-0.62","LF","6j0z0b0c72","1440","900","0","1","0","5ea44104a980d23d4f21f7ad","","null","","","learningBlock1","","","","This is a bim:","null","","","","","",""
"image-keyboard-response","193","200602","0.0-5.0-1.62","LF","6j0z0b0c72","1440","900","0","1","0","5ea44104a980d23d4f21f7ad","","null","","","","","","","learning/Slide63.JPG","null","","","","","",""
"html-keyboard-response","194","201608","0.0-5.0-2.62","LF","6j0z0b0c72","1440","900","0","1","0","5ea44104a980d23d4f21f7ad","","null","","","learningBlock1","","","","<div style=""font-size:60px;""> </div>","null","LF","learning/Slide63.JPG","This is a bim:","","",""
"html-keyboard-response","195","202613","0.0-5.0-0.63","LF","6j0z0b0c72","1440","900","0","1","0","5ea44104a980d23d4f21f7ad","","null","","","learningBlock1","","","","This is a tob:","null","","","","","",""
"image-keyboard-response","196","202952","0.0-5.0-1.63","LF","6j0z0b0c72","1440","900","0","1","0","5ea44104a980d23d4f21f7ad","","null","","","","","","","learning/Slide64.JPG","null","","","","","",""
"html-keyboard-response","197","203959","0.0-5.0-2.63","LF","6j0z0b0c72","1440","900","0","1","0","5ea44104a980d23d4f21f7ad","","null","","","learningBlock1","","","","<div style=""font-size:60px;""> </div>","null","LF","learning/Slide64.JPG","This is a tob:","","",""
"html-keyboard-response","198","204967","0.0-5.0-0.64","LF","6j0z0b0c72","1440","900","0","1","0","5ea44104a980d23d4f21f7ad","","null","","","learningBlock1","","","","This is a wug:","null","","","","","",""
"image-keyboard-response","199","205304","0.0-5.0-1.64","LF","6j0z0b0c72","1440","900","0","1","0","5ea44104a980d23d4f21f7ad","","null","","","","","","","learning/Slide65.JPG","null","","","","","",""
"html-keyboard-response","200","206307","0.0-5.0-2.64","LF","6j0z0b0c72","1440","900","0","1","0","5ea44104a980d23d4f21f7ad","","null","","","learningBlock1","","","","<div style=""font-size:60px;""> </div>","null","LF","learning/Slide65.JPG","This is a wug:","","",""
"html-keyboard-response","201","207315","0.0-5.0-0.65","LF","6j0z0b0c72","1440","900","0","1","0","5ea44104a980d23d4f21f7ad","","null","","","learningBlock1","","","","This is a dep:","null","","","","","",""
"image-keyboard-response","202","207645","0.0-5.0-1.65","LF","6j0z0b0c72","1440","900","0","1","0","5ea44104a980d23d4f21f7ad","","null","","","","","","","learning/Slide66.JPG","null","","","","","",""
"html-keyboard-response","203","208654","0.0-5.0-2.65","LF","6j0z0b0c72","1440","900","0","1","0","5ea44104a980d23d4f21f7ad","","null","","","learningBlock1","","","","<div style=""font-size:60px;""> </div>","null","LF","learning/Slide66.JPG","This is a dep:","","",""
"html-keyboard-response","204","209662","0.0-5.0-0.66","LF","6j0z0b0c72","1440","900","0","1","0","5ea44104a980d23d4f21f7ad","","null","","","learningBlock1","","","","This is a tob:","null","","","","","",""
"image-keyboard-response","205","210003","0.0-5.0-1.66","LF","6j0z0b0c72","1440","900","0","1","0","5ea44104a980d23d4f21f7ad","","null","","","","","","","learning/Slide67.JPG","null","","","","","",""
"html-keyboard-response","206","211012","0.0-5.0-2.66","LF","6j0z0b0c72","1440","900","0","1","0","5ea44104a980d23d4f21f7ad","","null","","","learningBlock1","","","","<div style=""font-size:60px;""> </div>","null","LF","learning/Slide67.JPG","This is a tob:","","",""
"html-keyboard-response","207","212022","0.0-5.0-0.67","LF","6j0z0b0c72","1440","900","0","1","0","5ea44104a980d23d4f21f7ad","","null","","","learningBlock1","","","","This is a wug:","null","","","","","",""
"image-keyboard-response","208","212354","0.0-5.0-1.67","LF","6j0z0b0c72","1440","900","0","1","0","5ea44104a980d23d4f21f7ad","","null","","","","","","","learning/Slide68.JPG","null","","","","","",""
"html-keyboard-response","209","213360","0.0-5.0-2.67","LF","6j0z0b0c72","1440","900","0","1","0","5ea44104a980d23d4f21f7ad","","null","","","learningBlock1","","","","<div style=""font-size:60px;""> </div>","null","LF","learning/Slide68.JPG","This is a wug:","","",""
"html-keyboard-response","210","214368","0.0-5.0-0.68","LF","6j0z0b0c72","1440","900","0","1","0","5ea44104a980d23d4f21f7ad","","null","","","learningBlock1","","","","This is a tob:","null","","","","","",""
"image-keyboard-response","211","214701","0.0-5.0-1.68","LF","6j0z0b0c72","1440","900","0","1","0","5ea44104a980d23d4f21f7ad","","null","","","","","","","learning/Slide69.JPG","null","","","","","",""
"html-keyboard-response","212","215708","0.0-5.0-2.68","LF","6j0z0b0c72","1440","900","0","1","0","5ea44104a980d23d4f21f7ad","","null","","","learningBlock1","","","","<div style=""font-size:60px;""> </div>","null","LF","learning/Slide69.JPG","This is a tob:","","",""
"html-keyboard-response","213","216713","0.0-5.0-0.69","LF","6j0z0b0c72","1440","900","0","1","0","5ea44104a980d23d4f21f7ad","","null","","","learningBlock1","","","","This is a dep:","null","","","","","",""
"image-keyboard-response","214","217049","0.0-5.0-1.69","LF","6j0z0b0c72","1440","900","0","1","0","5ea44104a980d23d4f21f7ad","","null","","","","","","","learning/Slide70.JPG","null","","","","","",""
"html-keyboard-response","215","218057","0.0-5.0-2.69","LF","6j0z0b0c72","1440","900","0","1","0","5ea44104a980d23d4f21f7ad","","null","","","learningBlock1","","","","<div style=""font-size:60px;""> </div>","null","LF","learning/Slide70.JPG","This is a dep:","","",""
"html-keyboard-response","216","219066","0.0-5.0-0.70","LF","6j0z0b0c72","1440","900","0","1","0","5ea44104a980d23d4f21f7ad","","null","","","learningBlock1","","","","This is a wug:","null","","","","","",""
"image-keyboard-response","217","219401","0.0-5.0-1.70","LF","6j0z0b0c72","1440","900","0","1","0","5ea44104a980d23d4f21f7ad","","null","","","","","","","learning/Slide71.JPG","null","","","","","",""
"html-keyboard-response","218","220407","0.0-5.0-2.70","LF","6j0z0b0c72","1440","900","0","1","0","5ea44104a980d23d4f21f7ad","","null","","","learningBlock1","","","","<div style=""font-size:60px;""> </div>","null","LF","learning/Slide71.JPG","This is a wug:","","",""
"html-keyboard-response","219","221416","0.0-5.0-0.71","LF","6j0z0b0c72","1440","900","0","1","0","5ea44104a980d23d4f21f7ad","","null","","","learningBlock1","","","","This is a bim:","null","","","","","",""
"image-keyboard-response","220","221752","0.0-5.0-1.71","LF","6j0z0b0c72","1440","900","0","1","0","5ea44104a980d23d4f21f7ad","","null","","","","","","","learning/Slide72.JPG","null","","","","","",""
"html-keyboard-response","221","222760","0.0-5.0-2.71","LF","6j0z0b0c72","1440","900","0","1","0","5ea44104a980d23d4f21f7ad","","null","","","learningBlock1","","","","<div style=""font-size:60px;""> </div>","null","LF","learning/Slide72.JPG","This is a bim:","","",""
"html-keyboard-response","222","223765","0.0-5.0-0.72","LF","6j0z0b0c72","1440","900","0","1","0","5ea44104a980d23d4f21f7ad","","null","","","learningBlock1","","","","This is a wug:","null","","","","","",""
"image-keyboard-response","223","224104","0.0-5.0-1.72","LF","6j0z0b0c72","1440","900","0","1","0","5ea44104a980d23d4f21f7ad","","null","","","","","","","learning/Slide73.JPG","null","","","","","",""
"html-keyboard-response","224","225109","0.0-5.0-2.72","LF","6j0z0b0c72","1440","900","0","1","0","5ea44104a980d23d4f21f7ad","","null","","","learningBlock1","","","","<div style=""font-size:60px;""> </div>","null","LF","learning/Slide73.JPG","This is a wug:","","",""
"html-keyboard-response","225","226116","0.0-5.0-0.73","LF","6j0z0b0c72","1440","900","0","1","0","5ea44104a980d23d4f21f7ad","","null","","","learningBlock1","","","","This is a dep:","null","","","","","",""
"image-keyboard-response","226","226449","0.0-5.0-1.73","LF","6j0z0b0c72","1440","900","0","1","0","5ea44104a980d23d4f21f7ad","","null","","","","","","","learning/Slide74.JPG","null","","","","","",""
"html-keyboard-response","227","227456","0.0-5.0-2.73","LF","6j0z0b0c72","1440","900","0","1","0","5ea44104a980d23d4f21f7ad","","null","","","learningBlock1","","","","<div style=""font-size:60px;""> </div>","null","LF","learning/Slide74.JPG","This is a dep:","","",""
"html-keyboard-response","228","228463","0.0-5.0-0.74","LF","6j0z0b0c72","1440","900","0","1","0","5ea44104a980d23d4f21f7ad","","null","","","learningBlock1","","","","This is a tob:","null","","","","","",""
"image-keyboard-response","229","228802","0.0-5.0-1.74","LF","6j0z0b0c72","1440","900","0","1","0","5ea44104a980d23d4f21f7ad","","null","","","","","","","learning/Slide75.JPG","null","","","","","",""
"html-keyboard-response","230","229809","0.0-5.0-2.74","LF","6j0z0b0c72","1440","900","0","1","0","5ea44104a980d23d4f21f7ad","","null","","","learningBlock1","","","","<div style=""font-size:60px;""> </div>","null","LF","learning/Slide75.JPG","This is a tob:","","",""
"html-keyboard-response","231","230812","0.0-5.0-0.75","LF","6j0z0b0c72","1440","900","0","1","0","5ea44104a980d23d4f21f7ad","","null","","","learningBlock1","","","","This is a bim:","null","","","","","",""
"image-keyboard-response","232","231150","0.0-5.0-1.75","LF","6j0z0b0c72","1440","900","0","1","0","5ea44104a980d23d4f21f7ad","","null","","","","","","","learning/Slide76.JPG","null","","","","","",""
"html-keyboard-response","233","232158","0.0-5.0-2.75","LF","6j0z0b0c72","1440","900","0","1","0","5ea44104a980d23d4f21f7ad","","null","","","learningBlock1","","","","<div style=""font-size:60px;""> </div>","null","LF","learning/Slide76.JPG","This is a bim:","","",""
"html-keyboard-response","234","233166","0.0-5.0-0.76","LF","6j0z0b0c72","1440","900","0","1","0","5ea44104a980d23d4f21f7ad","","null","","","learningBlock1","","","","This is a tob:","null","","","","","",""
"image-keyboard-response","235","233499","0.0-5.0-1.76","LF","6j0z0b0c72","1440","900","0","1","0","5ea44104a980d23d4f21f7ad","","null","","","","","","","learning/Slide77.JPG","null","","","","","",""
"html-keyboard-response","236","234505","0.0-5.0-2.76","LF","6j0z0b0c72","1440","900","0","1","0","5ea44104a980d23d4f21f7ad","","null","","","learningBlock1","","","","<div style=""font-size:60px;""> </div>","null","LF","learning/Slide77.JPG","This is a tob:","","",""
"html-keyboard-response","237","235514","0.0-5.0-0.77","LF","6j0z0b0c72","1440","900","0","1","0","5ea44104a980d23d4f21f7ad","","null","","","learningBlock1","","","","This is a wug:","null","","","","","",""
"image-keyboard-response","238","235849","0.0-5.0-1.77","LF","6j0z0b0c72","1440","900","0","1","0","5ea44104a980d23d4f21f7ad","","null","","","","","","","learning/Slide78.JPG","null","","","","","",""
"html-keyboard-response","239","236856","0.0-5.0-2.77","LF","6j0z0b0c72","1440","900","0","1","0","5ea44104a980d23d4f21f7ad","","null","","","learningBlock1","","","","<div style=""font-size:60px;""> </div>","null","LF","learning/Slide78.JPG","This is a wug:","","",""
"html-keyboard-response","240","237858","0.0-5.0-0.78","LF","6j0z0b0c72","1440","900","0","1","0","5ea44104a980d23d4f21f7ad","","null","","","learningBlock1","","","","This is a bim:","null","","","","","",""
"image-keyboard-response","241","238198","0.0-5.0-1.78","LF","6j0z0b0c72","1440","900","0","1","0","5ea44104a980d23d4f21f7ad","","null","","","","","","","learning/Slide79.JPG","null","","","","","",""
"html-keyboard-response","242","239206","0.0-5.0-2.78","LF","6j0z0b0c72","1440","900","0","1","0","5ea44104a980d23d4f21f7ad","","null","","","learningBlock1","","","","<div style=""font-size:60px;""> </div>","null","LF","learning/Slide79.JPG","This is a bim:","","",""
"html-keyboard-response","243","240214","0.0-5.0-0.79","LF","6j0z0b0c72","1440","900","0","1","0","5ea44104a980d23d4f21f7ad","","null","","","learningBlock1","","","","This is a tob:","null","","","","","",""
"image-keyboard-response","244","240550","0.0-5.0-1.79","LF","6j0z0b0c72","1440","900","0","1","0","5ea44104a980d23d4f21f7ad","","null","","","","","","","learning/Slide80.JPG","null","","","","","",""
"html-keyboard-response","245","241559","0.0-5.0-2.79","LF","6j0z0b0c72","1440","900","0","1","0","5ea44104a980d23d4f21f7ad","","null","","","learningBlock1","","","","<div style=""font-size:60px;""> </div>","null","LF","learning/Slide80.JPG","This is a tob:","","",""
"instructions","246","243797","0.0-6.0","LF","6j0z0b0c72","1440","900","0","1","0","5ea44104a980d23d4f21f7ad","","NA","","[{""page_index"":0,""viewing_time"":2236.5700000082143}]","instructions","","","","","","","","","","",""
"html-keyboard-response","247","244799","0.0-7.0-0.0","LF","6j0z0b0c72","1440","900","0","1","0","5ea44104a980d23d4f21f7ad","","null","","","learningBlock2","","","","This is a wug:","null","","","","","",""
"image-keyboard-response","248","245134","0.0-7.0-1.0","LF","6j0z0b0c72","1440","900","0","1","0","5ea44104a980d23d4f21f7ad","","null","","","","","","","learning/Slide81.JPG","null","","","","","",""
"html-keyboard-response","249","246143","0.0-7.0-2.0","LF","6j0z0b0c72","1440","900","0","1","0","5ea44104a980d23d4f21f7ad","","null","","","learningBlock2","","","","<div style=""font-size:60px;""> </div>","null","LF","learning/Slide81.JPG","This is a wug:","","",""
"html-keyboard-response","250","247151","0.0-7.0-0.1","LF","6j0z0b0c72","1440","900","0","1","0","5ea44104a980d23d4f21f7ad","","null","","","learningBlock2","","","","This is a bim:","null","","","","","",""
"image-keyboard-response","251","247481","0.0-7.0-1.1","LF","6j0z0b0c72","1440","900","0","1","0","5ea44104a980d23d4f21f7ad","","null","","","","","","","learning/Slide82.JPG","null","","","","","",""
"html-keyboard-response","252","248484","0.0-7.0-2.1","LF","6j0z0b0c72","1440","900","0","1","0","5ea44104a980d23d4f21f7ad","","null","","","learningBlock2","","","","<div style=""font-size:60px;""> </div>","null","LF","learning/Slide82.JPG","This is a bim:","","",""
"html-keyboard-response","253","249493","0.0-7.0-0.2","LF","6j0z0b0c72","1440","900","0","1","0","5ea44104a980d23d4f21f7ad","","null","","","learningBlock2","","","","This is a wug:","null","","","","","",""
"image-keyboard-response","254","249834","0.0-7.0-1.2","LF","6j0z0b0c72","1440","900","0","1","0","5ea44104a980d23d4f21f7ad","","null","","","","","","","learning/Slide83.JPG","null","","","","","",""
"html-keyboard-response","255","250841","0.0-7.0-2.2","LF","6j0z0b0c72","1440","900","0","1","0","5ea44104a980d23d4f21f7ad","","null","","","learningBlock2","","","","<div style=""font-size:60px;""> </div>","null","LF","learning/Slide83.JPG","This is a wug:","","",""
"html-keyboard-response","256","251847","0.0-7.0-0.3","LF","6j0z0b0c72","1440","900","0","1","0","5ea44104a980d23d4f21f7ad","","null","","","learningBlock2","","","","This is a dep:","null","","","","","",""
"image-keyboard-response","257","252188","0.0-7.0-1.3","LF","6j0z0b0c72","1440","900","0","1","0","5ea44104a980d23d4f21f7ad","","null","","","","","","","learning/Slide84.JPG","null","","","","","",""
"html-keyboard-response","258","253197","0.0-7.0-2.3","LF","6j0z0b0c72","1440","900","0","1","0","5ea44104a980d23d4f21f7ad","","null","","","learningBlock2","","","","<div style=""font-size:60px;""> </div>","null","LF","learning/Slide84.JPG","This is a dep:","","",""
"html-keyboard-response","259","254205","0.0-7.0-0.4","LF","6j0z0b0c72","1440","900","0","1","0","5ea44104a980d23d4f21f7ad","","null","","","learningBlock2","","","","This is a bim:","null","","","","","",""
"image-keyboard-response","260","254546","0.0-7.0-1.4","LF","6j0z0b0c72","1440","900","0","1","0","5ea44104a980d23d4f21f7ad","","null","","","","","","","learning/Slide85.JPG","null","","","","","",""
"html-keyboard-response","261","255553","0.0-7.0-2.4","LF","6j0z0b0c72","1440","900","0","1","0","5ea44104a980d23d4f21f7ad","","null","","","learningBlock2","","","","<div style=""font-size:60px;""> </div>","null","LF","learning/Slide85.JPG","This is a bim:","","",""
"html-keyboard-response","262","256559","0.0-7.0-0.5","LF","6j0z0b0c72","1440","900","0","1","0","5ea44104a980d23d4f21f7ad","","null","","","learningBlock2","","","","This is a tob:","null","","","","","",""
"image-keyboard-response","263","256898","0.0-7.0-1.5","LF","6j0z0b0c72","1440","900","0","1","0","5ea44104a980d23d4f21f7ad","","null","","","","","","","learning/Slide86.JPG","null","","","","","",""
"html-keyboard-response","264","257905","0.0-7.0-2.5","LF","6j0z0b0c72","1440","900","0","1","0","5ea44104a980d23d4f21f7ad","","null","","","learningBlock2","","","","<div style=""font-size:60px;""> </div>","null","LF","learning/Slide86.JPG","This is a tob:","","",""
"html-keyboard-response","265","258911","0.0-7.0-0.6","LF","6j0z0b0c72","1440","900","0","1","0","5ea44104a980d23d4f21f7ad","","null","","","learningBlock2","","","","This is a wug:","null","","","","","",""
"image-keyboard-response","266","259247","0.0-7.0-1.6","LF","6j0z0b0c72","1440","900","0","1","0","5ea44104a980d23d4f21f7ad","","null","","","","","","","learning/Slide87.JPG","null","","","","","",""
"html-keyboard-response","267","260254","0.0-7.0-2.6","LF","6j0z0b0c72","1440","900","0","1","0","5ea44104a980d23d4f21f7ad","","null","","","learningBlock2","","","","<div style=""font-size:60px;""> </div>","null","LF","learning/Slide87.JPG","This is a wug:","","",""
"html-keyboard-response","268","261260","0.0-7.0-0.7","LF","6j0z0b0c72","1440","900","0","1","0","5ea44104a980d23d4f21f7ad","","null","","","learningBlock2","","","","This is a tob:","null","","","","","",""
"image-keyboard-response","269","261593","0.0-7.0-1.7","LF","6j0z0b0c72","1440","900","0","1","0","5ea44104a980d23d4f21f7ad","","null","","","","","","","learning/Slide88.JPG","null","","","","","",""
"html-keyboard-response","270","262595","0.0-7.0-2.7","LF","6j0z0b0c72","1440","900","0","1","0","5ea44104a980d23d4f21f7ad","","null","","","learningBlock2","","","","<div style=""font-size:60px;""> </div>","null","LF","learning/Slide88.JPG","This is a tob:","","",""
"html-keyboard-response","271","263597","0.0-7.0-0.8","LF","6j0z0b0c72","1440","900","0","1","0","5ea44104a980d23d4f21f7ad","","null","","","learningBlock2","","","","This is a bim:","null","","","","","",""
"image-keyboard-response","272","263929","0.0-7.0-1.8","LF","6j0z0b0c72","1440","900","0","1","0","5ea44104a980d23d4f21f7ad","","null","","","","","","","learning/Slide89.JPG","null","","","","","",""
"html-keyboard-response","273","264938","0.0-7.0-2.8","LF","6j0z0b0c72","1440","900","0","1","0","5ea44104a980d23d4f21f7ad","","null","","","learningBlock2","","","","<div style=""font-size:60px;""> </div>","null","LF","learning/Slide89.JPG","This is a bim:","","",""
"html-keyboard-response","274","265946","0.0-7.0-0.9","LF","6j0z0b0c72","1440","900","0","1","0","5ea44104a980d23d4f21f7ad","","null","","","learningBlock2","","","","This is a dep:","null","","","","","",""
"image-keyboard-response","275","266281","0.0-7.0-1.9","LF","6j0z0b0c72","1440","900","0","1","0","5ea44104a980d23d4f21f7ad","","null","","","","","","","learning/Slide90.JPG","null","","","","","",""
"html-keyboard-response","276","267289","0.0-7.0-2.9","LF","6j0z0b0c72","1440","900","0","1","0","5ea44104a980d23d4f21f7ad","","null","","","learningBlock2","","","","<div style=""font-size:60px;""> </div>","null","LF","learning/Slide90.JPG","This is a dep:","","",""
"html-keyboard-response","277","268298","0.0-7.0-0.10","LF","6j0z0b0c72","1440","900","0","1","0","5ea44104a980d23d4f21f7ad","","null","","","learningBlock2","","","","This is a wug:","null","","","","","",""
"image-keyboard-response","278","268637","0.0-7.0-1.10","LF","6j0z0b0c72","1440","900","0","1","0","5ea44104a980d23d4f21f7ad","","null","","","","","","","learning/Slide91.JPG","null","","","","","",""
"html-keyboard-response","279","269644","0.0-7.0-2.10","LF","6j0z0b0c72","1440","900","0","1","0","5ea44104a980d23d4f21f7ad","","null","","","learningBlock2","","","","<div style=""font-size:60px;""> </div>","null","LF","learning/Slide91.JPG","This is a wug:","","",""
"html-keyboard-response","280","270652","0.0-7.0-0.11","LF","6j0z0b0c72","1440","900","0","1","0","5ea44104a980d23d4f21f7ad","","null","","","learningBlock2","","","","This is a tob:","null","","","","","",""
"image-keyboard-response","281","270982","0.0-7.0-1.11","LF","6j0z0b0c72","1440","900","0","1","0","5ea44104a980d23d4f21f7ad","","null","","","","","","","learning/Slide92.JPG","null","","","","","",""
"html-keyboard-response","282","271984","0.0-7.0-2.11","LF","6j0z0b0c72","1440","900","0","1","0","5ea44104a980d23d4f21f7ad","","null","","","learningBlock2","","","","<div style=""font-size:60px;""> </div>","null","LF","learning/Slide92.JPG","This is a tob:","","",""
"html-keyboard-response","283","272994","0.0-7.0-0.12","LF","6j0z0b0c72","1440","900","0","1","0","5ea44104a980d23d4f21f7ad","","null","","","learningBlock2","","","","This is a bim:","null","","","","","",""
"image-keyboard-response","284","273335","0.0-7.0-1.12","LF","6j0z0b0c72","1440","900","0","1","0","5ea44104a980d23d4f21f7ad","","null","","","","","","","learning/Slide93.JPG","null","","","","","",""
"html-keyboard-response","285","274342","0.0-7.0-2.12","LF","6j0z0b0c72","1440","900","0","1","0","5ea44104a980d23d4f21f7ad","","null","","","learningBlock2","","","","<div style=""font-size:60px;""> </div>","null","LF","learning/Slide93.JPG","This is a bim:","","",""
"html-keyboard-response","286","275345","0.0-7.0-0.13","LF","6j0z0b0c72","1440","900","0","1","0","5ea44104a980d23d4f21f7ad","","null","","","learningBlock2","","","","This is a tob:","null","","","","","",""
"image-keyboard-response","287","275679","0.0-7.0-1.13","LF","6j0z0b0c72","1440","900","0","1","0","5ea44104a980d23d4f21f7ad","","null","","","","","","","learning/Slide94.JPG","null","","","","","",""
"html-keyboard-response","288","276680","0.0-7.0-2.13","LF","6j0z0b0c72","1440","900","0","1","0","5ea44104a980d23d4f21f7ad","","null","","","learningBlock2","","","","<div style=""font-size:60px;""> </div>","null","LF","learning/Slide94.JPG","This is a tob:","","",""
"html-keyboard-response","289","277688","0.0-7.0-0.14","LF","6j0z0b0c72","1440","900","0","1","0","5ea44104a980d23d4f21f7ad","","null","","","learningBlock2","","","","This is a wug:","null","","","","","",""
"image-keyboard-response","290","278024","0.0-7.0-1.14","LF","6j0z0b0c72","1440","900","0","1","0","5ea44104a980d23d4f21f7ad","","null","","","","","","","learning/Slide95.JPG","null","","","","","",""
"html-keyboard-response","291","279032","0.0-7.0-2.14","LF","6j0z0b0c72","1440","900","0","1","0","5ea44104a980d23d4f21f7ad","","null","","","learningBlock2","","","","<div style=""font-size:60px;""> </div>","null","LF","learning/Slide95.JPG","This is a wug:","","",""
"html-keyboard-response","292","280034","0.0-7.0-0.15","LF","6j0z0b0c72","1440","900","0","1","0","5ea44104a980d23d4f21f7ad","","null","","","learningBlock2","","","","This is a tob:","null","","","","","",""
"image-keyboard-response","293","280375","0.0-7.0-1.15","LF","6j0z0b0c72","1440","900","0","1","0","5ea44104a980d23d4f21f7ad","","null","","","","","","","learning/Slide96.JPG","null","","","","","",""
"html-keyboard-response","294","281382","0.0-7.0-2.15","LF","6j0z0b0c72","1440","900","0","1","0","5ea44104a980d23d4f21f7ad","","null","","","learningBlock2","","","","<div style=""font-size:60px;""> </div>","null","LF","learning/Slide96.JPG","This is a tob:","","",""
"html-keyboard-response","295","282389","0.0-7.0-0.16","LF","6j0z0b0c72","1440","900","0","1","0","5ea44104a980d23d4f21f7ad","","null","","","learningBlock2","","","","This is a dep:","null","","","","","",""
"image-keyboard-response","296","282730","0.0-7.0-1.16","LF","6j0z0b0c72","1440","900","0","1","0","5ea44104a980d23d4f21f7ad","","null","","","","","","","learning/Slide97.JPG","null","","","","","",""
"html-keyboard-response","297","283739","0.0-7.0-2.16","LF","6j0z0b0c72","1440","900","0","1","0","5ea44104a980d23d4f21f7ad","","null","","","learningBlock2","","","","<div style=""font-size:60px;""> </div>","null","LF","learning/Slide97.JPG","This is a dep:","","",""
"html-keyboard-response","298","284747","0.0-7.0-0.17","LF","6j0z0b0c72","1440","900","0","1","0","5ea44104a980d23d4f21f7ad","","null","","","learningBlock2","","","","This is a bim:","null","","","","","",""
"image-keyboard-response","299","285080","0.0-7.0-1.17","LF","6j0z0b0c72","1440","900","0","1","0","5ea44104a980d23d4f21f7ad","","null","","","","","","","learning/Slide98.JPG","null","","","","","",""
"html-keyboard-response","300","286089","0.0-7.0-2.17","LF","6j0z0b0c72","1440","900","0","1","0","5ea44104a980d23d4f21f7ad","","null","","","learningBlock2","","","","<div style=""font-size:60px;""> </div>","null","LF","learning/Slide98.JPG","This is a bim:","","",""
"html-keyboard-response","301","287096","0.0-7.0-0.18","LF","6j0z0b0c72","1440","900","0","1","0","5ea44104a980d23d4f21f7ad","","null","","","learningBlock2","","","","This is a dep:","null","","","","","",""
"image-keyboard-response","302","287437","0.0-7.0-1.18","LF","6j0z0b0c72","1440","900","0","1","0","5ea44104a980d23d4f21f7ad","","null","","","","","","","learning/Slide99.JPG","null","","","","","",""
"html-keyboard-response","303","288444","0.0-7.0-2.18","LF","6j0z0b0c72","1440","900","0","1","0","5ea44104a980d23d4f21f7ad","","null","","","learningBlock2","","","","<div style=""font-size:60px;""> </div>","null","LF","learning/Slide99.JPG","This is a dep:","","",""
"html-keyboard-response","304","289450","0.0-7.0-0.19","LF","6j0z0b0c72","1440","900","0","1","0","5ea44104a980d23d4f21f7ad","","null","","","learningBlock2","","","","This is a bim:","null","","","","","",""
"image-keyboard-response","305","289785","0.0-7.0-1.19","LF","6j0z0b0c72","1440","900","0","1","0","5ea44104a980d23d4f21f7ad","","null","","","","","","","learning/Slide100.JPG","null","","","","","",""
"html-keyboard-response","306","290791","0.0-7.0-2.19","LF","6j0z0b0c72","1440","900","0","1","0","5ea44104a980d23d4f21f7ad","","null","","","learningBlock2","","","","<div style=""font-size:60px;""> </div>","null","LF","learning/Slide100.JPG","This is a bim:","","",""
"html-keyboard-response","307","291798","0.0-7.0-0.20","LF","6j0z0b0c72","1440","900","0","1","0","5ea44104a980d23d4f21f7ad","","null","","","learningBlock2","","","","This is a tob:","null","","","","","",""
"image-keyboard-response","308","292132","0.0-7.0-1.20","LF","6j0z0b0c72","1440","900","0","1","0","5ea44104a980d23d4f21f7ad","","null","","","","","","","learning/Slide101.JPG","null","","","","","",""
"html-keyboard-response","309","293140","0.0-7.0-2.20","LF","6j0z0b0c72","1440","900","0","1","0","5ea44104a980d23d4f21f7ad","","null","","","learningBlock2","","","","<div style=""font-size:60px;""> </div>","null","LF","learning/Slide101.JPG","This is a tob:","","",""
"html-keyboard-response","310","294148","0.0-7.0-0.21","LF","6j0z0b0c72","1440","900","0","1","0","5ea44104a980d23d4f21f7ad","","null","","","learningBlock2","","","","This is a bim:","null","","","","","",""
"image-keyboard-response","311","294486","0.0-7.0-1.21","LF","6j0z0b0c72","1440","900","0","1","0","5ea44104a980d23d4f21f7ad","","null","","","","","","","learning/Slide102.JPG","null","","","","","",""
"html-keyboard-response","312","295494","0.0-7.0-2.21","LF","6j0z0b0c72","1440","900","0","1","0","5ea44104a980d23d4f21f7ad","","null","","","learningBlock2","","","","<div style=""font-size:60px;""> </div>","null","LF","learning/Slide102.JPG","This is a bim:","","",""
"html-keyboard-response","313","296501","0.0-7.0-0.22","LF","6j0z0b0c72","1440","900","0","1","0","5ea44104a980d23d4f21f7ad","","null","","","learningBlock2","","","","This is a dep:","null","","","","","",""
"image-keyboard-response","314","296838","0.0-7.0-1.22","LF","6j0z0b0c72","1440","900","0","1","0","5ea44104a980d23d4f21f7ad","","null","","","","","","","learning/Slide103.JPG","null","","","","","",""
"html-keyboard-response","315","297845","0.0-7.0-2.22","LF","6j0z0b0c72","1440","900","0","1","0","5ea44104a980d23d4f21f7ad","","null","","","learningBlock2","","","","<div style=""font-size:60px;""> </div>","null","LF","learning/Slide103.JPG","This is a dep:","","",""
"html-keyboard-response","316","298851","0.0-7.0-0.23","LF","6j0z0b0c72","1440","900","0","1","0","5ea44104a980d23d4f21f7ad","","null","","","learningBlock2","","","","This is a tob:","null","","","","","",""
"image-keyboard-response","317","299183","0.0-7.0-1.23","LF","6j0z0b0c72","1440","900","0","1","0","5ea44104a980d23d4f21f7ad","","null","","","","","","","learning/Slide104.JPG","null","","","","","",""
"html-keyboard-response","318","300192","0.0-7.0-2.23","LF","6j0z0b0c72","1440","900","0","1","0","5ea44104a980d23d4f21f7ad","","null","","","learningBlock2","","","","<div style=""font-size:60px;""> </div>","null","LF","learning/Slide104.JPG","This is a tob:","","",""
"html-keyboard-response","319","301198","0.0-7.0-0.24","LF","6j0z0b0c72","1440","900","0","1","0","5ea44104a980d23d4f21f7ad","","null","","","learningBlock2","","","","This is a dep:","null","","","","","",""
"image-keyboard-response","320","301533","0.0-7.0-1.24","LF","6j0z0b0c72","1440","900","0","1","0","5ea44104a980d23d4f21f7ad","","null","","","","","","","learning/Slide105.JPG","null","","","","","",""
"html-keyboard-response","321","302542","0.0-7.0-2.24","LF","6j0z0b0c72","1440","900","0","1","0","5ea44104a980d23d4f21f7ad","","null","","","learningBlock2","","","","<div style=""font-size:60px;""> </div>","null","LF","learning/Slide105.JPG","This is a dep:","","",""
"html-keyboard-response","322","303548","0.0-7.0-0.25","LF","6j0z0b0c72","1440","900","0","1","0","5ea44104a980d23d4f21f7ad","","null","","","learningBlock2","","","","This is a wug:","null","","","","","",""
"image-keyboard-response","323","303887","0.0-7.0-1.25","LF","6j0z0b0c72","1440","900","0","1","0","5ea44104a980d23d4f21f7ad","","null","","","","","","","learning/Slide106.JPG","null","","","","","",""
"html-keyboard-response","324","304889","0.0-7.0-2.25","LF","6j0z0b0c72","1440","900","0","1","0","5ea44104a980d23d4f21f7ad","","null","","","learningBlock2","","","","<div style=""font-size:60px;""> </div>","null","LF","learning/Slide106.JPG","This is a wug:","","",""
"html-keyboard-response","325","305895","0.0-7.0-0.26","LF","6j0z0b0c72","1440","900","0","1","0","5ea44104a980d23d4f21f7ad","","null","","","learningBlock2","","","","This is a bim:","null","","","","","",""
"image-keyboard-response","326","306235","0.0-7.0-1.26","LF","6j0z0b0c72","1440","900","0","1","0","5ea44104a980d23d4f21f7ad","","null","","","","","","","learning/Slide107.JPG","null","","","","","",""
"html-keyboard-response","327","307242","0.0-7.0-2.26","LF","6j0z0b0c72","1440","900","0","1","0","5ea44104a980d23d4f21f7ad","","null","","","learningBlock2","","","","<div style=""font-size:60px;""> </div>","null","LF","learning/Slide107.JPG","This is a bim:","","",""
"html-keyboard-response","328","308248","0.0-7.0-0.27","LF","6j0z0b0c72","1440","900","0","1","0","5ea44104a980d23d4f21f7ad","","null","","","learningBlock2","","","","This is a dep:","null","","","","","",""
"image-keyboard-response","329","308578","0.0-7.0-1.27","LF","6j0z0b0c72","1440","900","0","1","0","5ea44104a980d23d4f21f7ad","","null","","","","","","","learning/Slide108.JPG","null","","","","","",""
"html-keyboard-response","330","309587","0.0-7.0-2.27","LF","6j0z0b0c72","1440","900","0","1","0","5ea44104a980d23d4f21f7ad","","null","","","learningBlock2","","","","<div style=""font-size:60px;""> </div>","null","LF","learning/Slide108.JPG","This is a dep:","","",""
"html-keyboard-response","331","310592","0.0-7.0-0.28","LF","6j0z0b0c72","1440","900","0","1","0","5ea44104a980d23d4f21f7ad","","null","","","learningBlock2","","","","This is a wug:","null","","","","","",""
"image-keyboard-response","332","310928","0.0-7.0-1.28","LF","6j0z0b0c72","1440","900","0","1","0","5ea44104a980d23d4f21f7ad","","null","","","","","","","learning/Slide109.JPG","null","","","","","",""
"html-keyboard-response","333","311936","0.0-7.0-2.28","LF","6j0z0b0c72","1440","900","0","1","0","5ea44104a980d23d4f21f7ad","","null","","","learningBlock2","","","","<div style=""font-size:60px;""> </div>","null","LF","learning/Slide109.JPG","This is a wug:","","",""
"html-keyboard-response","334","312945","0.0-7.0-0.29","LF","6j0z0b0c72","1440","900","0","1","0","5ea44104a980d23d4f21f7ad","","null","","","learningBlock2","","","","This is a bim:","null","","","","","",""
"image-keyboard-response","335","313285","0.0-7.0-1.29","LF","6j0z0b0c72","1440","900","0","1","0","5ea44104a980d23d4f21f7ad","","null","","","","","","","learning/Slide110.JPG","null","","","","","",""
"html-keyboard-response","336","314293","0.0-7.0-2.29","LF","6j0z0b0c72","1440","900","0","1","0","5ea44104a980d23d4f21f7ad","","null","","","learningBlock2","","","","<div style=""font-size:60px;""> </div>","null","LF","learning/Slide110.JPG","This is a bim:","","",""
"html-keyboard-response","337","315301","0.0-7.0-0.30","LF","6j0z0b0c72","1440","900","0","1","0","5ea44104a980d23d4f21f7ad","","null","","","learningBlock2","","","","This is a tob:","null","","","","","",""
"image-keyboard-response","338","315642","0.0-7.0-1.30","LF","6j0z0b0c72","1440","900","0","1","0","5ea44104a980d23d4f21f7ad","","null","","","","","","","learning/Slide111.JPG","null","","","","","",""
"html-keyboard-response","339","316649","0.0-7.0-2.30","LF","6j0z0b0c72","1440","900","0","1","0","5ea44104a980d23d4f21f7ad","","null","","","learningBlock2","","","","<div style=""font-size:60px;""> </div>","null","LF","learning/Slide111.JPG","This is a tob:","","",""
"html-keyboard-response","340","317657","0.0-7.0-0.31","LF","6j0z0b0c72","1440","900","0","1","0","5ea44104a980d23d4f21f7ad","","null","","","learningBlock2","","","","This is a wug:","null","","","","","",""
"image-keyboard-response","341","317997","0.0-7.0-1.31","LF","6j0z0b0c72","1440","900","0","1","0","5ea44104a980d23d4f21f7ad","","null","","","","","","","learning/Slide112.JPG","null","","","","","",""
"html-keyboard-response","342","319004","0.0-7.0-2.31","LF","6j0z0b0c72","1440","900","0","1","0","5ea44104a980d23d4f21f7ad","","null","","","learningBlock2","","","","<div style=""font-size:60px;""> </div>","null","LF","learning/Slide112.JPG","This is a wug:","","",""
"html-keyboard-response","343","320010","0.0-7.0-0.32","LF","6j0z0b0c72","1440","900","0","1","0","5ea44104a980d23d4f21f7ad","","null","","","learningBlock2","","","","This is a tob:","null","","","","","",""
"image-keyboard-response","344","320346","0.0-7.0-1.32","LF","6j0z0b0c72","1440","900","0","1","0","5ea44104a980d23d4f21f7ad","","null","","","","","","","learning/Slide113.JPG","null","","","","","",""
"html-keyboard-response","345","321353","0.0-7.0-2.32","LF","6j0z0b0c72","1440","900","0","1","0","5ea44104a980d23d4f21f7ad","","null","","","learningBlock2","","","","<div style=""font-size:60px;""> </div>","null","LF","learning/Slide113.JPG","This is a tob:","","",""
"html-keyboard-response","346","322359","0.0-7.0-0.33","LF","6j0z0b0c72","1440","900","0","1","0","5ea44104a980d23d4f21f7ad","","null","","","learningBlock2","","","","This is a wug:","null","","","","","",""
"image-keyboard-response","347","322699","0.0-7.0-1.33","LF","6j0z0b0c72","1440","900","0","1","0","5ea44104a980d23d4f21f7ad","","null","","","","","","","learning/Slide114.JPG","null","","","","","",""
"html-keyboard-response","348","323705","0.0-7.0-2.33","LF","6j0z0b0c72","1440","900","0","1","0","5ea44104a980d23d4f21f7ad","","null","","","learningBlock2","","","","<div style=""font-size:60px;""> </div>","null","LF","learning/Slide114.JPG","This is a wug:","","",""
"html-keyboard-response","349","324713","0.0-7.0-0.34","LF","6j0z0b0c72","1440","900","0","1","0","5ea44104a980d23d4f21f7ad","","null","","","learningBlock2","","","","This is a bim:","null","","","","","",""
"image-keyboard-response","350","325048","0.0-7.0-1.34","LF","6j0z0b0c72","1440","900","0","1","0","5ea44104a980d23d4f21f7ad","","null","","","","","","","learning/Slide115.JPG","null","","","","","",""
"html-keyboard-response","351","326057","0.0-7.0-2.34","LF","6j0z0b0c72","1440","900","0","1","0","5ea44104a980d23d4f21f7ad","","null","","","learningBlock2","","","","<div style=""font-size:60px;""> </div>","null","LF","learning/Slide115.JPG","This is a bim:","","",""
"html-keyboard-response","352","327065","0.0-7.0-0.35","LF","6j0z0b0c72","1440","900","0","1","0","5ea44104a980d23d4f21f7ad","","null","","","learningBlock2","","","","This is a dep:","null","","","","","",""
"image-keyboard-response","353","327400","0.0-7.0-1.35","LF","6j0z0b0c72","1440","900","0","1","0","5ea44104a980d23d4f21f7ad","","null","","","","","","","learning/Slide116.JPG","null","","","","","",""
"html-keyboard-response","354","328409","0.0-7.0-2.35","LF","6j0z0b0c72","1440","900","0","1","0","5ea44104a980d23d4f21f7ad","","null","","","learningBlock2","","","","<div style=""font-size:60px;""> </div>","null","LF","learning/Slide116.JPG","This is a dep:","","",""
"html-keyboard-response","355","329417","0.0-7.0-0.36","LF","6j0z0b0c72","1440","900","0","1","0","5ea44104a980d23d4f21f7ad","","null","","","learningBlock2","","","","This is a tob:","null","","","","","",""
"image-keyboard-response","356","329752","0.0-7.0-1.36","LF","6j0z0b0c72","1440","900","0","1","0","5ea44104a980d23d4f21f7ad","","null","","","","","","","learning/Slide117.JPG","null","","","","","",""
"html-keyboard-response","357","330760","0.0-7.0-2.36","LF","6j0z0b0c72","1440","900","0","1","0","5ea44104a980d23d4f21f7ad","","null","","","learningBlock2","","","","<div style=""font-size:60px;""> </div>","null","LF","learning/Slide117.JPG","This is a tob:","","",""
"html-keyboard-response","358","331766","0.0-7.0-0.37","LF","6j0z0b0c72","1440","900","0","1","0","5ea44104a980d23d4f21f7ad","","null","","","learningBlock2","","","","This is a dep:","null","","","","","",""
"image-keyboard-response","359","332101","0.0-7.0-1.37","LF","6j0z0b0c72","1440","900","0","1","0","5ea44104a980d23d4f21f7ad","","null","","","","","","","learning/Slide118.JPG","null","","","","","",""
"html-keyboard-response","360","333110","0.0-7.0-2.37","LF","6j0z0b0c72","1440","900","0","1","0","5ea44104a980d23d4f21f7ad","","null","","","learningBlock2","","","","<div style=""font-size:60px;""> </div>","null","LF","learning/Slide118.JPG","This is a dep:","","",""
"html-keyboard-response","361","334116","0.0-7.0-0.38","LF","6j0z0b0c72","1440","900","0","1","0","5ea44104a980d23d4f21f7ad","","null","","","learningBlock2","","","","This is a wug:","null","","","","","",""
"image-keyboard-response","362","334449","0.0-7.0-1.38","LF","6j0z0b0c72","1440","900","0","1","0","5ea44104a980d23d4f21f7ad","","null","","","","","","","learning/Slide119.JPG","null","","","","","",""
"html-keyboard-response","363","335456","0.0-7.0-2.38","LF","6j0z0b0c72","1440","900","0","1","0","5ea44104a980d23d4f21f7ad","","null","","","learningBlock2","","","","<div style=""font-size:60px;""> </div>","null","LF","learning/Slide119.JPG","This is a wug:","","",""
"html-keyboard-response","364","336465","0.0-7.0-0.39","LF","6j0z0b0c72","1440","900","0","1","0","5ea44104a980d23d4f21f7ad","","null","","","learningBlock2","","","","This is a dep:","null","","","","","",""
"image-keyboard-response","365","336804","0.0-7.0-1.39","LF","6j0z0b0c72","1440","900","0","1","0","5ea44104a980d23d4f21f7ad","","null","","","","","","","learning/Slide120.JPG","null","","","","","",""
"html-keyboard-response","366","337813","0.0-7.0-2.39","LF","6j0z0b0c72","1440","900","0","1","0","5ea44104a980d23d4f21f7ad","","null","","","learningBlock2","","","","<div style=""font-size:60px;""> </div>","null","LF","learning/Slide120.JPG","This is a dep:","","",""
"html-keyboard-response","367","338818","0.0-7.0-0.40","LF","6j0z0b0c72","1440","900","0","1","0","5ea44104a980d23d4f21f7ad","","null","","","learningBlock2","","","","This is a bim:","null","","","","","",""
"image-keyboard-response","368","339159","0.0-7.0-1.40","LF","6j0z0b0c72","1440","900","0","1","0","5ea44104a980d23d4f21f7ad","","null","","","","","","","learning/Slide121.JPG","null","","","","","",""
"html-keyboard-response","369","340168","0.0-7.0-2.40","LF","6j0z0b0c72","1440","900","0","1","0","5ea44104a980d23d4f21f7ad","","null","","","learningBlock2","","","","<div style=""font-size:60px;""> </div>","null","LF","learning/Slide121.JPG","This is a bim:","","",""
"html-keyboard-response","370","341176","0.0-7.0-0.41","LF","6j0z0b0c72","1440","900","0","1","0","5ea44104a980d23d4f21f7ad","","null","","","learningBlock2","","","","This is a wug:","null","","","","","",""
"image-keyboard-response","371","341513","0.0-7.0-1.41","LF","6j0z0b0c72","1440","900","0","1","0","5ea44104a980d23d4f21f7ad","","null","","","","","","","learning/Slide122.JPG","null","","","","","",""
"html-keyboard-response","372","342520","0.0-7.0-2.41","LF","6j0z0b0c72","1440","900","0","1","0","5ea44104a980d23d4f21f7ad","","null","","","learningBlock2","","","","<div style=""font-size:60px;""> </div>","null","LF","learning/Slide122.JPG","This is a wug:","","",""
"html-keyboard-response","373","343528","0.0-7.0-0.42","LF","6j0z0b0c72","1440","900","0","1","0","5ea44104a980d23d4f21f7ad","","null","","","learningBlock2","","","","This is a bim:","null","","","","","",""
"image-keyboard-response","374","343863","0.0-7.0-1.42","LF","6j0z0b0c72","1440","900","0","1","0","5ea44104a980d23d4f21f7ad","","null","","","","","","","learning/Slide123.JPG","null","","","","","",""
"html-keyboard-response","375","344872","0.0-7.0-2.42","LF","6j0z0b0c72","1440","900","0","1","0","5ea44104a980d23d4f21f7ad","","null","","","learningBlock2","","","","<div style=""font-size:60px;""> </div>","null","LF","learning/Slide123.JPG","This is a bim:","","",""
"html-keyboard-response","376","345880","0.0-7.0-0.43","LF","6j0z0b0c72","1440","900","0","1","0","5ea44104a980d23d4f21f7ad","","null","","","learningBlock2","","","","This is a tob:","null","","","","","",""
"image-keyboard-response","377","346221","0.0-7.0-1.43","LF","6j0z0b0c72","1440","900","0","1","0","5ea44104a980d23d4f21f7ad","","null","","","","","","","learning/Slide124.JPG","null","","","","","",""
"html-keyboard-response","378","347230","0.0-7.0-2.43","LF","6j0z0b0c72","1440","900","0","1","0","5ea44104a980d23d4f21f7ad","","null","","","learningBlock2","","","","<div style=""font-size:60px;""> </div>","null","LF","learning/Slide124.JPG","This is a tob:","","",""
"html-keyboard-response","379","348236","0.0-7.0-0.44","LF","6j0z0b0c72","1440","900","0","1","0","5ea44104a980d23d4f21f7ad","","null","","","learningBlock2","","","","This is a bim:","null","","","","","",""
"image-keyboard-response","380","348573","0.0-7.0-1.44","LF","6j0z0b0c72","1440","900","0","1","0","5ea44104a980d23d4f21f7ad","","null","","","","","","","learning/Slide125.JPG","null","","","","","",""
"html-keyboard-response","381","349580","0.0-7.0-2.44","LF","6j0z0b0c72","1440","900","0","1","0","5ea44104a980d23d4f21f7ad","","null","","","learningBlock2","","","","<div style=""font-size:60px;""> </div>","null","LF","learning/Slide125.JPG","This is a bim:","","",""
"html-keyboard-response","382","350588","0.0-7.0-0.45","LF","6j0z0b0c72","1440","900","0","1","0","5ea44104a980d23d4f21f7ad","","null","","","learningBlock2","","","","This is a tob:","null","","","","","",""
"image-keyboard-response","383","350925","0.0-7.0-1.45","LF","6j0z0b0c72","1440","900","0","1","0","5ea44104a980d23d4f21f7ad","","null","","","","","","","learning/Slide126.JPG","null","","","","","",""
"html-keyboard-response","384","351932","0.0-7.0-2.45","LF","6j0z0b0c72","1440","900","0","1","0","5ea44104a980d23d4f21f7ad","","null","","","learningBlock2","","","","<div style=""font-size:60px;""> </div>","null","LF","learning/Slide126.JPG","This is a tob:","","",""
"html-keyboard-response","385","352940","0.0-7.0-0.46","LF","6j0z0b0c72","1440","900","0","1","0","5ea44104a980d23d4f21f7ad","","null","","","learningBlock2","","","","This is a dep:","null","","","","","",""
"image-keyboard-response","386","353276","0.0-7.0-1.46","LF","6j0z0b0c72","1440","900","0","1","0","5ea44104a980d23d4f21f7ad","","null","","","","","","","learning/Slide127.JPG","null","","","","","",""
"html-keyboard-response","387","354284","0.0-7.0-2.46","LF","6j0z0b0c72","1440","900","0","1","0","5ea44104a980d23d4f21f7ad","","null","","","learningBlock2","","","","<div style=""font-size:60px;""> </div>","null","LF","learning/Slide127.JPG","This is a dep:","","",""
"html-keyboard-response","388","355292","0.0-7.0-0.47","LF","6j0z0b0c72","1440","900","0","1","0","5ea44104a980d23d4f21f7ad","","null","","","learningBlock2","","","","This is a wug:","null","","","","","",""
"image-keyboard-response","389","355633","0.0-7.0-1.47","LF","6j0z0b0c72","1440","900","0","1","0","5ea44104a980d23d4f21f7ad","","null","","","","","","","learning/Slide128.JPG","null","","","","","",""
"html-keyboard-response","390","356642","0.0-7.0-2.47","LF","6j0z0b0c72","1440","900","0","1","0","5ea44104a980d23d4f21f7ad","","null","","","learningBlock2","","","","<div style=""font-size:60px;""> </div>","null","LF","learning/Slide128.JPG","This is a wug:","","",""
"html-keyboard-response","391","357650","0.0-7.0-0.48","LF","6j0z0b0c72","1440","900","0","1","0","5ea44104a980d23d4f21f7ad","","null","","","learningBlock2","","","","This is a tob:","null","","","","","",""
"image-keyboard-response","392","357984","0.0-7.0-1.48","LF","6j0z0b0c72","1440","900","0","1","0","5ea44104a980d23d4f21f7ad","","null","","","","","","","learning/Slide129.JPG","null","","","","","",""
"html-keyboard-response","393","358993","0.0-7.0-2.48","LF","6j0z0b0c72","1440","900","0","1","0","5ea44104a980d23d4f21f7ad","","null","","","learningBlock2","","","","<div style=""font-size:60px;""> </div>","null","LF","learning/Slide129.JPG","This is a tob:","","",""
"html-keyboard-response","394","359999","0.0-7.0-0.49","LF","6j0z0b0c72","1440","900","0","1","0","5ea44104a980d23d4f21f7ad","","null","","","learningBlock2","","","","This is a wug:","null","","","","","",""
"image-keyboard-response","395","360340","0.0-7.0-1.49","LF","6j0z0b0c72","1440","900","0","1","0","5ea44104a980d23d4f21f7ad","","null","","","","","","","learning/Slide130.JPG","null","","","","","",""
"html-keyboard-response","396","361347","0.0-7.0-2.49","LF","6j0z0b0c72","1440","900","0","1","0","5ea44104a980d23d4f21f7ad","","null","","","learningBlock2","","","","<div style=""font-size:60px;""> </div>","null","LF","learning/Slide130.JPG","This is a wug:","","",""
"html-keyboard-response","397","362355","0.0-7.0-0.50","LF","6j0z0b0c72","1440","900","0","1","0","5ea44104a980d23d4f21f7ad","","null","","","learningBlock2","","","","This is a bim:","null","","","","","",""
"image-keyboard-response","398","362696","0.0-7.0-1.50","LF","6j0z0b0c72","1440","900","0","1","0","5ea44104a980d23d4f21f7ad","","null","","","","","","","learning/Slide131.JPG","null","","","","","",""
"html-keyboard-response","399","363705","0.0-7.0-2.50","LF","6j0z0b0c72","1440","900","0","1","0","5ea44104a980d23d4f21f7ad","","null","","","learningBlock2","","","","<div style=""font-size:60px;""> </div>","null","LF","learning/Slide131.JPG","This is a bim:","","",""
"html-keyboard-response","400","364711","0.0-7.0-0.51","LF","6j0z0b0c72","1440","900","0","1","0","5ea44104a980d23d4f21f7ad","","null","","","learningBlock2","","","","This is a dep:","null","","","","","",""
"image-keyboard-response","401","365049","0.0-7.0-1.51","LF","6j0z0b0c72","1440","900","0","1","0","5ea44104a980d23d4f21f7ad","","null","","","","","","","learning/Slide132.JPG","null","","","","","",""
"html-keyboard-response","402","366050","0.0-7.0-2.51","LF","6j0z0b0c72","1440","900","0","1","0","5ea44104a980d23d4f21f7ad","","null","","","learningBlock2","","","","<div style=""font-size:60px;""> </div>","null","LF","learning/Slide132.JPG","This is a dep:","","",""
"html-keyboard-response","403","367057","0.0-7.0-0.52","LF","6j0z0b0c72","1440","900","0","1","0","5ea44104a980d23d4f21f7ad","","null","","","learningBlock2","","","","This is a tob:","null","","","","","",""
"image-keyboard-response","404","367393","0.0-7.0-1.52","LF","6j0z0b0c72","1440","900","0","1","0","5ea44104a980d23d4f21f7ad","","null","","","","","","","learning/Slide133.JPG","null","","","","","",""
"html-keyboard-response","405","368398","0.0-7.0-2.52","LF","6j0z0b0c72","1440","900","0","1","0","5ea44104a980d23d4f21f7ad","","null","","","learningBlock2","","","","<div style=""font-size:60px;""> </div>","null","LF","learning/Slide133.JPG","This is a tob:","","",""
"html-keyboard-response","406","369404","0.0-7.0-0.53","LF","6j0z0b0c72","1440","900","0","1","0","5ea44104a980d23d4f21f7ad","","null","","","learningBlock2","","","","This is a dep:","null","","","","","",""
"image-keyboard-response","407","369742","0.0-7.0-1.53","LF","6j0z0b0c72","1440","900","0","1","0","5ea44104a980d23d4f21f7ad","","null","","","","","","","learning/Slide134.JPG","null","","","","","",""
"html-keyboard-response","408","370751","0.0-7.0-2.53","LF","6j0z0b0c72","1440","900","0","1","0","5ea44104a980d23d4f21f7ad","","null","","","learningBlock2","","","","<div style=""font-size:60px;""> </div>","null","LF","learning/Slide134.JPG","This is a dep:","","",""
"html-keyboard-response","409","371760","0.0-7.0-0.54","LF","6j0z0b0c72","1440","900","0","1","0","5ea44104a980d23d4f21f7ad","","null","","","learningBlock2","","","","This is a tob:","null","","","","","",""
"image-keyboard-response","410","372092","0.0-7.0-1.54","LF","6j0z0b0c72","1440","900","0","1","0","5ea44104a980d23d4f21f7ad","","null","","","","","","","learning/Slide135.JPG","null","","","","","",""
"html-keyboard-response","411","373099","0.0-7.0-2.54","LF","6j0z0b0c72","1440","900","0","1","0","5ea44104a980d23d4f21f7ad","","null","","","learningBlock2","","","","<div style=""font-size:60px;""> </div>","null","LF","learning/Slide135.JPG","This is a tob:","","",""
"html-keyboard-response","412","374108","0.0-7.0-0.55","LF","6j0z0b0c72","1440","900","0","1","0","5ea44104a980d23d4f21f7ad","","null","","","learningBlock2","","","","This is a wug:","null","","","","","",""
"image-keyboard-response","413","374443","0.0-7.0-1.55","LF","6j0z0b0c72","1440","900","0","1","0","5ea44104a980d23d4f21f7ad","","null","","","","","","","learning/Slide136.JPG","null","","","","","",""
"html-keyboard-response","414","375452","0.0-7.0-2.55","LF","6j0z0b0c72","1440","900","0","1","0","5ea44104a980d23d4f21f7ad","","null","","","learningBlock2","","","","<div style=""font-size:60px;""> </div>","null","LF","learning/Slide136.JPG","This is a wug:","","",""
"html-keyboard-response","415","376460","0.0-7.0-0.56","LF","6j0z0b0c72","1440","900","0","1","0","5ea44104a980d23d4f21f7ad","","null","","","learningBlock2","","","","This is a tob:","null","","","","","",""
"image-keyboard-response","416","376799","0.0-7.0-1.56","LF","6j0z0b0c72","1440","900","0","1","0","5ea44104a980d23d4f21f7ad","","null","","","","","","","learning/Slide137.JPG","null","","","","","",""
"html-keyboard-response","417","377808","0.0-7.0-2.56","LF","6j0z0b0c72","1440","900","0","1","0","5ea44104a980d23d4f21f7ad","","null","","","learningBlock2","","","","<div style=""font-size:60px;""> </div>","null","LF","learning/Slide137.JPG","This is a tob:","","",""
"html-keyboard-response","418","378812","0.0-7.0-0.57","LF","6j0z0b0c72","1440","900","0","1","0","5ea44104a980d23d4f21f7ad","","null","","","learningBlock2","","","","This is a bim:","null","","","","","",""
"image-keyboard-response","419","379151","0.0-7.0-1.57","LF","6j0z0b0c72","1440","900","0","1","0","5ea44104a980d23d4f21f7ad","","null","","","","","","","learning/Slide138.JPG","null","","","","","",""
"html-keyboard-response","420","380158","0.0-7.0-2.57","LF","6j0z0b0c72","1440","900","0","1","0","5ea44104a980d23d4f21f7ad","","null","","","learningBlock2","","","","<div style=""font-size:60px;""> </div>","null","LF","learning/Slide138.JPG","This is a bim:","","",""
"html-keyboard-response","421","381164","0.0-7.0-0.58","LF","6j0z0b0c72","1440","900","0","1","0","5ea44104a980d23d4f21f7ad","","null","","","learningBlock2","","","","This is a wug:","null","","","","","",""
"image-keyboard-response","422","381495","0.0-7.0-1.58","LF","6j0z0b0c72","1440","900","0","1","0","5ea44104a980d23d4f21f7ad","","null","","","","","","","learning/Slide139.JPG","null","","","","","",""
"html-keyboard-response","423","382504","0.0-7.0-2.58","LF","6j0z0b0c72","1440","900","0","1","0","5ea44104a980d23d4f21f7ad","","null","","","learningBlock2","","","","<div style=""font-size:60px;""> </div>","null","LF","learning/Slide139.JPG","This is a wug:","","",""
"html-keyboard-response","424","383510","0.0-7.0-0.59","LF","6j0z0b0c72","1440","900","0","1","0","5ea44104a980d23d4f21f7ad","","null","","","learningBlock2","","","","This is a dep:","null","","","","","",""
"image-keyboard-response","425","383843","0.0-7.0-1.59","LF","6j0z0b0c72","1440","900","0","1","0","5ea44104a980d23d4f21f7ad","","null","","","","","","","learning/Slide140.JPG","null","","","","","",""
"html-keyboard-response","426","384850","0.0-7.0-2.59","LF","6j0z0b0c72","1440","900","0","1","0","5ea44104a980d23d4f21f7ad","","null","","","learningBlock2","","","","<div style=""font-size:60px;""> </div>","null","LF","learning/Slide140.JPG","This is a dep:","","",""
"html-keyboard-response","427","385858","0.0-7.0-0.60","LF","6j0z0b0c72","1440","900","0","1","0","5ea44104a980d23d4f21f7ad","","null","","","learningBlock2","","","","This is a tob:","null","","","","","",""
"image-keyboard-response","428","386199","0.0-7.0-1.60","LF","6j0z0b0c72","1440","900","0","1","0","5ea44104a980d23d4f21f7ad","","null","","","","","","","learning/Slide141.JPG","null","","","","","",""
"html-keyboard-response","429","387206","0.0-7.0-2.60","LF","6j0z0b0c72","1440","900","0","1","0","5ea44104a980d23d4f21f7ad","","null","","","learningBlock2","","","","<div style=""font-size:60px;""> </div>","null","LF","learning/Slide141.JPG","This is a tob:","","",""
"html-keyboard-response","430","388214","0.0-7.0-0.61","LF","6j0z0b0c72","1440","900","0","1","0","5ea44104a980d23d4f21f7ad","","null","","","learningBlock2","","","","This is a wug:","null","","","","","",""
"image-keyboard-response","431","388548","0.0-7.0-1.61","LF","6j0z0b0c72","1440","900","0","1","0","5ea44104a980d23d4f21f7ad","","null","","","","","","","learning/Slide142.JPG","null","","","","","",""
"html-keyboard-response","432","389549","0.0-7.0-2.61","LF","6j0z0b0c72","1440","900","0","1","0","5ea44104a980d23d4f21f7ad","","null","","","learningBlock2","","","","<div style=""font-size:60px;""> </div>","null","LF","learning/Slide142.JPG","This is a wug:","","",""
"html-keyboard-response","433","390555","0.0-7.0-0.62","LF","6j0z0b0c72","1440","900","0","1","0","5ea44104a980d23d4f21f7ad","","null","","","learningBlock2","","","","This is a bim:","null","","","","","",""
"image-keyboard-response","434","390888","0.0-7.0-1.62","LF","6j0z0b0c72","1440","900","0","1","0","5ea44104a980d23d4f21f7ad","","null","","","","","","","learning/Slide143.JPG","null","","","","","",""
"html-keyboard-response","435","391895","0.0-7.0-2.62","LF","6j0z0b0c72","1440","900","0","1","0","5ea44104a980d23d4f21f7ad","","null","","","learningBlock2","","","","<div style=""font-size:60px;""> </div>","null","LF","learning/Slide143.JPG","This is a bim:","","",""
"html-keyboard-response","436","392901","0.0-7.0-0.63","LF","6j0z0b0c72","1440","900","0","1","0","5ea44104a980d23d4f21f7ad","","null","","","learningBlock2","","","","This is a dep:","null","","","","","",""
"image-keyboard-response","437","393242","0.0-7.0-1.63","LF","6j0z0b0c72","1440","900","0","1","0","5ea44104a980d23d4f21f7ad","","null","","","","","","","learning/Slide144.JPG","null","","","","","",""
"html-keyboard-response","438","394249","0.0-7.0-2.63","LF","6j0z0b0c72","1440","900","0","1","0","5ea44104a980d23d4f21f7ad","","null","","","learningBlock2","","","","<div style=""font-size:60px;""> </div>","null","LF","learning/Slide144.JPG","This is a dep:","","",""
