"trial_type","trial_index","time_elapsed","internal_node_id","condition","subject","screen_width","screen_height","attention","distraction","conscientious","prolificID","success","rt","url","view_history","test_part","final_height_px","final_width_px","scale_factor","stimulus","key_press","learningType","presentedImage","presentedLabel","button_pressed","response","responses"
"pavlovia","0","19","0.0-0.0","FL","26fmzvup9c","1280","720","0","1","0","5e94262948e806768dfa43ed","","","","","","","","","","","","","","","",""
"fullscreen","1","5267","0.0-1.0","FL","26fmzvup9c","1280","720","0","1","0","5e94262948e806768dfa43ed","true","","","","","","","","","","","","","","",""
"external-html","2","16533","0.0-2.0-0.0","FL","26fmzvup9c","1280","720","0","1","0","5e94262948e806768dfa43ed","","11243.764999788254","text/information_english.html","","","","","","","","","","","","",""
"external-html","3","24142","0.0-2.0-1.0","FL","26fmzvup9c","1280","720","0","1","0","5e94262948e806768dfa43ed","","7583.510000258684","text/consent_english.html","","","","","","","","","","","","",""
"instructions","4","46523","0.0-3.0","FL","26fmzvup9c","1280","720","0","1","0","5e94262948e806768dfa43ed","","NA","","[{""page_index"":0,""viewing_time"":4083.4900001063943},{""page_index"":1,""viewing_time"":18291.214999742806}]","instructions","","","","","","","","","","",""
"resize","5","146753","0.0-4.0","FL","26fmzvup9c","1280","720","0","1","0","5e94262948e806768dfa43ed","","","","","","","356","2.2603174603174603","","","","","","","",""
"image-keyboard-response","6","146944","0.0-5.0-0.0","FL","26fmzvup9c","1280","720","0","1","0","5e94262948e806768dfa43ed","","null","","","","","","","learning/Slide1.JPG","null","","","","","",""
"html-keyboard-response","7","148099","0.0-5.0-1.0","FL","26fmzvup9c","1280","720","0","1","0","5e94262948e806768dfa43ed","","null","","","learningBlock1","","","","That was a tob.","null","","","","","",""
"html-keyboard-response","8","149110","0.0-5.0-2.0","FL","26fmzvup9c","1280","720","0","1","0","5e94262948e806768dfa43ed","","null","","","learningBlock1","","","","<div style=""font-size:60px;""> </div>","null","FL","learning/Slide1.JPG","That was a tob.","","",""
"image-keyboard-response","9","149298","0.0-5.0-0.1","FL","26fmzvup9c","1280","720","0","1","0","5e94262948e806768dfa43ed","","null","","","","","","","learning/Slide2.JPG","null","","","","","",""
"html-keyboard-response","10","150465","0.0-5.0-1.1","FL","26fmzvup9c","1280","720","0","1","0","5e94262948e806768dfa43ed","","null","","","learningBlock1","","","","That was a wug.","null","","","","","",""
"html-keyboard-response","11","151479","0.0-5.0-2.1","FL","26fmzvup9c","1280","720","0","1","0","5e94262948e806768dfa43ed","","null","","","learningBlock1","","","","<div style=""font-size:60px;""> </div>","null","FL","learning/Slide2.JPG","That was a wug.","","",""
"image-keyboard-response","12","151656","0.0-5.0-0.2","FL","26fmzvup9c","1280","720","0","1","0","5e94262948e806768dfa43ed","","null","","","","","","","learning/Slide3.JPG","null","","","","","",""
"html-keyboard-response","13","152822","0.0-5.0-1.2","FL","26fmzvup9c","1280","720","0","1","0","5e94262948e806768dfa43ed","","null","","","learningBlock1","","","","That was a bim.","null","","","","","",""
"html-keyboard-response","14","153825","0.0-5.0-2.2","FL","26fmzvup9c","1280","720","0","1","0","5e94262948e806768dfa43ed","","null","","","learningBlock1","","","","<div style=""font-size:60px;""> </div>","null","FL","learning/Slide3.JPG","That was a bim.","","",""
"image-keyboard-response","15","154013","0.0-5.0-0.3","FL","26fmzvup9c","1280","720","0","1","0","5e94262948e806768dfa43ed","","null","","","","","","","learning/Slide4.JPG","null","","","","","",""
"html-keyboard-response","16","155168","0.0-5.0-1.3","FL","26fmzvup9c","1280","720","0","1","0","5e94262948e806768dfa43ed","","null","","","learningBlock1","","","","That was a dep.","null","","","","","",""
"html-keyboard-response","17","156181","0.0-5.0-2.3","FL","26fmzvup9c","1280","720","0","1","0","5e94262948e806768dfa43ed","","null","","","learningBlock1","","","","<div style=""font-size:60px;""> </div>","null","FL","learning/Slide4.JPG","That was a dep.","","",""
"image-keyboard-response","18","156359","0.0-5.0-0.4","FL","26fmzvup9c","1280","720","0","1","0","5e94262948e806768dfa43ed","","null","","","","","","","learning/Slide5.JPG","null","","","","","",""
"html-keyboard-response","19","157518","0.0-5.0-1.4","FL","26fmzvup9c","1280","720","0","1","0","5e94262948e806768dfa43ed","","null","","","learningBlock1","","","","That was a wug.","null","","","","","",""
"html-keyboard-response","20","158525","0.0-5.0-2.4","FL","26fmzvup9c","1280","720","0","1","0","5e94262948e806768dfa43ed","","null","","","learningBlock1","","","","<div style=""font-size:60px;""> </div>","null","FL","learning/Slide5.JPG","That was a wug.","","",""
"image-keyboard-response","21","158718","0.0-5.0-0.5","FL","26fmzvup9c","1280","720","0","1","0","5e94262948e806768dfa43ed","","null","","","","","","","learning/Slide6.JPG","null","","","","","",""
"html-keyboard-response","22","159888","0.0-5.0-1.5","FL","26fmzvup9c","1280","720","0","1","0","5e94262948e806768dfa43ed","","null","","","learningBlock1","","","","That was a dep.","null","","","","","",""
"html-keyboard-response","23","160900","0.0-5.0-2.5","FL","26fmzvup9c","1280","720","0","1","0","5e94262948e806768dfa43ed","","null","","","learningBlock1","","","","<div style=""font-size:60px;""> </div>","null","FL","learning/Slide6.JPG","That was a dep.","","",""
"image-keyboard-response","24","161076","0.0-5.0-0.6","FL","26fmzvup9c","1280","720","0","1","0","5e94262948e806768dfa43ed","","null","","","","","","","learning/Slide7.JPG","null","","","","","",""
"html-keyboard-response","25","162230","0.0-5.0-1.6","FL","26fmzvup9c","1280","720","0","1","0","5e94262948e806768dfa43ed","","null","","","learningBlock1","","","","That was a wug.","null","","","","","",""
"html-keyboard-response","26","163246","0.0-5.0-2.6","FL","26fmzvup9c","1280","720","0","1","0","5e94262948e806768dfa43ed","","null","","","learningBlock1","","","","<div style=""font-size:60px;""> </div>","null","FL","learning/Slide7.JPG","That was a wug.","","",""
"image-keyboard-response","27","163432","0.0-5.0-0.7","FL","26fmzvup9c","1280","720","0","1","0","5e94262948e806768dfa43ed","","null","","","","","","","learning/Slide8.JPG","null","","","","","",""
"html-keyboard-response","28","164594","0.0-5.0-1.7","FL","26fmzvup9c","1280","720","0","1","0","5e94262948e806768dfa43ed","","null","","","learningBlock1","","","","That was a bim.","null","","","","","",""
"html-keyboard-response","29","165606","0.0-5.0-2.7","FL","26fmzvup9c","1280","720","0","1","0","5e94262948e806768dfa43ed","","null","","","learningBlock1","","","","<div style=""font-size:60px;""> </div>","null","FL","learning/Slide8.JPG","That was a bim.","","",""
"image-keyboard-response","30","165792","0.0-5.0-0.8","FL","26fmzvup9c","1280","720","0","1","0","5e94262948e806768dfa43ed","","null","","","","","","","learning/Slide9.JPG","null","","","","","",""
"html-keyboard-response","31","166956","0.0-5.0-1.8","FL","26fmzvup9c","1280","720","0","1","0","5e94262948e806768dfa43ed","","null","","","learningBlock1","","","","That was a wug.","null","","","","","",""
"html-keyboard-response","32","167969","0.0-5.0-2.8","FL","26fmzvup9c","1280","720","0","1","0","5e94262948e806768dfa43ed","","null","","","learningBlock1","","","","<div style=""font-size:60px;""> </div>","null","FL","learning/Slide9.JPG","That was a wug.","","",""
"image-keyboard-response","33","168157","0.0-5.0-0.9","FL","26fmzvup9c","1280","720","0","1","0","5e94262948e806768dfa43ed","","null","","","","","","","learning/Slide10.JPG","null","","","","","",""
"html-keyboard-response","34","169328","0.0-5.0-1.9","FL","26fmzvup9c","1280","720","0","1","0","5e94262948e806768dfa43ed","","null","","","learningBlock1","","","","That was a dep.","null","","","","","",""
"html-keyboard-response","35","170340","0.0-5.0-2.9","FL","26fmzvup9c","1280","720","0","1","0","5e94262948e806768dfa43ed","","null","","","learningBlock1","","","","<div style=""font-size:60px;""> </div>","null","FL","learning/Slide10.JPG","That was a dep.","","",""
"image-keyboard-response","36","170517","0.0-5.0-0.10","FL","26fmzvup9c","1280","720","0","1","0","5e94262948e806768dfa43ed","","null","","","","","","","learning/Slide11.JPG","null","","","","","",""
"html-keyboard-response","37","171677","0.0-5.0-1.10","FL","26fmzvup9c","1280","720","0","1","0","5e94262948e806768dfa43ed","","null","","","learningBlock1","","","","That was a tob.","null","","","","","",""
"html-keyboard-response","38","172691","0.0-5.0-2.10","FL","26fmzvup9c","1280","720","0","1","0","5e94262948e806768dfa43ed","","null","","","learningBlock1","","","","<div style=""font-size:60px;""> </div>","null","FL","learning/Slide11.JPG","That was a tob.","","",""
"image-keyboard-response","39","172878","0.0-5.0-0.11","FL","26fmzvup9c","1280","720","0","1","0","5e94262948e806768dfa43ed","","null","","","","","","","learning/Slide12.JPG","null","","","","","",""
"html-keyboard-response","40","174049","0.0-5.0-1.11","FL","26fmzvup9c","1280","720","0","1","0","5e94262948e806768dfa43ed","","null","","","learningBlock1","","","","That was a dep.","null","","","","","",""
"html-keyboard-response","41","175059","0.0-5.0-2.11","FL","26fmzvup9c","1280","720","0","1","0","5e94262948e806768dfa43ed","","null","","","learningBlock1","","","","<div style=""font-size:60px;""> </div>","null","FL","learning/Slide12.JPG","That was a dep.","","",""
"image-keyboard-response","42","175238","0.0-5.0-0.12","FL","26fmzvup9c","1280","720","0","1","0","5e94262948e806768dfa43ed","","null","","","","","","","learning/Slide13.JPG","null","","","","","",""
"html-keyboard-response","43","176403","0.0-5.0-1.12","FL","26fmzvup9c","1280","720","0","1","0","5e94262948e806768dfa43ed","","null","","","learningBlock1","","","","That was a bim.","null","","","","","",""
"html-keyboard-response","44","177419","0.0-5.0-2.12","FL","26fmzvup9c","1280","720","0","1","0","5e94262948e806768dfa43ed","","null","","","learningBlock1","","","","<div style=""font-size:60px;""> </div>","null","FL","learning/Slide13.JPG","That was a bim.","","",""
"image-keyboard-response","45","177606","0.0-5.0-0.13","FL","26fmzvup9c","1280","720","0","1","0","5e94262948e806768dfa43ed","","null","","","","","","","learning/Slide14.JPG","null","","","","","",""
"html-keyboard-response","46","178759","0.0-5.0-1.13","FL","26fmzvup9c","1280","720","0","1","0","5e94262948e806768dfa43ed","","null","","","learningBlock1","","","","That was a wug.","null","","","","","",""
"html-keyboard-response","47","179773","0.0-5.0-2.13","FL","26fmzvup9c","1280","720","0","1","0","5e94262948e806768dfa43ed","","null","","","learningBlock1","","","","<div style=""font-size:60px;""> </div>","null","FL","learning/Slide14.JPG","That was a wug.","","",""
"image-keyboard-response","48","179960","0.0-5.0-0.14","FL","26fmzvup9c","1280","720","0","1","0","5e94262948e806768dfa43ed","","null","","","","","","","learning/Slide15.JPG","null","","","","","",""
"html-keyboard-response","49","181129","0.0-5.0-1.14","FL","26fmzvup9c","1280","720","0","1","0","5e94262948e806768dfa43ed","","null","","","learningBlock1","","","","That was a tob.","null","","","","","",""
"html-keyboard-response","50","182145","0.0-5.0-2.14","FL","26fmzvup9c","1280","720","0","1","0","5e94262948e806768dfa43ed","","null","","","learningBlock1","","","","<div style=""font-size:60px;""> </div>","null","FL","learning/Slide15.JPG","That was a tob.","","",""
"image-keyboard-response","51","182332","0.0-5.0-0.15","FL","26fmzvup9c","1280","720","0","1","0","5e94262948e806768dfa43ed","","null","","","","","","","learning/Slide16.JPG","null","","","","","",""
"html-keyboard-response","52","183505","0.0-5.0-1.15","FL","26fmzvup9c","1280","720","0","1","0","5e94262948e806768dfa43ed","","null","","","learningBlock1","","","","That was a dep.","null","","","","","",""
"html-keyboard-response","53","184516","0.0-5.0-2.15","FL","26fmzvup9c","1280","720","0","1","0","5e94262948e806768dfa43ed","","null","","","learningBlock1","","","","<div style=""font-size:60px;""> </div>","null","FL","learning/Slide16.JPG","That was a dep.","","",""
"image-keyboard-response","54","184702","0.0-5.0-0.16","FL","26fmzvup9c","1280","720","0","1","0","5e94262948e806768dfa43ed","","null","","","","","","","learning/Slide17.JPG","null","","","","","",""
"html-keyboard-response","55","185872","0.0-5.0-1.16","FL","26fmzvup9c","1280","720","0","1","0","5e94262948e806768dfa43ed","","null","","","learningBlock1","","","","That was a bim.","null","","","","","",""
"html-keyboard-response","56","186887","0.0-5.0-2.16","FL","26fmzvup9c","1280","720","0","1","0","5e94262948e806768dfa43ed","","null","","","learningBlock1","","","","<div style=""font-size:60px;""> </div>","null","FL","learning/Slide17.JPG","That was a bim.","","",""
"image-keyboard-response","57","187075","0.0-5.0-0.17","FL","26fmzvup9c","1280","720","0","1","0","5e94262948e806768dfa43ed","","null","","","","","","","learning/Slide18.JPG","null","","","","","",""
"html-keyboard-response","58","188244","0.0-5.0-1.17","FL","26fmzvup9c","1280","720","0","1","0","5e94262948e806768dfa43ed","","null","","","learningBlock1","","","","That was a tob.","null","","","","","",""
"html-keyboard-response","59","189260","0.0-5.0-2.17","FL","26fmzvup9c","1280","720","0","1","0","5e94262948e806768dfa43ed","","null","","","learningBlock1","","","","<div style=""font-size:60px;""> </div>","null","FL","learning/Slide18.JPG","That was a tob.","","",""
"image-keyboard-response","60","189437","0.0-5.0-0.18","FL","26fmzvup9c","1280","720","0","1","0","5e94262948e806768dfa43ed","","null","","","","","","","learning/Slide19.JPG","null","","","","","",""
"html-keyboard-response","61","190590","0.0-5.0-1.18","FL","26fmzvup9c","1280","720","0","1","0","5e94262948e806768dfa43ed","","null","","","learningBlock1","","","","That was a wug.","null","","","","","",""
"html-keyboard-response","62","191606","0.0-5.0-2.18","FL","26fmzvup9c","1280","720","0","1","0","5e94262948e806768dfa43ed","","null","","","learningBlock1","","","","<div style=""font-size:60px;""> </div>","null","FL","learning/Slide19.JPG","That was a wug.","","",""
"image-keyboard-response","63","191783","0.0-5.0-0.19","FL","26fmzvup9c","1280","720","0","1","0","5e94262948e806768dfa43ed","","null","","","","","","","learning/Slide20.JPG","null","","","","","",""
"html-keyboard-response","64","192938","0.0-5.0-1.19","FL","26fmzvup9c","1280","720","0","1","0","5e94262948e806768dfa43ed","","null","","","learningBlock1","","","","That was a bim.","null","","","","","",""
"html-keyboard-response","65","193943","0.0-5.0-2.19","FL","26fmzvup9c","1280","720","0","1","0","5e94262948e806768dfa43ed","","null","","","learningBlock1","","","","<div style=""font-size:60px;""> </div>","null","FL","learning/Slide20.JPG","That was a bim.","","",""
"image-keyboard-response","66","194129","0.0-5.0-0.20","FL","26fmzvup9c","1280","720","0","1","0","5e94262948e806768dfa43ed","","null","","","","","","","learning/Slide21.JPG","null","","","","","",""
"html-keyboard-response","67","195289","0.0-5.0-1.20","FL","26fmzvup9c","1280","720","0","1","0","5e94262948e806768dfa43ed","","null","","","learningBlock1","","","","That was a dep.","null","","","","","",""
"html-keyboard-response","68","196291","0.0-5.0-2.20","FL","26fmzvup9c","1280","720","0","1","0","5e94262948e806768dfa43ed","","null","","","learningBlock1","","","","<div style=""font-size:60px;""> </div>","null","FL","learning/Slide21.JPG","That was a dep.","","",""
"image-keyboard-response","69","196485","0.0-5.0-0.21","FL","26fmzvup9c","1280","720","0","1","0","5e94262948e806768dfa43ed","","null","","","","","","","learning/Slide22.JPG","null","","","","","",""
"html-keyboard-response","70","197646","0.0-5.0-1.21","FL","26fmzvup9c","1280","720","0","1","0","5e94262948e806768dfa43ed","","null","","","learningBlock1","","","","That was a bim.","null","","","","","",""
"html-keyboard-response","71","198660","0.0-5.0-2.21","FL","26fmzvup9c","1280","720","0","1","0","5e94262948e806768dfa43ed","","null","","","learningBlock1","","","","<div style=""font-size:60px;""> </div>","null","FL","learning/Slide22.JPG","That was a bim.","","",""
"image-keyboard-response","72","198837","0.0-5.0-0.22","FL","26fmzvup9c","1280","720","0","1","0","5e94262948e806768dfa43ed","","null","","","","","","","learning/Slide23.JPG","null","","","","","",""
"html-keyboard-response","73","200003","0.0-5.0-1.22","FL","26fmzvup9c","1280","720","0","1","0","5e94262948e806768dfa43ed","","null","","","learningBlock1","","","","That was a tob.","null","","","","","",""
"html-keyboard-response","74","201006","0.0-5.0-2.22","FL","26fmzvup9c","1280","720","0","1","0","5e94262948e806768dfa43ed","","null","","","learningBlock1","","","","<div style=""font-size:60px;""> </div>","null","FL","learning/Slide23.JPG","That was a tob.","","",""
"image-keyboard-response","75","201193","0.0-5.0-0.23","FL","26fmzvup9c","1280","720","0","1","0","5e94262948e806768dfa43ed","","null","","","","","","","learning/Slide24.JPG","null","","","","","",""
"html-keyboard-response","76","202347","0.0-5.0-1.23","FL","26fmzvup9c","1280","720","0","1","0","5e94262948e806768dfa43ed","","null","","","learningBlock1","","","","That was a wug.","null","","","","","",""
"html-keyboard-response","77","203350","0.0-5.0-2.23","FL","26fmzvup9c","1280","720","0","1","0","5e94262948e806768dfa43ed","","null","","","learningBlock1","","","","<div style=""font-size:60px;""> </div>","null","FL","learning/Slide24.JPG","That was a wug.","","",""
"image-keyboard-response","78","203536","0.0-5.0-0.24","FL","26fmzvup9c","1280","720","0","1","0","5e94262948e806768dfa43ed","","null","","","","","","","learning/Slide25.JPG","null","","","","","",""
"html-keyboard-response","79","204692","0.0-5.0-1.24","FL","26fmzvup9c","1280","720","0","1","0","5e94262948e806768dfa43ed","","null","","","learningBlock1","","","","That was a dep.","null","","","","","",""
"html-keyboard-response","80","205707","0.0-5.0-2.24","FL","26fmzvup9c","1280","720","0","1","0","5e94262948e806768dfa43ed","","null","","","learningBlock1","","","","<div style=""font-size:60px;""> </div>","null","FL","learning/Slide25.JPG","That was a dep.","","",""
"image-keyboard-response","81","205884","0.0-5.0-0.25","FL","26fmzvup9c","1280","720","0","1","0","5e94262948e806768dfa43ed","","null","","","","","","","learning/Slide26.JPG","null","","","","","",""
"html-keyboard-response","82","207064","0.0-5.0-1.25","FL","26fmzvup9c","1280","720","0","1","0","5e94262948e806768dfa43ed","","null","","","learningBlock1","","","","That was a wug.","null","","","","","",""
"html-keyboard-response","83","208081","0.0-5.0-2.25","FL","26fmzvup9c","1280","720","0","1","0","5e94262948e806768dfa43ed","","null","","","learningBlock1","","","","<div style=""font-size:60px;""> </div>","null","FL","learning/Slide26.JPG","That was a wug.","","",""
"image-keyboard-response","84","208267","0.0-5.0-0.26","FL","26fmzvup9c","1280","720","0","1","0","5e94262948e806768dfa43ed","","null","","","","","","","learning/Slide27.JPG","null","","","","","",""
"html-keyboard-response","85","209435","0.0-5.0-1.26","FL","26fmzvup9c","1280","720","0","1","0","5e94262948e806768dfa43ed","","null","","","learningBlock1","","","","That was a bim.","null","","","","","",""
"html-keyboard-response","86","210444","0.0-5.0-2.26","FL","26fmzvup9c","1280","720","0","1","0","5e94262948e806768dfa43ed","","null","","","learningBlock1","","","","<div style=""font-size:60px;""> </div>","null","FL","learning/Slide27.JPG","That was a bim.","","",""
"image-keyboard-response","87","210622","0.0-5.0-0.27","FL","26fmzvup9c","1280","720","0","1","0","5e94262948e806768dfa43ed","","null","","","","","","","learning/Slide28.JPG","null","","","","","",""
"html-keyboard-response","88","211785","0.0-5.0-1.27","FL","26fmzvup9c","1280","720","0","1","0","5e94262948e806768dfa43ed","","null","","","learningBlock1","","","","That was a dep.","null","","","","","",""
"html-keyboard-response","89","212788","0.0-5.0-2.27","FL","26fmzvup9c","1280","720","0","1","0","5e94262948e806768dfa43ed","","null","","","learningBlock1","","","","<div style=""font-size:60px;""> </div>","null","FL","learning/Slide28.JPG","That was a dep.","","",""
"image-keyboard-response","90","212976","0.0-5.0-0.28","FL","26fmzvup9c","1280","720","0","1","0","5e94262948e806768dfa43ed","","null","","","","","","","learning/Slide29.JPG","null","","","","","",""
"html-keyboard-response","91","214142","0.0-5.0-1.28","FL","26fmzvup9c","1280","720","0","1","0","5e94262948e806768dfa43ed","","null","","","learningBlock1","","","","That was a tob.","null","","","","","",""
"html-keyboard-response","92","215158","0.0-5.0-2.28","FL","26fmzvup9c","1280","720","0","1","0","5e94262948e806768dfa43ed","","null","","","learningBlock1","","","","<div style=""font-size:60px;""> </div>","null","FL","learning/Slide29.JPG","That was a tob.","","",""
"image-keyboard-response","93","215344","0.0-5.0-0.29","FL","26fmzvup9c","1280","720","0","1","0","5e94262948e806768dfa43ed","","null","","","","","","","learning/Slide30.JPG","null","","","","","",""
"html-keyboard-response","94","216511","0.0-5.0-1.29","FL","26fmzvup9c","1280","720","0","1","0","5e94262948e806768dfa43ed","","null","","","learningBlock1","","","","That was a dep.","null","","","","","",""
"html-keyboard-response","95","217524","0.0-5.0-2.29","FL","26fmzvup9c","1280","720","0","1","0","5e94262948e806768dfa43ed","","null","","","learningBlock1","","","","<div style=""font-size:60px;""> </div>","null","FL","learning/Slide30.JPG","That was a dep.","","",""
"image-keyboard-response","96","217700","0.0-5.0-0.30","FL","26fmzvup9c","1280","720","0","1","0","5e94262948e806768dfa43ed","","null","","","","","","","learning/Slide31.JPG","null","","","","","",""
"html-keyboard-response","97","218864","0.0-5.0-1.30","FL","26fmzvup9c","1280","720","0","1","0","5e94262948e806768dfa43ed","","null","","","learningBlock1","","","","That was a wug.","null","","","","","",""
"html-keyboard-response","98","219876","0.0-5.0-2.30","FL","26fmzvup9c","1280","720","0","1","0","5e94262948e806768dfa43ed","","null","","","learningBlock1","","","","<div style=""font-size:60px;""> </div>","null","FL","learning/Slide31.JPG","That was a wug.","","",""
"image-keyboard-response","99","220053","0.0-5.0-0.31","FL","26fmzvup9c","1280","720","0","1","0","5e94262948e806768dfa43ed","","null","","","","","","","learning/Slide32.JPG","null","","","","","",""
"html-keyboard-response","100","221218","0.0-5.0-1.31","FL","26fmzvup9c","1280","720","0","1","0","5e94262948e806768dfa43ed","","null","","","learningBlock1","","","","That was a tob.","null","","","","","",""
"html-keyboard-response","101","222233","0.0-5.0-2.31","FL","26fmzvup9c","1280","720","0","1","0","5e94262948e806768dfa43ed","","null","","","learningBlock1","","","","<div style=""font-size:60px;""> </div>","null","FL","learning/Slide32.JPG","That was a tob.","","",""
"image-keyboard-response","102","222410","0.0-5.0-0.32","FL","26fmzvup9c","1280","720","0","1","0","5e94262948e806768dfa43ed","","null","","","","","","","learning/Slide33.JPG","null","","","","","",""
"html-keyboard-response","103","223586","0.0-5.0-1.32","FL","26fmzvup9c","1280","720","0","1","0","5e94262948e806768dfa43ed","","null","","","learningBlock1","","","","That was a bim.","null","","","","","",""
"html-keyboard-response","104","224600","0.0-5.0-2.32","FL","26fmzvup9c","1280","720","0","1","0","5e94262948e806768dfa43ed","","null","","","learningBlock1","","","","<div style=""font-size:60px;""> </div>","null","FL","learning/Slide33.JPG","That was a bim.","","",""
"image-keyboard-response","105","224788","0.0-5.0-0.33","FL","26fmzvup9c","1280","720","0","1","0","5e94262948e806768dfa43ed","","null","","","","","","","learning/Slide34.JPG","null","","","","","",""
"html-keyboard-response","106","225958","0.0-5.0-1.33","FL","26fmzvup9c","1280","720","0","1","0","5e94262948e806768dfa43ed","","null","","","learningBlock1","","","","That was a tob.","null","","","","","",""
"html-keyboard-response","107","226972","0.0-5.0-2.33","FL","26fmzvup9c","1280","720","0","1","0","5e94262948e806768dfa43ed","","null","","","learningBlock1","","","","<div style=""font-size:60px;""> </div>","null","FL","learning/Slide34.JPG","That was a tob.","","",""
"image-keyboard-response","108","227159","0.0-5.0-0.34","FL","26fmzvup9c","1280","720","0","1","0","5e94262948e806768dfa43ed","","null","","","","","","","learning/Slide35.JPG","null","","","","","",""
"html-keyboard-response","109","228330","0.0-5.0-1.34","FL","26fmzvup9c","1280","720","0","1","0","5e94262948e806768dfa43ed","","null","","","learningBlock1","","","","That was a bim.","null","","","","","",""
"html-keyboard-response","110","229341","0.0-5.0-2.34","FL","26fmzvup9c","1280","720","0","1","0","5e94262948e806768dfa43ed","","null","","","learningBlock1","","","","<div style=""font-size:60px;""> </div>","null","FL","learning/Slide35.JPG","That was a bim.","","",""
"image-keyboard-response","111","229529","0.0-5.0-0.35","FL","26fmzvup9c","1280","720","0","1","0","5e94262948e806768dfa43ed","","null","","","","","","","learning/Slide36.JPG","null","","","","","",""
"html-keyboard-response","112","230684","0.0-5.0-1.35","FL","26fmzvup9c","1280","720","0","1","0","5e94262948e806768dfa43ed","","null","","","learningBlock1","","","","That was a dep.","null","","","","","",""
"html-keyboard-response","113","231694","0.0-5.0-2.35","FL","26fmzvup9c","1280","720","0","1","0","5e94262948e806768dfa43ed","","null","","","learningBlock1","","","","<div style=""font-size:60px;""> </div>","null","FL","learning/Slide36.JPG","That was a dep.","","",""
"image-keyboard-response","114","231882","0.0-5.0-0.36","FL","26fmzvup9c","1280","720","0","1","0","5e94262948e806768dfa43ed","","null","","","","","","","learning/Slide37.JPG","null","","","","","",""
"html-keyboard-response","115","233049","0.0-5.0-1.36","FL","26fmzvup9c","1280","720","0","1","0","5e94262948e806768dfa43ed","","null","","","learningBlock1","","","","That was a tob.","null","","","","","",""
"html-keyboard-response","116","234061","0.0-5.0-2.36","FL","26fmzvup9c","1280","720","0","1","0","5e94262948e806768dfa43ed","","null","","","learningBlock1","","","","<div style=""font-size:60px;""> </div>","null","FL","learning/Slide37.JPG","That was a tob.","","",""
"image-keyboard-response","117","234239","0.0-5.0-0.37","FL","26fmzvup9c","1280","720","0","1","0","5e94262948e806768dfa43ed","","null","","","","","","","learning/Slide38.JPG","null","","","","","",""
"html-keyboard-response","118","235395","0.0-5.0-1.37","FL","26fmzvup9c","1280","720","0","1","0","5e94262948e806768dfa43ed","","null","","","learningBlock1","","","","That was a wug.","null","","","","","",""
"html-keyboard-response","119","236406","0.0-5.0-2.37","FL","26fmzvup9c","1280","720","0","1","0","5e94262948e806768dfa43ed","","null","","","learningBlock1","","","","<div style=""font-size:60px;""> </div>","null","FL","learning/Slide38.JPG","That was a wug.","","",""
"image-keyboard-response","120","236592","0.0-5.0-0.38","FL","26fmzvup9c","1280","720","0","1","0","5e94262948e806768dfa43ed","","null","","","","","","","learning/Slide39.JPG","null","","","","","",""
"html-keyboard-response","121","237749","0.0-5.0-1.38","FL","26fmzvup9c","1280","720","0","1","0","5e94262948e806768dfa43ed","","null","","","learningBlock1","","","","That was a bim.","null","","","","","",""
"html-keyboard-response","122","238763","0.0-5.0-2.38","FL","26fmzvup9c","1280","720","0","1","0","5e94262948e806768dfa43ed","","null","","","learningBlock1","","","","<div style=""font-size:60px;""> </div>","null","FL","learning/Slide39.JPG","That was a bim.","","",""
"image-keyboard-response","123","238940","0.0-5.0-0.39","FL","26fmzvup9c","1280","720","0","1","0","5e94262948e806768dfa43ed","","null","","","","","","","learning/Slide40.JPG","null","","","","","",""
"html-keyboard-response","124","240093","0.0-5.0-1.39","FL","26fmzvup9c","1280","720","0","1","0","5e94262948e806768dfa43ed","","null","","","learningBlock1","","","","That was a tob.","null","","","","","",""
"html-keyboard-response","125","241099","0.0-5.0-2.39","FL","26fmzvup9c","1280","720","0","1","0","5e94262948e806768dfa43ed","","null","","","learningBlock1","","","","<div style=""font-size:60px;""> </div>","null","FL","learning/Slide40.JPG","That was a tob.","","",""
"image-keyboard-response","126","241277","0.0-5.0-0.40","FL","26fmzvup9c","1280","720","0","1","0","5e94262948e806768dfa43ed","","null","","","","","","","learning/Slide41.JPG","null","","","","","",""
"html-keyboard-response","127","242454","0.0-5.0-1.40","FL","26fmzvup9c","1280","720","0","1","0","5e94262948e806768dfa43ed","","null","","","learningBlock1","","","","That was a bim.","null","","","","","",""
"html-keyboard-response","128","243456","0.0-5.0-2.40","FL","26fmzvup9c","1280","720","0","1","0","5e94262948e806768dfa43ed","","null","","","learningBlock1","","","","<div style=""font-size:60px;""> </div>","null","FL","learning/Slide41.JPG","That was a bim.","","",""
"image-keyboard-response","129","243642","0.0-5.0-0.41","FL","26fmzvup9c","1280","720","0","1","0","5e94262948e806768dfa43ed","","null","","","","","","","learning/Slide42.JPG","null","","","","","",""
"html-keyboard-response","130","244801","0.0-5.0-1.41","FL","26fmzvup9c","1280","720","0","1","0","5e94262948e806768dfa43ed","","null","","","learningBlock1","","","","That was a dep.","null","","","","","",""
"html-keyboard-response","131","245814","0.0-5.0-2.41","FL","26fmzvup9c","1280","720","0","1","0","5e94262948e806768dfa43ed","","null","","","learningBlock1","","","","<div style=""font-size:60px;""> </div>","null","FL","learning/Slide42.JPG","That was a dep.","","",""
"image-keyboard-response","132","245992","0.0-5.0-0.42","FL","26fmzvup9c","1280","720","0","1","0","5e94262948e806768dfa43ed","","null","","","","","","","learning/Slide43.JPG","null","","","","","",""
"html-keyboard-response","133","247151","0.0-5.0-1.42","FL","26fmzvup9c","1280","720","0","1","0","5e94262948e806768dfa43ed","","null","","","learningBlock1","","","","That was a wug.","null","","","","","",""
"html-keyboard-response","134","248162","0.0-5.0-2.42","FL","26fmzvup9c","1280","720","0","1","0","5e94262948e806768dfa43ed","","null","","","learningBlock1","","","","<div style=""font-size:60px;""> </div>","null","FL","learning/Slide43.JPG","That was a wug.","","",""
"image-keyboard-response","135","248339","0.0-5.0-0.43","FL","26fmzvup9c","1280","720","0","1","0","5e94262948e806768dfa43ed","","null","","","","","","","learning/Slide44.JPG","null","","","","","",""
"html-keyboard-response","136","249501","0.0-5.0-1.43","FL","26fmzvup9c","1280","720","0","1","0","5e94262948e806768dfa43ed","","null","","","learningBlock1","","","","That was a bim.","null","","","","","",""
"html-keyboard-response","137","250516","0.0-5.0-2.43","FL","26fmzvup9c","1280","720","0","1","0","5e94262948e806768dfa43ed","","null","","","learningBlock1","","","","<div style=""font-size:60px;""> </div>","null","FL","learning/Slide44.JPG","That was a bim.","","",""
"image-keyboard-response","138","250707","0.0-5.0-0.44","FL","26fmzvup9c","1280","720","0","1","0","5e94262948e806768dfa43ed","","null","","","","","","","learning/Slide45.JPG","null","","","","","",""
"html-keyboard-response","139","251868","0.0-5.0-1.44","FL","26fmzvup9c","1280","720","0","1","0","5e94262948e806768dfa43ed","","null","","","learningBlock1","","","","That was a wug.","null","","","","","",""
"html-keyboard-response","140","252870","0.0-5.0-2.44","FL","26fmzvup9c","1280","720","0","1","0","5e94262948e806768dfa43ed","","null","","","learningBlock1","","","","<div style=""font-size:60px;""> </div>","null","FL","learning/Slide45.JPG","That was a wug.","","",""
"image-keyboard-response","141","253048","0.0-5.0-0.45","FL","26fmzvup9c","1280","720","0","1","0","5e94262948e806768dfa43ed","","null","","","","","","","learning/Slide46.JPG","null","","","","","",""
"html-keyboard-response","142","254224","0.0-5.0-1.45","FL","26fmzvup9c","1280","720","0","1","0","5e94262948e806768dfa43ed","","null","","","learningBlock1","","","","That was a dep.","null","","","","","",""
"html-keyboard-response","143","255240","0.0-5.0-2.45","FL","26fmzvup9c","1280","720","0","1","0","5e94262948e806768dfa43ed","","null","","","learningBlock1","","","","<div style=""font-size:60px;""> </div>","null","FL","learning/Slide46.JPG","That was a dep.","","",""
"image-keyboard-response","144","255429","0.0-5.0-0.46","FL","26fmzvup9c","1280","720","0","1","0","5e94262948e806768dfa43ed","","null","","","","","","","learning/Slide47.JPG","null","","","","","",""
"html-keyboard-response","145","256611","0.0-5.0-1.46","FL","26fmzvup9c","1280","720","0","1","0","5e94262948e806768dfa43ed","","null","","","learningBlock1","","","","That was a tob.","null","","","","","",""
"html-keyboard-response","146","257622","0.0-5.0-2.46","FL","26fmzvup9c","1280","720","0","1","0","5e94262948e806768dfa43ed","","null","","","learningBlock1","","","","<div style=""font-size:60px;""> </div>","null","FL","learning/Slide47.JPG","That was a tob.","","",""
"image-keyboard-response","147","257810","0.0-5.0-0.47","FL","26fmzvup9c","1280","720","0","1","0","5e94262948e806768dfa43ed","","null","","","","","","","learning/Slide48.JPG","null","","","","","",""
"html-keyboard-response","148","258980","0.0-5.0-1.47","FL","26fmzvup9c","1280","720","0","1","0","5e94262948e806768dfa43ed","","null","","","learningBlock1","","","","That was a bim.","null","","","","","",""
"html-keyboard-response","149","259995","0.0-5.0-2.47","FL","26fmzvup9c","1280","720","0","1","0","5e94262948e806768dfa43ed","","null","","","learningBlock1","","","","<div style=""font-size:60px;""> </div>","null","FL","learning/Slide48.JPG","That was a bim.","","",""
"image-keyboard-response","150","260172","0.0-5.0-0.48","FL","26fmzvup9c","1280","720","0","1","0","5e94262948e806768dfa43ed","","null","","","","","","","learning/Slide49.JPG","null","","","","","",""
"html-keyboard-response","151","261334","0.0-5.0-1.48","FL","26fmzvup9c","1280","720","0","1","0","5e94262948e806768dfa43ed","","null","","","learningBlock1","","","","That was a dep.","null","","","","","",""
"html-keyboard-response","152","262348","0.0-5.0-2.48","FL","26fmzvup9c","1280","720","0","1","0","5e94262948e806768dfa43ed","","null","","","learningBlock1","","","","<div style=""font-size:60px;""> </div>","null","FL","learning/Slide49.JPG","That was a dep.","","",""
"image-keyboard-response","153","262525","0.0-5.0-0.49","FL","26fmzvup9c","1280","720","0","1","0","5e94262948e806768dfa43ed","","null","","","","","","","learning/Slide50.JPG","null","","","","","",""
"html-keyboard-response","154","263688","0.0-5.0-1.49","FL","26fmzvup9c","1280","720","0","1","0","5e94262948e806768dfa43ed","","null","","","learningBlock1","","","","That was a tob.","null","","","","","",""
"html-keyboard-response","155","264700","0.0-5.0-2.49","FL","26fmzvup9c","1280","720","0","1","0","5e94262948e806768dfa43ed","","null","","","learningBlock1","","","","<div style=""font-size:60px;""> </div>","null","FL","learning/Slide50.JPG","That was a tob.","","",""
"image-keyboard-response","156","264886","0.0-5.0-0.50","FL","26fmzvup9c","1280","720","0","1","0","5e94262948e806768dfa43ed","","null","","","","","","","learning/Slide51.JPG","null","","","","","",""
"html-keyboard-response","157","266053","0.0-5.0-1.50","FL","26fmzvup9c","1280","720","0","1","0","5e94262948e806768dfa43ed","","null","","","learningBlock1","","","","That was a bim.","null","","","","","",""
"html-keyboard-response","158","267067","0.0-5.0-2.50","FL","26fmzvup9c","1280","720","0","1","0","5e94262948e806768dfa43ed","","null","","","learningBlock1","","","","<div style=""font-size:60px;""> </div>","null","FL","learning/Slide51.JPG","That was a bim.","","",""
"image-keyboard-response","159","267255","0.0-5.0-0.51","FL","26fmzvup9c","1280","720","0","1","0","5e94262948e806768dfa43ed","","null","","","","","","","learning/Slide52.JPG","null","","","","","",""
"html-keyboard-response","160","268425","0.0-5.0-1.51","FL","26fmzvup9c","1280","720","0","1","0","5e94262948e806768dfa43ed","","null","","","learningBlock1","","","","That was a wug.","null","","","","","",""
"html-keyboard-response","161","269426","0.0-5.0-2.51","FL","26fmzvup9c","1280","720","0","1","0","5e94262948e806768dfa43ed","","null","","","learningBlock1","","","","<div style=""font-size:60px;""> </div>","null","FL","learning/Slide52.JPG","That was a wug.","","",""
"image-keyboard-response","162","269604","0.0-5.0-0.52","FL","26fmzvup9c","1280","720","0","1","0","5e94262948e806768dfa43ed","","null","","","","","","","learning/Slide53.JPG","null","","","","","",""
"html-keyboard-response","163","270761","0.0-5.0-1.52","FL","26fmzvup9c","1280","720","0","1","0","5e94262948e806768dfa43ed","","null","","","learningBlock1","","","","That was a tob.","null","","","","","",""
"html-keyboard-response","164","271763","0.0-5.0-2.52","FL","26fmzvup9c","1280","720","0","1","0","5e94262948e806768dfa43ed","","null","","","learningBlock1","","","","<div style=""font-size:60px;""> </div>","null","FL","learning/Slide53.JPG","That was a tob.","","",""
"image-keyboard-response","165","271944","0.0-5.0-0.53","FL","26fmzvup9c","1280","720","0","1","0","5e94262948e806768dfa43ed","","null","","","","","","","learning/Slide54.JPG","null","","","","","",""
"html-keyboard-response","166","273116","0.0-5.0-1.53","FL","26fmzvup9c","1280","720","0","1","0","5e94262948e806768dfa43ed","","null","","","learningBlock1","","","","That was a dep.","null","","","","","",""
"html-keyboard-response","167","274130","0.0-5.0-2.53","FL","26fmzvup9c","1280","720","0","1","0","5e94262948e806768dfa43ed","","null","","","learningBlock1","","","","<div style=""font-size:60px;""> </div>","null","FL","learning/Slide54.JPG","That was a dep.","","",""
"image-keyboard-response","168","274307","0.0-5.0-0.54","FL","26fmzvup9c","1280","720","0","1","0","5e94262948e806768dfa43ed","","null","","","","","","","learning/Slide55.JPG","null","","","","","",""
"html-keyboard-response","169","275460","0.0-5.0-1.54","FL","26fmzvup9c","1280","720","0","1","0","5e94262948e806768dfa43ed","","null","","","learningBlock1","","","","That was a bim.","null","","","","","",""
"html-keyboard-response","170","276471","0.0-5.0-2.54","FL","26fmzvup9c","1280","720","0","1","0","5e94262948e806768dfa43ed","","null","","","learningBlock1","","","","<div style=""font-size:60px;""> </div>","null","FL","learning/Slide55.JPG","That was a bim.","","",""
"image-keyboard-response","171","276657","0.0-5.0-0.55","FL","26fmzvup9c","1280","720","0","1","0","5e94262948e806768dfa43ed","","null","","","","","","","learning/Slide56.JPG","null","","","","","",""
"html-keyboard-response","172","277813","0.0-5.0-1.55","FL","26fmzvup9c","1280","720","0","1","0","5e94262948e806768dfa43ed","","null","","","learningBlock1","","","","That was a tob.","null","","","","","",""
"html-keyboard-response","173","278825","0.0-5.0-2.55","FL","26fmzvup9c","1280","720","0","1","0","5e94262948e806768dfa43ed","","null","","","learningBlock1","","","","<div style=""font-size:60px;""> </div>","null","FL","learning/Slide56.JPG","That was a tob.","","",""
"image-keyboard-response","174","279013","0.0-5.0-0.56","FL","26fmzvup9c","1280","720","0","1","0","5e94262948e806768dfa43ed","","null","","","","","","","learning/Slide57.JPG","null","","","","","",""
"html-keyboard-response","175","280184","0.0-5.0-1.56","FL","26fmzvup9c","1280","720","0","1","0","5e94262948e806768dfa43ed","","null","","","learningBlock1","","","","That was a dep.","null","","","","","",""
"html-keyboard-response","176","281197","0.0-5.0-2.56","FL","26fmzvup9c","1280","720","0","1","0","5e94262948e806768dfa43ed","","null","","","learningBlock1","","","","<div style=""font-size:60px;""> </div>","null","FL","learning/Slide57.JPG","That was a dep.","","",""
"image-keyboard-response","177","281384","0.0-5.0-0.57","FL","26fmzvup9c","1280","720","0","1","0","5e94262948e806768dfa43ed","","null","","","","","","","learning/Slide58.JPG","null","","","","","",""
"html-keyboard-response","178","282538","0.0-5.0-1.57","FL","26fmzvup9c","1280","720","0","1","0","5e94262948e806768dfa43ed","","null","","","learningBlock1","","","","That was a wug.","null","","","","","",""
"html-keyboard-response","179","283552","0.0-5.0-2.57","FL","26fmzvup9c","1280","720","0","1","0","5e94262948e806768dfa43ed","","null","","","learningBlock1","","","","<div style=""font-size:60px;""> </div>","null","FL","learning/Slide58.JPG","That was a wug.","","",""
"image-keyboard-response","180","283732","0.0-5.0-0.58","FL","26fmzvup9c","1280","720","0","1","0","5e94262948e806768dfa43ed","","null","","","","","","","learning/Slide59.JPG","null","","","","","",""
"html-keyboard-response","181","284899","0.0-5.0-1.58","FL","26fmzvup9c","1280","720","0","1","0","5e94262948e806768dfa43ed","","null","","","learningBlock1","","","","That was a dep.","null","","","","","",""
"html-keyboard-response","182","285914","0.0-5.0-2.58","FL","26fmzvup9c","1280","720","0","1","0","5e94262948e806768dfa43ed","","null","","","learningBlock1","","","","<div style=""font-size:60px;""> </div>","null","FL","learning/Slide59.JPG","That was a dep.","","",""
"image-keyboard-response","183","286101","0.0-5.0-0.59","FL","26fmzvup9c","1280","720","0","1","0","5e94262948e806768dfa43ed","","null","","","","","","","learning/Slide60.JPG","null","","","","","",""
"html-keyboard-response","184","287259","0.0-5.0-1.59","FL","26fmzvup9c","1280","720","0","1","0","5e94262948e806768dfa43ed","","null","","","learningBlock1","","","","That was a wug.","null","","","","","",""
"html-keyboard-response","185","288273","0.0-5.0-2.59","FL","26fmzvup9c","1280","720","0","1","0","5e94262948e806768dfa43ed","","null","","","learningBlock1","","","","<div style=""font-size:60px;""> </div>","null","FL","learning/Slide60.JPG","That was a wug.","","",""
"image-keyboard-response","186","288450","0.0-5.0-0.60","FL","26fmzvup9c","1280","720","0","1","0","5e94262948e806768dfa43ed","","null","","","","","","","learning/Slide61.JPG","null","","","","","",""
"html-keyboard-response","187","289626","0.0-5.0-1.60","FL","26fmzvup9c","1280","720","0","1","0","5e94262948e806768dfa43ed","","null","","","learningBlock1","","","","That was a bim.","null","","","","","",""
"html-keyboard-response","188","290638","0.0-5.0-2.60","FL","26fmzvup9c","1280","720","0","1","0","5e94262948e806768dfa43ed","","null","","","learningBlock1","","","","<div style=""font-size:60px;""> </div>","null","FL","learning/Slide61.JPG","That was a bim.","","",""
"image-keyboard-response","189","290824","0.0-5.0-0.61","FL","26fmzvup9c","1280","720","0","1","0","5e94262948e806768dfa43ed","","null","","","","","","","learning/Slide62.JPG","null","","","","","",""
"html-keyboard-response","190","291977","0.0-5.0-1.61","FL","26fmzvup9c","1280","720","0","1","0","5e94262948e806768dfa43ed","","null","","","learningBlock1","","","","That was a dep.","null","","","","","",""
"html-keyboard-response","191","292991","0.0-5.0-2.61","FL","26fmzvup9c","1280","720","0","1","0","5e94262948e806768dfa43ed","","null","","","learningBlock1","","","","<div style=""font-size:60px;""> </div>","null","FL","learning/Slide62.JPG","That was a dep.","","",""
"image-keyboard-response","192","293177","0.0-5.0-0.62","FL","26fmzvup9c","1280","720","0","1","0","5e94262948e806768dfa43ed","","null","","","","","","","learning/Slide63.JPG","null","","","","","",""
"html-keyboard-response","193","294330","0.0-5.0-1.62","FL","26fmzvup9c","1280","720","0","1","0","5e94262948e806768dfa43ed","","null","","","learningBlock1","","","","That was a bim.","null","","","","","",""
"html-keyboard-response","194","295345","0.0-5.0-2.62","FL","26fmzvup9c","1280","720","0","1","0","5e94262948e806768dfa43ed","","null","","","learningBlock1","","","","<div style=""font-size:60px;""> </div>","null","FL","learning/Slide63.JPG","That was a bim.","","",""
"image-keyboard-response","195","295522","0.0-5.0-0.63","FL","26fmzvup9c","1280","720","0","1","0","5e94262948e806768dfa43ed","","null","","","","","","","learning/Slide64.JPG","null","","","","","",""
"html-keyboard-response","196","296685","0.0-5.0-1.63","FL","26fmzvup9c","1280","720","0","1","0","5e94262948e806768dfa43ed","","null","","","learningBlock1","","","","That was a tob.","null","","","","","",""
"html-keyboard-response","197","297689","0.0-5.0-2.63","FL","26fmzvup9c","1280","720","0","1","0","5e94262948e806768dfa43ed","","null","","","learningBlock1","","","","<div style=""font-size:60px;""> </div>","null","FL","learning/Slide64.JPG","That was a tob.","","",""
"image-keyboard-response","198","297876","0.0-5.0-0.64","FL","26fmzvup9c","1280","720","0","1","0","5e94262948e806768dfa43ed","","null","","","","","","","learning/Slide65.JPG","null","","","","","",""
"html-keyboard-response","199","299031","0.0-5.0-1.64","FL","26fmzvup9c","1280","720","0","1","0","5e94262948e806768dfa43ed","","null","","","learningBlock1","","","","That was a wug.","null","","","","","",""
"html-keyboard-response","200","300037","0.0-5.0-2.64","FL","26fmzvup9c","1280","720","0","1","0","5e94262948e806768dfa43ed","","null","","","learningBlock1","","","","<div style=""font-size:60px;""> </div>","null","FL","learning/Slide65.JPG","That was a wug.","","",""
"image-keyboard-response","201","300225","0.0-5.0-0.65","FL","26fmzvup9c","1280","720","0","1","0","5e94262948e806768dfa43ed","","null","","","","","","","learning/Slide66.JPG","null","","","","","",""
"html-keyboard-response","202","301384","0.0-5.0-1.65","FL","26fmzvup9c","1280","720","0","1","0","5e94262948e806768dfa43ed","","null","","","learningBlock1","","","","That was a dep.","null","","","","","",""
"html-keyboard-response","203","302395","0.0-5.0-2.65","FL","26fmzvup9c","1280","720","0","1","0","5e94262948e806768dfa43ed","","null","","","learningBlock1","","","","<div style=""font-size:60px;""> </div>","null","FL","learning/Slide66.JPG","That was a dep.","","",""
"image-keyboard-response","204","302575","0.0-5.0-0.66","FL","26fmzvup9c","1280","720","0","1","0","5e94262948e806768dfa43ed","","null","","","","","","","learning/Slide67.JPG","null","","","","","",""
"html-keyboard-response","205","303735","0.0-5.0-1.66","FL","26fmzvup9c","1280","720","0","1","0","5e94262948e806768dfa43ed","","null","","","learningBlock1","","","","That was a tob.","null","","","","","",""
"html-keyboard-response","206","304748","0.0-5.0-2.66","FL","26fmzvup9c","1280","720","0","1","0","5e94262948e806768dfa43ed","","null","","","learningBlock1","","","","<div style=""font-size:60px;""> </div>","null","FL","learning/Slide67.JPG","That was a tob.","","",""
"image-keyboard-response","207","304934","0.0-5.0-0.67","FL","26fmzvup9c","1280","720","0","1","0","5e94262948e806768dfa43ed","","null","","","","","","","learning/Slide68.JPG","null","","","","","",""
"html-keyboard-response","208","306087","0.0-5.0-1.67","FL","26fmzvup9c","1280","720","0","1","0","5e94262948e806768dfa43ed","","null","","","learningBlock1","","","","That was a wug.","null","","","","","",""
"html-keyboard-response","209","307100","0.0-5.0-2.67","FL","26fmzvup9c","1280","720","0","1","0","5e94262948e806768dfa43ed","","null","","","learningBlock1","","","","<div style=""font-size:60px;""> </div>","null","FL","learning/Slide68.JPG","That was a wug.","","",""
"image-keyboard-response","210","307277","0.0-5.0-0.68","FL","26fmzvup9c","1280","720","0","1","0","5e94262948e806768dfa43ed","","null","","","","","","","learning/Slide69.JPG","null","","","","","",""
"html-keyboard-response","211","308455","0.0-5.0-1.68","FL","26fmzvup9c","1280","720","0","1","0","5e94262948e806768dfa43ed","","null","","","learningBlock1","","","","That was a tob.","null","","","","","",""
"html-keyboard-response","212","309471","0.0-5.0-2.68","FL","26fmzvup9c","1280","720","0","1","0","5e94262948e806768dfa43ed","","null","","","learningBlock1","","","","<div style=""font-size:60px;""> </div>","null","FL","learning/Slide69.JPG","That was a tob.","","",""
"image-keyboard-response","213","309657","0.0-5.0-0.69","FL","26fmzvup9c","1280","720","0","1","0","5e94262948e806768dfa43ed","","null","","","","","","","learning/Slide70.JPG","null","","","","","",""
"html-keyboard-response","214","310836","0.0-5.0-1.69","FL","26fmzvup9c","1280","720","0","1","0","5e94262948e806768dfa43ed","","null","","","learningBlock1","","","","That was a dep.","null","","","","","",""
"html-keyboard-response","215","311848","0.0-5.0-2.69","FL","26fmzvup9c","1280","720","0","1","0","5e94262948e806768dfa43ed","","null","","","learningBlock1","","","","<div style=""font-size:60px;""> </div>","null","FL","learning/Slide70.JPG","That was a dep.","","",""
"image-keyboard-response","216","312034","0.0-5.0-0.70","FL","26fmzvup9c","1280","720","0","1","0","5e94262948e806768dfa43ed","","null","","","","","","","learning/Slide71.JPG","null","","","","","",""
"html-keyboard-response","217","313191","0.0-5.0-1.70","FL","26fmzvup9c","1280","720","0","1","0","5e94262948e806768dfa43ed","","null","","","learningBlock1","","","","That was a wug.","null","","","","","",""
"html-keyboard-response","218","314200","0.0-5.0-2.70","FL","26fmzvup9c","1280","720","0","1","0","5e94262948e806768dfa43ed","","null","","","learningBlock1","","","","<div style=""font-size:60px;""> </div>","null","FL","learning/Slide71.JPG","That was a wug.","","",""
"image-keyboard-response","219","314387","0.0-5.0-0.71","FL","26fmzvup9c","1280","720","0","1","0","5e94262948e806768dfa43ed","","null","","","","","","","learning/Slide72.JPG","null","","","","","",""
"html-keyboard-response","220","315543","0.0-5.0-1.71","FL","26fmzvup9c","1280","720","0","1","0","5e94262948e806768dfa43ed","","null","","","learningBlock1","","","","That was a bim.","null","","","","","",""
"html-keyboard-response","221","316557","0.0-5.0-2.71","FL","26fmzvup9c","1280","720","0","1","0","5e94262948e806768dfa43ed","","null","","","learningBlock1","","","","<div style=""font-size:60px;""> </div>","null","FL","learning/Slide72.JPG","That was a bim.","","",""
"image-keyboard-response","222","316745","0.0-5.0-0.72","FL","26fmzvup9c","1280","720","0","1","0","5e94262948e806768dfa43ed","","null","","","","","","","learning/Slide73.JPG","null","","","","","",""
"html-keyboard-response","223","317900","0.0-5.0-1.72","FL","26fmzvup9c","1280","720","0","1","0","5e94262948e806768dfa43ed","","null","","","learningBlock1","","","","That was a wug.","null","","","","","",""
"html-keyboard-response","224","318913","0.0-5.0-2.72","FL","26fmzvup9c","1280","720","0","1","0","5e94262948e806768dfa43ed","","null","","","learningBlock1","","","","<div style=""font-size:60px;""> </div>","null","FL","learning/Slide73.JPG","That was a wug.","","",""
"image-keyboard-response","225","319099","0.0-5.0-0.73","FL","26fmzvup9c","1280","720","0","1","0","5e94262948e806768dfa43ed","","null","","","","","","","learning/Slide74.JPG","null","","","","","",""
"html-keyboard-response","226","320254","0.0-5.0-1.73","FL","26fmzvup9c","1280","720","0","1","0","5e94262948e806768dfa43ed","","null","","","learningBlock1","","","","That was a dep.","null","","","","","",""
"html-keyboard-response","227","321268","0.0-5.0-2.73","FL","26fmzvup9c","1280","720","0","1","0","5e94262948e806768dfa43ed","","null","","","learningBlock1","","","","<div style=""font-size:60px;""> </div>","null","FL","learning/Slide74.JPG","That was a dep.","","",""
"image-keyboard-response","228","321445","0.0-5.0-0.74","FL","26fmzvup9c","1280","720","0","1","0","5e94262948e806768dfa43ed","","null","","","","","","","learning/Slide75.JPG","null","","","","","",""
"html-keyboard-response","229","322598","0.0-5.0-1.74","FL","26fmzvup9c","1280","720","0","1","0","5e94262948e806768dfa43ed","","null","","","learningBlock1","","","","That was a tob.","null","","","","","",""
"html-keyboard-response","230","323610","0.0-5.0-2.74","FL","26fmzvup9c","1280","720","0","1","0","5e94262948e806768dfa43ed","","null","","","learningBlock1","","","","<div style=""font-size:60px;""> </div>","null","FL","learning/Slide75.JPG","That was a tob.","","",""
"image-keyboard-response","231","323788","0.0-5.0-0.75","FL","26fmzvup9c","1280","720","0","1","0","5e94262948e806768dfa43ed","","null","","","","","","","learning/Slide76.JPG","null","","","","","",""
"html-keyboard-response","232","324966","0.0-5.0-1.75","FL","26fmzvup9c","1280","720","0","1","0","5e94262948e806768dfa43ed","","null","","","learningBlock1","","","","That was a bim.","null","","","","","",""
"html-keyboard-response","233","325974","0.0-5.0-2.75","FL","26fmzvup9c","1280","720","0","1","0","5e94262948e806768dfa43ed","","null","","","learningBlock1","","","","<div style=""font-size:60px;""> </div>","null","FL","learning/Slide76.JPG","That was a bim.","","",""
"image-keyboard-response","234","326161","0.0-5.0-0.76","FL","26fmzvup9c","1280","720","0","1","0","5e94262948e806768dfa43ed","","null","","","","","","","learning/Slide77.JPG","null","","","","","",""
"html-keyboard-response","235","327319","0.0-5.0-1.76","FL","26fmzvup9c","1280","720","0","1","0","5e94262948e806768dfa43ed","","null","","","learningBlock1","","","","That was a tob.","null","","","","","",""
"html-keyboard-response","236","328324","0.0-5.0-2.76","FL","26fmzvup9c","1280","720","0","1","0","5e94262948e806768dfa43ed","","null","","","learningBlock1","","","","<div style=""font-size:60px;""> </div>","null","FL","learning/Slide77.JPG","That was a tob.","","",""
"image-keyboard-response","237","328515","0.0-5.0-0.77","FL","26fmzvup9c","1280","720","0","1","0","5e94262948e806768dfa43ed","","null","","","","","","","learning/Slide78.JPG","null","","","","","",""
"html-keyboard-response","238","329678","0.0-5.0-1.77","FL","26fmzvup9c","1280","720","0","1","0","5e94262948e806768dfa43ed","","null","","","learningBlock1","","","","That was a wug.","null","","","","","",""
"html-keyboard-response","239","330696","0.0-5.0-2.77","FL","26fmzvup9c","1280","720","0","1","0","5e94262948e806768dfa43ed","","null","","","learningBlock1","","","","<div style=""font-size:60px;""> </div>","null","FL","learning/Slide78.JPG","That was a wug.","","",""
"image-keyboard-response","240","330882","0.0-5.0-0.78","FL","26fmzvup9c","1280","720","0","1","0","5e94262948e806768dfa43ed","","null","","","","","","","learning/Slide79.JPG","null","","","","","",""
"html-keyboard-response","241","332051","0.0-5.0-1.78","FL","26fmzvup9c","1280","720","0","1","0","5e94262948e806768dfa43ed","","null","","","learningBlock1","","","","That was a bim.","null","","","","","",""
"html-keyboard-response","242","333054","0.0-5.0-2.78","FL","26fmzvup9c","1280","720","0","1","0","5e94262948e806768dfa43ed","","null","","","learningBlock1","","","","<div style=""font-size:60px;""> </div>","null","FL","learning/Slide79.JPG","That was a bim.","","",""
"image-keyboard-response","243","333241","0.0-5.0-0.79","FL","26fmzvup9c","1280","720","0","1","0","5e94262948e806768dfa43ed","","null","","","","","","","learning/Slide80.JPG","null","","","","","",""
"html-keyboard-response","244","334395","0.0-5.0-1.79","FL","26fmzvup9c","1280","720","0","1","0","5e94262948e806768dfa43ed","","null","","","learningBlock1","","","","That was a tob.","null","","","","","",""
"html-keyboard-response","245","335411","0.0-5.0-2.79","FL","26fmzvup9c","1280","720","0","1","0","5e94262948e806768dfa43ed","","null","","","learningBlock1","","","","<div style=""font-size:60px;""> </div>","null","FL","learning/Slide80.JPG","That was a tob.","","",""
"instructions","246","449037","0.0-6.0","FL","26fmzvup9c","1280","720","0","1","0","5e94262948e806768dfa43ed","","NA","","[{""page_index"":0,""viewing_time"":113625.40999986231}]","instructions","","","","","","","","","","",""
"image-keyboard-response","247","449227","0.0-7.0-0.0","FL","26fmzvup9c","1280","720","0","1","0","5e94262948e806768dfa43ed","","null","","","","","","","learning/Slide81.JPG","null","","","","","",""
"html-keyboard-response","248","450380","0.0-7.0-1.0","FL","26fmzvup9c","1280","720","0","1","0","5e94262948e806768dfa43ed","","null","","","learningBlock2","","","","That was a wug.","null","","","","","",""
"html-keyboard-response","249","451386","0.0-7.0-2.0","FL","26fmzvup9c","1280","720","0","1","0","5e94262948e806768dfa43ed","","null","","","learningBlock2","","","","<div style=""font-size:60px;""> </div>","null","FL","learning/Slide81.JPG","That was a wug.","","",""
"image-keyboard-response","250","451574","0.0-7.0-0.1","FL","26fmzvup9c","1280","720","0","1","0","5e94262948e806768dfa43ed","","null","","","","","","","learning/Slide82.JPG","null","","","","","",""
"html-keyboard-response","251","452726","0.0-7.0-1.1","FL","26fmzvup9c","1280","720","0","1","0","5e94262948e806768dfa43ed","","null","","","learningBlock2","","","","That was a bim.","null","","","","","",""
"html-keyboard-response","252","453742","0.0-7.0-2.1","FL","26fmzvup9c","1280","720","0","1","0","5e94262948e806768dfa43ed","","null","","","learningBlock2","","","","<div style=""font-size:60px;""> </div>","null","FL","learning/Slide82.JPG","That was a bim.","","",""
"image-keyboard-response","253","453930","0.0-7.0-0.2","FL","26fmzvup9c","1280","720","0","1","0","5e94262948e806768dfa43ed","","null","","","","","","","learning/Slide83.JPG","null","","","","","",""
"html-keyboard-response","254","455097","0.0-7.0-1.2","FL","26fmzvup9c","1280","720","0","1","0","5e94262948e806768dfa43ed","","null","","","learningBlock2","","","","That was a wug.","null","","","","","",""
"html-keyboard-response","255","456111","0.0-7.0-2.2","FL","26fmzvup9c","1280","720","0","1","0","5e94262948e806768dfa43ed","","null","","","learningBlock2","","","","<div style=""font-size:60px;""> </div>","null","FL","learning/Slide83.JPG","That was a wug.","","",""
"image-keyboard-response","256","456289","0.0-7.0-0.3","FL","26fmzvup9c","1280","720","0","1","0","5e94262948e806768dfa43ed","","null","","","","","","","learning/Slide84.JPG","null","","","","","",""
"html-keyboard-response","257","457448","0.0-7.0-1.3","FL","26fmzvup9c","1280","720","0","1","0","5e94262948e806768dfa43ed","","null","","","learningBlock2","","","","That was a dep.","null","","","","","",""
"html-keyboard-response","258","458449","0.0-7.0-2.3","FL","26fmzvup9c","1280","720","0","1","0","5e94262948e806768dfa43ed","","null","","","learningBlock2","","","","<div style=""font-size:60px;""> </div>","null","FL","learning/Slide84.JPG","That was a dep.","","",""
"image-keyboard-response","259","458626","0.0-7.0-0.4","FL","26fmzvup9c","1280","720","0","1","0","5e94262948e806768dfa43ed","","null","","","","","","","learning/Slide85.JPG","null","","","","","",""
"html-keyboard-response","260","459778","0.0-7.0-1.4","FL","26fmzvup9c","1280","720","0","1","0","5e94262948e806768dfa43ed","","null","","","learningBlock2","","","","That was a bim.","null","","","","","",""
"html-keyboard-response","261","460784","0.0-7.0-2.4","FL","26fmzvup9c","1280","720","0","1","0","5e94262948e806768dfa43ed","","null","","","learningBlock2","","","","<div style=""font-size:60px;""> </div>","null","FL","learning/Slide85.JPG","That was a bim.","","",""
"image-keyboard-response","262","460972","0.0-7.0-0.5","FL","26fmzvup9c","1280","720","0","1","0","5e94262948e806768dfa43ed","","null","","","","","","","learning/Slide86.JPG","null","","","","","",""
"html-keyboard-response","263","462137","0.0-7.0-1.5","FL","26fmzvup9c","1280","720","0","1","0","5e94262948e806768dfa43ed","","null","","","learningBlock2","","","","That was a tob.","null","","","","","",""
"html-keyboard-response","264","463150","0.0-7.0-2.5","FL","26fmzvup9c","1280","720","0","1","0","5e94262948e806768dfa43ed","","null","","","learningBlock2","","","","<div style=""font-size:60px;""> </div>","null","FL","learning/Slide86.JPG","That was a tob.","","",""
"image-keyboard-response","265","463338","0.0-7.0-0.6","FL","26fmzvup9c","1280","720","0","1","0","5e94262948e806768dfa43ed","","null","","","","","","","learning/Slide87.JPG","null","","","","","",""
"html-keyboard-response","266","464495","0.0-7.0-1.6","FL","26fmzvup9c","1280","720","0","1","0","5e94262948e806768dfa43ed","","null","","","learningBlock2","","","","That was a wug.","null","","","","","",""
"html-keyboard-response","267","465502","0.0-7.0-2.6","FL","26fmzvup9c","1280","720","0","1","0","5e94262948e806768dfa43ed","","null","","","learningBlock2","","","","<div style=""font-size:60px;""> </div>","null","FL","learning/Slide87.JPG","That was a wug.","","",""
"image-keyboard-response","268","465679","0.0-7.0-0.7","FL","26fmzvup9c","1280","720","0","1","0","5e94262948e806768dfa43ed","","null","","","","","","","learning/Slide88.JPG","null","","","","","",""
"html-keyboard-response","269","466844","0.0-7.0-1.7","FL","26fmzvup9c","1280","720","0","1","0","5e94262948e806768dfa43ed","","null","","","learningBlock2","","","","That was a tob.","null","","","","","",""
"html-keyboard-response","270","467848","0.0-7.0-2.7","FL","26fmzvup9c","1280","720","0","1","0","5e94262948e806768dfa43ed","","null","","","learningBlock2","","","","<div style=""font-size:60px;""> </div>","null","FL","learning/Slide88.JPG","That was a tob.","","",""
"image-keyboard-response","271","468034","0.0-7.0-0.8","FL","26fmzvup9c","1280","720","0","1","0","5e94262948e806768dfa43ed","","null","","","","","","","learning/Slide89.JPG","null","","","","","",""
"html-keyboard-response","272","469188","0.0-7.0-1.8","FL","26fmzvup9c","1280","720","0","1","0","5e94262948e806768dfa43ed","","null","","","learningBlock2","","","","That was a bim.","null","","","","","",""
"html-keyboard-response","273","470199","0.0-7.0-2.8","FL","26fmzvup9c","1280","720","0","1","0","5e94262948e806768dfa43ed","","null","","","learningBlock2","","","","<div style=""font-size:60px;""> </div>","null","FL","learning/Slide89.JPG","That was a bim.","","",""
"image-keyboard-response","274","470376","0.0-7.0-0.9","FL","26fmzvup9c","1280","720","0","1","0","5e94262948e806768dfa43ed","","null","","","","","","","learning/Slide90.JPG","null","","","","","",""
"html-keyboard-response","275","471556","0.0-7.0-1.9","FL","26fmzvup9c","1280","720","0","1","0","5e94262948e806768dfa43ed","","null","","","learningBlock2","","","","That was a dep.","null","","","","","",""
"html-keyboard-response","276","472573","0.0-7.0-2.9","FL","26fmzvup9c","1280","720","0","1","0","5e94262948e806768dfa43ed","","null","","","learningBlock2","","","","<div style=""font-size:60px;""> </div>","null","FL","learning/Slide90.JPG","That was a dep.","","",""
"image-keyboard-response","277","472759","0.0-7.0-0.10","FL","26fmzvup9c","1280","720","0","1","0","5e94262948e806768dfa43ed","","null","","","","","","","learning/Slide91.JPG","null","","","","","",""
"html-keyboard-response","278","473928","0.0-7.0-1.10","FL","26fmzvup9c","1280","720","0","1","0","5e94262948e806768dfa43ed","","null","","","learningBlock2","","","","That was a wug.","null","","","","","",""
"html-keyboard-response","279","474941","0.0-7.0-2.10","FL","26fmzvup9c","1280","720","0","1","0","5e94262948e806768dfa43ed","","null","","","learningBlock2","","","","<div style=""font-size:60px;""> </div>","null","FL","learning/Slide91.JPG","That was a wug.","","",""
"image-keyboard-response","280","475126","0.0-7.0-0.11","FL","26fmzvup9c","1280","720","0","1","0","5e94262948e806768dfa43ed","","null","","","","","","","learning/Slide92.JPG","null","","","","","",""
"html-keyboard-response","281","476288","0.0-7.0-1.11","FL","26fmzvup9c","1280","720","0","1","0","5e94262948e806768dfa43ed","","null","","","learningBlock2","","","","That was a tob.","null","","","","","",""
"html-keyboard-response","282","477301","0.0-7.0-2.11","FL","26fmzvup9c","1280","720","0","1","0","5e94262948e806768dfa43ed","","null","","","learningBlock2","","","","<div style=""font-size:60px;""> </div>","null","FL","learning/Slide92.JPG","That was a tob.","","",""
"image-keyboard-response","283","477485","0.0-7.0-0.12","FL","26fmzvup9c","1280","720","0","1","0","5e94262948e806768dfa43ed","","null","","","","","","","learning/Slide93.JPG","null","","","","","",""
"html-keyboard-response","284","478644","0.0-7.0-1.12","FL","26fmzvup9c","1280","720","0","1","0","5e94262948e806768dfa43ed","","null","","","learningBlock2","","","","That was a bim.","null","","","","","",""
"html-keyboard-response","285","479660","0.0-7.0-2.12","FL","26fmzvup9c","1280","720","0","1","0","5e94262948e806768dfa43ed","","null","","","learningBlock2","","","","<div style=""font-size:60px;""> </div>","null","FL","learning/Slide93.JPG","That was a bim.","","",""
"image-keyboard-response","286","479844","0.0-7.0-0.13","FL","26fmzvup9c","1280","720","0","1","0","5e94262948e806768dfa43ed","","null","","","","","","","learning/Slide94.JPG","null","","","","","",""
"html-keyboard-response","287","481013","0.0-7.0-1.13","FL","26fmzvup9c","1280","720","0","1","0","5e94262948e806768dfa43ed","","null","","","learningBlock2","","","","That was a tob.","null","","","","","",""
"html-keyboard-response","288","482027","0.0-7.0-2.13","FL","26fmzvup9c","1280","720","0","1","0","5e94262948e806768dfa43ed","","null","","","learningBlock2","","","","<div style=""font-size:60px;""> </div>","null","FL","learning/Slide94.JPG","That was a tob.","","",""
"image-keyboard-response","289","482212","0.0-7.0-0.14","FL","26fmzvup9c","1280","720","0","1","0","5e94262948e806768dfa43ed","","null","","","","","","","learning/Slide95.JPG","null","","","","","",""
"html-keyboard-response","290","483366","0.0-7.0-1.14","FL","26fmzvup9c","1280","720","0","1","0","5e94262948e806768dfa43ed","","null","","","learningBlock2","","","","That was a wug.","null","","","","","",""
"html-keyboard-response","291","484378","0.0-7.0-2.14","FL","26fmzvup9c","1280","720","0","1","0","5e94262948e806768dfa43ed","","null","","","learningBlock2","","","","<div style=""font-size:60px;""> </div>","null","FL","learning/Slide95.JPG","That was a wug.","","",""
"image-keyboard-response","292","484564","0.0-7.0-0.15","FL","26fmzvup9c","1280","720","0","1","0","5e94262948e806768dfa43ed","","null","","","","","","","learning/Slide96.JPG","null","","","","","",""
"html-keyboard-response","293","485719","0.0-7.0-1.15","FL","26fmzvup9c","1280","720","0","1","0","5e94262948e806768dfa43ed","","null","","","learningBlock2","","","","That was a tob.","null","","","","","",""
"html-keyboard-response","294","486734","0.0-7.0-2.15","FL","26fmzvup9c","1280","720","0","1","0","5e94262948e806768dfa43ed","","null","","","learningBlock2","","","","<div style=""font-size:60px;""> </div>","null","FL","learning/Slide96.JPG","That was a tob.","","",""
"image-keyboard-response","295","486911","0.0-7.0-0.16","FL","26fmzvup9c","1280","720","0","1","0","5e94262948e806768dfa43ed","","null","","","","","","","learning/Slide97.JPG","null","","","","","",""
"html-keyboard-response","296","488075","0.0-7.0-1.16","FL","26fmzvup9c","1280","720","0","1","0","5e94262948e806768dfa43ed","","null","","","learningBlock2","","","","That was a dep.","null","","","","","",""
"html-keyboard-response","297","489088","0.0-7.0-2.16","FL","26fmzvup9c","1280","720","0","1","0","5e94262948e806768dfa43ed","","null","","","learningBlock2","","","","<div style=""font-size:60px;""> </div>","null","FL","learning/Slide97.JPG","That was a dep.","","",""
"image-keyboard-response","298","489274","0.0-7.0-0.17","FL","26fmzvup9c","1280","720","0","1","0","5e94262948e806768dfa43ed","","null","","","","","","","learning/Slide98.JPG","null","","","","","",""
"html-keyboard-response","299","490427","0.0-7.0-1.17","FL","26fmzvup9c","1280","720","0","1","0","5e94262948e806768dfa43ed","","null","","","learningBlock2","","","","That was a bim.","null","","","","","",""
"html-keyboard-response","300","491441","0.0-7.0-2.17","FL","26fmzvup9c","1280","720","0","1","0","5e94262948e806768dfa43ed","","null","","","learningBlock2","","","","<div style=""font-size:60px;""> </div>","null","FL","learning/Slide98.JPG","That was a bim.","","",""
"image-keyboard-response","301","491618","0.0-7.0-0.18","FL","26fmzvup9c","1280","720","0","1","0","5e94262948e806768dfa43ed","","null","","","","","","","learning/Slide99.JPG","null","","","","","",""
"html-keyboard-response","302","492793","0.0-7.0-1.18","FL","26fmzvup9c","1280","720","0","1","0","5e94262948e806768dfa43ed","","null","","","learningBlock2","","","","That was a dep.","null","","","","","",""
"html-keyboard-response","303","493807","0.0-7.0-2.18","FL","26fmzvup9c","1280","720","0","1","0","5e94262948e806768dfa43ed","","null","","","learningBlock2","","","","<div style=""font-size:60px;""> </div>","null","FL","learning/Slide99.JPG","That was a dep.","","",""
"image-keyboard-response","304","493994","0.0-7.0-0.19","FL","26fmzvup9c","1280","720","0","1","0","5e94262948e806768dfa43ed","","null","","","","","","","learning/Slide100.JPG","null","","","","","",""
"html-keyboard-response","305","495149","0.0-7.0-1.19","FL","26fmzvup9c","1280","720","0","1","0","5e94262948e806768dfa43ed","","null","","","learningBlock2","","","","That was a bim.","null","","","","","",""
"html-keyboard-response","306","496153","0.0-7.0-2.19","FL","26fmzvup9c","1280","720","0","1","0","5e94262948e806768dfa43ed","","null","","","learningBlock2","","","","<div style=""font-size:60px;""> </div>","null","FL","learning/Slide100.JPG","That was a bim.","","",""
"image-keyboard-response","307","496344","0.0-7.0-0.20","FL","26fmzvup9c","1280","720","0","1","0","5e94262948e806768dfa43ed","","null","","","","","","","learning/Slide101.JPG","null","","","","","",""
"html-keyboard-response","308","497499","0.0-7.0-1.20","FL","26fmzvup9c","1280","720","0","1","0","5e94262948e806768dfa43ed","","null","","","learningBlock2","","","","That was a tob.","null","","","","","",""
"html-keyboard-response","309","498511","0.0-7.0-2.20","FL","26fmzvup9c","1280","720","0","1","0","5e94262948e806768dfa43ed","","null","","","learningBlock2","","","","<div style=""font-size:60px;""> </div>","null","FL","learning/Slide101.JPG","That was a tob.","","",""
"image-keyboard-response","310","498698","0.0-7.0-0.21","FL","26fmzvup9c","1280","720","0","1","0","5e94262948e806768dfa43ed","","null","","","","","","","learning/Slide102.JPG","null","","","","","",""
"html-keyboard-response","311","499858","0.0-7.0-1.21","FL","26fmzvup9c","1280","720","0","1","0","5e94262948e806768dfa43ed","","null","","","learningBlock2","","","","That was a bim.","null","","","","","",""
"html-keyboard-response","312","500874","0.0-7.0-2.21","FL","26fmzvup9c","1280","720","0","1","0","5e94262948e806768dfa43ed","","null","","","learningBlock2","","","","<div style=""font-size:60px;""> </div>","null","FL","learning/Slide102.JPG","That was a bim.","","",""
"image-keyboard-response","313","501051","0.0-7.0-0.22","FL","26fmzvup9c","1280","720","0","1","0","5e94262948e806768dfa43ed","","null","","","","","","","learning/Slide103.JPG","null","","","","","",""
"html-keyboard-response","314","502226","0.0-7.0-1.22","FL","26fmzvup9c","1280","720","0","1","0","5e94262948e806768dfa43ed","","null","","","learningBlock2","","","","That was a dep.","null","","","","","",""
"html-keyboard-response","315","503228","0.0-7.0-2.22","FL","26fmzvup9c","1280","720","0","1","0","5e94262948e806768dfa43ed","","null","","","learningBlock2","","","","<div style=""font-size:60px;""> </div>","null","FL","learning/Slide103.JPG","That was a dep.","","",""
"image-keyboard-response","316","503414","0.0-7.0-0.23","FL","26fmzvup9c","1280","720","0","1","0","5e94262948e806768dfa43ed","","null","","","","","","","learning/Slide104.JPG","null","","","","","",""
"html-keyboard-response","317","504568","0.0-7.0-1.23","FL","26fmzvup9c","1280","720","0","1","0","5e94262948e806768dfa43ed","","null","","","learningBlock2","","","","That was a tob.","null","","","","","",""
"html-keyboard-response","318","505581","0.0-7.0-2.23","FL","26fmzvup9c","1280","720","0","1","0","5e94262948e806768dfa43ed","","null","","","learningBlock2","","","","<div style=""font-size:60px;""> </div>","null","FL","learning/Slide104.JPG","That was a tob.","","",""
"image-keyboard-response","319","505767","0.0-7.0-0.24","FL","26fmzvup9c","1280","720","0","1","0","5e94262948e806768dfa43ed","","null","","","","","","","learning/Slide105.JPG","null","","","","","",""
"html-keyboard-response","320","506940","0.0-7.0-1.24","FL","26fmzvup9c","1280","720","0","1","0","5e94262948e806768dfa43ed","","null","","","learningBlock2","","","","That was a dep.","null","","","","","",""
"html-keyboard-response","321","507954","0.0-7.0-2.24","FL","26fmzvup9c","1280","720","0","1","0","5e94262948e806768dfa43ed","","null","","","learningBlock2","","","","<div style=""font-size:60px;""> </div>","null","FL","learning/Slide105.JPG","That was a dep.","","",""
"image-keyboard-response","322","508141","0.0-7.0-0.25","FL","26fmzvup9c","1280","720","0","1","0","5e94262948e806768dfa43ed","","null","","","","","","","learning/Slide106.JPG","null","","","","","",""
"html-keyboard-response","323","509310","0.0-7.0-1.25","FL","26fmzvup9c","1280","720","0","1","0","5e94262948e806768dfa43ed","","null","","","learningBlock2","","","","That was a wug.","null","","","","","",""
"html-keyboard-response","324","510320","0.0-7.0-2.25","FL","26fmzvup9c","1280","720","0","1","0","5e94262948e806768dfa43ed","","null","","","learningBlock2","","","","<div style=""font-size:60px;""> </div>","null","FL","learning/Slide106.JPG","That was a wug.","","",""
"image-keyboard-response","325","510499","0.0-7.0-0.26","FL","26fmzvup9c","1280","720","0","1","0","5e94262948e806768dfa43ed","","null","","","","","","","learning/Slide107.JPG","null","","","","","",""
"html-keyboard-response","326","511667","0.0-7.0-1.26","FL","26fmzvup9c","1280","720","0","1","0","5e94262948e806768dfa43ed","","null","","","learningBlock2","","","","That was a bim.","null","","","","","",""
"html-keyboard-response","327","512678","0.0-7.0-2.26","FL","26fmzvup9c","1280","720","0","1","0","5e94262948e806768dfa43ed","","null","","","learningBlock2","","","","<div style=""font-size:60px;""> </div>","null","FL","learning/Slide107.JPG","That was a bim.","","",""
"image-keyboard-response","328","512864","0.0-7.0-0.27","FL","26fmzvup9c","1280","720","0","1","0","5e94262948e806768dfa43ed","","null","","","","","","","learning/Slide108.JPG","null","","","","","",""
"html-keyboard-response","329","514028","0.0-7.0-1.27","FL","26fmzvup9c","1280","720","0","1","0","5e94262948e806768dfa43ed","","null","","","learningBlock2","","","","That was a dep.","null","","","","","",""
"html-keyboard-response","330","515034","0.0-7.0-2.27","FL","26fmzvup9c","1280","720","0","1","0","5e94262948e806768dfa43ed","","null","","","learningBlock2","","","","<div style=""font-size:60px;""> </div>","null","FL","learning/Slide108.JPG","That was a dep.","","",""
"image-keyboard-response","331","515220","0.0-7.0-0.28","FL","26fmzvup9c","1280","720","0","1","0","5e94262948e806768dfa43ed","","null","","","","","","","learning/Slide109.JPG","null","","","","","",""
"html-keyboard-response","332","516387","0.0-7.0-1.28","FL","26fmzvup9c","1280","720","0","1","0","5e94262948e806768dfa43ed","","null","","","learningBlock2","","","","That was a wug.","null","","","","","",""
"html-keyboard-response","333","517402","0.0-7.0-2.28","FL","26fmzvup9c","1280","720","0","1","0","5e94262948e806768dfa43ed","","null","","","learningBlock2","","","","<div style=""font-size:60px;""> </div>","null","FL","learning/Slide109.JPG","That was a wug.","","",""
"image-keyboard-response","334","517586","0.0-7.0-0.29","FL","26fmzvup9c","1280","720","0","1","0","5e94262948e806768dfa43ed","","null","","","","","","","learning/Slide110.JPG","null","","","","","",""
"html-keyboard-response","335","518738","0.0-7.0-1.29","FL","26fmzvup9c","1280","720","0","1","0","5e94262948e806768dfa43ed","","null","","","learningBlock2","","","","That was a bim.","null","","","","","",""
"html-keyboard-response","336","519752","0.0-7.0-2.29","FL","26fmzvup9c","1280","720","0","1","0","5e94262948e806768dfa43ed","","null","","","learningBlock2","","","","<div style=""font-size:60px;""> </div>","null","FL","learning/Slide110.JPG","That was a bim.","","",""
"image-keyboard-response","337","519929","0.0-7.0-0.30","FL","26fmzvup9c","1280","720","0","1","0","5e94262948e806768dfa43ed","","null","","","","","","","learning/Slide111.JPG","null","","","","","",""
"html-keyboard-response","338","521109","0.0-7.0-1.30","FL","26fmzvup9c","1280","720","0","1","0","5e94262948e806768dfa43ed","","null","","","learningBlock2","","","","That was a tob.","null","","","","","",""
"html-keyboard-response","339","522127","0.0-7.0-2.30","FL","26fmzvup9c","1280","720","0","1","0","5e94262948e806768dfa43ed","","null","","","learningBlock2","","","","<div style=""font-size:60px;""> </div>","null","FL","learning/Slide111.JPG","That was a tob.","","",""
"image-keyboard-response","340","522313","0.0-7.0-0.31","FL","26fmzvup9c","1280","720","0","1","0","5e94262948e806768dfa43ed","","null","","","","","","","learning/Slide112.JPG","null","","","","","",""
"html-keyboard-response","341","523467","0.0-7.0-1.31","FL","26fmzvup9c","1280","720","0","1","0","5e94262948e806768dfa43ed","","null","","","learningBlock2","","","","That was a wug.","null","","","","","",""
"html-keyboard-response","342","524481","0.0-7.0-2.31","FL","26fmzvup9c","1280","720","0","1","0","5e94262948e806768dfa43ed","","null","","","learningBlock2","","","","<div style=""font-size:60px;""> </div>","null","FL","learning/Slide112.JPG","That was a wug.","","",""
"image-keyboard-response","343","524669","0.0-7.0-0.32","FL","26fmzvup9c","1280","720","0","1","0","5e94262948e806768dfa43ed","","null","","","","","","","learning/Slide113.JPG","null","","","","","",""
"html-keyboard-response","344","525832","0.0-7.0-1.32","FL","26fmzvup9c","1280","720","0","1","0","5e94262948e806768dfa43ed","","null","","","learningBlock2","","","","That was a tob.","null","","","","","",""
"html-keyboard-response","345","526845","0.0-7.0-2.32","FL","26fmzvup9c","1280","720","0","1","0","5e94262948e806768dfa43ed","","null","","","learningBlock2","","","","<div style=""font-size:60px;""> </div>","null","FL","learning/Slide113.JPG","That was a tob.","","",""
"image-keyboard-response","346","527022","0.0-7.0-0.33","FL","26fmzvup9c","1280","720","0","1","0","5e94262948e806768dfa43ed","","null","","","","","","","learning/Slide114.JPG","null","","","","","",""
"html-keyboard-response","347","528176","0.0-7.0-1.33","FL","26fmzvup9c","1280","720","0","1","0","5e94262948e806768dfa43ed","","null","","","learningBlock2","","","","That was a wug.","null","","","","","",""
"html-keyboard-response","348","529188","0.0-7.0-2.33","FL","26fmzvup9c","1280","720","0","1","0","5e94262948e806768dfa43ed","","null","","","learningBlock2","","","","<div style=""font-size:60px;""> </div>","null","FL","learning/Slide114.JPG","That was a wug.","","",""
"image-keyboard-response","349","529366","0.0-7.0-0.34","FL","26fmzvup9c","1280","720","0","1","0","5e94262948e806768dfa43ed","","null","","","","","","","learning/Slide115.JPG","null","","","","","",""
"html-keyboard-response","350","530526","0.0-7.0-1.34","FL","26fmzvup9c","1280","720","0","1","0","5e94262948e806768dfa43ed","","null","","","learningBlock2","","","","That was a bim.","null","","","","","",""
"html-keyboard-response","351","531541","0.0-7.0-2.34","FL","26fmzvup9c","1280","720","0","1","0","5e94262948e806768dfa43ed","","null","","","learningBlock2","","","","<div style=""font-size:60px;""> </div>","null","FL","learning/Slide115.JPG","That was a bim.","","",""
"image-keyboard-response","352","531728","0.0-7.0-0.35","FL","26fmzvup9c","1280","720","0","1","0","5e94262948e806768dfa43ed","","null","","","","","","","learning/Slide116.JPG","null","","","","","",""
"html-keyboard-response","353","532896","0.0-7.0-1.35","FL","26fmzvup9c","1280","720","0","1","0","5e94262948e806768dfa43ed","","null","","","learningBlock2","","","","That was a dep.","null","","","","","",""
"html-keyboard-response","354","533909","0.0-7.0-2.35","FL","26fmzvup9c","1280","720","0","1","0","5e94262948e806768dfa43ed","","null","","","learningBlock2","","","","<div style=""font-size:60px;""> </div>","null","FL","learning/Slide116.JPG","That was a dep.","","",""
"image-keyboard-response","355","534087","0.0-7.0-0.36","FL","26fmzvup9c","1280","720","0","1","0","5e94262948e806768dfa43ed","","null","","","","","","","learning/Slide117.JPG","null","","","","","",""
"html-keyboard-response","356","535255","0.0-7.0-1.36","FL","26fmzvup9c","1280","720","0","1","0","5e94262948e806768dfa43ed","","null","","","learningBlock2","","","","That was a tob.","null","","","","","",""
"html-keyboard-response","357","536261","0.0-7.0-2.36","FL","26fmzvup9c","1280","720","0","1","0","5e94262948e806768dfa43ed","","null","","","learningBlock2","","","","<div style=""font-size:60px;""> </div>","null","FL","learning/Slide117.JPG","That was a tob.","","",""
"image-keyboard-response","358","536447","0.0-7.0-0.37","FL","26fmzvup9c","1280","720","0","1","0","5e94262948e806768dfa43ed","","null","","","","","","","learning/Slide118.JPG","null","","","","","",""
"html-keyboard-response","359","537609","0.0-7.0-1.37","FL","26fmzvup9c","1280","720","0","1","0","5e94262948e806768dfa43ed","","null","","","learningBlock2","","","","That was a dep.","null","","","","","",""
"html-keyboard-response","360","538625","0.0-7.0-2.37","FL","26fmzvup9c","1280","720","0","1","0","5e94262948e806768dfa43ed","","null","","","learningBlock2","","","","<div style=""font-size:60px;""> </div>","null","FL","learning/Slide118.JPG","That was a dep.","","",""
"image-keyboard-response","361","538801","0.0-7.0-0.38","FL","26fmzvup9c","1280","720","0","1","0","5e94262948e806768dfa43ed","","null","","","","","","","learning/Slide119.JPG","null","","","","","",""
"html-keyboard-response","362","539969","0.0-7.0-1.38","FL","26fmzvup9c","1280","720","0","1","0","5e94262948e806768dfa43ed","","null","","","learningBlock2","","","","That was a wug.","null","","","","","",""
"html-keyboard-response","363","540974","0.0-7.0-2.38","FL","26fmzvup9c","1280","720","0","1","0","5e94262948e806768dfa43ed","","null","","","learningBlock2","","","","<div style=""font-size:60px;""> </div>","null","FL","learning/Slide119.JPG","That was a wug.","","",""
"image-keyboard-response","364","541151","0.0-7.0-0.39","FL","26fmzvup9c","1280","720","0","1","0","5e94262948e806768dfa43ed","","null","","","","","","","learning/Slide120.JPG","null","","","","","",""
"html-keyboard-response","365","542328","0.0-7.0-1.39","FL","26fmzvup9c","1280","720","0","1","0","5e94262948e806768dfa43ed","","null","","","learningBlock2","","","","That was a dep.","null","","","","","",""
"html-keyboard-response","366","543344","0.0-7.0-2.39","FL","26fmzvup9c","1280","720","0","1","0","5e94262948e806768dfa43ed","","null","","","learningBlock2","","","","<div style=""font-size:60px;""> </div>","null","FL","learning/Slide120.JPG","That was a dep.","","",""
"image-keyboard-response","367","543531","0.0-7.0-0.40","FL","26fmzvup9c","1280","720","0","1","0","5e94262948e806768dfa43ed","","null","","","","","","","learning/Slide121.JPG","null","","","","","",""
"html-keyboard-response","368","544698","0.0-7.0-1.40","FL","26fmzvup9c","1280","720","0","1","0","5e94262948e806768dfa43ed","","null","","","learningBlock2","","","","That was a bim.","null","","","","","",""
"html-keyboard-response","369","545715","0.0-7.0-2.40","FL","26fmzvup9c","1280","720","0","1","0","5e94262948e806768dfa43ed","","null","","","learningBlock2","","","","<div style=""font-size:60px;""> </div>","null","FL","learning/Slide121.JPG","That was a bim.","","",""
"image-keyboard-response","370","545900","0.0-7.0-0.41","FL","26fmzvup9c","1280","720","0","1","0","5e94262948e806768dfa43ed","","null","","","","","","","learning/Slide122.JPG","null","","","","","",""
"html-keyboard-response","371","547069","0.0-7.0-1.41","FL","26fmzvup9c","1280","720","0","1","0","5e94262948e806768dfa43ed","","null","","","learningBlock2","","","","That was a wug.","null","","","","","",""
"html-keyboard-response","372","548082","0.0-7.0-2.41","FL","26fmzvup9c","1280","720","0","1","0","5e94262948e806768dfa43ed","","null","","","learningBlock2","","","","<div style=""font-size:60px;""> </div>","null","FL","learning/Slide122.JPG","That was a wug.","","",""
"image-keyboard-response","373","548270","0.0-7.0-0.42","FL","26fmzvup9c","1280","720","0","1","0","5e94262948e806768dfa43ed","","null","","","","","","","learning/Slide123.JPG","null","","","","","",""
"html-keyboard-response","374","549424","0.0-7.0-1.42","FL","26fmzvup9c","1280","720","0","1","0","5e94262948e806768dfa43ed","","null","","","learningBlock2","","","","That was a bim.","null","","","","","",""
"html-keyboard-response","375","550426","0.0-7.0-2.42","FL","26fmzvup9c","1280","720","0","1","0","5e94262948e806768dfa43ed","","null","","","learningBlock2","","","","<div style=""font-size:60px;""> </div>","null","FL","learning/Slide123.JPG","That was a bim.","","",""
"image-keyboard-response","376","550604","0.0-7.0-0.43","FL","26fmzvup9c","1280","720","0","1","0","5e94262948e806768dfa43ed","","null","","","","","","","learning/Slide124.JPG","null","","","","","",""
"html-keyboard-response","377","551767","0.0-7.0-1.43","FL","26fmzvup9c","1280","720","0","1","0","5e94262948e806768dfa43ed","","null","","","learningBlock2","","","","That was a tob.","null","","","","","",""
"html-keyboard-response","378","552783","0.0-7.0-2.43","FL","26fmzvup9c","1280","720","0","1","0","5e94262948e806768dfa43ed","","null","","","learningBlock2","","","","<div style=""font-size:60px;""> </div>","null","FL","learning/Slide124.JPG","That was a tob.","","",""
"image-keyboard-response","379","552968","0.0-7.0-0.44","FL","26fmzvup9c","1280","720","0","1","0","5e94262948e806768dfa43ed","","null","","","","","","","learning/Slide125.JPG","null","","","","","",""
"html-keyboard-response","380","554140","0.0-7.0-1.44","FL","26fmzvup9c","1280","720","0","1","0","5e94262948e806768dfa43ed","","null","","","learningBlock2","","","","That was a bim.","null","","","","","",""
"html-keyboard-response","381","555155","0.0-7.0-2.44","FL","26fmzvup9c","1280","720","0","1","0","5e94262948e806768dfa43ed","","null","","","learningBlock2","","","","<div style=""font-size:60px;""> </div>","null","FL","learning/Slide125.JPG","That was a bim.","","",""
"image-keyboard-response","382","555343","0.0-7.0-0.45","FL","26fmzvup9c","1280","720","0","1","0","5e94262948e806768dfa43ed","","null","","","","","","","learning/Slide126.JPG","null","","","","","",""
"html-keyboard-response","383","556500","0.0-7.0-1.45","FL","26fmzvup9c","1280","720","0","1","0","5e94262948e806768dfa43ed","","null","","","learningBlock2","","","","That was a tob.","null","","","","","",""
"html-keyboard-response","384","557513","0.0-7.0-2.45","FL","26fmzvup9c","1280","720","0","1","0","5e94262948e806768dfa43ed","","null","","","learningBlock2","","","","<div style=""font-size:60px;""> </div>","null","FL","learning/Slide126.JPG","That was a tob.","","",""
"image-keyboard-response","385","557694","0.0-7.0-0.46","FL","26fmzvup9c","1280","720","0","1","0","5e94262948e806768dfa43ed","","null","","","","","","","learning/Slide127.JPG","null","","","","","",""
"html-keyboard-response","386","558858","0.0-7.0-1.46","FL","26fmzvup9c","1280","720","0","1","0","5e94262948e806768dfa43ed","","null","","","learningBlock2","","","","That was a dep.","null","","","","","",""
"html-keyboard-response","387","559872","0.0-7.0-2.46","FL","26fmzvup9c","1280","720","0","1","0","5e94262948e806768dfa43ed","","null","","","learningBlock2","","","","<div style=""font-size:60px;""> </div>","null","FL","learning/Slide127.JPG","That was a dep.","","",""
"image-keyboard-response","388","560049","0.0-7.0-0.47","FL","26fmzvup9c","1280","720","0","1","0","5e94262948e806768dfa43ed","","null","","","","","","","learning/Slide128.JPG","null","","","","","",""
"html-keyboard-response","389","561216","0.0-7.0-1.47","FL","26fmzvup9c","1280","720","0","1","0","5e94262948e806768dfa43ed","","null","","","learningBlock2","","","","That was a wug.","null","","","","","",""
"html-keyboard-response","390","562219","0.0-7.0-2.47","FL","26fmzvup9c","1280","720","0","1","0","5e94262948e806768dfa43ed","","null","","","learningBlock2","","","","<div style=""font-size:60px;""> </div>","null","FL","learning/Slide128.JPG","That was a wug.","","",""
"image-keyboard-response","391","562406","0.0-7.0-0.48","FL","26fmzvup9c","1280","720","0","1","0","5e94262948e806768dfa43ed","","null","","","","","","","learning/Slide129.JPG","null","","","","","",""
"html-keyboard-response","392","563567","0.0-7.0-1.48","FL","26fmzvup9c","1280","720","0","1","0","5e94262948e806768dfa43ed","","null","","","learningBlock2","","","","That was a tob.","null","","","","","",""
"html-keyboard-response","393","564581","0.0-7.0-2.48","FL","26fmzvup9c","1280","720","0","1","0","5e94262948e806768dfa43ed","","null","","","learningBlock2","","","","<div style=""font-size:60px;""> </div>","null","FL","learning/Slide129.JPG","That was a tob.","","",""
"image-keyboard-response","394","564767","0.0-7.0-0.49","FL","26fmzvup9c","1280","720","0","1","0","5e94262948e806768dfa43ed","","null","","","","","","","learning/Slide130.JPG","null","","","","","",""
"html-keyboard-response","395","565924","0.0-7.0-1.49","FL","26fmzvup9c","1280","720","0","1","0","5e94262948e806768dfa43ed","","null","","","learningBlock2","","","","That was a wug.","null","","","","","",""
"html-keyboard-response","396","566926","0.0-7.0-2.49","FL","26fmzvup9c","1280","720","0","1","0","5e94262948e806768dfa43ed","","null","","","learningBlock2","","","","<div style=""font-size:60px;""> </div>","null","FL","learning/Slide130.JPG","That was a wug.","","",""
"image-keyboard-response","397","567113","0.0-7.0-0.50","FL","26fmzvup9c","1280","720","0","1","0","5e94262948e806768dfa43ed","","null","","","","","","","learning/Slide131.JPG","null","","","","","",""
"html-keyboard-response","398","568283","0.0-7.0-1.50","FL","26fmzvup9c","1280","720","0","1","0","5e94262948e806768dfa43ed","","null","","","learningBlock2","","","","That was a bim.","null","","","","","",""
"html-keyboard-response","399","569294","0.0-7.0-2.50","FL","26fmzvup9c","1280","720","0","1","0","5e94262948e806768dfa43ed","","null","","","learningBlock2","","","","<div style=""font-size:60px;""> </div>","null","FL","learning/Slide131.JPG","That was a bim.","","",""
"image-keyboard-response","400","569482","0.0-7.0-0.51","FL","26fmzvup9c","1280","720","0","1","0","5e94262948e806768dfa43ed","","null","","","","","","","learning/Slide132.JPG","null","","","","","",""
"html-keyboard-response","401","570649","0.0-7.0-1.51","FL","26fmzvup9c","1280","720","0","1","0","5e94262948e806768dfa43ed","","null","","","learningBlock2","","","","That was a dep.","null","","","","","",""
"html-keyboard-response","402","571664","0.0-7.0-2.51","FL","26fmzvup9c","1280","720","0","1","0","5e94262948e806768dfa43ed","","null","","","learningBlock2","","","","<div style=""font-size:60px;""> </div>","null","FL","learning/Slide132.JPG","That was a dep.","","",""
"image-keyboard-response","403","571842","0.0-7.0-0.52","FL","26fmzvup9c","1280","720","0","1","0","5e94262948e806768dfa43ed","","null","","","","","","","learning/Slide133.JPG","null","","","","","",""
"html-keyboard-response","404","573013","0.0-7.0-1.52","FL","26fmzvup9c","1280","720","0","1","0","5e94262948e806768dfa43ed","","null","","","learningBlock2","","","","That was a tob.","null","","","","","",""
"html-keyboard-response","405","574027","0.0-7.0-2.52","FL","26fmzvup9c","1280","720","0","1","0","5e94262948e806768dfa43ed","","null","","","learningBlock2","","","","<div style=""font-size:60px;""> </div>","null","FL","learning/Slide133.JPG","That was a tob.","","",""
"image-keyboard-response","406","574204","0.0-7.0-0.53","FL","26fmzvup9c","1280","720","0","1","0","5e94262948e806768dfa43ed","","null","","","","","","","learning/Slide134.JPG","null","","","","","",""
"html-keyboard-response","407","575382","0.0-7.0-1.53","FL","26fmzvup9c","1280","720","0","1","0","5e94262948e806768dfa43ed","","null","","","learningBlock2","","","","That was a dep.","null","","","","","",""
"html-keyboard-response","408","576396","0.0-7.0-2.53","FL","26fmzvup9c","1280","720","0","1","0","5e94262948e806768dfa43ed","","null","","","learningBlock2","","","","<div style=""font-size:60px;""> </div>","null","FL","learning/Slide134.JPG","That was a dep.","","",""
"image-keyboard-response","409","576574","0.0-7.0-0.54","FL","26fmzvup9c","1280","720","0","1","0","5e94262948e806768dfa43ed","","null","","","","","","","learning/Slide135.JPG","null","","","","","",""
"html-keyboard-response","410","577731","0.0-7.0-1.54","FL","26fmzvup9c","1280","720","0","1","0","5e94262948e806768dfa43ed","","null","","","learningBlock2","","","","That was a tob.","null","","","","","",""
"html-keyboard-response","411","578745","0.0-7.0-2.54","FL","26fmzvup9c","1280","720","0","1","0","5e94262948e806768dfa43ed","","null","","","learningBlock2","","","","<div style=""font-size:60px;""> </div>","null","FL","learning/Slide135.JPG","That was a tob.","","",""
"image-keyboard-response","412","578923","0.0-7.0-0.55","FL","26fmzvup9c","1280","720","0","1","0","5e94262948e806768dfa43ed","","null","","","","","","","learning/Slide136.JPG","null","","","","","",""
"html-keyboard-response","413","580085","0.0-7.0-1.55","FL","26fmzvup9c","1280","720","0","1","0","5e94262948e806768dfa43ed","","null","","","learningBlock2","","","","That was a wug.","null","","","","","",""
"html-keyboard-response","414","581093","0.0-7.0-2.55","FL","26fmzvup9c","1280","720","0","1","0","5e94262948e806768dfa43ed","","null","","","learningBlock2","","","","<div style=""font-size:60px;""> </div>","null","FL","learning/Slide136.JPG","That was a wug.","","",""
"image-keyboard-response","415","581270","0.0-7.0-0.56","FL","26fmzvup9c","1280","720","0","1","0","5e94262948e806768dfa43ed","","null","","","","","","","learning/Slide137.JPG","null","","","","","",""
"html-keyboard-response","416","582436","0.0-7.0-1.56","FL","26fmzvup9c","1280","720","0","1","0","5e94262948e806768dfa43ed","","null","","","learningBlock2","","","","That was a tob.","null","","","","","",""
"html-keyboard-response","417","583449","0.0-7.0-2.56","FL","26fmzvup9c","1280","720","0","1","0","5e94262948e806768dfa43ed","","null","","","learningBlock2","","","","<div style=""font-size:60px;""> </div>","null","FL","learning/Slide137.JPG","That was a tob.","","",""
"image-keyboard-response","418","583635","0.0-7.0-0.57","FL","26fmzvup9c","1280","720","0","1","0","5e94262948e806768dfa43ed","","null","","","","","","","learning/Slide138.JPG","null","","","","","",""
"html-keyboard-response","419","584804","0.0-7.0-1.57","FL","26fmzvup9c","1280","720","0","1","0","5e94262948e806768dfa43ed","","null","","","learningBlock2","","","","That was a bim.","null","","","","","",""
"html-keyboard-response","420","585821","0.0-7.0-2.57","FL","26fmzvup9c","1280","720","0","1","0","5e94262948e806768dfa43ed","","null","","","learningBlock2","","","","<div style=""font-size:60px;""> </div>","null","FL","learning/Slide138.JPG","That was a bim.","","",""
"image-keyboard-response","421","586009","0.0-7.0-0.58","FL","26fmzvup9c","1280","720","0","1","0","5e94262948e806768dfa43ed","","null","","","","","","","learning/Slide139.JPG","null","","","","","",""
"html-keyboard-response","422","587161","0.0-7.0-1.58","FL","26fmzvup9c","1280","720","0","1","0","5e94262948e806768dfa43ed","","null","","","learningBlock2","","","","That was a wug.","null","","","","","",""
"html-keyboard-response","423","588173","0.0-7.0-2.58","FL","26fmzvup9c","1280","720","0","1","0","5e94262948e806768dfa43ed","","null","","","learningBlock2","","","","<div style=""font-size:60px;""> </div>","null","FL","learning/Slide139.JPG","That was a wug.","","",""
"image-keyboard-response","424","588360","0.0-7.0-0.59","FL","26fmzvup9c","1280","720","0","1","0","5e94262948e806768dfa43ed","","null","","","","","","","learning/Slide140.JPG","null","","","","","",""
"html-keyboard-response","425","589515","0.0-7.0-1.59","FL","26fmzvup9c","1280","720","0","1","0","5e94262948e806768dfa43ed","","null","","","learningBlock2","","","","That was a dep.","null","","","","","",""
"html-keyboard-response","426","590520","0.0-7.0-2.59","FL","26fmzvup9c","1280","720","0","1","0","5e94262948e806768dfa43ed","","null","","","learningBlock2","","","","<div style=""font-size:60px;""> </div>","null","FL","learning/Slide140.JPG","That was a dep.","","",""
"image-keyboard-response","427","590705","0.0-7.0-0.60","FL","26fmzvup9c","1280","720","0","1","0","5e94262948e806768dfa43ed","","null","","","","","","","learning/Slide141.JPG","null","","","","","",""
"html-keyboard-response","428","591857","0.0-7.0-1.60","FL","26fmzvup9c","1280","720","0","1","0","5e94262948e806768dfa43ed","","null","","","learningBlock2","","","","That was a tob.","null","","","","","",""
"html-keyboard-response","429","592868","0.0-7.0-2.60","FL","26fmzvup9c","1280","720","0","1","0","5e94262948e806768dfa43ed","","null","","","learningBlock2","","","","<div style=""font-size:60px;""> </div>","null","FL","learning/Slide141.JPG","That was a tob.","","",""
"image-keyboard-response","430","593046","0.0-7.0-0.61","FL","26fmzvup9c","1280","720","0","1","0","5e94262948e806768dfa43ed","","null","","","","","","","learning/Slide142.JPG","null","","","","","",""
"html-keyboard-response","431","594209","0.0-7.0-1.61","FL","26fmzvup9c","1280","720","0","1","0","5e94262948e806768dfa43ed","","null","","","learningBlock2","","","","That was a wug.","null","","","","","",""
"html-keyboard-response","432","595211","0.0-7.0-2.61","FL","26fmzvup9c","1280","720","0","1","0","5e94262948e806768dfa43ed","","null","","","learningBlock2","","","","<div style=""font-size:60px;""> </div>","null","FL","learning/Slide142.JPG","That was a wug.","","",""
"image-keyboard-response","433","595399","0.0-7.0-0.62","FL","26fmzvup9c","1280","720","0","1","0","5e94262948e806768dfa43ed","","null","","","","","","","learning/Slide143.JPG","null","","","","","",""
"html-keyboard-response","434","596555","0.0-7.0-1.62","FL","26fmzvup9c","1280","720","0","1","0","5e94262948e806768dfa43ed","","null","","","learningBlock2","","","","That was a bim.","null","","","","","",""
"html-keyboard-response","435","597568","0.0-7.0-2.62","FL","26fmzvup9c","1280","720","0","1","0","5e94262948e806768dfa43ed","","null","","","learningBlock2","","","","<div style=""font-size:60px;""> </div>","null","FL","learning/Slide143.JPG","That was a bim.","","",""
"image-keyboard-response","436","597745","0.0-7.0-0.63","FL","26fmzvup9c","1280","720","0","1","0","5e94262948e806768dfa43ed","","null","","","","","","","learning/Slide144.JPG","null","","","","","",""
