"trial_type","trial_index","time_elapsed","internal_node_id","condition","subject","screen_width","screen_height","attention","distraction","conscientious","prolificID","success","rt","url","view_history","test_part","final_height_px","final_width_px","scale_factor","stimulus","key_press","learningType","presentedImage","presentedLabel","button_pressed","response","responses"
"pavlovia","0","66","0.0-0.0","FL","wod6ma11s3","1536","864","0","0","0","5f8228f40afba53534e6f583","","","","","","","","","","","","","","","",""
"fullscreen","1","61694","0.0-1.0","FL","wod6ma11s3","1536","864","0","0","0","5f8228f40afba53534e6f583","true","","","","","","","","","","","","","","",""
"external-html","2","84215","0.0-2.0-0.0","FL","wod6ma11s3","1536","864","0","0","0","5f8228f40afba53534e6f583","","22419.185000000653","text/information_english.html","","","","","","","","","","","","",""
"external-html","3","93229","0.0-2.0-1.0","FL","wod6ma11s3","1536","864","0","0","0","5f8228f40afba53534e6f583","","8902.619999998933","text/consent_english.html","","","","","","","","","","","","",""
"instructions","4","105817","0.0-3.0","FL","wod6ma11s3","1536","864","0","0","0","5f8228f40afba53534e6f583","","NA","","[{""page_index"":0,""viewing_time"":1939.5100000001548},{""page_index"":1,""viewing_time"":10646.015000000261}]","instructions","","","","","","","","","","",""
"resize","5","175388","0.0-4.0","FL","wod6ma11s3","1536","864","0","0","0","5f8228f40afba53534e6f583","","","","","","","380","2.4126984126984126","","","","","","","",""
"image-keyboard-response","6","175570","0.0-5.0-0.0","FL","wod6ma11s3","1536","864","0","0","0","5f8228f40afba53534e6f583","","null","","","","","","","learning/Slide1.JPG","null","","","","","",""
"html-keyboard-response","7","176723","0.0-5.0-1.0","FL","wod6ma11s3","1536","864","0","0","0","5f8228f40afba53534e6f583","","null","","","learningBlock1","","","","That was a tob.","null","","","","","",""
"html-keyboard-response","8","177726","0.0-5.0-2.0","FL","wod6ma11s3","1536","864","0","0","0","5f8228f40afba53534e6f583","","null","","","learningBlock1","","","","<div style=""font-size:60px;""> </div>","null","FL","learning/Slide1.JPG","That was a tob.","","",""
"image-keyboard-response","9","177905","0.0-5.0-0.1","FL","wod6ma11s3","1536","864","0","0","0","5f8228f40afba53534e6f583","","null","","","","","","","learning/Slide2.JPG","null","","","","","",""
"html-keyboard-response","10","179057","0.0-5.0-1.1","FL","wod6ma11s3","1536","864","0","0","0","5f8228f40afba53534e6f583","","null","","","learningBlock1","","","","That was a wug.","null","","","","","",""
"html-keyboard-response","11","180058","0.0-5.0-2.1","FL","wod6ma11s3","1536","864","0","0","0","5f8228f40afba53534e6f583","","null","","","learningBlock1","","","","<div style=""font-size:60px;""> </div>","null","FL","learning/Slide2.JPG","That was a wug.","","",""
"image-keyboard-response","12","180235","0.0-5.0-0.2","FL","wod6ma11s3","1536","864","0","0","0","5f8228f40afba53534e6f583","","null","","","","","","","learning/Slide3.JPG","null","","","","","",""
"html-keyboard-response","13","181388","0.0-5.0-1.2","FL","wod6ma11s3","1536","864","0","0","0","5f8228f40afba53534e6f583","","null","","","learningBlock1","","","","That was a bim.","null","","","","","",""
"html-keyboard-response","14","182391","0.0-5.0-2.2","FL","wod6ma11s3","1536","864","0","0","0","5f8228f40afba53534e6f583","","null","","","learningBlock1","","","","<div style=""font-size:60px;""> </div>","null","FL","learning/Slide3.JPG","That was a bim.","","",""
"image-keyboard-response","15","182569","0.0-5.0-0.3","FL","wod6ma11s3","1536","864","0","0","0","5f8228f40afba53534e6f583","","null","","","","","","","learning/Slide4.JPG","null","","","","","",""
"html-keyboard-response","16","183721","0.0-5.0-1.3","FL","wod6ma11s3","1536","864","0","0","0","5f8228f40afba53534e6f583","","null","","","learningBlock1","","","","That was a dep.","null","","","","","",""
"html-keyboard-response","17","184723","0.0-5.0-2.3","FL","wod6ma11s3","1536","864","0","0","0","5f8228f40afba53534e6f583","","null","","","learningBlock1","","","","<div style=""font-size:60px;""> </div>","null","FL","learning/Slide4.JPG","That was a dep.","","",""
"image-keyboard-response","18","184900","0.0-5.0-0.4","FL","wod6ma11s3","1536","864","0","0","0","5f8228f40afba53534e6f583","","null","","","","","","","learning/Slide5.JPG","null","","","","","",""
"html-keyboard-response","19","186053","0.0-5.0-1.4","FL","wod6ma11s3","1536","864","0","0","0","5f8228f40afba53534e6f583","","null","","","learningBlock1","","","","That was a wug.","null","","","","","",""
"html-keyboard-response","20","187056","0.0-5.0-2.4","FL","wod6ma11s3","1536","864","0","0","0","5f8228f40afba53534e6f583","","null","","","learningBlock1","","","","<div style=""font-size:60px;""> </div>","null","FL","learning/Slide5.JPG","That was a wug.","","",""
"image-keyboard-response","21","187233","0.0-5.0-0.5","FL","wod6ma11s3","1536","864","0","0","0","5f8228f40afba53534e6f583","","null","","","","","","","learning/Slide6.JPG","null","","","","","",""
"html-keyboard-response","22","188385","0.0-5.0-1.5","FL","wod6ma11s3","1536","864","0","0","0","5f8228f40afba53534e6f583","","null","","","learningBlock1","","","","That was a dep.","null","","","","","",""
"html-keyboard-response","23","189387","0.0-5.0-2.5","FL","wod6ma11s3","1536","864","0","0","0","5f8228f40afba53534e6f583","","null","","","learningBlock1","","","","<div style=""font-size:60px;""> </div>","null","FL","learning/Slide6.JPG","That was a dep.","","",""
"image-keyboard-response","24","189565","0.0-5.0-0.6","FL","wod6ma11s3","1536","864","0","0","0","5f8228f40afba53534e6f583","","null","","","","","","","learning/Slide7.JPG","null","","","","","",""
"html-keyboard-response","25","190717","0.0-5.0-1.6","FL","wod6ma11s3","1536","864","0","0","0","5f8228f40afba53534e6f583","","null","","","learningBlock1","","","","That was a wug.","null","","","","","",""
"html-keyboard-response","26","191719","0.0-5.0-2.6","FL","wod6ma11s3","1536","864","0","0","0","5f8228f40afba53534e6f583","","null","","","learningBlock1","","","","<div style=""font-size:60px;""> </div>","null","FL","learning/Slide7.JPG","That was a wug.","","",""
"image-keyboard-response","27","191898","0.0-5.0-0.7","FL","wod6ma11s3","1536","864","0","0","0","5f8228f40afba53534e6f583","","null","","","","","","","learning/Slide8.JPG","null","","","","","",""
"html-keyboard-response","28","193050","0.0-5.0-1.7","FL","wod6ma11s3","1536","864","0","0","0","5f8228f40afba53534e6f583","","null","","","learningBlock1","","","","That was a bim.","null","","","","","",""
"html-keyboard-response","29","194054","0.0-5.0-2.7","FL","wod6ma11s3","1536","864","0","0","0","5f8228f40afba53534e6f583","","null","","","learningBlock1","","","","<div style=""font-size:60px;""> </div>","null","FL","learning/Slide8.JPG","That was a bim.","","",""
"image-keyboard-response","30","194231","0.0-5.0-0.8","FL","wod6ma11s3","1536","864","0","0","0","5f8228f40afba53534e6f583","","null","","","","","","","learning/Slide9.JPG","null","","","","","",""
"html-keyboard-response","31","195385","0.0-5.0-1.8","FL","wod6ma11s3","1536","864","0","0","0","5f8228f40afba53534e6f583","","null","","","learningBlock1","","","","That was a wug.","null","","","","","",""
"html-keyboard-response","32","196386","0.0-5.0-2.8","FL","wod6ma11s3","1536","864","0","0","0","5f8228f40afba53534e6f583","","null","","","learningBlock1","","","","<div style=""font-size:60px;""> </div>","null","FL","learning/Slide9.JPG","That was a wug.","","",""
"image-keyboard-response","33","196565","0.0-5.0-0.9","FL","wod6ma11s3","1536","864","0","0","0","5f8228f40afba53534e6f583","","null","","","","","","","learning/Slide10.JPG","null","","","","","",""
"html-keyboard-response","34","197719","0.0-5.0-1.9","FL","wod6ma11s3","1536","864","0","0","0","5f8228f40afba53534e6f583","","null","","","learningBlock1","","","","That was a dep.","null","","","","","",""
"html-keyboard-response","35","198722","0.0-5.0-2.9","FL","wod6ma11s3","1536","864","0","0","0","5f8228f40afba53534e6f583","","null","","","learningBlock1","","","","<div style=""font-size:60px;""> </div>","null","FL","learning/Slide10.JPG","That was a dep.","","",""
"image-keyboard-response","36","198901","0.0-5.0-0.10","FL","wod6ma11s3","1536","864","0","0","0","5f8228f40afba53534e6f583","","null","","","","","","","learning/Slide11.JPG","null","","","","","",""
"html-keyboard-response","37","200056","0.0-5.0-1.10","FL","wod6ma11s3","1536","864","0","0","0","5f8228f40afba53534e6f583","","null","","","learningBlock1","","","","That was a tob.","null","","","","","",""
"html-keyboard-response","38","201058","0.0-5.0-2.10","FL","wod6ma11s3","1536","864","0","0","0","5f8228f40afba53534e6f583","","null","","","learningBlock1","","","","<div style=""font-size:60px;""> </div>","null","FL","learning/Slide11.JPG","That was a tob.","","",""
"image-keyboard-response","39","201235","0.0-5.0-0.11","FL","wod6ma11s3","1536","864","0","0","0","5f8228f40afba53534e6f583","","null","","","","","","","learning/Slide12.JPG","null","","","","","",""
"html-keyboard-response","40","202389","0.0-5.0-1.11","FL","wod6ma11s3","1536","864","0","0","0","5f8228f40afba53534e6f583","","null","","","learningBlock1","","","","That was a dep.","null","","","","","",""
"html-keyboard-response","41","203392","0.0-5.0-2.11","FL","wod6ma11s3","1536","864","0","0","0","5f8228f40afba53534e6f583","","null","","","learningBlock1","","","","<div style=""font-size:60px;""> </div>","null","FL","learning/Slide12.JPG","That was a dep.","","",""
"image-keyboard-response","42","203570","0.0-5.0-0.12","FL","wod6ma11s3","1536","864","0","0","0","5f8228f40afba53534e6f583","","null","","","","","","","learning/Slide13.JPG","null","","","","","",""
"html-keyboard-response","43","204722","0.0-5.0-1.12","FL","wod6ma11s3","1536","864","0","0","0","5f8228f40afba53534e6f583","","null","","","learningBlock1","","","","That was a bim.","null","","","","","",""
"html-keyboard-response","44","205724","0.0-5.0-2.12","FL","wod6ma11s3","1536","864","0","0","0","5f8228f40afba53534e6f583","","null","","","learningBlock1","","","","<div style=""font-size:60px;""> </div>","null","FL","learning/Slide13.JPG","That was a bim.","","",""
"image-keyboard-response","45","205901","0.0-5.0-0.13","FL","wod6ma11s3","1536","864","0","0","0","5f8228f40afba53534e6f583","","null","","","","","","","learning/Slide14.JPG","null","","","","","",""
"html-keyboard-response","46","207055","0.0-5.0-1.13","FL","wod6ma11s3","1536","864","0","0","0","5f8228f40afba53534e6f583","","null","","","learningBlock1","","","","That was a wug.","null","","","","","",""
"html-keyboard-response","47","208059","0.0-5.0-2.13","FL","wod6ma11s3","1536","864","0","0","0","5f8228f40afba53534e6f583","","null","","","learningBlock1","","","","<div style=""font-size:60px;""> </div>","null","FL","learning/Slide14.JPG","That was a wug.","","",""
"image-keyboard-response","48","208238","0.0-5.0-0.14","FL","wod6ma11s3","1536","864","0","0","0","5f8228f40afba53534e6f583","","null","","","","","","","learning/Slide15.JPG","null","","","","","",""
"html-keyboard-response","49","209392","0.0-5.0-1.14","FL","wod6ma11s3","1536","864","0","0","0","5f8228f40afba53534e6f583","","null","","","learningBlock1","","","","That was a tob.","null","","","","","",""
"html-keyboard-response","50","210395","0.0-5.0-2.14","FL","wod6ma11s3","1536","864","0","0","0","5f8228f40afba53534e6f583","","null","","","learningBlock1","","","","<div style=""font-size:60px;""> </div>","null","FL","learning/Slide15.JPG","That was a tob.","","",""
"image-keyboard-response","51","210572","0.0-5.0-0.15","FL","wod6ma11s3","1536","864","0","0","0","5f8228f40afba53534e6f583","","null","","","","","","","learning/Slide16.JPG","null","","","","","",""
"html-keyboard-response","52","211726","0.0-5.0-1.15","FL","wod6ma11s3","1536","864","0","0","0","5f8228f40afba53534e6f583","","null","","","learningBlock1","","","","That was a dep.","null","","","","","",""
"html-keyboard-response","53","212727","0.0-5.0-2.15","FL","wod6ma11s3","1536","864","0","0","0","5f8228f40afba53534e6f583","","null","","","learningBlock1","","","","<div style=""font-size:60px;""> </div>","null","FL","learning/Slide16.JPG","That was a dep.","","",""
"image-keyboard-response","54","212904","0.0-5.0-0.16","FL","wod6ma11s3","1536","864","0","0","0","5f8228f40afba53534e6f583","","null","","","","","","","learning/Slide17.JPG","null","","","","","",""
"html-keyboard-response","55","214057","0.0-5.0-1.16","FL","wod6ma11s3","1536","864","0","0","0","5f8228f40afba53534e6f583","","null","","","learningBlock1","","","","That was a bim.","null","","","","","",""
"html-keyboard-response","56","215058","0.0-5.0-2.16","FL","wod6ma11s3","1536","864","0","0","0","5f8228f40afba53534e6f583","","null","","","learningBlock1","","","","<div style=""font-size:60px;""> </div>","null","FL","learning/Slide17.JPG","That was a bim.","","",""
"image-keyboard-response","57","215235","0.0-5.0-0.17","FL","wod6ma11s3","1536","864","0","0","0","5f8228f40afba53534e6f583","","null","","","","","","","learning/Slide18.JPG","null","","","","","",""
"html-keyboard-response","58","216389","0.0-5.0-1.17","FL","wod6ma11s3","1536","864","0","0","0","5f8228f40afba53534e6f583","","null","","","learningBlock1","","","","That was a tob.","null","","","","","",""
"html-keyboard-response","59","217391","0.0-5.0-2.17","FL","wod6ma11s3","1536","864","0","0","0","5f8228f40afba53534e6f583","","null","","","learningBlock1","","","","<div style=""font-size:60px;""> </div>","null","FL","learning/Slide18.JPG","That was a tob.","","",""
"image-keyboard-response","60","217568","0.0-5.0-0.18","FL","wod6ma11s3","1536","864","0","0","0","5f8228f40afba53534e6f583","","null","","","","","","","learning/Slide19.JPG","null","","","","","",""
"html-keyboard-response","61","218721","0.0-5.0-1.18","FL","wod6ma11s3","1536","864","0","0","0","5f8228f40afba53534e6f583","","null","","","learningBlock1","","","","That was a wug.","null","","","","","",""
"html-keyboard-response","62","219724","0.0-5.0-2.18","FL","wod6ma11s3","1536","864","0","0","0","5f8228f40afba53534e6f583","","null","","","learningBlock1","","","","<div style=""font-size:60px;""> </div>","null","FL","learning/Slide19.JPG","That was a wug.","","",""
"image-keyboard-response","63","219902","0.0-5.0-0.19","FL","wod6ma11s3","1536","864","0","0","0","5f8228f40afba53534e6f583","","null","","","","","","","learning/Slide20.JPG","null","","","","","",""
"html-keyboard-response","64","221056","0.0-5.0-1.19","FL","wod6ma11s3","1536","864","0","0","0","5f8228f40afba53534e6f583","","null","","","learningBlock1","","","","That was a bim.","null","","","","","",""
"html-keyboard-response","65","222057","0.0-5.0-2.19","FL","wod6ma11s3","1536","864","0","0","0","5f8228f40afba53534e6f583","","null","","","learningBlock1","","","","<div style=""font-size:60px;""> </div>","null","FL","learning/Slide20.JPG","That was a bim.","","",""
"image-keyboard-response","66","222234","0.0-5.0-0.20","FL","wod6ma11s3","1536","864","0","0","0","5f8228f40afba53534e6f583","","null","","","","","","","learning/Slide21.JPG","null","","","","","",""
"html-keyboard-response","67","223388","0.0-5.0-1.20","FL","wod6ma11s3","1536","864","0","0","0","5f8228f40afba53534e6f583","","null","","","learningBlock1","","","","That was a dep.","null","","","","","",""
"html-keyboard-response","68","224391","0.0-5.0-2.20","FL","wod6ma11s3","1536","864","0","0","0","5f8228f40afba53534e6f583","","null","","","learningBlock1","","","","<div style=""font-size:60px;""> </div>","null","FL","learning/Slide21.JPG","That was a dep.","","",""
"image-keyboard-response","69","224575","0.0-5.0-0.21","FL","wod6ma11s3","1536","864","0","0","0","5f8228f40afba53534e6f583","","null","","","","","","","learning/Slide22.JPG","null","","","","","",""
"html-keyboard-response","70","225730","0.0-5.0-1.21","FL","wod6ma11s3","1536","864","0","0","0","5f8228f40afba53534e6f583","","null","","","learningBlock1","","","","That was a bim.","null","","","","","",""
"html-keyboard-response","71","226733","0.0-5.0-2.21","FL","wod6ma11s3","1536","864","0","0","0","5f8228f40afba53534e6f583","","null","","","learningBlock1","","","","<div style=""font-size:60px;""> </div>","null","FL","learning/Slide22.JPG","That was a bim.","","",""
"image-keyboard-response","72","226910","0.0-5.0-0.22","FL","wod6ma11s3","1536","864","0","0","0","5f8228f40afba53534e6f583","","null","","","","","","","learning/Slide23.JPG","null","","","","","",""
"html-keyboard-response","73","228062","0.0-5.0-1.22","FL","wod6ma11s3","1536","864","0","0","0","5f8228f40afba53534e6f583","","null","","","learningBlock1","","","","That was a tob.","null","","","","","",""
"html-keyboard-response","74","229063","0.0-5.0-2.22","FL","wod6ma11s3","1536","864","0","0","0","5f8228f40afba53534e6f583","","null","","","learningBlock1","","","","<div style=""font-size:60px;""> </div>","null","FL","learning/Slide23.JPG","That was a tob.","","",""
"image-keyboard-response","75","229242","0.0-5.0-0.23","FL","wod6ma11s3","1536","864","0","0","0","5f8228f40afba53534e6f583","","null","","","","","","","learning/Slide24.JPG","null","","","","","",""
"html-keyboard-response","76","230394","0.0-5.0-1.23","FL","wod6ma11s3","1536","864","0","0","0","5f8228f40afba53534e6f583","","null","","","learningBlock1","","","","That was a wug.","null","","","","","",""
"html-keyboard-response","77","231396","0.0-5.0-2.23","FL","wod6ma11s3","1536","864","0","0","0","5f8228f40afba53534e6f583","","null","","","learningBlock1","","","","<div style=""font-size:60px;""> </div>","null","FL","learning/Slide24.JPG","That was a wug.","","",""
"image-keyboard-response","78","231573","0.0-5.0-0.24","FL","wod6ma11s3","1536","864","0","0","0","5f8228f40afba53534e6f583","","null","","","","","","","learning/Slide25.JPG","null","","","","","",""
"html-keyboard-response","79","232725","0.0-5.0-1.24","FL","wod6ma11s3","1536","864","0","0","0","5f8228f40afba53534e6f583","","null","","","learningBlock1","","","","That was a dep.","null","","","","","",""
"html-keyboard-response","80","233728","0.0-5.0-2.24","FL","wod6ma11s3","1536","864","0","0","0","5f8228f40afba53534e6f583","","null","","","learningBlock1","","","","<div style=""font-size:60px;""> </div>","null","FL","learning/Slide25.JPG","That was a dep.","","",""
"image-keyboard-response","81","233905","0.0-5.0-0.25","FL","wod6ma11s3","1536","864","0","0","0","5f8228f40afba53534e6f583","","null","","","","","","","learning/Slide26.JPG","null","","","","","",""
"html-keyboard-response","82","235057","0.0-5.0-1.25","FL","wod6ma11s3","1536","864","0","0","0","5f8228f40afba53534e6f583","","null","","","learningBlock1","","","","That was a wug.","null","","","","","",""
"html-keyboard-response","83","236059","0.0-5.0-2.25","FL","wod6ma11s3","1536","864","0","0","0","5f8228f40afba53534e6f583","","null","","","learningBlock1","","","","<div style=""font-size:60px;""> </div>","null","FL","learning/Slide26.JPG","That was a wug.","","",""
"image-keyboard-response","84","236237","0.0-5.0-0.26","FL","wod6ma11s3","1536","864","0","0","0","5f8228f40afba53534e6f583","","null","","","","","","","learning/Slide27.JPG","null","","","","","",""
"html-keyboard-response","85","237390","0.0-5.0-1.26","FL","wod6ma11s3","1536","864","0","0","0","5f8228f40afba53534e6f583","","null","","","learningBlock1","","","","That was a bim.","null","","","","","",""
"html-keyboard-response","86","238391","0.0-5.0-2.26","FL","wod6ma11s3","1536","864","0","0","0","5f8228f40afba53534e6f583","","null","","","learningBlock1","","","","<div style=""font-size:60px;""> </div>","null","FL","learning/Slide27.JPG","That was a bim.","","",""
"image-keyboard-response","87","238569","0.0-5.0-0.27","FL","wod6ma11s3","1536","864","0","0","0","5f8228f40afba53534e6f583","","null","","","","","","","learning/Slide28.JPG","null","","","","","",""
"html-keyboard-response","88","239721","0.0-5.0-1.27","FL","wod6ma11s3","1536","864","0","0","0","5f8228f40afba53534e6f583","","null","","","learningBlock1","","","","That was a dep.","null","","","","","",""
"html-keyboard-response","89","240723","0.0-5.0-2.27","FL","wod6ma11s3","1536","864","0","0","0","5f8228f40afba53534e6f583","","null","","","learningBlock1","","","","<div style=""font-size:60px;""> </div>","null","FL","learning/Slide28.JPG","That was a dep.","","",""
"image-keyboard-response","90","240901","0.0-5.0-0.28","FL","wod6ma11s3","1536","864","0","0","0","5f8228f40afba53534e6f583","","null","","","","","","","learning/Slide29.JPG","null","","","","","",""
"html-keyboard-response","91","242054","0.0-5.0-1.28","FL","wod6ma11s3","1536","864","0","0","0","5f8228f40afba53534e6f583","","null","","","learningBlock1","","","","That was a tob.","null","","","","","",""
"html-keyboard-response","92","243056","0.0-5.0-2.28","FL","wod6ma11s3","1536","864","0","0","0","5f8228f40afba53534e6f583","","null","","","learningBlock1","","","","<div style=""font-size:60px;""> </div>","null","FL","learning/Slide29.JPG","That was a tob.","","",""
"image-keyboard-response","93","243233","0.0-5.0-0.29","FL","wod6ma11s3","1536","864","0","0","0","5f8228f40afba53534e6f583","","null","","","","","","","learning/Slide30.JPG","null","","","","","",""
"html-keyboard-response","94","244386","0.0-5.0-1.29","FL","wod6ma11s3","1536","864","0","0","0","5f8228f40afba53534e6f583","","null","","","learningBlock1","","","","That was a dep.","null","","","","","",""
"html-keyboard-response","95","245391","0.0-5.0-2.29","FL","wod6ma11s3","1536","864","0","0","0","5f8228f40afba53534e6f583","","null","","","learningBlock1","","","","<div style=""font-size:60px;""> </div>","null","FL","learning/Slide30.JPG","That was a dep.","","",""
"image-keyboard-response","96","245570","0.0-5.0-0.30","FL","wod6ma11s3","1536","864","0","0","0","5f8228f40afba53534e6f583","","null","","","","","","","learning/Slide31.JPG","null","","","","","",""
"html-keyboard-response","97","246724","0.0-5.0-1.30","FL","wod6ma11s3","1536","864","0","0","0","5f8228f40afba53534e6f583","","null","","","learningBlock1","","","","That was a wug.","null","","","","","",""
"html-keyboard-response","98","247726","0.0-5.0-2.30","FL","wod6ma11s3","1536","864","0","0","0","5f8228f40afba53534e6f583","","null","","","learningBlock1","","","","<div style=""font-size:60px;""> </div>","null","FL","learning/Slide31.JPG","That was a wug.","","",""
"image-keyboard-response","99","247904","0.0-5.0-0.31","FL","wod6ma11s3","1536","864","0","0","0","5f8228f40afba53534e6f583","","null","","","","","","","learning/Slide32.JPG","null","","","","","",""
"html-keyboard-response","100","249058","0.0-5.0-1.31","FL","wod6ma11s3","1536","864","0","0","0","5f8228f40afba53534e6f583","","null","","","learningBlock1","","","","That was a tob.","null","","","","","",""
"html-keyboard-response","101","250061","0.0-5.0-2.31","FL","wod6ma11s3","1536","864","0","0","0","5f8228f40afba53534e6f583","","null","","","learningBlock1","","","","<div style=""font-size:60px;""> </div>","null","FL","learning/Slide32.JPG","That was a tob.","","",""
"image-keyboard-response","102","250238","0.0-5.0-0.32","FL","wod6ma11s3","1536","864","0","0","0","5f8228f40afba53534e6f583","","null","","","","","","","learning/Slide33.JPG","null","","","","","",""
"html-keyboard-response","103","251392","0.0-5.0-1.32","FL","wod6ma11s3","1536","864","0","0","0","5f8228f40afba53534e6f583","","null","","","learningBlock1","","","","That was a bim.","null","","","","","",""
"html-keyboard-response","104","252393","0.0-5.0-2.32","FL","wod6ma11s3","1536","864","0","0","0","5f8228f40afba53534e6f583","","null","","","learningBlock1","","","","<div style=""font-size:60px;""> </div>","null","FL","learning/Slide33.JPG","That was a bim.","","",""
"image-keyboard-response","105","252570","0.0-5.0-0.33","FL","wod6ma11s3","1536","864","0","0","0","5f8228f40afba53534e6f583","","null","","","","","","","learning/Slide34.JPG","null","","","","","",""
"html-keyboard-response","106","253724","0.0-5.0-1.33","FL","wod6ma11s3","1536","864","0","0","0","5f8228f40afba53534e6f583","","null","","","learningBlock1","","","","That was a tob.","null","","","","","",""
"html-keyboard-response","107","254726","0.0-5.0-2.33","FL","wod6ma11s3","1536","864","0","0","0","5f8228f40afba53534e6f583","","null","","","learningBlock1","","","","<div style=""font-size:60px;""> </div>","null","FL","learning/Slide34.JPG","That was a tob.","","",""
"image-keyboard-response","108","254904","0.0-5.0-0.34","FL","wod6ma11s3","1536","864","0","0","0","5f8228f40afba53534e6f583","","null","","","","","","","learning/Slide35.JPG","null","","","","","",""
"html-keyboard-response","109","256055","0.0-5.0-1.34","FL","wod6ma11s3","1536","864","0","0","0","5f8228f40afba53534e6f583","","null","","","learningBlock1","","","","That was a bim.","null","","","","","",""
"html-keyboard-response","110","257057","0.0-5.0-2.34","FL","wod6ma11s3","1536","864","0","0","0","5f8228f40afba53534e6f583","","null","","","learningBlock1","","","","<div style=""font-size:60px;""> </div>","null","FL","learning/Slide35.JPG","That was a bim.","","",""
"image-keyboard-response","111","257234","0.0-5.0-0.35","FL","wod6ma11s3","1536","864","0","0","0","5f8228f40afba53534e6f583","","null","","","","","","","learning/Slide36.JPG","null","","","","","",""
"html-keyboard-response","112","258389","0.0-5.0-1.35","FL","wod6ma11s3","1536","864","0","0","0","5f8228f40afba53534e6f583","","null","","","learningBlock1","","","","That was a dep.","null","","","","","",""
"html-keyboard-response","113","259393","0.0-5.0-2.35","FL","wod6ma11s3","1536","864","0","0","0","5f8228f40afba53534e6f583","","null","","","learningBlock1","","","","<div style=""font-size:60px;""> </div>","null","FL","learning/Slide36.JPG","That was a dep.","","",""
"image-keyboard-response","114","259571","0.0-5.0-0.36","FL","wod6ma11s3","1536","864","0","0","0","5f8228f40afba53534e6f583","","null","","","","","","","learning/Slide37.JPG","null","","","","","",""
"html-keyboard-response","115","260726","0.0-5.0-1.36","FL","wod6ma11s3","1536","864","0","0","0","5f8228f40afba53534e6f583","","null","","","learningBlock1","","","","That was a tob.","null","","","","","",""
"html-keyboard-response","116","261728","0.0-5.0-2.36","FL","wod6ma11s3","1536","864","0","0","0","5f8228f40afba53534e6f583","","null","","","learningBlock1","","","","<div style=""font-size:60px;""> </div>","null","FL","learning/Slide37.JPG","That was a tob.","","",""
"image-keyboard-response","117","261907","0.0-5.0-0.37","FL","wod6ma11s3","1536","864","0","0","0","5f8228f40afba53534e6f583","","null","","","","","","","learning/Slide38.JPG","null","","","","","",""
"html-keyboard-response","118","263059","0.0-5.0-1.37","FL","wod6ma11s3","1536","864","0","0","0","5f8228f40afba53534e6f583","","null","","","learningBlock1","","","","That was a wug.","null","","","","","",""
"html-keyboard-response","119","264061","0.0-5.0-2.37","FL","wod6ma11s3","1536","864","0","0","0","5f8228f40afba53534e6f583","","null","","","learningBlock1","","","","<div style=""font-size:60px;""> </div>","null","FL","learning/Slide38.JPG","That was a wug.","","",""
"image-keyboard-response","120","264240","0.0-5.0-0.38","FL","wod6ma11s3","1536","864","0","0","0","5f8228f40afba53534e6f583","","null","","","","","","","learning/Slide39.JPG","null","","","","","",""
"html-keyboard-response","121","265393","0.0-5.0-1.38","FL","wod6ma11s3","1536","864","0","0","0","5f8228f40afba53534e6f583","","null","","","learningBlock1","","","","That was a bim.","null","","","","","",""
"html-keyboard-response","122","266397","0.0-5.0-2.38","FL","wod6ma11s3","1536","864","0","0","0","5f8228f40afba53534e6f583","","null","","","learningBlock1","","","","<div style=""font-size:60px;""> </div>","null","FL","learning/Slide39.JPG","That was a bim.","","",""
"image-keyboard-response","123","266574","0.0-5.0-0.39","FL","wod6ma11s3","1536","864","0","0","0","5f8228f40afba53534e6f583","","null","","","","","","","learning/Slide40.JPG","null","","","","","",""
"html-keyboard-response","124","267727","0.0-5.0-1.39","FL","wod6ma11s3","1536","864","0","0","0","5f8228f40afba53534e6f583","","null","","","learningBlock1","","","","That was a tob.","null","","","","","",""
"html-keyboard-response","125","268728","0.0-5.0-2.39","FL","wod6ma11s3","1536","864","0","0","0","5f8228f40afba53534e6f583","","null","","","learningBlock1","","","","<div style=""font-size:60px;""> </div>","null","FL","learning/Slide40.JPG","That was a tob.","","",""
"image-keyboard-response","126","268905","0.0-5.0-0.40","FL","wod6ma11s3","1536","864","0","0","0","5f8228f40afba53534e6f583","","null","","","","","","","learning/Slide41.JPG","null","","","","","",""
"html-keyboard-response","127","270057","0.0-5.0-1.40","FL","wod6ma11s3","1536","864","0","0","0","5f8228f40afba53534e6f583","","null","","","learningBlock1","","","","That was a bim.","null","","","","","",""
"html-keyboard-response","128","271059","0.0-5.0-2.40","FL","wod6ma11s3","1536","864","0","0","0","5f8228f40afba53534e6f583","","null","","","learningBlock1","","","","<div style=""font-size:60px;""> </div>","null","FL","learning/Slide41.JPG","That was a bim.","","",""
"image-keyboard-response","129","271237","0.0-5.0-0.41","FL","wod6ma11s3","1536","864","0","0","0","5f8228f40afba53534e6f583","","null","","","","","","","learning/Slide42.JPG","null","","","","","",""
"html-keyboard-response","130","272389","0.0-5.0-1.41","FL","wod6ma11s3","1536","864","0","0","0","5f8228f40afba53534e6f583","","null","","","learningBlock1","","","","That was a dep.","null","","","","","",""
"html-keyboard-response","131","273392","0.0-5.0-2.41","FL","wod6ma11s3","1536","864","0","0","0","5f8228f40afba53534e6f583","","null","","","learningBlock1","","","","<div style=""font-size:60px;""> </div>","null","FL","learning/Slide42.JPG","That was a dep.","","",""
"image-keyboard-response","132","273570","0.0-5.0-0.42","FL","wod6ma11s3","1536","864","0","0","0","5f8228f40afba53534e6f583","","null","","","","","","","learning/Slide43.JPG","null","","","","","",""
"html-keyboard-response","133","274723","0.0-5.0-1.42","FL","wod6ma11s3","1536","864","0","0","0","5f8228f40afba53534e6f583","","null","","","learningBlock1","","","","That was a wug.","null","","","","","",""
"html-keyboard-response","134","275727","0.0-5.0-2.42","FL","wod6ma11s3","1536","864","0","0","0","5f8228f40afba53534e6f583","","null","","","learningBlock1","","","","<div style=""font-size:60px;""> </div>","null","FL","learning/Slide43.JPG","That was a wug.","","",""
"image-keyboard-response","135","275906","0.0-5.0-0.43","FL","wod6ma11s3","1536","864","0","0","0","5f8228f40afba53534e6f583","","null","","","","","","","learning/Slide44.JPG","null","","","","","",""
"html-keyboard-response","136","277059","0.0-5.0-1.43","FL","wod6ma11s3","1536","864","0","0","0","5f8228f40afba53534e6f583","","null","","","learningBlock1","","","","That was a bim.","null","","","","","",""
"html-keyboard-response","137","278062","0.0-5.0-2.43","FL","wod6ma11s3","1536","864","0","0","0","5f8228f40afba53534e6f583","","null","","","learningBlock1","","","","<div style=""font-size:60px;""> </div>","null","FL","learning/Slide44.JPG","That was a bim.","","",""
"image-keyboard-response","138","278239","0.0-5.0-0.44","FL","wod6ma11s3","1536","864","0","0","0","5f8228f40afba53534e6f583","","null","","","","","","","learning/Slide45.JPG","null","","","","","",""
"html-keyboard-response","139","279393","0.0-5.0-1.44","FL","wod6ma11s3","1536","864","0","0","0","5f8228f40afba53534e6f583","","null","","","learningBlock1","","","","That was a wug.","null","","","","","",""
"html-keyboard-response","140","280395","0.0-5.0-2.44","FL","wod6ma11s3","1536","864","0","0","0","5f8228f40afba53534e6f583","","null","","","learningBlock1","","","","<div style=""font-size:60px;""> </div>","null","FL","learning/Slide45.JPG","That was a wug.","","",""
"image-keyboard-response","141","280572","0.0-5.0-0.45","FL","wod6ma11s3","1536","864","0","0","0","5f8228f40afba53534e6f583","","null","","","","","","","learning/Slide46.JPG","null","","","","","",""
"html-keyboard-response","142","281727","0.0-5.0-1.45","FL","wod6ma11s3","1536","864","0","0","0","5f8228f40afba53534e6f583","","null","","","learningBlock1","","","","That was a dep.","null","","","","","",""
"html-keyboard-response","143","282729","0.0-5.0-2.45","FL","wod6ma11s3","1536","864","0","0","0","5f8228f40afba53534e6f583","","null","","","learningBlock1","","","","<div style=""font-size:60px;""> </div>","null","FL","learning/Slide46.JPG","That was a dep.","","",""
"image-keyboard-response","144","282906","0.0-5.0-0.46","FL","wod6ma11s3","1536","864","0","0","0","5f8228f40afba53534e6f583","","null","","","","","","","learning/Slide47.JPG","null","","","","","",""
"html-keyboard-response","145","284059","0.0-5.0-1.46","FL","wod6ma11s3","1536","864","0","0","0","5f8228f40afba53534e6f583","","null","","","learningBlock1","","","","That was a tob.","null","","","","","",""
"html-keyboard-response","146","285060","0.0-5.0-2.46","FL","wod6ma11s3","1536","864","0","0","0","5f8228f40afba53534e6f583","","null","","","learningBlock1","","","","<div style=""font-size:60px;""> </div>","null","FL","learning/Slide47.JPG","That was a tob.","","",""
"image-keyboard-response","147","285237","0.0-5.0-0.47","FL","wod6ma11s3","1536","864","0","0","0","5f8228f40afba53534e6f583","","null","","","","","","","learning/Slide48.JPG","null","","","","","",""
"html-keyboard-response","148","286390","0.0-5.0-1.47","FL","wod6ma11s3","1536","864","0","0","0","5f8228f40afba53534e6f583","","null","","","learningBlock1","","","","That was a bim.","null","","","","","",""
"html-keyboard-response","149","287392","0.0-5.0-2.47","FL","wod6ma11s3","1536","864","0","0","0","5f8228f40afba53534e6f583","","null","","","learningBlock1","","","","<div style=""font-size:60px;""> </div>","null","FL","learning/Slide48.JPG","That was a bim.","","",""
"image-keyboard-response","150","287569","0.0-5.0-0.48","FL","wod6ma11s3","1536","864","0","0","0","5f8228f40afba53534e6f583","","null","","","","","","","learning/Slide49.JPG","null","","","","","",""
"html-keyboard-response","151","288723","0.0-5.0-1.48","FL","wod6ma11s3","1536","864","0","0","0","5f8228f40afba53534e6f583","","null","","","learningBlock1","","","","That was a dep.","null","","","","","",""
"html-keyboard-response","152","289725","0.0-5.0-2.48","FL","wod6ma11s3","1536","864","0","0","0","5f8228f40afba53534e6f583","","null","","","learningBlock1","","","","<div style=""font-size:60px;""> </div>","null","FL","learning/Slide49.JPG","That was a dep.","","",""
"image-keyboard-response","153","289902","0.0-5.0-0.49","FL","wod6ma11s3","1536","864","0","0","0","5f8228f40afba53534e6f583","","null","","","","","","","learning/Slide50.JPG","null","","","","","",""
"html-keyboard-response","154","291056","0.0-5.0-1.49","FL","wod6ma11s3","1536","864","0","0","0","5f8228f40afba53534e6f583","","null","","","learningBlock1","","","","That was a tob.","null","","","","","",""
"html-keyboard-response","155","292058","0.0-5.0-2.49","FL","wod6ma11s3","1536","864","0","0","0","5f8228f40afba53534e6f583","","null","","","learningBlock1","","","","<div style=""font-size:60px;""> </div>","null","FL","learning/Slide50.JPG","That was a tob.","","",""
"image-keyboard-response","156","292239","0.0-5.0-0.50","FL","wod6ma11s3","1536","864","0","0","0","5f8228f40afba53534e6f583","","null","","","","","","","learning/Slide51.JPG","null","","","","","",""
"html-keyboard-response","157","293395","0.0-5.0-1.50","FL","wod6ma11s3","1536","864","0","0","0","5f8228f40afba53534e6f583","","null","","","learningBlock1","","","","That was a bim.","null","","","","","",""
"html-keyboard-response","158","294397","0.0-5.0-2.50","FL","wod6ma11s3","1536","864","0","0","0","5f8228f40afba53534e6f583","","null","","","learningBlock1","","","","<div style=""font-size:60px;""> </div>","null","FL","learning/Slide51.JPG","That was a bim.","","",""
"image-keyboard-response","159","294575","0.0-5.0-0.51","FL","wod6ma11s3","1536","864","0","0","0","5f8228f40afba53534e6f583","","null","","","","","","","learning/Slide52.JPG","null","","","","","",""
"html-keyboard-response","160","295729","0.0-5.0-1.51","FL","wod6ma11s3","1536","864","0","0","0","5f8228f40afba53534e6f583","","null","","","learningBlock1","","","","That was a wug.","null","","","","","",""
"html-keyboard-response","161","296731","0.0-5.0-2.51","FL","wod6ma11s3","1536","864","0","0","0","5f8228f40afba53534e6f583","","null","","","learningBlock1","","","","<div style=""font-size:60px;""> </div>","null","FL","learning/Slide52.JPG","That was a wug.","","",""
"image-keyboard-response","162","296909","0.0-5.0-0.52","FL","wod6ma11s3","1536","864","0","0","0","5f8228f40afba53534e6f583","","null","","","","","","","learning/Slide53.JPG","null","","","","","",""
"html-keyboard-response","163","298063","0.0-5.0-1.52","FL","wod6ma11s3","1536","864","0","0","0","5f8228f40afba53534e6f583","","null","","","learningBlock1","","","","That was a tob.","null","","","","","",""
"html-keyboard-response","164","299064","0.0-5.0-2.52","FL","wod6ma11s3","1536","864","0","0","0","5f8228f40afba53534e6f583","","null","","","learningBlock1","","","","<div style=""font-size:60px;""> </div>","null","FL","learning/Slide53.JPG","That was a tob.","","",""
"image-keyboard-response","165","299241","0.0-5.0-0.53","FL","wod6ma11s3","1536","864","0","0","0","5f8228f40afba53534e6f583","","null","","","","","","","learning/Slide54.JPG","null","","","","","",""
"html-keyboard-response","166","300393","0.0-5.0-1.53","FL","wod6ma11s3","1536","864","0","0","0","5f8228f40afba53534e6f583","","null","","","learningBlock1","","","","That was a dep.","null","","","","","",""
"html-keyboard-response","167","301395","0.0-5.0-2.53","FL","wod6ma11s3","1536","864","0","0","0","5f8228f40afba53534e6f583","","null","","","learningBlock1","","","","<div style=""font-size:60px;""> </div>","null","FL","learning/Slide54.JPG","That was a dep.","","",""
"image-keyboard-response","168","301572","0.0-5.0-0.54","FL","wod6ma11s3","1536","864","0","0","0","5f8228f40afba53534e6f583","","null","","","","","","","learning/Slide55.JPG","null","","","","","",""
"html-keyboard-response","169","302725","0.0-5.0-1.54","FL","wod6ma11s3","1536","864","0","0","0","5f8228f40afba53534e6f583","","null","","","learningBlock1","","","","That was a bim.","null","","","","","",""
"html-keyboard-response","170","303727","0.0-5.0-2.54","FL","wod6ma11s3","1536","864","0","0","0","5f8228f40afba53534e6f583","","null","","","learningBlock1","","","","<div style=""font-size:60px;""> </div>","null","FL","learning/Slide55.JPG","That was a bim.","","",""
"image-keyboard-response","171","303905","0.0-5.0-0.55","FL","wod6ma11s3","1536","864","0","0","0","5f8228f40afba53534e6f583","","null","","","","","","","learning/Slide56.JPG","null","","","","","",""
"html-keyboard-response","172","305057","0.0-5.0-1.55","FL","wod6ma11s3","1536","864","0","0","0","5f8228f40afba53534e6f583","","null","","","learningBlock1","","","","That was a tob.","null","","","","","",""
"html-keyboard-response","173","306060","0.0-5.0-2.55","FL","wod6ma11s3","1536","864","0","0","0","5f8228f40afba53534e6f583","","null","","","learningBlock1","","","","<div style=""font-size:60px;""> </div>","null","FL","learning/Slide56.JPG","That was a tob.","","",""
"image-keyboard-response","174","306237","0.0-5.0-0.56","FL","wod6ma11s3","1536","864","0","0","0","5f8228f40afba53534e6f583","","null","","","","","","","learning/Slide57.JPG","null","","","","","",""
"html-keyboard-response","175","307390","0.0-5.0-1.56","FL","wod6ma11s3","1536","864","0","0","0","5f8228f40afba53534e6f583","","null","","","learningBlock1","","","","That was a dep.","null","","","","","",""
"html-keyboard-response","176","308393","0.0-5.0-2.56","FL","wod6ma11s3","1536","864","0","0","0","5f8228f40afba53534e6f583","","null","","","learningBlock1","","","","<div style=""font-size:60px;""> </div>","null","FL","learning/Slide57.JPG","That was a dep.","","",""
"image-keyboard-response","177","308572","0.0-5.0-0.57","FL","wod6ma11s3","1536","864","0","0","0","5f8228f40afba53534e6f583","","null","","","","","","","learning/Slide58.JPG","null","","","","","",""
"html-keyboard-response","178","309724","0.0-5.0-1.57","FL","wod6ma11s3","1536","864","0","0","0","5f8228f40afba53534e6f583","","null","","","learningBlock1","","","","That was a wug.","null","","","","","",""
"html-keyboard-response","179","310726","0.0-5.0-2.57","FL","wod6ma11s3","1536","864","0","0","0","5f8228f40afba53534e6f583","","null","","","learningBlock1","","","","<div style=""font-size:60px;""> </div>","null","FL","learning/Slide58.JPG","That was a wug.","","",""
"image-keyboard-response","180","310904","0.0-5.0-0.58","FL","wod6ma11s3","1536","864","0","0","0","5f8228f40afba53534e6f583","","null","","","","","","","learning/Slide59.JPG","null","","","","","",""
"html-keyboard-response","181","312056","0.0-5.0-1.58","FL","wod6ma11s3","1536","864","0","0","0","5f8228f40afba53534e6f583","","null","","","learningBlock1","","","","That was a dep.","null","","","","","",""
"html-keyboard-response","182","313059","0.0-5.0-2.58","FL","wod6ma11s3","1536","864","0","0","0","5f8228f40afba53534e6f583","","null","","","learningBlock1","","","","<div style=""font-size:60px;""> </div>","null","FL","learning/Slide59.JPG","That was a dep.","","",""
"image-keyboard-response","183","313237","0.0-5.0-0.59","FL","wod6ma11s3","1536","864","0","0","0","5f8228f40afba53534e6f583","","null","","","","","","","learning/Slide60.JPG","null","","","","","",""
"html-keyboard-response","184","314390","0.0-5.0-1.59","FL","wod6ma11s3","1536","864","0","0","0","5f8228f40afba53534e6f583","","null","","","learningBlock1","","","","That was a wug.","null","","","","","",""
"html-keyboard-response","185","315391","0.0-5.0-2.59","FL","wod6ma11s3","1536","864","0","0","0","5f8228f40afba53534e6f583","","null","","","learningBlock1","","","","<div style=""font-size:60px;""> </div>","null","FL","learning/Slide60.JPG","That was a wug.","","",""
"image-keyboard-response","186","315569","0.0-5.0-0.60","FL","wod6ma11s3","1536","864","0","0","0","5f8228f40afba53534e6f583","","null","","","","","","","learning/Slide61.JPG","null","","","","","",""
"html-keyboard-response","187","316723","0.0-5.0-1.60","FL","wod6ma11s3","1536","864","0","0","0","5f8228f40afba53534e6f583","","null","","","learningBlock1","","","","That was a bim.","null","","","","","",""
"html-keyboard-response","188","317726","0.0-5.0-2.60","FL","wod6ma11s3","1536","864","0","0","0","5f8228f40afba53534e6f583","","null","","","learningBlock1","","","","<div style=""font-size:60px;""> </div>","null","FL","learning/Slide61.JPG","That was a bim.","","",""
"image-keyboard-response","189","317905","0.0-5.0-0.61","FL","wod6ma11s3","1536","864","0","0","0","5f8228f40afba53534e6f583","","null","","","","","","","learning/Slide62.JPG","null","","","","","",""
"html-keyboard-response","190","319058","0.0-5.0-1.61","FL","wod6ma11s3","1536","864","0","0","0","5f8228f40afba53534e6f583","","null","","","learningBlock1","","","","That was a dep.","null","","","","","",""
"html-keyboard-response","191","320060","0.0-5.0-2.61","FL","wod6ma11s3","1536","864","0","0","0","5f8228f40afba53534e6f583","","null","","","learningBlock1","","","","<div style=""font-size:60px;""> </div>","null","FL","learning/Slide62.JPG","That was a dep.","","",""
"image-keyboard-response","192","320237","0.0-5.0-0.62","FL","wod6ma11s3","1536","864","0","0","0","5f8228f40afba53534e6f583","","null","","","","","","","learning/Slide63.JPG","null","","","","","",""
"html-keyboard-response","193","321389","0.0-5.0-1.62","FL","wod6ma11s3","1536","864","0","0","0","5f8228f40afba53534e6f583","","null","","","learningBlock1","","","","That was a bim.","null","","","","","",""
"html-keyboard-response","194","322392","0.0-5.0-2.62","FL","wod6ma11s3","1536","864","0","0","0","5f8228f40afba53534e6f583","","null","","","learningBlock1","","","","<div style=""font-size:60px;""> </div>","null","FL","learning/Slide63.JPG","That was a bim.","","",""
"image-keyboard-response","195","322568","0.0-5.0-0.63","FL","wod6ma11s3","1536","864","0","0","0","5f8228f40afba53534e6f583","","null","","","","","","","learning/Slide64.JPG","null","","","","","",""
"html-keyboard-response","196","323722","0.0-5.0-1.63","FL","wod6ma11s3","1536","864","0","0","0","5f8228f40afba53534e6f583","","null","","","learningBlock1","","","","That was a tob.","null","","","","","",""
"html-keyboard-response","197","324724","0.0-5.0-2.63","FL","wod6ma11s3","1536","864","0","0","0","5f8228f40afba53534e6f583","","null","","","learningBlock1","","","","<div style=""font-size:60px;""> </div>","null","FL","learning/Slide64.JPG","That was a tob.","","",""
"image-keyboard-response","198","324901","0.0-5.0-0.64","FL","wod6ma11s3","1536","864","0","0","0","5f8228f40afba53534e6f583","","null","","","","","","","learning/Slide65.JPG","null","","","","","",""
"html-keyboard-response","199","326055","0.0-5.0-1.64","FL","wod6ma11s3","1536","864","0","0","0","5f8228f40afba53534e6f583","","null","","","learningBlock1","","","","That was a wug.","null","","","","","",""
"html-keyboard-response","200","327057","0.0-5.0-2.64","FL","wod6ma11s3","1536","864","0","0","0","5f8228f40afba53534e6f583","","null","","","learningBlock1","","","","<div style=""font-size:60px;""> </div>","null","FL","learning/Slide65.JPG","That was a wug.","","",""
"image-keyboard-response","201","327234","0.0-5.0-0.65","FL","wod6ma11s3","1536","864","0","0","0","5f8228f40afba53534e6f583","","null","","","","","","","learning/Slide66.JPG","null","","","","","",""
"html-keyboard-response","202","328389","0.0-5.0-1.65","FL","wod6ma11s3","1536","864","0","0","0","5f8228f40afba53534e6f583","","null","","","learningBlock1","","","","That was a dep.","null","","","","","",""
"html-keyboard-response","203","329392","0.0-5.0-2.65","FL","wod6ma11s3","1536","864","0","0","0","5f8228f40afba53534e6f583","","null","","","learningBlock1","","","","<div style=""font-size:60px;""> </div>","null","FL","learning/Slide66.JPG","That was a dep.","","",""
"image-keyboard-response","204","329571","0.0-5.0-0.66","FL","wod6ma11s3","1536","864","0","0","0","5f8228f40afba53534e6f583","","null","","","","","","","learning/Slide67.JPG","null","","","","","",""
"html-keyboard-response","205","330725","0.0-5.0-1.66","FL","wod6ma11s3","1536","864","0","0","0","5f8228f40afba53534e6f583","","null","","","learningBlock1","","","","That was a tob.","null","","","","","",""
"html-keyboard-response","206","331729","0.0-5.0-2.66","FL","wod6ma11s3","1536","864","0","0","0","5f8228f40afba53534e6f583","","null","","","learningBlock1","","","","<div style=""font-size:60px;""> </div>","null","FL","learning/Slide67.JPG","That was a tob.","","",""
"image-keyboard-response","207","331906","0.0-5.0-0.67","FL","wod6ma11s3","1536","864","0","0","0","5f8228f40afba53534e6f583","","null","","","","","","","learning/Slide68.JPG","null","","","","","",""
"html-keyboard-response","208","333059","0.0-5.0-1.67","FL","wod6ma11s3","1536","864","0","0","0","5f8228f40afba53534e6f583","","null","","","learningBlock1","","","","That was a wug.","null","","","","","",""
"html-keyboard-response","209","334062","0.0-5.0-2.67","FL","wod6ma11s3","1536","864","0","0","0","5f8228f40afba53534e6f583","","null","","","learningBlock1","","","","<div style=""font-size:60px;""> </div>","null","FL","learning/Slide68.JPG","That was a wug.","","",""
"image-keyboard-response","210","334238","0.0-5.0-0.68","FL","wod6ma11s3","1536","864","0","0","0","5f8228f40afba53534e6f583","","null","","","","","","","learning/Slide69.JPG","null","","","","","",""
"html-keyboard-response","211","335392","0.0-5.0-1.68","FL","wod6ma11s3","1536","864","0","0","0","5f8228f40afba53534e6f583","","null","","","learningBlock1","","","","That was a tob.","null","","","","","",""
"html-keyboard-response","212","336393","0.0-5.0-2.68","FL","wod6ma11s3","1536","864","0","0","0","5f8228f40afba53534e6f583","","null","","","learningBlock1","","","","<div style=""font-size:60px;""> </div>","null","FL","learning/Slide69.JPG","That was a tob.","","",""
"image-keyboard-response","213","336571","0.0-5.0-0.69","FL","wod6ma11s3","1536","864","0","0","0","5f8228f40afba53534e6f583","","null","","","","","","","learning/Slide70.JPG","null","","","","","",""
"html-keyboard-response","214","337724","0.0-5.0-1.69","FL","wod6ma11s3","1536","864","0","0","0","5f8228f40afba53534e6f583","","null","","","learningBlock1","","","","That was a dep.","null","","","","","",""
"html-keyboard-response","215","338725","0.0-5.0-2.69","FL","wod6ma11s3","1536","864","0","0","0","5f8228f40afba53534e6f583","","null","","","learningBlock1","","","","<div style=""font-size:60px;""> </div>","null","FL","learning/Slide70.JPG","That was a dep.","","",""
"image-keyboard-response","216","338901","0.0-5.0-0.70","FL","wod6ma11s3","1536","864","0","0","0","5f8228f40afba53534e6f583","","null","","","","","","","learning/Slide71.JPG","null","","","","","",""
"html-keyboard-response","217","340054","0.0-5.0-1.70","FL","wod6ma11s3","1536","864","0","0","0","5f8228f40afba53534e6f583","","null","","","learningBlock1","","","","That was a wug.","null","","","","","",""
"html-keyboard-response","218","341056","0.0-5.0-2.70","FL","wod6ma11s3","1536","864","0","0","0","5f8228f40afba53534e6f583","","null","","","learningBlock1","","","","<div style=""font-size:60px;""> </div>","null","FL","learning/Slide71.JPG","That was a wug.","","",""
"image-keyboard-response","219","341233","0.0-5.0-0.71","FL","wod6ma11s3","1536","864","0","0","0","5f8228f40afba53534e6f583","","null","","","","","","","learning/Slide72.JPG","null","","","","","",""
"html-keyboard-response","220","342385","0.0-5.0-1.71","FL","wod6ma11s3","1536","864","0","0","0","5f8228f40afba53534e6f583","","null","","","learningBlock1","","","","That was a bim.","null","","","","","",""
"html-keyboard-response","221","343387","0.0-5.0-2.71","FL","wod6ma11s3","1536","864","0","0","0","5f8228f40afba53534e6f583","","null","","","learningBlock1","","","","<div style=""font-size:60px;""> </div>","null","FL","learning/Slide72.JPG","That was a bim.","","",""
"image-keyboard-response","222","343564","0.0-5.0-0.72","FL","wod6ma11s3","1536","864","0","0","0","5f8228f40afba53534e6f583","","null","","","","","","","learning/Slide73.JPG","null","","","","","",""
"html-keyboard-response","223","344716","0.0-5.0-1.72","FL","wod6ma11s3","1536","864","0","0","0","5f8228f40afba53534e6f583","","null","","","learningBlock1","","","","That was a wug.","null","","","","","",""
"html-keyboard-response","224","345717","0.0-5.0-2.72","FL","wod6ma11s3","1536","864","0","0","0","5f8228f40afba53534e6f583","","null","","","learningBlock1","","","","<div style=""font-size:60px;""> </div>","null","FL","learning/Slide73.JPG","That was a wug.","","",""
"image-keyboard-response","225","345895","0.0-5.0-0.73","FL","wod6ma11s3","1536","864","0","0","0","5f8228f40afba53534e6f583","","null","","","","","","","learning/Slide74.JPG","null","","","","","",""
"html-keyboard-response","226","347048","0.0-5.0-1.73","FL","wod6ma11s3","1536","864","0","0","0","5f8228f40afba53534e6f583","","null","","","learningBlock1","","","","That was a dep.","null","","","","","",""
"html-keyboard-response","227","348049","0.0-5.0-2.73","FL","wod6ma11s3","1536","864","0","0","0","5f8228f40afba53534e6f583","","null","","","learningBlock1","","","","<div style=""font-size:60px;""> </div>","null","FL","learning/Slide74.JPG","That was a dep.","","",""
"image-keyboard-response","228","348225","0.0-5.0-0.74","FL","wod6ma11s3","1536","864","0","0","0","5f8228f40afba53534e6f583","","null","","","","","","","learning/Slide75.JPG","null","","","","","",""
"html-keyboard-response","229","349377","0.0-5.0-1.74","FL","wod6ma11s3","1536","864","0","0","0","5f8228f40afba53534e6f583","","null","","","learningBlock1","","","","That was a tob.","null","","","","","",""
"html-keyboard-response","230","350380","0.0-5.0-2.74","FL","wod6ma11s3","1536","864","0","0","0","5f8228f40afba53534e6f583","","null","","","learningBlock1","","","","<div style=""font-size:60px;""> </div>","null","FL","learning/Slide75.JPG","That was a tob.","","",""
"image-keyboard-response","231","350558","0.0-5.0-0.75","FL","wod6ma11s3","1536","864","0","0","0","5f8228f40afba53534e6f583","","null","","","","","","","learning/Slide76.JPG","null","","","","","",""
"html-keyboard-response","232","351710","0.0-5.0-1.75","FL","wod6ma11s3","1536","864","0","0","0","5f8228f40afba53534e6f583","","null","","","learningBlock1","","","","That was a bim.","null","","","","","",""
"html-keyboard-response","233","352712","0.0-5.0-2.75","FL","wod6ma11s3","1536","864","0","0","0","5f8228f40afba53534e6f583","","null","","","learningBlock1","","","","<div style=""font-size:60px;""> </div>","null","FL","learning/Slide76.JPG","That was a bim.","","",""
"image-keyboard-response","234","352889","0.0-5.0-0.76","FL","wod6ma11s3","1536","864","0","0","0","5f8228f40afba53534e6f583","","null","","","","","","","learning/Slide77.JPG","null","","","","","",""
"html-keyboard-response","235","354043","0.0-5.0-1.76","FL","wod6ma11s3","1536","864","0","0","0","5f8228f40afba53534e6f583","","null","","","learningBlock1","","","","That was a tob.","null","","","","","",""
"html-keyboard-response","236","355047","0.0-5.0-2.76","FL","wod6ma11s3","1536","864","0","0","0","5f8228f40afba53534e6f583","","null","","","learningBlock1","","","","<div style=""font-size:60px;""> </div>","null","FL","learning/Slide77.JPG","That was a tob.","","",""
"image-keyboard-response","237","355225","0.0-5.0-0.77","FL","wod6ma11s3","1536","864","0","0","0","5f8228f40afba53534e6f583","","null","","","","","","","learning/Slide78.JPG","null","","","","","",""
"html-keyboard-response","238","356377","0.0-5.0-1.77","FL","wod6ma11s3","1536","864","0","0","0","5f8228f40afba53534e6f583","","null","","","learningBlock1","","","","That was a wug.","null","","","","","",""
"html-keyboard-response","239","357379","0.0-5.0-2.77","FL","wod6ma11s3","1536","864","0","0","0","5f8228f40afba53534e6f583","","null","","","learningBlock1","","","","<div style=""font-size:60px;""> </div>","null","FL","learning/Slide78.JPG","That was a wug.","","",""
"image-keyboard-response","240","357556","0.0-5.0-0.78","FL","wod6ma11s3","1536","864","0","0","0","5f8228f40afba53534e6f583","","null","","","","","","","learning/Slide79.JPG","null","","","","","",""
"html-keyboard-response","241","358709","0.0-5.0-1.78","FL","wod6ma11s3","1536","864","0","0","0","5f8228f40afba53534e6f583","","null","","","learningBlock1","","","","That was a bim.","null","","","","","",""
"html-keyboard-response","242","359711","0.0-5.0-2.78","FL","wod6ma11s3","1536","864","0","0","0","5f8228f40afba53534e6f583","","null","","","learningBlock1","","","","<div style=""font-size:60px;""> </div>","null","FL","learning/Slide79.JPG","That was a bim.","","",""
"image-keyboard-response","243","359888","0.0-5.0-0.79","FL","wod6ma11s3","1536","864","0","0","0","5f8228f40afba53534e6f583","","null","","","","","","","learning/Slide80.JPG","null","","","","","",""
"html-keyboard-response","244","361042","0.0-5.0-1.79","FL","wod6ma11s3","1536","864","0","0","0","5f8228f40afba53534e6f583","","null","","","learningBlock1","","","","That was a tob.","null","","","","","",""
"html-keyboard-response","245","362045","0.0-5.0-2.79","FL","wod6ma11s3","1536","864","0","0","0","5f8228f40afba53534e6f583","","null","","","learningBlock1","","","","<div style=""font-size:60px;""> </div>","null","FL","learning/Slide80.JPG","That was a tob.","","",""
"instructions","246","365948","0.0-6.0","FL","wod6ma11s3","1536","864","0","0","0","5f8228f40afba53534e6f583","","NA","","[{""page_index"":0,""viewing_time"":3902.040000000852}]","instructions","","","","","","","","","","",""
"image-keyboard-response","247","366127","0.0-7.0-0.0","FL","wod6ma11s3","1536","864","0","0","0","5f8228f40afba53534e6f583","","null","","","","","","","learning/Slide81.JPG","null","","","","","",""
"html-keyboard-response","248","367281","0.0-7.0-1.0","FL","wod6ma11s3","1536","864","0","0","0","5f8228f40afba53534e6f583","","null","","","learningBlock2","","","","That was a wug.","null","","","","","",""
"html-keyboard-response","249","368282","0.0-7.0-2.0","FL","wod6ma11s3","1536","864","0","0","0","5f8228f40afba53534e6f583","","null","","","learningBlock2","","","","<div style=""font-size:60px;""> </div>","null","FL","learning/Slide81.JPG","That was a wug.","","",""
"image-keyboard-response","250","368460","0.0-7.0-0.1","FL","wod6ma11s3","1536","864","0","0","0","5f8228f40afba53534e6f583","","null","","","","","","","learning/Slide82.JPG","null","","","","","",""
"html-keyboard-response","251","369613","0.0-7.0-1.1","FL","wod6ma11s3","1536","864","0","0","0","5f8228f40afba53534e6f583","","null","","","learningBlock2","","","","That was a bim.","null","","","","","",""
"html-keyboard-response","252","370616","0.0-7.0-2.1","FL","wod6ma11s3","1536","864","0","0","0","5f8228f40afba53534e6f583","","null","","","learningBlock2","","","","<div style=""font-size:60px;""> </div>","null","FL","learning/Slide82.JPG","That was a bim.","","",""
"image-keyboard-response","253","370794","0.0-7.0-0.2","FL","wod6ma11s3","1536","864","0","0","0","5f8228f40afba53534e6f583","","null","","","","","","","learning/Slide83.JPG","null","","","","","",""
"html-keyboard-response","254","371947","0.0-7.0-1.2","FL","wod6ma11s3","1536","864","0","0","0","5f8228f40afba53534e6f583","","null","","","learningBlock2","","","","That was a wug.","null","","","","","",""
"html-keyboard-response","255","372951","0.0-7.0-2.2","FL","wod6ma11s3","1536","864","0","0","0","5f8228f40afba53534e6f583","","null","","","learningBlock2","","","","<div style=""font-size:60px;""> </div>","null","FL","learning/Slide83.JPG","That was a wug.","","",""
"image-keyboard-response","256","373127","0.0-7.0-0.3","FL","wod6ma11s3","1536","864","0","0","0","5f8228f40afba53534e6f583","","null","","","","","","","learning/Slide84.JPG","null","","","","","",""
"html-keyboard-response","257","374280","0.0-7.0-1.3","FL","wod6ma11s3","1536","864","0","0","0","5f8228f40afba53534e6f583","","null","","","learningBlock2","","","","That was a dep.","null","","","","","",""
"html-keyboard-response","258","375282","0.0-7.0-2.3","FL","wod6ma11s3","1536","864","0","0","0","5f8228f40afba53534e6f583","","null","","","learningBlock2","","","","<div style=""font-size:60px;""> </div>","null","FL","learning/Slide84.JPG","That was a dep.","","",""
"image-keyboard-response","259","375461","0.0-7.0-0.4","FL","wod6ma11s3","1536","864","0","0","0","5f8228f40afba53534e6f583","","null","","","","","","","learning/Slide85.JPG","null","","","","","",""
"html-keyboard-response","260","376614","0.0-7.0-1.4","FL","wod6ma11s3","1536","864","0","0","0","5f8228f40afba53534e6f583","","null","","","learningBlock2","","","","That was a bim.","null","","","","","",""
"html-keyboard-response","261","377616","0.0-7.0-2.4","FL","wod6ma11s3","1536","864","0","0","0","5f8228f40afba53534e6f583","","null","","","learningBlock2","","","","<div style=""font-size:60px;""> </div>","null","FL","learning/Slide85.JPG","That was a bim.","","",""
"image-keyboard-response","262","377793","0.0-7.0-0.5","FL","wod6ma11s3","1536","864","0","0","0","5f8228f40afba53534e6f583","","null","","","","","","","learning/Slide86.JPG","null","","","","","",""
"html-keyboard-response","263","378946","0.0-7.0-1.5","FL","wod6ma11s3","1536","864","0","0","0","5f8228f40afba53534e6f583","","null","","","learningBlock2","","","","That was a tob.","null","","","","","",""
"html-keyboard-response","264","379947","0.0-7.0-2.5","FL","wod6ma11s3","1536","864","0","0","0","5f8228f40afba53534e6f583","","null","","","learningBlock2","","","","<div style=""font-size:60px;""> </div>","null","FL","learning/Slide86.JPG","That was a tob.","","",""
"image-keyboard-response","265","380124","0.0-7.0-0.6","FL","wod6ma11s3","1536","864","0","0","0","5f8228f40afba53534e6f583","","null","","","","","","","learning/Slide87.JPG","null","","","","","",""
"html-keyboard-response","266","381277","0.0-7.0-1.6","FL","wod6ma11s3","1536","864","0","0","0","5f8228f40afba53534e6f583","","null","","","learningBlock2","","","","That was a wug.","null","","","","","",""
"html-keyboard-response","267","382279","0.0-7.0-2.6","FL","wod6ma11s3","1536","864","0","0","0","5f8228f40afba53534e6f583","","null","","","learningBlock2","","","","<div style=""font-size:60px;""> </div>","null","FL","learning/Slide87.JPG","That was a wug.","","",""
"image-keyboard-response","268","382456","0.0-7.0-0.7","FL","wod6ma11s3","1536","864","0","0","0","5f8228f40afba53534e6f583","","null","","","","","","","learning/Slide88.JPG","null","","","","","",""
"html-keyboard-response","269","383610","0.0-7.0-1.7","FL","wod6ma11s3","1536","864","0","0","0","5f8228f40afba53534e6f583","","null","","","learningBlock2","","","","That was a tob.","null","","","","","",""
"html-keyboard-response","270","384612","0.0-7.0-2.7","FL","wod6ma11s3","1536","864","0","0","0","5f8228f40afba53534e6f583","","null","","","learningBlock2","","","","<div style=""font-size:60px;""> </div>","null","FL","learning/Slide88.JPG","That was a tob.","","",""
"image-keyboard-response","271","384788","0.0-7.0-0.8","FL","wod6ma11s3","1536","864","0","0","0","5f8228f40afba53534e6f583","","null","","","","","","","learning/Slide89.JPG","null","","","","","",""
"html-keyboard-response","272","385941","0.0-7.0-1.8","FL","wod6ma11s3","1536","864","0","0","0","5f8228f40afba53534e6f583","","null","","","learningBlock2","","","","That was a bim.","null","","","","","",""
"html-keyboard-response","273","386942","0.0-7.0-2.8","FL","wod6ma11s3","1536","864","0","0","0","5f8228f40afba53534e6f583","","null","","","learningBlock2","","","","<div style=""font-size:60px;""> </div>","null","FL","learning/Slide89.JPG","That was a bim.","","",""
"image-keyboard-response","274","387120","0.0-7.0-0.9","FL","wod6ma11s3","1536","864","0","0","0","5f8228f40afba53534e6f583","","null","","","","","","","learning/Slide90.JPG","null","","","","","",""
"html-keyboard-response","275","388273","0.0-7.0-1.9","FL","wod6ma11s3","1536","864","0","0","0","5f8228f40afba53534e6f583","","null","","","learningBlock2","","","","That was a dep.","null","","","","","",""
"html-keyboard-response","276","389275","0.0-7.0-2.9","FL","wod6ma11s3","1536","864","0","0","0","5f8228f40afba53534e6f583","","null","","","learningBlock2","","","","<div style=""font-size:60px;""> </div>","null","FL","learning/Slide90.JPG","That was a dep.","","",""
"image-keyboard-response","277","389451","0.0-7.0-0.10","FL","wod6ma11s3","1536","864","0","0","0","5f8228f40afba53534e6f583","","null","","","","","","","learning/Slide91.JPG","null","","","","","",""
"html-keyboard-response","278","390605","0.0-7.0-1.10","FL","wod6ma11s3","1536","864","0","0","0","5f8228f40afba53534e6f583","","null","","","learningBlock2","","","","That was a wug.","null","","","","","",""
"html-keyboard-response","279","391607","0.0-7.0-2.10","FL","wod6ma11s3","1536","864","0","0","0","5f8228f40afba53534e6f583","","null","","","learningBlock2","","","","<div style=""font-size:60px;""> </div>","null","FL","learning/Slide91.JPG","That was a wug.","","",""
"image-keyboard-response","280","391784","0.0-7.0-0.11","FL","wod6ma11s3","1536","864","0","0","0","5f8228f40afba53534e6f583","","null","","","","","","","learning/Slide92.JPG","null","","","","","",""
"html-keyboard-response","281","392937","0.0-7.0-1.11","FL","wod6ma11s3","1536","864","0","0","0","5f8228f40afba53534e6f583","","null","","","learningBlock2","","","","That was a tob.","null","","","","","",""
"html-keyboard-response","282","393940","0.0-7.0-2.11","FL","wod6ma11s3","1536","864","0","0","0","5f8228f40afba53534e6f583","","null","","","learningBlock2","","","","<div style=""font-size:60px;""> </div>","null","FL","learning/Slide92.JPG","That was a tob.","","",""
"image-keyboard-response","283","394117","0.0-7.0-0.12","FL","wod6ma11s3","1536","864","0","0","0","5f8228f40afba53534e6f583","","null","","","","","","","learning/Slide93.JPG","null","","","","","",""
"html-keyboard-response","284","395270","0.0-7.0-1.12","FL","wod6ma11s3","1536","864","0","0","0","5f8228f40afba53534e6f583","","null","","","learningBlock2","","","","That was a bim.","null","","","","","",""
"html-keyboard-response","285","396272","0.0-7.0-2.12","FL","wod6ma11s3","1536","864","0","0","0","5f8228f40afba53534e6f583","","null","","","learningBlock2","","","","<div style=""font-size:60px;""> </div>","null","FL","learning/Slide93.JPG","That was a bim.","","",""
"image-keyboard-response","286","396450","0.0-7.0-0.13","FL","wod6ma11s3","1536","864","0","0","0","5f8228f40afba53534e6f583","","null","","","","","","","learning/Slide94.JPG","null","","","","","",""
"html-keyboard-response","287","397603","0.0-7.0-1.13","FL","wod6ma11s3","1536","864","0","0","0","5f8228f40afba53534e6f583","","null","","","learningBlock2","","","","That was a tob.","null","","","","","",""
"html-keyboard-response","288","398608","0.0-7.0-2.13","FL","wod6ma11s3","1536","864","0","0","0","5f8228f40afba53534e6f583","","null","","","learningBlock2","","","","<div style=""font-size:60px;""> </div>","null","FL","learning/Slide94.JPG","That was a tob.","","",""
"image-keyboard-response","289","398787","0.0-7.0-0.14","FL","wod6ma11s3","1536","864","0","0","0","5f8228f40afba53534e6f583","","null","","","","","","","learning/Slide95.JPG","null","","","","","",""
"html-keyboard-response","290","399941","0.0-7.0-1.14","FL","wod6ma11s3","1536","864","0","0","0","5f8228f40afba53534e6f583","","null","","","learningBlock2","","","","That was a wug.","null","","","","","",""
"html-keyboard-response","291","400943","0.0-7.0-2.14","FL","wod6ma11s3","1536","864","0","0","0","5f8228f40afba53534e6f583","","null","","","learningBlock2","","","","<div style=""font-size:60px;""> </div>","null","FL","learning/Slide95.JPG","That was a wug.","","",""
"image-keyboard-response","292","401121","0.0-7.0-0.15","FL","wod6ma11s3","1536","864","0","0","0","5f8228f40afba53534e6f583","","null","","","","","","","learning/Slide96.JPG","null","","","","","",""
"html-keyboard-response","293","402274","0.0-7.0-1.15","FL","wod6ma11s3","1536","864","0","0","0","5f8228f40afba53534e6f583","","null","","","learningBlock2","","","","That was a tob.","null","","","","","",""
"html-keyboard-response","294","403275","0.0-7.0-2.15","FL","wod6ma11s3","1536","864","0","0","0","5f8228f40afba53534e6f583","","null","","","learningBlock2","","","","<div style=""font-size:60px;""> </div>","null","FL","learning/Slide96.JPG","That was a tob.","","",""
"image-keyboard-response","295","403454","0.0-7.0-0.16","FL","wod6ma11s3","1536","864","0","0","0","5f8228f40afba53534e6f583","","null","","","","","","","learning/Slide97.JPG","null","","","","","",""
"html-keyboard-response","296","404606","0.0-7.0-1.16","FL","wod6ma11s3","1536","864","0","0","0","5f8228f40afba53534e6f583","","null","","","learningBlock2","","","","That was a dep.","null","","","","","",""
"html-keyboard-response","297","405608","0.0-7.0-2.16","FL","wod6ma11s3","1536","864","0","0","0","5f8228f40afba53534e6f583","","null","","","learningBlock2","","","","<div style=""font-size:60px;""> </div>","null","FL","learning/Slide97.JPG","That was a dep.","","",""
"image-keyboard-response","298","405784","0.0-7.0-0.17","FL","wod6ma11s3","1536","864","0","0","0","5f8228f40afba53534e6f583","","null","","","","","","","learning/Slide98.JPG","null","","","","","",""
"html-keyboard-response","299","406936","0.0-7.0-1.17","FL","wod6ma11s3","1536","864","0","0","0","5f8228f40afba53534e6f583","","null","","","learningBlock2","","","","That was a bim.","null","","","","","",""
"html-keyboard-response","300","407939","0.0-7.0-2.17","FL","wod6ma11s3","1536","864","0","0","0","5f8228f40afba53534e6f583","","null","","","learningBlock2","","","","<div style=""font-size:60px;""> </div>","null","FL","learning/Slide98.JPG","That was a bim.","","",""
"image-keyboard-response","301","408117","0.0-7.0-0.18","FL","wod6ma11s3","1536","864","0","0","0","5f8228f40afba53534e6f583","","null","","","","","","","learning/Slide99.JPG","null","","","","","",""
"html-keyboard-response","302","409271","0.0-7.0-1.18","FL","wod6ma11s3","1536","864","0","0","0","5f8228f40afba53534e6f583","","null","","","learningBlock2","","","","That was a dep.","null","","","","","",""
"html-keyboard-response","303","410273","0.0-7.0-2.18","FL","wod6ma11s3","1536","864","0","0","0","5f8228f40afba53534e6f583","","null","","","learningBlock2","","","","<div style=""font-size:60px;""> </div>","null","FL","learning/Slide99.JPG","That was a dep.","","",""
"image-keyboard-response","304","410451","0.0-7.0-0.19","FL","wod6ma11s3","1536","864","0","0","0","5f8228f40afba53534e6f583","","null","","","","","","","learning/Slide100.JPG","null","","","","","",""
"html-keyboard-response","305","411605","0.0-7.0-1.19","FL","wod6ma11s3","1536","864","0","0","0","5f8228f40afba53534e6f583","","null","","","learningBlock2","","","","That was a bim.","null","","","","","",""
"html-keyboard-response","306","412607","0.0-7.0-2.19","FL","wod6ma11s3","1536","864","0","0","0","5f8228f40afba53534e6f583","","null","","","learningBlock2","","","","<div style=""font-size:60px;""> </div>","null","FL","learning/Slide100.JPG","That was a bim.","","",""
"image-keyboard-response","307","412786","0.0-7.0-0.20","FL","wod6ma11s3","1536","864","0","0","0","5f8228f40afba53534e6f583","","null","","","","","","","learning/Slide101.JPG","null","","","","","",""
"html-keyboard-response","308","413939","0.0-7.0-1.20","FL","wod6ma11s3","1536","864","0","0","0","5f8228f40afba53534e6f583","","null","","","learningBlock2","","","","That was a tob.","null","","","","","",""
"html-keyboard-response","309","414942","0.0-7.0-2.20","FL","wod6ma11s3","1536","864","0","0","0","5f8228f40afba53534e6f583","","null","","","learningBlock2","","","","<div style=""font-size:60px;""> </div>","null","FL","learning/Slide101.JPG","That was a tob.","","",""
"image-keyboard-response","310","415120","0.0-7.0-0.21","FL","wod6ma11s3","1536","864","0","0","0","5f8228f40afba53534e6f583","","null","","","","","","","learning/Slide102.JPG","null","","","","","",""
"html-keyboard-response","311","416274","0.0-7.0-1.21","FL","wod6ma11s3","1536","864","0","0","0","5f8228f40afba53534e6f583","","null","","","learningBlock2","","","","That was a bim.","null","","","","","",""
"html-keyboard-response","312","417277","0.0-7.0-2.21","FL","wod6ma11s3","1536","864","0","0","0","5f8228f40afba53534e6f583","","null","","","learningBlock2","","","","<div style=""font-size:60px;""> </div>","null","FL","learning/Slide102.JPG","That was a bim.","","",""
"image-keyboard-response","313","417456","0.0-7.0-0.22","FL","wod6ma11s3","1536","864","0","0","0","5f8228f40afba53534e6f583","","null","","","","","","","learning/Slide103.JPG","null","","","","","",""
"html-keyboard-response","314","418608","0.0-7.0-1.22","FL","wod6ma11s3","1536","864","0","0","0","5f8228f40afba53534e6f583","","null","","","learningBlock2","","","","That was a dep.","null","","","","","",""
"html-keyboard-response","315","419610","0.0-7.0-2.22","FL","wod6ma11s3","1536","864","0","0","0","5f8228f40afba53534e6f583","","null","","","learningBlock2","","","","<div style=""font-size:60px;""> </div>","null","FL","learning/Slide103.JPG","That was a dep.","","",""
"image-keyboard-response","316","419787","0.0-7.0-0.23","FL","wod6ma11s3","1536","864","0","0","0","5f8228f40afba53534e6f583","","null","","","","","","","learning/Slide104.JPG","null","","","","","",""
"html-keyboard-response","317","420941","0.0-7.0-1.23","FL","wod6ma11s3","1536","864","0","0","0","5f8228f40afba53534e6f583","","null","","","learningBlock2","","","","That was a tob.","null","","","","","",""
"html-keyboard-response","318","421942","0.0-7.0-2.23","FL","wod6ma11s3","1536","864","0","0","0","5f8228f40afba53534e6f583","","null","","","learningBlock2","","","","<div style=""font-size:60px;""> </div>","null","FL","learning/Slide104.JPG","That was a tob.","","",""
"image-keyboard-response","319","422120","0.0-7.0-0.24","FL","wod6ma11s3","1536","864","0","0","0","5f8228f40afba53534e6f583","","null","","","","","","","learning/Slide105.JPG","null","","","","","",""
"html-keyboard-response","320","423272","0.0-7.0-1.24","FL","wod6ma11s3","1536","864","0","0","0","5f8228f40afba53534e6f583","","null","","","learningBlock2","","","","That was a dep.","null","","","","","",""
"html-keyboard-response","321","424274","0.0-7.0-2.24","FL","wod6ma11s3","1536","864","0","0","0","5f8228f40afba53534e6f583","","null","","","learningBlock2","","","","<div style=""font-size:60px;""> </div>","null","FL","learning/Slide105.JPG","That was a dep.","","",""
"image-keyboard-response","322","424452","0.0-7.0-0.25","FL","wod6ma11s3","1536","864","0","0","0","5f8228f40afba53534e6f583","","null","","","","","","","learning/Slide106.JPG","null","","","","","",""
"html-keyboard-response","323","425605","0.0-7.0-1.25","FL","wod6ma11s3","1536","864","0","0","0","5f8228f40afba53534e6f583","","null","","","learningBlock2","","","","That was a wug.","null","","","","","",""
"html-keyboard-response","324","426607","0.0-7.0-2.25","FL","wod6ma11s3","1536","864","0","0","0","5f8228f40afba53534e6f583","","null","","","learningBlock2","","","","<div style=""font-size:60px;""> </div>","null","FL","learning/Slide106.JPG","That was a wug.","","",""
"image-keyboard-response","325","426784","0.0-7.0-0.26","FL","wod6ma11s3","1536","864","0","0","0","5f8228f40afba53534e6f583","","null","","","","","","","learning/Slide107.JPG","null","","","","","",""
"html-keyboard-response","326","427936","0.0-7.0-1.26","FL","wod6ma11s3","1536","864","0","0","0","5f8228f40afba53534e6f583","","null","","","learningBlock2","","","","That was a bim.","null","","","","","",""
"html-keyboard-response","327","428940","0.0-7.0-2.26","FL","wod6ma11s3","1536","864","0","0","0","5f8228f40afba53534e6f583","","null","","","learningBlock2","","","","<div style=""font-size:60px;""> </div>","null","FL","learning/Slide107.JPG","That was a bim.","","",""
"image-keyboard-response","328","429119","0.0-7.0-0.27","FL","wod6ma11s3","1536","864","0","0","0","5f8228f40afba53534e6f583","","null","","","","","","","learning/Slide108.JPG","null","","","","","",""
"html-keyboard-response","329","430272","0.0-7.0-1.27","FL","wod6ma11s3","1536","864","0","0","0","5f8228f40afba53534e6f583","","null","","","learningBlock2","","","","That was a dep.","null","","","","","",""
"html-keyboard-response","330","431273","0.0-7.0-2.27","FL","wod6ma11s3","1536","864","0","0","0","5f8228f40afba53534e6f583","","null","","","learningBlock2","","","","<div style=""font-size:60px;""> </div>","null","FL","learning/Slide108.JPG","That was a dep.","","",""
"image-keyboard-response","331","431451","0.0-7.0-0.28","FL","wod6ma11s3","1536","864","0","0","0","5f8228f40afba53534e6f583","","null","","","","","","","learning/Slide109.JPG","null","","","","","",""
"html-keyboard-response","332","432606","0.0-7.0-1.28","FL","wod6ma11s3","1536","864","0","0","0","5f8228f40afba53534e6f583","","null","","","learningBlock2","","","","That was a wug.","null","","","","","",""
"html-keyboard-response","333","433609","0.0-7.0-2.28","FL","wod6ma11s3","1536","864","0","0","0","5f8228f40afba53534e6f583","","null","","","learningBlock2","","","","<div style=""font-size:60px;""> </div>","null","FL","learning/Slide109.JPG","That was a wug.","","",""
"image-keyboard-response","334","433787","0.0-7.0-0.29","FL","wod6ma11s3","1536","864","0","0","0","5f8228f40afba53534e6f583","","null","","","","","","","learning/Slide110.JPG","null","","","","","",""
"html-keyboard-response","335","434941","0.0-7.0-1.29","FL","wod6ma11s3","1536","864","0","0","0","5f8228f40afba53534e6f583","","null","","","learningBlock2","","","","That was a bim.","null","","","","","",""
"html-keyboard-response","336","435943","0.0-7.0-2.29","FL","wod6ma11s3","1536","864","0","0","0","5f8228f40afba53534e6f583","","null","","","learningBlock2","","","","<div style=""font-size:60px;""> </div>","null","FL","learning/Slide110.JPG","That was a bim.","","",""
"image-keyboard-response","337","436121","0.0-7.0-0.30","FL","wod6ma11s3","1536","864","0","0","0","5f8228f40afba53534e6f583","","null","","","","","","","learning/Slide111.JPG","null","","","","","",""
"html-keyboard-response","338","437273","0.0-7.0-1.30","FL","wod6ma11s3","1536","864","0","0","0","5f8228f40afba53534e6f583","","null","","","learningBlock2","","","","That was a tob.","null","","","","","",""
"html-keyboard-response","339","438275","0.0-7.0-2.30","FL","wod6ma11s3","1536","864","0","0","0","5f8228f40afba53534e6f583","","null","","","learningBlock2","","","","<div style=""font-size:60px;""> </div>","null","FL","learning/Slide111.JPG","That was a tob.","","",""
"image-keyboard-response","340","438451","0.0-7.0-0.31","FL","wod6ma11s3","1536","864","0","0","0","5f8228f40afba53534e6f583","","null","","","","","","","learning/Slide112.JPG","null","","","","","",""
"html-keyboard-response","341","439604","0.0-7.0-1.31","FL","wod6ma11s3","1536","864","0","0","0","5f8228f40afba53534e6f583","","null","","","learningBlock2","","","","That was a wug.","null","","","","","",""
"html-keyboard-response","342","440606","0.0-7.0-2.31","FL","wod6ma11s3","1536","864","0","0","0","5f8228f40afba53534e6f583","","null","","","learningBlock2","","","","<div style=""font-size:60px;""> </div>","null","FL","learning/Slide112.JPG","That was a wug.","","",""
"image-keyboard-response","343","440783","0.0-7.0-0.32","FL","wod6ma11s3","1536","864","0","0","0","5f8228f40afba53534e6f583","","null","","","","","","","learning/Slide113.JPG","null","","","","","",""
"html-keyboard-response","344","441936","0.0-7.0-1.32","FL","wod6ma11s3","1536","864","0","0","0","5f8228f40afba53534e6f583","","null","","","learningBlock2","","","","That was a tob.","null","","","","","",""
"html-keyboard-response","345","442939","0.0-7.0-2.32","FL","wod6ma11s3","1536","864","0","0","0","5f8228f40afba53534e6f583","","null","","","learningBlock2","","","","<div style=""font-size:60px;""> </div>","null","FL","learning/Slide113.JPG","That was a tob.","","",""
"image-keyboard-response","346","443117","0.0-7.0-0.33","FL","wod6ma11s3","1536","864","0","0","0","5f8228f40afba53534e6f583","","null","","","","","","","learning/Slide114.JPG","null","","","","","",""
"html-keyboard-response","347","444270","0.0-7.0-1.33","FL","wod6ma11s3","1536","864","0","0","0","5f8228f40afba53534e6f583","","null","","","learningBlock2","","","","That was a wug.","null","","","","","",""
"html-keyboard-response","348","445274","0.0-7.0-2.33","FL","wod6ma11s3","1536","864","0","0","0","5f8228f40afba53534e6f583","","null","","","learningBlock2","","","","<div style=""font-size:60px;""> </div>","null","FL","learning/Slide114.JPG","That was a wug.","","",""
"image-keyboard-response","349","445451","0.0-7.0-0.34","FL","wod6ma11s3","1536","864","0","0","0","5f8228f40afba53534e6f583","","null","","","","","","","learning/Slide115.JPG","null","","","","","",""
"html-keyboard-response","350","446604","0.0-7.0-1.34","FL","wod6ma11s3","1536","864","0","0","0","5f8228f40afba53534e6f583","","null","","","learningBlock2","","","","That was a bim.","null","","","","","",""
"html-keyboard-response","351","447609","0.0-7.0-2.34","FL","wod6ma11s3","1536","864","0","0","0","5f8228f40afba53534e6f583","","null","","","learningBlock2","","","","<div style=""font-size:60px;""> </div>","null","FL","learning/Slide115.JPG","That was a bim.","","",""
"image-keyboard-response","352","447786","0.0-7.0-0.35","FL","wod6ma11s3","1536","864","0","0","0","5f8228f40afba53534e6f583","","null","","","","","","","learning/Slide116.JPG","null","","","","","",""
"html-keyboard-response","353","448939","0.0-7.0-1.35","FL","wod6ma11s3","1536","864","0","0","0","5f8228f40afba53534e6f583","","null","","","learningBlock2","","","","That was a dep.","null","","","","","",""
"html-keyboard-response","354","449943","0.0-7.0-2.35","FL","wod6ma11s3","1536","864","0","0","0","5f8228f40afba53534e6f583","","null","","","learningBlock2","","","","<div style=""font-size:60px;""> </div>","null","FL","learning/Slide116.JPG","That was a dep.","","",""
"image-keyboard-response","355","450119","0.0-7.0-0.36","FL","wod6ma11s3","1536","864","0","0","0","5f8228f40afba53534e6f583","","null","","","","","","","learning/Slide117.JPG","null","","","","","",""
"html-keyboard-response","356","451273","0.0-7.0-1.36","FL","wod6ma11s3","1536","864","0","0","0","5f8228f40afba53534e6f583","","null","","","learningBlock2","","","","That was a tob.","null","","","","","",""
"html-keyboard-response","357","452275","0.0-7.0-2.36","FL","wod6ma11s3","1536","864","0","0","0","5f8228f40afba53534e6f583","","null","","","learningBlock2","","","","<div style=""font-size:60px;""> </div>","null","FL","learning/Slide117.JPG","That was a tob.","","",""
"image-keyboard-response","358","452453","0.0-7.0-0.37","FL","wod6ma11s3","1536","864","0","0","0","5f8228f40afba53534e6f583","","null","","","","","","","learning/Slide118.JPG","null","","","","","",""
"html-keyboard-response","359","453607","0.0-7.0-1.37","FL","wod6ma11s3","1536","864","0","0","0","5f8228f40afba53534e6f583","","null","","","learningBlock2","","","","That was a dep.","null","","","","","",""
"html-keyboard-response","360","454609","0.0-7.0-2.37","FL","wod6ma11s3","1536","864","0","0","0","5f8228f40afba53534e6f583","","null","","","learningBlock2","","","","<div style=""font-size:60px;""> </div>","null","FL","learning/Slide118.JPG","That was a dep.","","",""
"image-keyboard-response","361","454786","0.0-7.0-0.38","FL","wod6ma11s3","1536","864","0","0","0","5f8228f40afba53534e6f583","","null","","","","","","","learning/Slide119.JPG","null","","","","","",""
"html-keyboard-response","362","455938","0.0-7.0-1.38","FL","wod6ma11s3","1536","864","0","0","0","5f8228f40afba53534e6f583","","null","","","learningBlock2","","","","That was a wug.","null","","","","","",""
"html-keyboard-response","363","456940","0.0-7.0-2.38","FL","wod6ma11s3","1536","864","0","0","0","5f8228f40afba53534e6f583","","null","","","learningBlock2","","","","<div style=""font-size:60px;""> </div>","null","FL","learning/Slide119.JPG","That was a wug.","","",""
"image-keyboard-response","364","457117","0.0-7.0-0.39","FL","wod6ma11s3","1536","864","0","0","0","5f8228f40afba53534e6f583","","null","","","","","","","learning/Slide120.JPG","null","","","","","",""
"html-keyboard-response","365","458270","0.0-7.0-1.39","FL","wod6ma11s3","1536","864","0","0","0","5f8228f40afba53534e6f583","","null","","","learningBlock2","","","","That was a dep.","null","","","","","",""
"html-keyboard-response","366","459272","0.0-7.0-2.39","FL","wod6ma11s3","1536","864","0","0","0","5f8228f40afba53534e6f583","","null","","","learningBlock2","","","","<div style=""font-size:60px;""> </div>","null","FL","learning/Slide120.JPG","That was a dep.","","",""
"image-keyboard-response","367","459450","0.0-7.0-0.40","FL","wod6ma11s3","1536","864","0","0","0","5f8228f40afba53534e6f583","","null","","","","","","","learning/Slide121.JPG","null","","","","","",""
"html-keyboard-response","368","460604","0.0-7.0-1.40","FL","wod6ma11s3","1536","864","0","0","0","5f8228f40afba53534e6f583","","null","","","learningBlock2","","","","That was a bim.","null","","","","","",""
"html-keyboard-response","369","461606","0.0-7.0-2.40","FL","wod6ma11s3","1536","864","0","0","0","5f8228f40afba53534e6f583","","null","","","learningBlock2","","","","<div style=""font-size:60px;""> </div>","null","FL","learning/Slide121.JPG","That was a bim.","","",""
"image-keyboard-response","370","461783","0.0-7.0-0.41","FL","wod6ma11s3","1536","864","0","0","0","5f8228f40afba53534e6f583","","null","","","","","","","learning/Slide122.JPG","null","","","","","",""
"html-keyboard-response","371","462935","0.0-7.0-1.41","FL","wod6ma11s3","1536","864","0","0","0","5f8228f40afba53534e6f583","","null","","","learningBlock2","","","","That was a wug.","null","","","","","",""
"html-keyboard-response","372","463937","0.0-7.0-2.41","FL","wod6ma11s3","1536","864","0","0","0","5f8228f40afba53534e6f583","","null","","","learningBlock2","","","","<div style=""font-size:60px;""> </div>","null","FL","learning/Slide122.JPG","That was a wug.","","",""
"image-keyboard-response","373","464114","0.0-7.0-0.42","FL","wod6ma11s3","1536","864","0","0","0","5f8228f40afba53534e6f583","","null","","","","","","","learning/Slide123.JPG","null","","","","","",""
"html-keyboard-response","374","465267","0.0-7.0-1.42","FL","wod6ma11s3","1536","864","0","0","0","5f8228f40afba53534e6f583","","null","","","learningBlock2","","","","That was a bim.","null","","","","","",""
"html-keyboard-response","375","466268","0.0-7.0-2.42","FL","wod6ma11s3","1536","864","0","0","0","5f8228f40afba53534e6f583","","null","","","learningBlock2","","","","<div style=""font-size:60px;""> </div>","null","FL","learning/Slide123.JPG","That was a bim.","","",""
"image-keyboard-response","376","466446","0.0-7.0-0.43","FL","wod6ma11s3","1536","864","0","0","0","5f8228f40afba53534e6f583","","null","","","","","","","learning/Slide124.JPG","null","","","","","",""
"html-keyboard-response","377","467600","0.0-7.0-1.43","FL","wod6ma11s3","1536","864","0","0","0","5f8228f40afba53534e6f583","","null","","","learningBlock2","","","","That was a tob.","null","","","","","",""
"html-keyboard-response","378","468603","0.0-7.0-2.43","FL","wod6ma11s3","1536","864","0","0","0","5f8228f40afba53534e6f583","","null","","","learningBlock2","","","","<div style=""font-size:60px;""> </div>","null","FL","learning/Slide124.JPG","That was a tob.","","",""
"image-keyboard-response","379","468781","0.0-7.0-0.44","FL","wod6ma11s3","1536","864","0","0","0","5f8228f40afba53534e6f583","","null","","","","","","","learning/Slide125.JPG","null","","","","","",""
"html-keyboard-response","380","469937","0.0-7.0-1.44","FL","wod6ma11s3","1536","864","0","0","0","5f8228f40afba53534e6f583","","null","","","learningBlock2","","","","That was a bim.","null","","","","","",""
"html-keyboard-response","381","470938","0.0-7.0-2.44","FL","wod6ma11s3","1536","864","0","0","0","5f8228f40afba53534e6f583","","null","","","learningBlock2","","","","<div style=""font-size:60px;""> </div>","null","FL","learning/Slide125.JPG","That was a bim.","","",""
"image-keyboard-response","382","471117","0.0-7.0-0.45","FL","wod6ma11s3","1536","864","0","0","0","5f8228f40afba53534e6f583","","null","","","","","","","learning/Slide126.JPG","null","","","","","",""
"html-keyboard-response","383","472271","0.0-7.0-1.45","FL","wod6ma11s3","1536","864","0","0","0","5f8228f40afba53534e6f583","","null","","","learningBlock2","","","","That was a tob.","null","","","","","",""
"html-keyboard-response","384","473273","0.0-7.0-2.45","FL","wod6ma11s3","1536","864","0","0","0","5f8228f40afba53534e6f583","","null","","","learningBlock2","","","","<div style=""font-size:60px;""> </div>","null","FL","learning/Slide126.JPG","That was a tob.","","",""
"image-keyboard-response","385","473451","0.0-7.0-0.46","FL","wod6ma11s3","1536","864","0","0","0","5f8228f40afba53534e6f583","","null","","","","","","","learning/Slide127.JPG","null","","","","","",""
"html-keyboard-response","386","474603","0.0-7.0-1.46","FL","wod6ma11s3","1536","864","0","0","0","5f8228f40afba53534e6f583","","null","","","learningBlock2","","","","That was a dep.","null","","","","","",""
"html-keyboard-response","387","475606","0.0-7.0-2.46","FL","wod6ma11s3","1536","864","0","0","0","5f8228f40afba53534e6f583","","null","","","learningBlock2","","","","<div style=""font-size:60px;""> </div>","null","FL","learning/Slide127.JPG","That was a dep.","","",""
"image-keyboard-response","388","475782","0.0-7.0-0.47","FL","wod6ma11s3","1536","864","0","0","0","5f8228f40afba53534e6f583","","null","","","","","","","learning/Slide128.JPG","null","","","","","",""
"html-keyboard-response","389","476934","0.0-7.0-1.47","FL","wod6ma11s3","1536","864","0","0","0","5f8228f40afba53534e6f583","","null","","","learningBlock2","","","","That was a wug.","null","","","","","",""
"html-keyboard-response","390","477935","0.0-7.0-2.47","FL","wod6ma11s3","1536","864","0","0","0","5f8228f40afba53534e6f583","","null","","","learningBlock2","","","","<div style=""font-size:60px;""> </div>","null","FL","learning/Slide128.JPG","That was a wug.","","",""
"image-keyboard-response","391","478113","0.0-7.0-0.48","FL","wod6ma11s3","1536","864","0","0","0","5f8228f40afba53534e6f583","","null","","","","","","","learning/Slide129.JPG","null","","","","","",""
"html-keyboard-response","392","479265","0.0-7.0-1.48","FL","wod6ma11s3","1536","864","0","0","0","5f8228f40afba53534e6f583","","null","","","learningBlock2","","","","That was a tob.","null","","","","","",""
"html-keyboard-response","393","480266","0.0-7.0-2.48","FL","wod6ma11s3","1536","864","0","0","0","5f8228f40afba53534e6f583","","null","","","learningBlock2","","","","<div style=""font-size:60px;""> </div>","null","FL","learning/Slide129.JPG","That was a tob.","","",""
"image-keyboard-response","394","480444","0.0-7.0-0.49","FL","wod6ma11s3","1536","864","0","0","0","5f8228f40afba53534e6f583","","null","","","","","","","learning/Slide130.JPG","null","","","","","",""
"html-keyboard-response","395","481597","0.0-7.0-1.49","FL","wod6ma11s3","1536","864","0","0","0","5f8228f40afba53534e6f583","","null","","","learningBlock2","","","","That was a wug.","null","","","","","",""
"html-keyboard-response","396","482598","0.0-7.0-2.49","FL","wod6ma11s3","1536","864","0","0","0","5f8228f40afba53534e6f583","","null","","","learningBlock2","","","","<div style=""font-size:60px;""> </div>","null","FL","learning/Slide130.JPG","That was a wug.","","",""
"image-keyboard-response","397","482775","0.0-7.0-0.50","FL","wod6ma11s3","1536","864","0","0","0","5f8228f40afba53534e6f583","","null","","","","","","","learning/Slide131.JPG","null","","","","","",""
"html-keyboard-response","398","483928","0.0-7.0-1.50","FL","wod6ma11s3","1536","864","0","0","0","5f8228f40afba53534e6f583","","null","","","learningBlock2","","","","That was a bim.","null","","","","","",""
"html-keyboard-response","399","484930","0.0-7.0-2.50","FL","wod6ma11s3","1536","864","0","0","0","5f8228f40afba53534e6f583","","null","","","learningBlock2","","","","<div style=""font-size:60px;""> </div>","null","FL","learning/Slide131.JPG","That was a bim.","","",""
"image-keyboard-response","400","485107","0.0-7.0-0.51","FL","wod6ma11s3","1536","864","0","0","0","5f8228f40afba53534e6f583","","null","","","","","","","learning/Slide132.JPG","null","","","","","",""
"html-keyboard-response","401","486260","0.0-7.0-1.51","FL","wod6ma11s3","1536","864","0","0","0","5f8228f40afba53534e6f583","","null","","","learningBlock2","","","","That was a dep.","null","","","","","",""
"html-keyboard-response","402","487263","0.0-7.0-2.51","FL","wod6ma11s3","1536","864","0","0","0","5f8228f40afba53534e6f583","","null","","","learningBlock2","","","","<div style=""font-size:60px;""> </div>","null","FL","learning/Slide132.JPG","That was a dep.","","",""
"image-keyboard-response","403","487440","0.0-7.0-0.52","FL","wod6ma11s3","1536","864","0","0","0","5f8228f40afba53534e6f583","","null","","","","","","","learning/Slide133.JPG","null","","","","","",""
"html-keyboard-response","404","488596","0.0-7.0-1.52","FL","wod6ma11s3","1536","864","0","0","0","5f8228f40afba53534e6f583","","null","","","learningBlock2","","","","That was a tob.","null","","","","","",""
"html-keyboard-response","405","489596","0.0-7.0-2.52","FL","wod6ma11s3","1536","864","0","0","0","5f8228f40afba53534e6f583","","null","","","learningBlock2","","","","<div style=""font-size:60px;""> </div>","null","FL","learning/Slide133.JPG","That was a tob.","","",""
"image-keyboard-response","406","489774","0.0-7.0-0.53","FL","wod6ma11s3","1536","864","0","0","0","5f8228f40afba53534e6f583","","null","","","","","","","learning/Slide134.JPG","null","","","","","",""
"html-keyboard-response","407","490926","0.0-7.0-1.53","FL","wod6ma11s3","1536","864","0","0","0","5f8228f40afba53534e6f583","","null","","","learningBlock2","","","","That was a dep.","null","","","","","",""
"html-keyboard-response","408","491928","0.0-7.0-2.53","FL","wod6ma11s3","1536","864","0","0","0","5f8228f40afba53534e6f583","","null","","","learningBlock2","","","","<div style=""font-size:60px;""> </div>","null","FL","learning/Slide134.JPG","That was a dep.","","",""
"image-keyboard-response","409","492108","0.0-7.0-0.54","FL","wod6ma11s3","1536","864","0","0","0","5f8228f40afba53534e6f583","","null","","","","","","","learning/Slide135.JPG","null","","","","","",""
"html-keyboard-response","410","493260","0.0-7.0-1.54","FL","wod6ma11s3","1536","864","0","0","0","5f8228f40afba53534e6f583","","null","","","learningBlock2","","","","That was a tob.","null","","","","","",""
"html-keyboard-response","411","494262","0.0-7.0-2.54","FL","wod6ma11s3","1536","864","0","0","0","5f8228f40afba53534e6f583","","null","","","learningBlock2","","","","<div style=""font-size:60px;""> </div>","null","FL","learning/Slide135.JPG","That was a tob.","","",""
"image-keyboard-response","412","494438","0.0-7.0-0.55","FL","wod6ma11s3","1536","864","0","0","0","5f8228f40afba53534e6f583","","null","","","","","","","learning/Slide136.JPG","null","","","","","",""
"html-keyboard-response","413","495591","0.0-7.0-1.55","FL","wod6ma11s3","1536","864","0","0","0","5f8228f40afba53534e6f583","","null","","","learningBlock2","","","","That was a wug.","null","","","","","",""
"html-keyboard-response","414","496593","0.0-7.0-2.55","FL","wod6ma11s3","1536","864","0","0","0","5f8228f40afba53534e6f583","","null","","","learningBlock2","","","","<div style=""font-size:60px;""> </div>","null","FL","learning/Slide136.JPG","That was a wug.","","",""
"image-keyboard-response","415","496770","0.0-7.0-0.56","FL","wod6ma11s3","1536","864","0","0","0","5f8228f40afba53534e6f583","","null","","","","","","","learning/Slide137.JPG","null","","","","","",""
"html-keyboard-response","416","497923","0.0-7.0-1.56","FL","wod6ma11s3","1536","864","0","0","0","5f8228f40afba53534e6f583","","null","","","learningBlock2","","","","That was a tob.","null","","","","","",""
"html-keyboard-response","417","498926","0.0-7.0-2.56","FL","wod6ma11s3","1536","864","0","0","0","5f8228f40afba53534e6f583","","null","","","learningBlock2","","","","<div style=""font-size:60px;""> </div>","null","FL","learning/Slide137.JPG","That was a tob.","","",""
"image-keyboard-response","418","499103","0.0-7.0-0.57","FL","wod6ma11s3","1536","864","0","0","0","5f8228f40afba53534e6f583","","null","","","","","","","learning/Slide138.JPG","null","","","","","",""
"html-keyboard-response","419","500257","0.0-7.0-1.57","FL","wod6ma11s3","1536","864","0","0","0","5f8228f40afba53534e6f583","","null","","","learningBlock2","","","","That was a bim.","null","","","","","",""
"html-keyboard-response","420","501260","0.0-7.0-2.57","FL","wod6ma11s3","1536","864","0","0","0","5f8228f40afba53534e6f583","","null","","","learningBlock2","","","","<div style=""font-size:60px;""> </div>","null","FL","learning/Slide138.JPG","That was a bim.","","",""
"image-keyboard-response","421","501439","0.0-7.0-0.58","FL","wod6ma11s3","1536","864","0","0","0","5f8228f40afba53534e6f583","","null","","","","","","","learning/Slide139.JPG","null","","","","","",""
"html-keyboard-response","422","502592","0.0-7.0-1.58","FL","wod6ma11s3","1536","864","0","0","0","5f8228f40afba53534e6f583","","null","","","learningBlock2","","","","That was a wug.","null","","","","","",""
"html-keyboard-response","423","503594","0.0-7.0-2.58","FL","wod6ma11s3","1536","864","0","0","0","5f8228f40afba53534e6f583","","null","","","learningBlock2","","","","<div style=""font-size:60px;""> </div>","null","FL","learning/Slide139.JPG","That was a wug.","","",""
"image-keyboard-response","424","503771","0.0-7.0-0.59","FL","wod6ma11s3","1536","864","0","0","0","5f8228f40afba53534e6f583","","null","","","","","","","learning/Slide140.JPG","null","","","","","",""
"html-keyboard-response","425","504927","0.0-7.0-1.59","FL","wod6ma11s3","1536","864","0","0","0","5f8228f40afba53534e6f583","","null","","","learningBlock2","","","","That was a dep.","null","","","","","",""
"html-keyboard-response","426","505928","0.0-7.0-2.59","FL","wod6ma11s3","1536","864","0","0","0","5f8228f40afba53534e6f583","","null","","","learningBlock2","","","","<div style=""font-size:60px;""> </div>","null","FL","learning/Slide140.JPG","That was a dep.","","",""
"image-keyboard-response","427","506104","0.0-7.0-0.60","FL","wod6ma11s3","1536","864","0","0","0","5f8228f40afba53534e6f583","","null","","","","","","","learning/Slide141.JPG","null","","","","","",""
"html-keyboard-response","428","507256","0.0-7.0-1.60","FL","wod6ma11s3","1536","864","0","0","0","5f8228f40afba53534e6f583","","null","","","learningBlock2","","","","That was a tob.","null","","","","","",""
"html-keyboard-response","429","508258","0.0-7.0-2.60","FL","wod6ma11s3","1536","864","0","0","0","5f8228f40afba53534e6f583","","null","","","learningBlock2","","","","<div style=""font-size:60px;""> </div>","null","FL","learning/Slide141.JPG","That was a tob.","","",""
"image-keyboard-response","430","508435","0.0-7.0-0.61","FL","wod6ma11s3","1536","864","0","0","0","5f8228f40afba53534e6f583","","null","","","","","","","learning/Slide142.JPG","null","","","","","",""
"html-keyboard-response","431","509587","0.0-7.0-1.61","FL","wod6ma11s3","1536","864","0","0","0","5f8228f40afba53534e6f583","","null","","","learningBlock2","","","","That was a wug.","null","","","","","",""
"html-keyboard-response","432","510589","0.0-7.0-2.61","FL","wod6ma11s3","1536","864","0","0","0","5f8228f40afba53534e6f583","","null","","","learningBlock2","","","","<div style=""font-size:60px;""> </div>","null","FL","learning/Slide142.JPG","That was a wug.","","",""
"image-keyboard-response","433","510767","0.0-7.0-0.62","FL","wod6ma11s3","1536","864","0","0","0","5f8228f40afba53534e6f583","","null","","","","","","","learning/Slide143.JPG","null","","","","","",""
"html-keyboard-response","434","511921","0.0-7.0-1.62","FL","wod6ma11s3","1536","864","0","0","0","5f8228f40afba53534e6f583","","null","","","learningBlock2","","","","That was a bim.","null","","","","","",""
"html-keyboard-response","435","512923","0.0-7.0-2.62","FL","wod6ma11s3","1536","864","0","0","0","5f8228f40afba53534e6f583","","null","","","learningBlock2","","","","<div style=""font-size:60px;""> </div>","null","FL","learning/Slide143.JPG","That was a bim.","","",""
"image-keyboard-response","436","513101","0.0-7.0-0.63","FL","wod6ma11s3","1536","864","0","0","0","5f8228f40afba53534e6f583","","null","","","","","","","learning/Slide144.JPG","null","","","","","",""
