"trial_type","trial_index","time_elapsed","internal_node_id","condition","subject","screen_width","screen_height","attention","distraction","conscientious","prolificID","success","rt","url","view_history","test_part","final_height_px","final_width_px","scale_factor","stimulus","key_press","learningType","presentedImage","presentedLabel","button_pressed","response","responses"
"pavlovia","0","24","0.0-0.0","FL","g8ez0w4wvj","1920","1080","0","1","0","5ec32348079dcc17451cac16","","","","","","","","","","","","","","","",""
"fullscreen","1","143229","0.0-1.0","FL","g8ez0w4wvj","1920","1080","0","1","0","5ec32348079dcc17451cac16","true","","","","","","","","","","","","","","",""
"external-html","2","145244","0.0-2.0-0.0","FL","g8ez0w4wvj","1920","1080","0","1","0","5ec32348079dcc17451cac16","","1970.950000002631","text/information_english.html","","","","","","","","","","","","",""
"external-html","3","151747","0.0-2.0-1.0","FL","g8ez0w4wvj","1920","1080","0","1","0","5ec32348079dcc17451cac16","","6456.234999990556","text/consent_english.html","","","","","","","","","","","","",""
"instructions","4","154758","0.0-3.0","FL","g8ez0w4wvj","1920","1080","0","1","0","5ec32348079dcc17451cac16","","NA","","[{""page_index"":0,""viewing_time"":1832.154999996419},{""page_index"":1,""viewing_time"":1174.7699999978067}]","instructions","","","","","","","","","","",""
"resize","5","159250","0.0-4.0","FL","g8ez0w4wvj","1920","1080","0","1","0","5ec32348079dcc17451cac16","","","","","","","100","0.634920634920635","","","","","","","",""
"image-keyboard-response","6","159428","0.0-5.0-0.0","FL","g8ez0w4wvj","1920","1080","0","1","0","5ec32348079dcc17451cac16","","null","","","","","","","learning/Slide1.JPG","null","","","","","",""
"html-keyboard-response","7","160581","0.0-5.0-1.0","FL","g8ez0w4wvj","1920","1080","0","1","0","5ec32348079dcc17451cac16","","null","","","learningBlock1","","","","That was a tob.","null","","","","","",""
"html-keyboard-response","8","161583","0.0-5.0-2.0","FL","g8ez0w4wvj","1920","1080","0","1","0","5ec32348079dcc17451cac16","","null","","","learningBlock1","","","","<div style=""font-size:60px;""> </div>","null","FL","learning/Slide1.JPG","That was a tob.","","",""
"image-keyboard-response","9","161761","0.0-5.0-0.1","FL","g8ez0w4wvj","1920","1080","0","1","0","5ec32348079dcc17451cac16","","null","","","","","","","learning/Slide2.JPG","null","","","","","",""
"html-keyboard-response","10","162914","0.0-5.0-1.1","FL","g8ez0w4wvj","1920","1080","0","1","0","5ec32348079dcc17451cac16","","null","","","learningBlock1","","","","That was a wug.","null","","","","","",""
"html-keyboard-response","11","163916","0.0-5.0-2.1","FL","g8ez0w4wvj","1920","1080","0","1","0","5ec32348079dcc17451cac16","","null","","","learningBlock1","","","","<div style=""font-size:60px;""> </div>","null","FL","learning/Slide2.JPG","That was a wug.","","",""
"image-keyboard-response","12","164093","0.0-5.0-0.2","FL","g8ez0w4wvj","1920","1080","0","1","0","5ec32348079dcc17451cac16","","null","","","","","","","learning/Slide3.JPG","null","","","","","",""
"html-keyboard-response","13","165245","0.0-5.0-1.2","FL","g8ez0w4wvj","1920","1080","0","1","0","5ec32348079dcc17451cac16","","null","","","learningBlock1","","","","That was a bim.","null","","","","","",""
"html-keyboard-response","14","166247","0.0-5.0-2.2","FL","g8ez0w4wvj","1920","1080","0","1","0","5ec32348079dcc17451cac16","","null","","","learningBlock1","","","","<div style=""font-size:60px;""> </div>","null","FL","learning/Slide3.JPG","That was a bim.","","",""
"image-keyboard-response","15","166423","0.0-5.0-0.3","FL","g8ez0w4wvj","1920","1080","0","1","0","5ec32348079dcc17451cac16","","null","","","","","","","learning/Slide4.JPG","null","","","","","",""
"html-keyboard-response","16","167580","0.0-5.0-1.3","FL","g8ez0w4wvj","1920","1080","0","1","0","5ec32348079dcc17451cac16","","null","","","learningBlock1","","","","That was a dep.","null","","","","","",""
"html-keyboard-response","17","168582","0.0-5.0-2.3","FL","g8ez0w4wvj","1920","1080","0","1","0","5ec32348079dcc17451cac16","","null","","","learningBlock1","","","","<div style=""font-size:60px;""> </div>","null","FL","learning/Slide4.JPG","That was a dep.","","",""
"image-keyboard-response","18","168759","0.0-5.0-0.4","FL","g8ez0w4wvj","1920","1080","0","1","0","5ec32348079dcc17451cac16","","null","","","","","","","learning/Slide5.JPG","null","","","","","",""
"html-keyboard-response","19","169912","0.0-5.0-1.4","FL","g8ez0w4wvj","1920","1080","0","1","0","5ec32348079dcc17451cac16","","null","","","learningBlock1","","","","That was a wug.","null","","","","","",""
"html-keyboard-response","20","170914","0.0-5.0-2.4","FL","g8ez0w4wvj","1920","1080","0","1","0","5ec32348079dcc17451cac16","","null","","","learningBlock1","","","","<div style=""font-size:60px;""> </div>","null","FL","learning/Slide5.JPG","That was a wug.","","",""
"image-keyboard-response","21","171090","0.0-5.0-0.5","FL","g8ez0w4wvj","1920","1080","0","1","0","5ec32348079dcc17451cac16","","null","","","","","","","learning/Slide6.JPG","null","","","","","",""
"html-keyboard-response","22","172243","0.0-5.0-1.5","FL","g8ez0w4wvj","1920","1080","0","1","0","5ec32348079dcc17451cac16","","null","","","learningBlock1","","","","That was a dep.","null","","","","","",""
"html-keyboard-response","23","173245","0.0-5.0-2.5","FL","g8ez0w4wvj","1920","1080","0","1","0","5ec32348079dcc17451cac16","","null","","","learningBlock1","","","","<div style=""font-size:60px;""> </div>","null","FL","learning/Slide6.JPG","That was a dep.","","",""
"image-keyboard-response","24","173421","0.0-5.0-0.6","FL","g8ez0w4wvj","1920","1080","0","1","0","5ec32348079dcc17451cac16","","null","","","","","","","learning/Slide7.JPG","null","","","","","",""
"html-keyboard-response","25","174573","0.0-5.0-1.6","FL","g8ez0w4wvj","1920","1080","0","1","0","5ec32348079dcc17451cac16","","null","","","learningBlock1","","","","That was a wug.","null","","","","","",""
"html-keyboard-response","26","175574","0.0-5.0-2.6","FL","g8ez0w4wvj","1920","1080","0","1","0","5ec32348079dcc17451cac16","","null","","","learningBlock1","","","","<div style=""font-size:60px;""> </div>","null","FL","learning/Slide7.JPG","That was a wug.","","",""
"image-keyboard-response","27","175751","0.0-5.0-0.7","FL","g8ez0w4wvj","1920","1080","0","1","0","5ec32348079dcc17451cac16","","null","","","","","","","learning/Slide8.JPG","null","","","","","",""
"html-keyboard-response","28","176904","0.0-5.0-1.7","FL","g8ez0w4wvj","1920","1080","0","1","0","5ec32348079dcc17451cac16","","null","","","learningBlock1","","","","That was a bim.","null","","","","","",""
"html-keyboard-response","29","177906","0.0-5.0-2.7","FL","g8ez0w4wvj","1920","1080","0","1","0","5ec32348079dcc17451cac16","","null","","","learningBlock1","","","","<div style=""font-size:60px;""> </div>","null","FL","learning/Slide8.JPG","That was a bim.","","",""
"image-keyboard-response","30","178083","0.0-5.0-0.8","FL","g8ez0w4wvj","1920","1080","0","1","0","5ec32348079dcc17451cac16","","null","","","","","","","learning/Slide9.JPG","null","","","","","",""
"html-keyboard-response","31","179235","0.0-5.0-1.8","FL","g8ez0w4wvj","1920","1080","0","1","0","5ec32348079dcc17451cac16","","null","","","learningBlock1","","","","That was a wug.","null","","","","","",""
"html-keyboard-response","32","180237","0.0-5.0-2.8","FL","g8ez0w4wvj","1920","1080","0","1","0","5ec32348079dcc17451cac16","","null","","","learningBlock1","","","","<div style=""font-size:60px;""> </div>","null","FL","learning/Slide9.JPG","That was a wug.","","",""
"image-keyboard-response","33","180414","0.0-5.0-0.9","FL","g8ez0w4wvj","1920","1080","0","1","0","5ec32348079dcc17451cac16","","null","","","","","","","learning/Slide10.JPG","null","","","","","",""
"html-keyboard-response","34","181565","0.0-5.0-1.9","FL","g8ez0w4wvj","1920","1080","0","1","0","5ec32348079dcc17451cac16","","null","","","learningBlock1","","","","That was a dep.","null","","","","","",""
"html-keyboard-response","35","182566","0.0-5.0-2.9","FL","g8ez0w4wvj","1920","1080","0","1","0","5ec32348079dcc17451cac16","","null","","","learningBlock1","","","","<div style=""font-size:60px;""> </div>","null","FL","learning/Slide10.JPG","That was a dep.","","",""
"image-keyboard-response","36","182744","0.0-5.0-0.10","FL","g8ez0w4wvj","1920","1080","0","1","0","5ec32348079dcc17451cac16","","null","","","","","","","learning/Slide11.JPG","null","","","","","",""
"html-keyboard-response","37","183896","0.0-5.0-1.10","FL","g8ez0w4wvj","1920","1080","0","1","0","5ec32348079dcc17451cac16","","null","","","learningBlock1","","","","That was a tob.","null","","","","","",""
"html-keyboard-response","38","184898","0.0-5.0-2.10","FL","g8ez0w4wvj","1920","1080","0","1","0","5ec32348079dcc17451cac16","","null","","","learningBlock1","","","","<div style=""font-size:60px;""> </div>","null","FL","learning/Slide11.JPG","That was a tob.","","",""
"image-keyboard-response","39","185075","0.0-5.0-0.11","FL","g8ez0w4wvj","1920","1080","0","1","0","5ec32348079dcc17451cac16","","null","","","","","","","learning/Slide12.JPG","null","","","","","",""
"html-keyboard-response","40","186227","0.0-5.0-1.11","FL","g8ez0w4wvj","1920","1080","0","1","0","5ec32348079dcc17451cac16","","null","","","learningBlock1","","","","That was a dep.","null","","","","","",""
"html-keyboard-response","41","187229","0.0-5.0-2.11","FL","g8ez0w4wvj","1920","1080","0","1","0","5ec32348079dcc17451cac16","","null","","","learningBlock1","","","","<div style=""font-size:60px;""> </div>","null","FL","learning/Slide12.JPG","That was a dep.","","",""
"image-keyboard-response","42","187405","0.0-5.0-0.12","FL","g8ez0w4wvj","1920","1080","0","1","0","5ec32348079dcc17451cac16","","null","","","","","","","learning/Slide13.JPG","null","","","","","",""
"html-keyboard-response","43","188560","0.0-5.0-1.12","FL","g8ez0w4wvj","1920","1080","0","1","0","5ec32348079dcc17451cac16","","null","","","learningBlock1","","","","That was a bim.","null","","","","","",""
"html-keyboard-response","44","189562","0.0-5.0-2.12","FL","g8ez0w4wvj","1920","1080","0","1","0","5ec32348079dcc17451cac16","","null","","","learningBlock1","","","","<div style=""font-size:60px;""> </div>","null","FL","learning/Slide13.JPG","That was a bim.","","",""
"image-keyboard-response","45","189739","0.0-5.0-0.13","FL","g8ez0w4wvj","1920","1080","0","1","0","5ec32348079dcc17451cac16","","null","","","","","","","learning/Slide14.JPG","null","","","","","",""
"html-keyboard-response","46","190891","0.0-5.0-1.13","FL","g8ez0w4wvj","1920","1080","0","1","0","5ec32348079dcc17451cac16","","null","","","learningBlock1","","","","That was a wug.","null","","","","","",""
"html-keyboard-response","47","191893","0.0-5.0-2.13","FL","g8ez0w4wvj","1920","1080","0","1","0","5ec32348079dcc17451cac16","","null","","","learningBlock1","","","","<div style=""font-size:60px;""> </div>","null","FL","learning/Slide14.JPG","That was a wug.","","",""
"image-keyboard-response","48","192071","0.0-5.0-0.14","FL","g8ez0w4wvj","1920","1080","0","1","0","5ec32348079dcc17451cac16","","null","","","","","","","learning/Slide15.JPG","null","","","","","",""
"html-keyboard-response","49","193224","0.0-5.0-1.14","FL","g8ez0w4wvj","1920","1080","0","1","0","5ec32348079dcc17451cac16","","null","","","learningBlock1","","","","That was a tob.","null","","","","","",""
"html-keyboard-response","50","194226","0.0-5.0-2.14","FL","g8ez0w4wvj","1920","1080","0","1","0","5ec32348079dcc17451cac16","","null","","","learningBlock1","","","","<div style=""font-size:60px;""> </div>","null","FL","learning/Slide15.JPG","That was a tob.","","",""
"image-keyboard-response","51","194403","0.0-5.0-0.15","FL","g8ez0w4wvj","1920","1080","0","1","0","5ec32348079dcc17451cac16","","null","","","","","","","learning/Slide16.JPG","null","","","","","",""
"html-keyboard-response","52","195555","0.0-5.0-1.15","FL","g8ez0w4wvj","1920","1080","0","1","0","5ec32348079dcc17451cac16","","null","","","learningBlock1","","","","That was a dep.","null","","","","","",""
"html-keyboard-response","53","196557","0.0-5.0-2.15","FL","g8ez0w4wvj","1920","1080","0","1","0","5ec32348079dcc17451cac16","","null","","","learningBlock1","","","","<div style=""font-size:60px;""> </div>","null","FL","learning/Slide16.JPG","That was a dep.","","",""
"image-keyboard-response","54","196733","0.0-5.0-0.16","FL","g8ez0w4wvj","1920","1080","0","1","0","5ec32348079dcc17451cac16","","null","","","","","","","learning/Slide17.JPG","null","","","","","",""
"html-keyboard-response","55","197884","0.0-5.0-1.16","FL","g8ez0w4wvj","1920","1080","0","1","0","5ec32348079dcc17451cac16","","null","","","learningBlock1","","","","That was a bim.","null","","","","","",""
"html-keyboard-response","56","198885","0.0-5.0-2.16","FL","g8ez0w4wvj","1920","1080","0","1","0","5ec32348079dcc17451cac16","","null","","","learningBlock1","","","","<div style=""font-size:60px;""> </div>","null","FL","learning/Slide17.JPG","That was a bim.","","",""
"image-keyboard-response","57","199062","0.0-5.0-0.17","FL","g8ez0w4wvj","1920","1080","0","1","0","5ec32348079dcc17451cac16","","null","","","","","","","learning/Slide18.JPG","null","","","","","",""
"html-keyboard-response","58","200215","0.0-5.0-1.17","FL","g8ez0w4wvj","1920","1080","0","1","0","5ec32348079dcc17451cac16","","null","","","learningBlock1","","","","That was a tob.","null","","","","","",""
"html-keyboard-response","59","201217","0.0-5.0-2.17","FL","g8ez0w4wvj","1920","1080","0","1","0","5ec32348079dcc17451cac16","","null","","","learningBlock1","","","","<div style=""font-size:60px;""> </div>","null","FL","learning/Slide18.JPG","That was a tob.","","",""
"image-keyboard-response","60","201393","0.0-5.0-0.18","FL","g8ez0w4wvj","1920","1080","0","1","0","5ec32348079dcc17451cac16","","null","","","","","","","learning/Slide19.JPG","null","","","","","",""
"html-keyboard-response","61","202546","0.0-5.0-1.18","FL","g8ez0w4wvj","1920","1080","0","1","0","5ec32348079dcc17451cac16","","null","","","learningBlock1","","","","That was a wug.","null","","","","","",""
"html-keyboard-response","62","203547","0.0-5.0-2.18","FL","g8ez0w4wvj","1920","1080","0","1","0","5ec32348079dcc17451cac16","","null","","","learningBlock1","","","","<div style=""font-size:60px;""> </div>","null","FL","learning/Slide19.JPG","That was a wug.","","",""
"image-keyboard-response","63","203724","0.0-5.0-0.19","FL","g8ez0w4wvj","1920","1080","0","1","0","5ec32348079dcc17451cac16","","null","","","","","","","learning/Slide20.JPG","null","","","","","",""
"html-keyboard-response","64","204875","0.0-5.0-1.19","FL","g8ez0w4wvj","1920","1080","0","1","0","5ec32348079dcc17451cac16","","null","","","learningBlock1","","","","That was a bim.","null","","","","","",""
"html-keyboard-response","65","205877","0.0-5.0-2.19","FL","g8ez0w4wvj","1920","1080","0","1","0","5ec32348079dcc17451cac16","","null","","","learningBlock1","","","","<div style=""font-size:60px;""> </div>","null","FL","learning/Slide20.JPG","That was a bim.","","",""
"image-keyboard-response","66","206054","0.0-5.0-0.20","FL","g8ez0w4wvj","1920","1080","0","1","0","5ec32348079dcc17451cac16","","null","","","","","","","learning/Slide21.JPG","null","","","","","",""
"html-keyboard-response","67","207206","0.0-5.0-1.20","FL","g8ez0w4wvj","1920","1080","0","1","0","5ec32348079dcc17451cac16","","null","","","learningBlock1","","","","That was a dep.","null","","","","","",""
"html-keyboard-response","68","208207","0.0-5.0-2.20","FL","g8ez0w4wvj","1920","1080","0","1","0","5ec32348079dcc17451cac16","","null","","","learningBlock1","","","","<div style=""font-size:60px;""> </div>","null","FL","learning/Slide21.JPG","That was a dep.","","",""
"image-keyboard-response","69","208384","0.0-5.0-0.21","FL","g8ez0w4wvj","1920","1080","0","1","0","5ec32348079dcc17451cac16","","null","","","","","","","learning/Slide22.JPG","null","","","","","",""
"html-keyboard-response","70","209536","0.0-5.0-1.21","FL","g8ez0w4wvj","1920","1080","0","1","0","5ec32348079dcc17451cac16","","null","","","learningBlock1","","","","That was a bim.","null","","","","","",""
"html-keyboard-response","71","210537","0.0-5.0-2.21","FL","g8ez0w4wvj","1920","1080","0","1","0","5ec32348079dcc17451cac16","","null","","","learningBlock1","","","","<div style=""font-size:60px;""> </div>","null","FL","learning/Slide22.JPG","That was a bim.","","",""
"image-keyboard-response","72","210713","0.0-5.0-0.22","FL","g8ez0w4wvj","1920","1080","0","1","0","5ec32348079dcc17451cac16","","null","","","","","","","learning/Slide23.JPG","null","","","","","",""
"html-keyboard-response","73","211865","0.0-5.0-1.22","FL","g8ez0w4wvj","1920","1080","0","1","0","5ec32348079dcc17451cac16","","null","","","learningBlock1","","","","That was a tob.","null","","","","","",""
"html-keyboard-response","74","212866","0.0-5.0-2.22","FL","g8ez0w4wvj","1920","1080","0","1","0","5ec32348079dcc17451cac16","","null","","","learningBlock1","","","","<div style=""font-size:60px;""> </div>","null","FL","learning/Slide23.JPG","That was a tob.","","",""
"image-keyboard-response","75","213043","0.0-5.0-0.23","FL","g8ez0w4wvj","1920","1080","0","1","0","5ec32348079dcc17451cac16","","null","","","","","","","learning/Slide24.JPG","null","","","","","",""
"html-keyboard-response","76","214196","0.0-5.0-1.23","FL","g8ez0w4wvj","1920","1080","0","1","0","5ec32348079dcc17451cac16","","null","","","learningBlock1","","","","That was a wug.","null","","","","","",""
"html-keyboard-response","77","215198","0.0-5.0-2.23","FL","g8ez0w4wvj","1920","1080","0","1","0","5ec32348079dcc17451cac16","","null","","","learningBlock1","","","","<div style=""font-size:60px;""> </div>","null","FL","learning/Slide24.JPG","That was a wug.","","",""
"image-keyboard-response","78","215374","0.0-5.0-0.24","FL","g8ez0w4wvj","1920","1080","0","1","0","5ec32348079dcc17451cac16","","null","","","","","","","learning/Slide25.JPG","null","","","","","",""
"html-keyboard-response","79","216525","0.0-5.0-1.24","FL","g8ez0w4wvj","1920","1080","0","1","0","5ec32348079dcc17451cac16","","null","","","learningBlock1","","","","That was a dep.","null","","","","","",""
"html-keyboard-response","80","217528","0.0-5.0-2.24","FL","g8ez0w4wvj","1920","1080","0","1","0","5ec32348079dcc17451cac16","","null","","","learningBlock1","","","","<div style=""font-size:60px;""> </div>","null","FL","learning/Slide25.JPG","That was a dep.","","",""
"image-keyboard-response","81","217705","0.0-5.0-0.25","FL","g8ez0w4wvj","1920","1080","0","1","0","5ec32348079dcc17451cac16","","null","","","","","","","learning/Slide26.JPG","null","","","","","",""
"html-keyboard-response","82","218857","0.0-5.0-1.25","FL","g8ez0w4wvj","1920","1080","0","1","0","5ec32348079dcc17451cac16","","null","","","learningBlock1","","","","That was a wug.","null","","","","","",""
"html-keyboard-response","83","219859","0.0-5.0-2.25","FL","g8ez0w4wvj","1920","1080","0","1","0","5ec32348079dcc17451cac16","","null","","","learningBlock1","","","","<div style=""font-size:60px;""> </div>","null","FL","learning/Slide26.JPG","That was a wug.","","",""
"image-keyboard-response","84","220037","0.0-5.0-0.26","FL","g8ez0w4wvj","1920","1080","0","1","0","5ec32348079dcc17451cac16","","null","","","","","","","learning/Slide27.JPG","null","","","","","",""
"html-keyboard-response","85","221189","0.0-5.0-1.26","FL","g8ez0w4wvj","1920","1080","0","1","0","5ec32348079dcc17451cac16","","null","","","learningBlock1","","","","That was a bim.","null","","","","","",""
"html-keyboard-response","86","222191","0.0-5.0-2.26","FL","g8ez0w4wvj","1920","1080","0","1","0","5ec32348079dcc17451cac16","","null","","","learningBlock1","","","","<div style=""font-size:60px;""> </div>","null","FL","learning/Slide27.JPG","That was a bim.","","",""
"image-keyboard-response","87","222368","0.0-5.0-0.27","FL","g8ez0w4wvj","1920","1080","0","1","0","5ec32348079dcc17451cac16","","null","","","","","","","learning/Slide28.JPG","null","","","","","",""
"html-keyboard-response","88","223522","0.0-5.0-1.27","FL","g8ez0w4wvj","1920","1080","0","1","0","5ec32348079dcc17451cac16","","null","","","learningBlock1","","","","That was a dep.","null","","","","","",""
"html-keyboard-response","89","224524","0.0-5.0-2.27","FL","g8ez0w4wvj","1920","1080","0","1","0","5ec32348079dcc17451cac16","","null","","","learningBlock1","","","","<div style=""font-size:60px;""> </div>","null","FL","learning/Slide28.JPG","That was a dep.","","",""
"image-keyboard-response","90","224700","0.0-5.0-0.28","FL","g8ez0w4wvj","1920","1080","0","1","0","5ec32348079dcc17451cac16","","null","","","","","","","learning/Slide29.JPG","null","","","","","",""
"html-keyboard-response","91","225852","0.0-5.0-1.28","FL","g8ez0w4wvj","1920","1080","0","1","0","5ec32348079dcc17451cac16","","null","","","learningBlock1","","","","That was a tob.","null","","","","","",""
"html-keyboard-response","92","226854","0.0-5.0-2.28","FL","g8ez0w4wvj","1920","1080","0","1","0","5ec32348079dcc17451cac16","","null","","","learningBlock1","","","","<div style=""font-size:60px;""> </div>","null","FL","learning/Slide29.JPG","That was a tob.","","",""
"image-keyboard-response","93","227030","0.0-5.0-0.29","FL","g8ez0w4wvj","1920","1080","0","1","0","5ec32348079dcc17451cac16","","null","","","","","","","learning/Slide30.JPG","null","","","","","",""
"html-keyboard-response","94","228184","0.0-5.0-1.29","FL","g8ez0w4wvj","1920","1080","0","1","0","5ec32348079dcc17451cac16","","null","","","learningBlock1","","","","That was a dep.","null","","","","","",""
"html-keyboard-response","95","229186","0.0-5.0-2.29","FL","g8ez0w4wvj","1920","1080","0","1","0","5ec32348079dcc17451cac16","","null","","","learningBlock1","","","","<div style=""font-size:60px;""> </div>","null","FL","learning/Slide30.JPG","That was a dep.","","",""
"image-keyboard-response","96","229364","0.0-5.0-0.30","FL","g8ez0w4wvj","1920","1080","0","1","0","5ec32348079dcc17451cac16","","null","","","","","","","learning/Slide31.JPG","null","","","","","",""
"html-keyboard-response","97","230516","0.0-5.0-1.30","FL","g8ez0w4wvj","1920","1080","0","1","0","5ec32348079dcc17451cac16","","null","","","learningBlock1","","","","That was a wug.","null","","","","","",""
"html-keyboard-response","98","231518","0.0-5.0-2.30","FL","g8ez0w4wvj","1920","1080","0","1","0","5ec32348079dcc17451cac16","","null","","","learningBlock1","","","","<div style=""font-size:60px;""> </div>","null","FL","learning/Slide31.JPG","That was a wug.","","",""
"image-keyboard-response","99","231694","0.0-5.0-0.31","FL","g8ez0w4wvj","1920","1080","0","1","0","5ec32348079dcc17451cac16","","null","","","","","","","learning/Slide32.JPG","null","","","","","",""
"html-keyboard-response","100","232847","0.0-5.0-1.31","FL","g8ez0w4wvj","1920","1080","0","1","0","5ec32348079dcc17451cac16","","null","","","learningBlock1","","","","That was a tob.","null","","","","","",""
"html-keyboard-response","101","233849","0.0-5.0-2.31","FL","g8ez0w4wvj","1920","1080","0","1","0","5ec32348079dcc17451cac16","","null","","","learningBlock1","","","","<div style=""font-size:60px;""> </div>","null","FL","learning/Slide32.JPG","That was a tob.","","",""
"image-keyboard-response","102","234026","0.0-5.0-0.32","FL","g8ez0w4wvj","1920","1080","0","1","0","5ec32348079dcc17451cac16","","null","","","","","","","learning/Slide33.JPG","null","","","","","",""
"html-keyboard-response","103","235178","0.0-5.0-1.32","FL","g8ez0w4wvj","1920","1080","0","1","0","5ec32348079dcc17451cac16","","null","","","learningBlock1","","","","That was a bim.","null","","","","","",""
"html-keyboard-response","104","236181","0.0-5.0-2.32","FL","g8ez0w4wvj","1920","1080","0","1","0","5ec32348079dcc17451cac16","","null","","","learningBlock1","","","","<div style=""font-size:60px;""> </div>","null","FL","learning/Slide33.JPG","That was a bim.","","",""
"image-keyboard-response","105","236358","0.0-5.0-0.33","FL","g8ez0w4wvj","1920","1080","0","1","0","5ec32348079dcc17451cac16","","null","","","","","","","learning/Slide34.JPG","null","","","","","",""
"html-keyboard-response","106","237512","0.0-5.0-1.33","FL","g8ez0w4wvj","1920","1080","0","1","0","5ec32348079dcc17451cac16","","null","","","learningBlock1","","","","That was a tob.","null","","","","","",""
"html-keyboard-response","107","238513","0.0-5.0-2.33","FL","g8ez0w4wvj","1920","1080","0","1","0","5ec32348079dcc17451cac16","","null","","","learningBlock1","","","","<div style=""font-size:60px;""> </div>","null","FL","learning/Slide34.JPG","That was a tob.","","",""
"image-keyboard-response","108","238690","0.0-5.0-0.34","FL","g8ez0w4wvj","1920","1080","0","1","0","5ec32348079dcc17451cac16","","null","","","","","","","learning/Slide35.JPG","null","","","","","",""
"html-keyboard-response","109","239842","0.0-5.0-1.34","FL","g8ez0w4wvj","1920","1080","0","1","0","5ec32348079dcc17451cac16","","null","","","learningBlock1","","","","That was a bim.","null","","","","","",""
"html-keyboard-response","110","240843","0.0-5.0-2.34","FL","g8ez0w4wvj","1920","1080","0","1","0","5ec32348079dcc17451cac16","","null","","","learningBlock1","","","","<div style=""font-size:60px;""> </div>","null","FL","learning/Slide35.JPG","That was a bim.","","",""
"image-keyboard-response","111","241019","0.0-5.0-0.35","FL","g8ez0w4wvj","1920","1080","0","1","0","5ec32348079dcc17451cac16","","null","","","","","","","learning/Slide36.JPG","null","","","","","",""
"html-keyboard-response","112","242172","0.0-5.0-1.35","FL","g8ez0w4wvj","1920","1080","0","1","0","5ec32348079dcc17451cac16","","null","","","learningBlock1","","","","That was a dep.","null","","","","","",""
"html-keyboard-response","113","243174","0.0-5.0-2.35","FL","g8ez0w4wvj","1920","1080","0","1","0","5ec32348079dcc17451cac16","","null","","","learningBlock1","","","","<div style=""font-size:60px;""> </div>","null","FL","learning/Slide36.JPG","That was a dep.","","",""
"image-keyboard-response","114","243351","0.0-5.0-0.36","FL","g8ez0w4wvj","1920","1080","0","1","0","5ec32348079dcc17451cac16","","null","","","","","","","learning/Slide37.JPG","null","","","","","",""
"html-keyboard-response","115","244503","0.0-5.0-1.36","FL","g8ez0w4wvj","1920","1080","0","1","0","5ec32348079dcc17451cac16","","null","","","learningBlock1","","","","That was a tob.","null","","","","","",""
"html-keyboard-response","116","245504","0.0-5.0-2.36","FL","g8ez0w4wvj","1920","1080","0","1","0","5ec32348079dcc17451cac16","","null","","","learningBlock1","","","","<div style=""font-size:60px;""> </div>","null","FL","learning/Slide37.JPG","That was a tob.","","",""
"image-keyboard-response","117","245681","0.0-5.0-0.37","FL","g8ez0w4wvj","1920","1080","0","1","0","5ec32348079dcc17451cac16","","null","","","","","","","learning/Slide38.JPG","null","","","","","",""
"html-keyboard-response","118","246846","0.0-5.0-1.37","FL","g8ez0w4wvj","1920","1080","0","1","0","5ec32348079dcc17451cac16","","null","","","learningBlock1","","","","That was a wug.","null","","","","","",""
"html-keyboard-response","119","247847","0.0-5.0-2.37","FL","g8ez0w4wvj","1920","1080","0","1","0","5ec32348079dcc17451cac16","","null","","","learningBlock1","","","","<div style=""font-size:60px;""> </div>","null","FL","learning/Slide38.JPG","That was a wug.","","",""
"image-keyboard-response","120","248023","0.0-5.0-0.38","FL","g8ez0w4wvj","1920","1080","0","1","0","5ec32348079dcc17451cac16","","null","","","","","","","learning/Slide39.JPG","null","","","","","",""
"html-keyboard-response","121","249177","0.0-5.0-1.38","FL","g8ez0w4wvj","1920","1080","0","1","0","5ec32348079dcc17451cac16","","null","","","learningBlock1","","","","That was a bim.","null","","","","","",""
"html-keyboard-response","122","250179","0.0-5.0-2.38","FL","g8ez0w4wvj","1920","1080","0","1","0","5ec32348079dcc17451cac16","","null","","","learningBlock1","","","","<div style=""font-size:60px;""> </div>","null","FL","learning/Slide39.JPG","That was a bim.","","",""
"image-keyboard-response","123","250356","0.0-5.0-0.39","FL","g8ez0w4wvj","1920","1080","0","1","0","5ec32348079dcc17451cac16","","null","","","","","","","learning/Slide40.JPG","null","","","","","",""
"html-keyboard-response","124","251508","0.0-5.0-1.39","FL","g8ez0w4wvj","1920","1080","0","1","0","5ec32348079dcc17451cac16","","null","","","learningBlock1","","","","That was a tob.","null","","","","","",""
"html-keyboard-response","125","252509","0.0-5.0-2.39","FL","g8ez0w4wvj","1920","1080","0","1","0","5ec32348079dcc17451cac16","","null","","","learningBlock1","","","","<div style=""font-size:60px;""> </div>","null","FL","learning/Slide40.JPG","That was a tob.","","",""
"image-keyboard-response","126","252685","0.0-5.0-0.40","FL","g8ez0w4wvj","1920","1080","0","1","0","5ec32348079dcc17451cac16","","null","","","","","","","learning/Slide41.JPG","null","","","","","",""
"html-keyboard-response","127","253838","0.0-5.0-1.40","FL","g8ez0w4wvj","1920","1080","0","1","0","5ec32348079dcc17451cac16","","null","","","learningBlock1","","","","That was a bim.","null","","","","","",""
"html-keyboard-response","128","254840","0.0-5.0-2.40","FL","g8ez0w4wvj","1920","1080","0","1","0","5ec32348079dcc17451cac16","","null","","","learningBlock1","","","","<div style=""font-size:60px;""> </div>","null","FL","learning/Slide41.JPG","That was a bim.","","",""
"image-keyboard-response","129","255017","0.0-5.0-0.41","FL","g8ez0w4wvj","1920","1080","0","1","0","5ec32348079dcc17451cac16","","null","","","","","","","learning/Slide42.JPG","null","","","","","",""
"html-keyboard-response","130","256170","0.0-5.0-1.41","FL","g8ez0w4wvj","1920","1080","0","1","0","5ec32348079dcc17451cac16","","null","","","learningBlock1","","","","That was a dep.","null","","","","","",""
"html-keyboard-response","131","257171","0.0-5.0-2.41","FL","g8ez0w4wvj","1920","1080","0","1","0","5ec32348079dcc17451cac16","","null","","","learningBlock1","","","","<div style=""font-size:60px;""> </div>","null","FL","learning/Slide42.JPG","That was a dep.","","",""
"image-keyboard-response","132","257347","0.0-5.0-0.42","FL","g8ez0w4wvj","1920","1080","0","1","0","5ec32348079dcc17451cac16","","null","","","","","","","learning/Slide43.JPG","null","","","","","",""
"html-keyboard-response","133","258499","0.0-5.0-1.42","FL","g8ez0w4wvj","1920","1080","0","1","0","5ec32348079dcc17451cac16","","null","","","learningBlock1","","","","That was a wug.","null","","","","","",""
"html-keyboard-response","134","259502","0.0-5.0-2.42","FL","g8ez0w4wvj","1920","1080","0","1","0","5ec32348079dcc17451cac16","","null","","","learningBlock1","","","","<div style=""font-size:60px;""> </div>","null","FL","learning/Slide43.JPG","That was a wug.","","",""
"image-keyboard-response","135","259678","0.0-5.0-0.43","FL","g8ez0w4wvj","1920","1080","0","1","0","5ec32348079dcc17451cac16","","null","","","","","","","learning/Slide44.JPG","null","","","","","",""
"html-keyboard-response","136","260831","0.0-5.0-1.43","FL","g8ez0w4wvj","1920","1080","0","1","0","5ec32348079dcc17451cac16","","null","","","learningBlock1","","","","That was a bim.","null","","","","","",""
"html-keyboard-response","137","261833","0.0-5.0-2.43","FL","g8ez0w4wvj","1920","1080","0","1","0","5ec32348079dcc17451cac16","","null","","","learningBlock1","","","","<div style=""font-size:60px;""> </div>","null","FL","learning/Slide44.JPG","That was a bim.","","",""
"image-keyboard-response","138","262009","0.0-5.0-0.44","FL","g8ez0w4wvj","1920","1080","0","1","0","5ec32348079dcc17451cac16","","null","","","","","","","learning/Slide45.JPG","null","","","","","",""
"html-keyboard-response","139","263162","0.0-5.0-1.44","FL","g8ez0w4wvj","1920","1080","0","1","0","5ec32348079dcc17451cac16","","null","","","learningBlock1","","","","That was a wug.","null","","","","","",""
"html-keyboard-response","140","264165","0.0-5.0-2.44","FL","g8ez0w4wvj","1920","1080","0","1","0","5ec32348079dcc17451cac16","","null","","","learningBlock1","","","","<div style=""font-size:60px;""> </div>","null","FL","learning/Slide45.JPG","That was a wug.","","",""
"image-keyboard-response","141","264342","0.0-5.0-0.45","FL","g8ez0w4wvj","1920","1080","0","1","0","5ec32348079dcc17451cac16","","null","","","","","","","learning/Slide46.JPG","null","","","","","",""
"html-keyboard-response","142","265494","0.0-5.0-1.45","FL","g8ez0w4wvj","1920","1080","0","1","0","5ec32348079dcc17451cac16","","null","","","learningBlock1","","","","That was a dep.","null","","","","","",""
"html-keyboard-response","143","266496","0.0-5.0-2.45","FL","g8ez0w4wvj","1920","1080","0","1","0","5ec32348079dcc17451cac16","","null","","","learningBlock1","","","","<div style=""font-size:60px;""> </div>","null","FL","learning/Slide46.JPG","That was a dep.","","",""
"image-keyboard-response","144","266672","0.0-5.0-0.46","FL","g8ez0w4wvj","1920","1080","0","1","0","5ec32348079dcc17451cac16","","null","","","","","","","learning/Slide47.JPG","null","","","","","",""
"html-keyboard-response","145","267825","0.0-5.0-1.46","FL","g8ez0w4wvj","1920","1080","0","1","0","5ec32348079dcc17451cac16","","null","","","learningBlock1","","","","That was a tob.","null","","","","","",""
"html-keyboard-response","146","268828","0.0-5.0-2.46","FL","g8ez0w4wvj","1920","1080","0","1","0","5ec32348079dcc17451cac16","","null","","","learningBlock1","","","","<div style=""font-size:60px;""> </div>","null","FL","learning/Slide47.JPG","That was a tob.","","",""
"image-keyboard-response","147","269004","0.0-5.0-0.47","FL","g8ez0w4wvj","1920","1080","0","1","0","5ec32348079dcc17451cac16","","null","","","","","","","learning/Slide48.JPG","null","","","","","",""
"html-keyboard-response","148","270157","0.0-5.0-1.47","FL","g8ez0w4wvj","1920","1080","0","1","0","5ec32348079dcc17451cac16","","null","","","learningBlock1","","","","That was a bim.","null","","","","","",""
"html-keyboard-response","149","271158","0.0-5.0-2.47","FL","g8ez0w4wvj","1920","1080","0","1","0","5ec32348079dcc17451cac16","","null","","","learningBlock1","","","","<div style=""font-size:60px;""> </div>","null","FL","learning/Slide48.JPG","That was a bim.","","",""
"image-keyboard-response","150","271335","0.0-5.0-0.48","FL","g8ez0w4wvj","1920","1080","0","1","0","5ec32348079dcc17451cac16","","null","","","","","","","learning/Slide49.JPG","null","","","","","",""
"html-keyboard-response","151","272487","0.0-5.0-1.48","FL","g8ez0w4wvj","1920","1080","0","1","0","5ec32348079dcc17451cac16","","null","","","learningBlock1","","","","That was a dep.","null","","","","","",""
"html-keyboard-response","152","273489","0.0-5.0-2.48","FL","g8ez0w4wvj","1920","1080","0","1","0","5ec32348079dcc17451cac16","","null","","","learningBlock1","","","","<div style=""font-size:60px;""> </div>","null","FL","learning/Slide49.JPG","That was a dep.","","",""
"image-keyboard-response","153","273665","0.0-5.0-0.49","FL","g8ez0w4wvj","1920","1080","0","1","0","5ec32348079dcc17451cac16","","null","","","","","","","learning/Slide50.JPG","null","","","","","",""
"html-keyboard-response","154","274817","0.0-5.0-1.49","FL","g8ez0w4wvj","1920","1080","0","1","0","5ec32348079dcc17451cac16","","null","","","learningBlock1","","","","That was a tob.","null","","","","","",""
"html-keyboard-response","155","275819","0.0-5.0-2.49","FL","g8ez0w4wvj","1920","1080","0","1","0","5ec32348079dcc17451cac16","","null","","","learningBlock1","","","","<div style=""font-size:60px;""> </div>","null","FL","learning/Slide50.JPG","That was a tob.","","",""
"image-keyboard-response","156","275996","0.0-5.0-0.50","FL","g8ez0w4wvj","1920","1080","0","1","0","5ec32348079dcc17451cac16","","null","","","","","","","learning/Slide51.JPG","null","","","","","",""
"html-keyboard-response","157","277150","0.0-5.0-1.50","FL","g8ez0w4wvj","1920","1080","0","1","0","5ec32348079dcc17451cac16","","null","","","learningBlock1","","","","That was a bim.","null","","","","","",""
"html-keyboard-response","158","278151","0.0-5.0-2.50","FL","g8ez0w4wvj","1920","1080","0","1","0","5ec32348079dcc17451cac16","","null","","","learningBlock1","","","","<div style=""font-size:60px;""> </div>","null","FL","learning/Slide51.JPG","That was a bim.","","",""
"image-keyboard-response","159","278327","0.0-5.0-0.51","FL","g8ez0w4wvj","1920","1080","0","1","0","5ec32348079dcc17451cac16","","null","","","","","","","learning/Slide52.JPG","null","","","","","",""
"html-keyboard-response","160","279480","0.0-5.0-1.51","FL","g8ez0w4wvj","1920","1080","0","1","0","5ec32348079dcc17451cac16","","null","","","learningBlock1","","","","That was a wug.","null","","","","","",""
"html-keyboard-response","161","280480","0.0-5.0-2.51","FL","g8ez0w4wvj","1920","1080","0","1","0","5ec32348079dcc17451cac16","","null","","","learningBlock1","","","","<div style=""font-size:60px;""> </div>","null","FL","learning/Slide52.JPG","That was a wug.","","",""
"image-keyboard-response","162","280656","0.0-5.0-0.52","FL","g8ez0w4wvj","1920","1080","0","1","0","5ec32348079dcc17451cac16","","null","","","","","","","learning/Slide53.JPG","null","","","","","",""
"html-keyboard-response","163","281808","0.0-5.0-1.52","FL","g8ez0w4wvj","1920","1080","0","1","0","5ec32348079dcc17451cac16","","null","","","learningBlock1","","","","That was a tob.","null","","","","","",""
"html-keyboard-response","164","282810","0.0-5.0-2.52","FL","g8ez0w4wvj","1920","1080","0","1","0","5ec32348079dcc17451cac16","","null","","","learningBlock1","","","","<div style=""font-size:60px;""> </div>","null","FL","learning/Slide53.JPG","That was a tob.","","",""
"image-keyboard-response","165","282986","0.0-5.0-0.53","FL","g8ez0w4wvj","1920","1080","0","1","0","5ec32348079dcc17451cac16","","null","","","","","","","learning/Slide54.JPG","null","","","","","",""
"html-keyboard-response","166","284138","0.0-5.0-1.53","FL","g8ez0w4wvj","1920","1080","0","1","0","5ec32348079dcc17451cac16","","null","","","learningBlock1","","","","That was a dep.","null","","","","","",""
"html-keyboard-response","167","285139","0.0-5.0-2.53","FL","g8ez0w4wvj","1920","1080","0","1","0","5ec32348079dcc17451cac16","","null","","","learningBlock1","","","","<div style=""font-size:60px;""> </div>","null","FL","learning/Slide54.JPG","That was a dep.","","",""
"image-keyboard-response","168","285316","0.0-5.0-0.54","FL","g8ez0w4wvj","1920","1080","0","1","0","5ec32348079dcc17451cac16","","null","","","","","","","learning/Slide55.JPG","null","","","","","",""
"html-keyboard-response","169","286469","0.0-5.0-1.54","FL","g8ez0w4wvj","1920","1080","0","1","0","5ec32348079dcc17451cac16","","null","","","learningBlock1","","","","That was a bim.","null","","","","","",""
"html-keyboard-response","170","287471","0.0-5.0-2.54","FL","g8ez0w4wvj","1920","1080","0","1","0","5ec32348079dcc17451cac16","","null","","","learningBlock1","","","","<div style=""font-size:60px;""> </div>","null","FL","learning/Slide55.JPG","That was a bim.","","",""
"image-keyboard-response","171","287647","0.0-5.0-0.55","FL","g8ez0w4wvj","1920","1080","0","1","0","5ec32348079dcc17451cac16","","null","","","","","","","learning/Slide56.JPG","null","","","","","",""
"html-keyboard-response","172","288800","0.0-5.0-1.55","FL","g8ez0w4wvj","1920","1080","0","1","0","5ec32348079dcc17451cac16","","null","","","learningBlock1","","","","That was a tob.","null","","","","","",""
"html-keyboard-response","173","289801","0.0-5.0-2.55","FL","g8ez0w4wvj","1920","1080","0","1","0","5ec32348079dcc17451cac16","","null","","","learningBlock1","","","","<div style=""font-size:60px;""> </div>","null","FL","learning/Slide56.JPG","That was a tob.","","",""
"image-keyboard-response","174","289978","0.0-5.0-0.56","FL","g8ez0w4wvj","1920","1080","0","1","0","5ec32348079dcc17451cac16","","null","","","","","","","learning/Slide57.JPG","null","","","","","",""
"html-keyboard-response","175","291129","0.0-5.0-1.56","FL","g8ez0w4wvj","1920","1080","0","1","0","5ec32348079dcc17451cac16","","null","","","learningBlock1","","","","That was a dep.","null","","","","","",""
"html-keyboard-response","176","292131","0.0-5.0-2.56","FL","g8ez0w4wvj","1920","1080","0","1","0","5ec32348079dcc17451cac16","","null","","","learningBlock1","","","","<div style=""font-size:60px;""> </div>","null","FL","learning/Slide57.JPG","That was a dep.","","",""
"image-keyboard-response","177","292308","0.0-5.0-0.57","FL","g8ez0w4wvj","1920","1080","0","1","0","5ec32348079dcc17451cac16","","null","","","","","","","learning/Slide58.JPG","null","","","","","",""
"html-keyboard-response","178","293461","0.0-5.0-1.57","FL","g8ez0w4wvj","1920","1080","0","1","0","5ec32348079dcc17451cac16","","null","","","learningBlock1","","","","That was a wug.","null","","","","","",""
"html-keyboard-response","179","294463","0.0-5.0-2.57","FL","g8ez0w4wvj","1920","1080","0","1","0","5ec32348079dcc17451cac16","","null","","","learningBlock1","","","","<div style=""font-size:60px;""> </div>","null","FL","learning/Slide58.JPG","That was a wug.","","",""
"image-keyboard-response","180","294639","0.0-5.0-0.58","FL","g8ez0w4wvj","1920","1080","0","1","0","5ec32348079dcc17451cac16","","null","","","","","","","learning/Slide59.JPG","null","","","","","",""
"html-keyboard-response","181","295792","0.0-5.0-1.58","FL","g8ez0w4wvj","1920","1080","0","1","0","5ec32348079dcc17451cac16","","null","","","learningBlock1","","","","That was a dep.","null","","","","","",""
"html-keyboard-response","182","296793","0.0-5.0-2.58","FL","g8ez0w4wvj","1920","1080","0","1","0","5ec32348079dcc17451cac16","","null","","","learningBlock1","","","","<div style=""font-size:60px;""> </div>","null","FL","learning/Slide59.JPG","That was a dep.","","",""
"image-keyboard-response","183","296970","0.0-5.0-0.59","FL","g8ez0w4wvj","1920","1080","0","1","0","5ec32348079dcc17451cac16","","null","","","","","","","learning/Slide60.JPG","null","","","","","",""
"html-keyboard-response","184","298123","0.0-5.0-1.59","FL","g8ez0w4wvj","1920","1080","0","1","0","5ec32348079dcc17451cac16","","null","","","learningBlock1","","","","That was a wug.","null","","","","","",""
"html-keyboard-response","185","299124","0.0-5.0-2.59","FL","g8ez0w4wvj","1920","1080","0","1","0","5ec32348079dcc17451cac16","","null","","","learningBlock1","","","","<div style=""font-size:60px;""> </div>","null","FL","learning/Slide60.JPG","That was a wug.","","",""
"image-keyboard-response","186","299319","0.0-5.0-0.60","FL","g8ez0w4wvj","1920","1080","0","1","0","5ec32348079dcc17451cac16","","null","","","","","","","learning/Slide61.JPG","null","","","","","",""
"html-keyboard-response","187","300471","0.0-5.0-1.60","FL","g8ez0w4wvj","1920","1080","0","1","0","5ec32348079dcc17451cac16","","null","","","learningBlock1","","","","That was a bim.","null","","","","","",""
"html-keyboard-response","188","301472","0.0-5.0-2.60","FL","g8ez0w4wvj","1920","1080","0","1","0","5ec32348079dcc17451cac16","","null","","","learningBlock1","","","","<div style=""font-size:60px;""> </div>","null","FL","learning/Slide61.JPG","That was a bim.","","",""
"image-keyboard-response","189","301648","0.0-5.0-0.61","FL","g8ez0w4wvj","1920","1080","0","1","0","5ec32348079dcc17451cac16","","null","","","","","","","learning/Slide62.JPG","null","","","","","",""
"html-keyboard-response","190","302802","0.0-5.0-1.61","FL","g8ez0w4wvj","1920","1080","0","1","0","5ec32348079dcc17451cac16","","null","","","learningBlock1","","","","That was a dep.","null","","","","","",""
"html-keyboard-response","191","303803","0.0-5.0-2.61","FL","g8ez0w4wvj","1920","1080","0","1","0","5ec32348079dcc17451cac16","","null","","","learningBlock1","","","","<div style=""font-size:60px;""> </div>","null","FL","learning/Slide62.JPG","That was a dep.","","",""
"image-keyboard-response","192","303979","0.0-5.0-0.62","FL","g8ez0w4wvj","1920","1080","0","1","0","5ec32348079dcc17451cac16","","null","","","","","","","learning/Slide63.JPG","null","","","","","",""
"html-keyboard-response","193","305132","0.0-5.0-1.62","FL","g8ez0w4wvj","1920","1080","0","1","0","5ec32348079dcc17451cac16","","null","","","learningBlock1","","","","That was a bim.","null","","","","","",""
"html-keyboard-response","194","306134","0.0-5.0-2.62","FL","g8ez0w4wvj","1920","1080","0","1","0","5ec32348079dcc17451cac16","","null","","","learningBlock1","","","","<div style=""font-size:60px;""> </div>","null","FL","learning/Slide63.JPG","That was a bim.","","",""
"image-keyboard-response","195","306311","0.0-5.0-0.63","FL","g8ez0w4wvj","1920","1080","0","1","0","5ec32348079dcc17451cac16","","null","","","","","","","learning/Slide64.JPG","null","","","","","",""
"html-keyboard-response","196","307463","0.0-5.0-1.63","FL","g8ez0w4wvj","1920","1080","0","1","0","5ec32348079dcc17451cac16","","null","","","learningBlock1","","","","That was a tob.","null","","","","","",""
"html-keyboard-response","197","308465","0.0-5.0-2.63","FL","g8ez0w4wvj","1920","1080","0","1","0","5ec32348079dcc17451cac16","","null","","","learningBlock1","","","","<div style=""font-size:60px;""> </div>","null","FL","learning/Slide64.JPG","That was a tob.","","",""
"image-keyboard-response","198","308642","0.0-5.0-0.64","FL","g8ez0w4wvj","1920","1080","0","1","0","5ec32348079dcc17451cac16","","null","","","","","","","learning/Slide65.JPG","null","","","","","",""
"html-keyboard-response","199","309795","0.0-5.0-1.64","FL","g8ez0w4wvj","1920","1080","0","1","0","5ec32348079dcc17451cac16","","null","","","learningBlock1","","","","That was a wug.","null","","","","","",""
"html-keyboard-response","200","310796","0.0-5.0-2.64","FL","g8ez0w4wvj","1920","1080","0","1","0","5ec32348079dcc17451cac16","","null","","","learningBlock1","","","","<div style=""font-size:60px;""> </div>","null","FL","learning/Slide65.JPG","That was a wug.","","",""
"image-keyboard-response","201","310973","0.0-5.0-0.65","FL","g8ez0w4wvj","1920","1080","0","1","0","5ec32348079dcc17451cac16","","null","","","","","","","learning/Slide66.JPG","null","","","","","",""
"html-keyboard-response","202","312127","0.0-5.0-1.65","FL","g8ez0w4wvj","1920","1080","0","1","0","5ec32348079dcc17451cac16","","null","","","learningBlock1","","","","That was a dep.","null","","","","","",""
"html-keyboard-response","203","313128","0.0-5.0-2.65","FL","g8ez0w4wvj","1920","1080","0","1","0","5ec32348079dcc17451cac16","","null","","","learningBlock1","","","","<div style=""font-size:60px;""> </div>","null","FL","learning/Slide66.JPG","That was a dep.","","",""
"image-keyboard-response","204","313305","0.0-5.0-0.66","FL","g8ez0w4wvj","1920","1080","0","1","0","5ec32348079dcc17451cac16","","null","","","","","","","learning/Slide67.JPG","null","","","","","",""
"html-keyboard-response","205","314456","0.0-5.0-1.66","FL","g8ez0w4wvj","1920","1080","0","1","0","5ec32348079dcc17451cac16","","null","","","learningBlock1","","","","That was a tob.","null","","","","","",""
"html-keyboard-response","206","315458","0.0-5.0-2.66","FL","g8ez0w4wvj","1920","1080","0","1","0","5ec32348079dcc17451cac16","","null","","","learningBlock1","","","","<div style=""font-size:60px;""> </div>","null","FL","learning/Slide67.JPG","That was a tob.","","",""
"image-keyboard-response","207","315635","0.0-5.0-0.67","FL","g8ez0w4wvj","1920","1080","0","1","0","5ec32348079dcc17451cac16","","null","","","","","","","learning/Slide68.JPG","null","","","","","",""
"html-keyboard-response","208","316787","0.0-5.0-1.67","FL","g8ez0w4wvj","1920","1080","0","1","0","5ec32348079dcc17451cac16","","null","","","learningBlock1","","","","That was a wug.","null","","","","","",""
"html-keyboard-response","209","317789","0.0-5.0-2.67","FL","g8ez0w4wvj","1920","1080","0","1","0","5ec32348079dcc17451cac16","","null","","","learningBlock1","","","","<div style=""font-size:60px;""> </div>","null","FL","learning/Slide68.JPG","That was a wug.","","",""
"image-keyboard-response","210","317965","0.0-5.0-0.68","FL","g8ez0w4wvj","1920","1080","0","1","0","5ec32348079dcc17451cac16","","null","","","","","","","learning/Slide69.JPG","null","","","","","",""
"html-keyboard-response","211","319118","0.0-5.0-1.68","FL","g8ez0w4wvj","1920","1080","0","1","0","5ec32348079dcc17451cac16","","null","","","learningBlock1","","","","That was a tob.","null","","","","","",""
"html-keyboard-response","212","320119","0.0-5.0-2.68","FL","g8ez0w4wvj","1920","1080","0","1","0","5ec32348079dcc17451cac16","","null","","","learningBlock1","","","","<div style=""font-size:60px;""> </div>","null","FL","learning/Slide69.JPG","That was a tob.","","",""
"image-keyboard-response","213","320296","0.0-5.0-0.69","FL","g8ez0w4wvj","1920","1080","0","1","0","5ec32348079dcc17451cac16","","null","","","","","","","learning/Slide70.JPG","null","","","","","",""
"html-keyboard-response","214","321448","0.0-5.0-1.69","FL","g8ez0w4wvj","1920","1080","0","1","0","5ec32348079dcc17451cac16","","null","","","learningBlock1","","","","That was a dep.","null","","","","","",""
"html-keyboard-response","215","322449","0.0-5.0-2.69","FL","g8ez0w4wvj","1920","1080","0","1","0","5ec32348079dcc17451cac16","","null","","","learningBlock1","","","","<div style=""font-size:60px;""> </div>","null","FL","learning/Slide70.JPG","That was a dep.","","",""
"image-keyboard-response","216","322626","0.0-5.0-0.70","FL","g8ez0w4wvj","1920","1080","0","1","0","5ec32348079dcc17451cac16","","null","","","","","","","learning/Slide71.JPG","null","","","","","",""
"html-keyboard-response","217","323779","0.0-5.0-1.70","FL","g8ez0w4wvj","1920","1080","0","1","0","5ec32348079dcc17451cac16","","null","","","learningBlock1","","","","That was a wug.","null","","","","","",""
"html-keyboard-response","218","324779","0.0-5.0-2.70","FL","g8ez0w4wvj","1920","1080","0","1","0","5ec32348079dcc17451cac16","","null","","","learningBlock1","","","","<div style=""font-size:60px;""> </div>","null","FL","learning/Slide71.JPG","That was a wug.","","",""
"image-keyboard-response","219","324956","0.0-5.0-0.71","FL","g8ez0w4wvj","1920","1080","0","1","0","5ec32348079dcc17451cac16","","null","","","","","","","learning/Slide72.JPG","null","","","","","",""
"html-keyboard-response","220","326109","0.0-5.0-1.71","FL","g8ez0w4wvj","1920","1080","0","1","0","5ec32348079dcc17451cac16","","null","","","learningBlock1","","","","That was a bim.","null","","","","","",""
"html-keyboard-response","221","327110","0.0-5.0-2.71","FL","g8ez0w4wvj","1920","1080","0","1","0","5ec32348079dcc17451cac16","","null","","","learningBlock1","","","","<div style=""font-size:60px;""> </div>","null","FL","learning/Slide72.JPG","That was a bim.","","",""
"image-keyboard-response","222","327287","0.0-5.0-0.72","FL","g8ez0w4wvj","1920","1080","0","1","0","5ec32348079dcc17451cac16","","null","","","","","","","learning/Slide73.JPG","null","","","","","",""
"html-keyboard-response","223","328439","0.0-5.0-1.72","FL","g8ez0w4wvj","1920","1080","0","1","0","5ec32348079dcc17451cac16","","null","","","learningBlock1","","","","That was a wug.","null","","","","","",""
"html-keyboard-response","224","329441","0.0-5.0-2.72","FL","g8ez0w4wvj","1920","1080","0","1","0","5ec32348079dcc17451cac16","","null","","","learningBlock1","","","","<div style=""font-size:60px;""> </div>","null","FL","learning/Slide73.JPG","That was a wug.","","",""
"image-keyboard-response","225","329619","0.0-5.0-0.73","FL","g8ez0w4wvj","1920","1080","0","1","0","5ec32348079dcc17451cac16","","null","","","","","","","learning/Slide74.JPG","null","","","","","",""
"html-keyboard-response","226","330772","0.0-5.0-1.73","FL","g8ez0w4wvj","1920","1080","0","1","0","5ec32348079dcc17451cac16","","null","","","learningBlock1","","","","That was a dep.","null","","","","","",""
"html-keyboard-response","227","331773","0.0-5.0-2.73","FL","g8ez0w4wvj","1920","1080","0","1","0","5ec32348079dcc17451cac16","","null","","","learningBlock1","","","","<div style=""font-size:60px;""> </div>","null","FL","learning/Slide74.JPG","That was a dep.","","",""
"image-keyboard-response","228","331950","0.0-5.0-0.74","FL","g8ez0w4wvj","1920","1080","0","1","0","5ec32348079dcc17451cac16","","null","","","","","","","learning/Slide75.JPG","null","","","","","",""
"html-keyboard-response","229","333102","0.0-5.0-1.74","FL","g8ez0w4wvj","1920","1080","0","1","0","5ec32348079dcc17451cac16","","null","","","learningBlock1","","","","That was a tob.","null","","","","","",""
"html-keyboard-response","230","334104","0.0-5.0-2.74","FL","g8ez0w4wvj","1920","1080","0","1","0","5ec32348079dcc17451cac16","","null","","","learningBlock1","","","","<div style=""font-size:60px;""> </div>","null","FL","learning/Slide75.JPG","That was a tob.","","",""
"image-keyboard-response","231","334280","0.0-5.0-0.75","FL","g8ez0w4wvj","1920","1080","0","1","0","5ec32348079dcc17451cac16","","null","","","","","","","learning/Slide76.JPG","null","","","","","",""
"html-keyboard-response","232","335433","0.0-5.0-1.75","FL","g8ez0w4wvj","1920","1080","0","1","0","5ec32348079dcc17451cac16","","null","","","learningBlock1","","","","That was a bim.","null","","","","","",""
"html-keyboard-response","233","336435","0.0-5.0-2.75","FL","g8ez0w4wvj","1920","1080","0","1","0","5ec32348079dcc17451cac16","","null","","","learningBlock1","","","","<div style=""font-size:60px;""> </div>","null","FL","learning/Slide76.JPG","That was a bim.","","",""
"image-keyboard-response","234","336611","0.0-5.0-0.76","FL","g8ez0w4wvj","1920","1080","0","1","0","5ec32348079dcc17451cac16","","null","","","","","","","learning/Slide77.JPG","null","","","","","",""
"html-keyboard-response","235","337766","0.0-5.0-1.76","FL","g8ez0w4wvj","1920","1080","0","1","0","5ec32348079dcc17451cac16","","null","","","learningBlock1","","","","That was a tob.","null","","","","","",""
"html-keyboard-response","236","338768","0.0-5.0-2.76","FL","g8ez0w4wvj","1920","1080","0","1","0","5ec32348079dcc17451cac16","","null","","","learningBlock1","","","","<div style=""font-size:60px;""> </div>","null","FL","learning/Slide77.JPG","That was a tob.","","",""
"image-keyboard-response","237","338945","0.0-5.0-0.77","FL","g8ez0w4wvj","1920","1080","0","1","0","5ec32348079dcc17451cac16","","null","","","","","","","learning/Slide78.JPG","null","","","","","",""
"html-keyboard-response","238","340096","0.0-5.0-1.77","FL","g8ez0w4wvj","1920","1080","0","1","0","5ec32348079dcc17451cac16","","null","","","learningBlock1","","","","That was a wug.","null","","","","","",""
"html-keyboard-response","239","341098","0.0-5.0-2.77","FL","g8ez0w4wvj","1920","1080","0","1","0","5ec32348079dcc17451cac16","","null","","","learningBlock1","","","","<div style=""font-size:60px;""> </div>","null","FL","learning/Slide78.JPG","That was a wug.","","",""
"image-keyboard-response","240","341275","0.0-5.0-0.78","FL","g8ez0w4wvj","1920","1080","0","1","0","5ec32348079dcc17451cac16","","null","","","","","","","learning/Slide79.JPG","null","","","","","",""
"html-keyboard-response","241","342428","0.0-5.0-1.78","FL","g8ez0w4wvj","1920","1080","0","1","0","5ec32348079dcc17451cac16","","null","","","learningBlock1","","","","That was a bim.","null","","","","","",""
"html-keyboard-response","242","343429","0.0-5.0-2.78","FL","g8ez0w4wvj","1920","1080","0","1","0","5ec32348079dcc17451cac16","","null","","","learningBlock1","","","","<div style=""font-size:60px;""> </div>","null","FL","learning/Slide79.JPG","That was a bim.","","",""
"image-keyboard-response","243","343605","0.0-5.0-0.79","FL","g8ez0w4wvj","1920","1080","0","1","0","5ec32348079dcc17451cac16","","null","","","","","","","learning/Slide80.JPG","null","","","","","",""
"html-keyboard-response","244","344759","0.0-5.0-1.79","FL","g8ez0w4wvj","1920","1080","0","1","0","5ec32348079dcc17451cac16","","null","","","learningBlock1","","","","That was a tob.","null","","","","","",""
"html-keyboard-response","245","345761","0.0-5.0-2.79","FL","g8ez0w4wvj","1920","1080","0","1","0","5ec32348079dcc17451cac16","","null","","","learningBlock1","","","","<div style=""font-size:60px;""> </div>","null","FL","learning/Slide80.JPG","That was a tob.","","",""
"instructions","246","419636","0.0-6.0","FL","g8ez0w4wvj","1920","1080","0","1","0","5ec32348079dcc17451cac16","","NA","","[{""page_index"":0,""viewing_time"":73873.98999999277}]","instructions","","","","","","","","","","",""
"image-keyboard-response","247","419812","0.0-7.0-0.0","FL","g8ez0w4wvj","1920","1080","0","1","0","5ec32348079dcc17451cac16","","null","","","","","","","learning/Slide81.JPG","null","","","","","",""
"html-keyboard-response","248","420965","0.0-7.0-1.0","FL","g8ez0w4wvj","1920","1080","0","1","0","5ec32348079dcc17451cac16","","null","","","learningBlock2","","","","That was a wug.","null","","","","","",""
"html-keyboard-response","249","421967","0.0-7.0-2.0","FL","g8ez0w4wvj","1920","1080","0","1","0","5ec32348079dcc17451cac16","","null","","","learningBlock2","","","","<div style=""font-size:60px;""> </div>","null","FL","learning/Slide81.JPG","That was a wug.","","",""
"image-keyboard-response","250","422175","0.0-7.0-0.1","FL","g8ez0w4wvj","1920","1080","0","1","0","5ec32348079dcc17451cac16","","null","","","","","","","learning/Slide82.JPG","null","","","","","",""
"html-keyboard-response","251","423328","0.0-7.0-1.1","FL","g8ez0w4wvj","1920","1080","0","1","0","5ec32348079dcc17451cac16","","null","","","learningBlock2","","","","That was a bim.","null","","","","","",""
"html-keyboard-response","252","424329","0.0-7.0-2.1","FL","g8ez0w4wvj","1920","1080","0","1","0","5ec32348079dcc17451cac16","","null","","","learningBlock2","","","","<div style=""font-size:60px;""> </div>","null","FL","learning/Slide82.JPG","That was a bim.","","",""
"image-keyboard-response","253","424506","0.0-7.0-0.2","FL","g8ez0w4wvj","1920","1080","0","1","0","5ec32348079dcc17451cac16","","null","","","","","","","learning/Slide83.JPG","null","","","","","",""
"html-keyboard-response","254","425659","0.0-7.0-1.2","FL","g8ez0w4wvj","1920","1080","0","1","0","5ec32348079dcc17451cac16","","null","","","learningBlock2","","","","That was a wug.","null","","","","","",""
"html-keyboard-response","255","426661","0.0-7.0-2.2","FL","g8ez0w4wvj","1920","1080","0","1","0","5ec32348079dcc17451cac16","","null","","","learningBlock2","","","","<div style=""font-size:60px;""> </div>","null","FL","learning/Slide83.JPG","That was a wug.","","",""
"image-keyboard-response","256","426838","0.0-7.0-0.3","FL","g8ez0w4wvj","1920","1080","0","1","0","5ec32348079dcc17451cac16","","null","","","","","","","learning/Slide84.JPG","null","","","","","",""
"html-keyboard-response","257","427990","0.0-7.0-1.3","FL","g8ez0w4wvj","1920","1080","0","1","0","5ec32348079dcc17451cac16","","null","","","learningBlock2","","","","That was a dep.","null","","","","","",""
"html-keyboard-response","258","428993","0.0-7.0-2.3","FL","g8ez0w4wvj","1920","1080","0","1","0","5ec32348079dcc17451cac16","","null","","","learningBlock2","","","","<div style=""font-size:60px;""> </div>","null","FL","learning/Slide84.JPG","That was a dep.","","",""
"image-keyboard-response","259","429169","0.0-7.0-0.4","FL","g8ez0w4wvj","1920","1080","0","1","0","5ec32348079dcc17451cac16","","null","","","","","","","learning/Slide85.JPG","null","","","","","",""
"html-keyboard-response","260","430321","0.0-7.0-1.4","FL","g8ez0w4wvj","1920","1080","0","1","0","5ec32348079dcc17451cac16","","null","","","learningBlock2","","","","That was a bim.","null","","","","","",""
"html-keyboard-response","261","431323","0.0-7.0-2.4","FL","g8ez0w4wvj","1920","1080","0","1","0","5ec32348079dcc17451cac16","","null","","","learningBlock2","","","","<div style=""font-size:60px;""> </div>","null","FL","learning/Slide85.JPG","That was a bim.","","",""
"image-keyboard-response","262","431499","0.0-7.0-0.5","FL","g8ez0w4wvj","1920","1080","0","1","0","5ec32348079dcc17451cac16","","null","","","","","","","learning/Slide86.JPG","null","","","","","",""
"html-keyboard-response","263","432652","0.0-7.0-1.5","FL","g8ez0w4wvj","1920","1080","0","1","0","5ec32348079dcc17451cac16","","null","","","learningBlock2","","","","That was a tob.","null","","","","","",""
"html-keyboard-response","264","433654","0.0-7.0-2.5","FL","g8ez0w4wvj","1920","1080","0","1","0","5ec32348079dcc17451cac16","","null","","","learningBlock2","","","","<div style=""font-size:60px;""> </div>","null","FL","learning/Slide86.JPG","That was a tob.","","",""
"image-keyboard-response","265","433831","0.0-7.0-0.6","FL","g8ez0w4wvj","1920","1080","0","1","0","5ec32348079dcc17451cac16","","null","","","","","","","learning/Slide87.JPG","null","","","","","",""
"html-keyboard-response","266","435542","0.0-7.0-1.6","FL","g8ez0w4wvj","1920","1080","0","1","0","5ec32348079dcc17451cac16","","null","","","learningBlock2","","","","That was a wug.","null","","","","","",""
"html-keyboard-response","267","437533","0.0-7.0-2.6","FL","g8ez0w4wvj","1920","1080","0","1","0","5ec32348079dcc17451cac16","","null","","","learningBlock2","","","","<div style=""font-size:60px;""> </div>","null","FL","learning/Slide87.JPG","That was a wug.","","",""
"image-keyboard-response","268","437709","0.0-7.0-0.7","FL","g8ez0w4wvj","1920","1080","0","1","0","5ec32348079dcc17451cac16","","null","","","","","","","learning/Slide88.JPG","null","","","","","",""
"html-keyboard-response","269","439542","0.0-7.0-1.7","FL","g8ez0w4wvj","1920","1080","0","1","0","5ec32348079dcc17451cac16","","null","","","learningBlock2","","","","That was a tob.","null","","","","","",""
"html-keyboard-response","270","441542","0.0-7.0-2.7","FL","g8ez0w4wvj","1920","1080","0","1","0","5ec32348079dcc17451cac16","","null","","","learningBlock2","","","","<div style=""font-size:60px;""> </div>","null","FL","learning/Slide88.JPG","That was a tob.","","",""
"image-keyboard-response","271","442557","0.0-7.0-0.8","FL","g8ez0w4wvj","1920","1080","0","1","0","5ec32348079dcc17451cac16","","null","","","","","","","learning/Slide89.JPG","null","","","","","",""
"html-keyboard-response","272","444543","0.0-7.0-1.8","FL","g8ez0w4wvj","1920","1080","0","1","0","5ec32348079dcc17451cac16","","null","","","learningBlock2","","","","That was a bim.","null","","","","","",""
"html-keyboard-response","273","446542","0.0-7.0-2.8","FL","g8ez0w4wvj","1920","1080","0","1","0","5ec32348079dcc17451cac16","","null","","","learningBlock2","","","","<div style=""font-size:60px;""> </div>","null","FL","learning/Slide89.JPG","That was a bim.","","",""
"image-keyboard-response","274","447542","0.0-7.0-0.9","FL","g8ez0w4wvj","1920","1080","0","1","0","5ec32348079dcc17451cac16","","null","","","","","","","learning/Slide90.JPG","null","","","","","",""
"html-keyboard-response","275","449542","0.0-7.0-1.9","FL","g8ez0w4wvj","1920","1080","0","1","0","5ec32348079dcc17451cac16","","null","","","learningBlock2","","","","That was a dep.","null","","","","","",""
"html-keyboard-response","276","451543","0.0-7.0-2.9","FL","g8ez0w4wvj","1920","1080","0","1","0","5ec32348079dcc17451cac16","","null","","","learningBlock2","","","","<div style=""font-size:60px;""> </div>","null","FL","learning/Slide90.JPG","That was a dep.","","",""
"image-keyboard-response","277","452542","0.0-7.0-0.10","FL","g8ez0w4wvj","1920","1080","0","1","0","5ec32348079dcc17451cac16","","null","","","","","","","learning/Slide91.JPG","null","","","","","",""
"html-keyboard-response","278","454542","0.0-7.0-1.10","FL","g8ez0w4wvj","1920","1080","0","1","0","5ec32348079dcc17451cac16","","null","","","learningBlock2","","","","That was a wug.","null","","","","","",""
"html-keyboard-response","279","456542","0.0-7.0-2.10","FL","g8ez0w4wvj","1920","1080","0","1","0","5ec32348079dcc17451cac16","","null","","","learningBlock2","","","","<div style=""font-size:60px;""> </div>","null","FL","learning/Slide91.JPG","That was a wug.","","",""
"image-keyboard-response","280","457542","0.0-7.0-0.11","FL","g8ez0w4wvj","1920","1080","0","1","0","5ec32348079dcc17451cac16","","null","","","","","","","learning/Slide92.JPG","null","","","","","",""
"html-keyboard-response","281","460541","0.0-7.0-1.11","FL","g8ez0w4wvj","1920","1080","0","1","0","5ec32348079dcc17451cac16","","null","","","learningBlock2","","","","That was a tob.","null","","","","","",""
"html-keyboard-response","282","462542","0.0-7.0-2.11","FL","g8ez0w4wvj","1920","1080","0","1","0","5ec32348079dcc17451cac16","","null","","","learningBlock2","","","","<div style=""font-size:60px;""> </div>","null","FL","learning/Slide92.JPG","That was a tob.","","",""
"image-keyboard-response","283","463542","0.0-7.0-0.12","FL","g8ez0w4wvj","1920","1080","0","1","0","5ec32348079dcc17451cac16","","null","","","","","","","learning/Slide93.JPG","null","","","","","",""
"html-keyboard-response","284","466542","0.0-7.0-1.12","FL","g8ez0w4wvj","1920","1080","0","1","0","5ec32348079dcc17451cac16","","null","","","learningBlock2","","","","That was a bim.","null","","","","","",""
"html-keyboard-response","285","468542","0.0-7.0-2.12","FL","g8ez0w4wvj","1920","1080","0","1","0","5ec32348079dcc17451cac16","","null","","","learningBlock2","","","","<div style=""font-size:60px;""> </div>","null","FL","learning/Slide93.JPG","That was a bim.","","",""
"image-keyboard-response","286","469542","0.0-7.0-0.13","FL","g8ez0w4wvj","1920","1080","0","1","0","5ec32348079dcc17451cac16","","null","","","","","","","learning/Slide94.JPG","null","","","","","",""
"html-keyboard-response","287","472542","0.0-7.0-1.13","FL","g8ez0w4wvj","1920","1080","0","1","0","5ec32348079dcc17451cac16","","null","","","learningBlock2","","","","That was a tob.","null","","","","","",""
"html-keyboard-response","288","474543","0.0-7.0-2.13","FL","g8ez0w4wvj","1920","1080","0","1","0","5ec32348079dcc17451cac16","","null","","","learningBlock2","","","","<div style=""font-size:60px;""> </div>","null","FL","learning/Slide94.JPG","That was a tob.","","",""
"image-keyboard-response","289","475541","0.0-7.0-0.14","FL","g8ez0w4wvj","1920","1080","0","1","0","5ec32348079dcc17451cac16","","null","","","","","","","learning/Slide95.JPG","null","","","","","",""
"html-keyboard-response","290","477541","0.0-7.0-1.14","FL","g8ez0w4wvj","1920","1080","0","1","0","5ec32348079dcc17451cac16","","null","","","learningBlock2","","","","That was a wug.","null","","","","","",""
"html-keyboard-response","291","479542","0.0-7.0-2.14","FL","g8ez0w4wvj","1920","1080","0","1","0","5ec32348079dcc17451cac16","","null","","","learningBlock2","","","","<div style=""font-size:60px;""> </div>","null","FL","learning/Slide95.JPG","That was a wug.","","",""
"image-keyboard-response","292","480542","0.0-7.0-0.15","FL","g8ez0w4wvj","1920","1080","0","1","0","5ec32348079dcc17451cac16","","null","","","","","","","learning/Slide96.JPG","null","","","","","",""
"html-keyboard-response","293","483542","0.0-7.0-1.15","FL","g8ez0w4wvj","1920","1080","0","1","0","5ec32348079dcc17451cac16","","null","","","learningBlock2","","","","That was a tob.","null","","","","","",""
"html-keyboard-response","294","485542","0.0-7.0-2.15","FL","g8ez0w4wvj","1920","1080","0","1","0","5ec32348079dcc17451cac16","","null","","","learningBlock2","","","","<div style=""font-size:60px;""> </div>","null","FL","learning/Slide96.JPG","That was a tob.","","",""
"image-keyboard-response","295","486542","0.0-7.0-0.16","FL","g8ez0w4wvj","1920","1080","0","1","0","5ec32348079dcc17451cac16","","null","","","","","","","learning/Slide97.JPG","null","","","","","",""
"html-keyboard-response","296","489541","0.0-7.0-1.16","FL","g8ez0w4wvj","1920","1080","0","1","0","5ec32348079dcc17451cac16","","null","","","learningBlock2","","","","That was a dep.","null","","","","","",""
"html-keyboard-response","297","491541","0.0-7.0-2.16","FL","g8ez0w4wvj","1920","1080","0","1","0","5ec32348079dcc17451cac16","","null","","","learningBlock2","","","","<div style=""font-size:60px;""> </div>","null","FL","learning/Slide97.JPG","That was a dep.","","",""
"image-keyboard-response","298","492542","0.0-7.0-0.17","FL","g8ez0w4wvj","1920","1080","0","1","0","5ec32348079dcc17451cac16","","null","","","","","","","learning/Slide98.JPG","null","","","","","",""
"html-keyboard-response","299","495542","0.0-7.0-1.17","FL","g8ez0w4wvj","1920","1080","0","1","0","5ec32348079dcc17451cac16","","null","","","learningBlock2","","","","That was a bim.","null","","","","","",""
"html-keyboard-response","300","497542","0.0-7.0-2.17","FL","g8ez0w4wvj","1920","1080","0","1","0","5ec32348079dcc17451cac16","","null","","","learningBlock2","","","","<div style=""font-size:60px;""> </div>","null","FL","learning/Slide98.JPG","That was a bim.","","",""
"image-keyboard-response","301","498542","0.0-7.0-0.18","FL","g8ez0w4wvj","1920","1080","0","1","0","5ec32348079dcc17451cac16","","null","","","","","","","learning/Slide99.JPG","null","","","","","",""
"html-keyboard-response","302","500550","0.0-7.0-1.18","FL","g8ez0w4wvj","1920","1080","0","1","0","5ec32348079dcc17451cac16","","null","","","learningBlock2","","","","That was a dep.","null","","","","","",""
"html-keyboard-response","303","501552","0.0-7.0-2.18","FL","g8ez0w4wvj","1920","1080","0","1","0","5ec32348079dcc17451cac16","","null","","","learningBlock2","","","","<div style=""font-size:60px;""> </div>","null","FL","learning/Slide99.JPG","That was a dep.","","",""
"image-keyboard-response","304","501729","0.0-7.0-0.19","FL","g8ez0w4wvj","1920","1080","0","1","0","5ec32348079dcc17451cac16","","null","","","","","","","learning/Slide100.JPG","null","","","","","",""
"html-keyboard-response","305","502881","0.0-7.0-1.19","FL","g8ez0w4wvj","1920","1080","0","1","0","5ec32348079dcc17451cac16","","null","","","learningBlock2","","","","That was a bim.","null","","","","","",""
"html-keyboard-response","306","503883","0.0-7.0-2.19","FL","g8ez0w4wvj","1920","1080","0","1","0","5ec32348079dcc17451cac16","","null","","","learningBlock2","","","","<div style=""font-size:60px;""> </div>","null","FL","learning/Slide100.JPG","That was a bim.","","",""
"image-keyboard-response","307","504541","0.0-7.0-0.20","FL","g8ez0w4wvj","1920","1080","0","1","0","5ec32348079dcc17451cac16","","null","","","","","","","learning/Slide101.JPG","null","","","","","",""
"html-keyboard-response","308","507542","0.0-7.0-1.20","FL","g8ez0w4wvj","1920","1080","0","1","0","5ec32348079dcc17451cac16","","null","","","learningBlock2","","","","That was a tob.","null","","","","","",""
"html-keyboard-response","309","509542","0.0-7.0-2.20","FL","g8ez0w4wvj","1920","1080","0","1","0","5ec32348079dcc17451cac16","","null","","","learningBlock2","","","","<div style=""font-size:60px;""> </div>","null","FL","learning/Slide101.JPG","That was a tob.","","",""
"image-keyboard-response","310","510542","0.0-7.0-0.21","FL","g8ez0w4wvj","1920","1080","0","1","0","5ec32348079dcc17451cac16","","null","","","","","","","learning/Slide102.JPG","null","","","","","",""
"html-keyboard-response","311","512890","0.0-7.0-1.21","FL","g8ez0w4wvj","1920","1080","0","1","0","5ec32348079dcc17451cac16","","null","","","learningBlock2","","","","That was a bim.","null","","","","","",""
"html-keyboard-response","312","514542","0.0-7.0-2.21","FL","g8ez0w4wvj","1920","1080","0","1","0","5ec32348079dcc17451cac16","","null","","","learningBlock2","","","","<div style=""font-size:60px;""> </div>","null","FL","learning/Slide102.JPG","That was a bim.","","",""
"image-keyboard-response","313","515542","0.0-7.0-0.22","FL","g8ez0w4wvj","1920","1080","0","1","0","5ec32348079dcc17451cac16","","null","","","","","","","learning/Slide103.JPG","null","","","","","",""
"html-keyboard-response","314","517542","0.0-7.0-1.22","FL","g8ez0w4wvj","1920","1080","0","1","0","5ec32348079dcc17451cac16","","null","","","learningBlock2","","","","That was a dep.","null","","","","","",""
"html-keyboard-response","315","519542","0.0-7.0-2.22","FL","g8ez0w4wvj","1920","1080","0","1","0","5ec32348079dcc17451cac16","","null","","","learningBlock2","","","","<div style=""font-size:60px;""> </div>","null","FL","learning/Slide103.JPG","That was a dep.","","",""
"image-keyboard-response","316","520542","0.0-7.0-0.23","FL","g8ez0w4wvj","1920","1080","0","1","0","5ec32348079dcc17451cac16","","null","","","","","","","learning/Slide104.JPG","null","","","","","",""
"html-keyboard-response","317","523541","0.0-7.0-1.23","FL","g8ez0w4wvj","1920","1080","0","1","0","5ec32348079dcc17451cac16","","null","","","learningBlock2","","","","That was a tob.","null","","","","","",""
"html-keyboard-response","318","525542","0.0-7.0-2.23","FL","g8ez0w4wvj","1920","1080","0","1","0","5ec32348079dcc17451cac16","","null","","","learningBlock2","","","","<div style=""font-size:60px;""> </div>","null","FL","learning/Slide104.JPG","That was a tob.","","",""
"image-keyboard-response","319","526542","0.0-7.0-0.24","FL","g8ez0w4wvj","1920","1080","0","1","0","5ec32348079dcc17451cac16","","null","","","","","","","learning/Slide105.JPG","null","","","","","",""
"html-keyboard-response","320","528543","0.0-7.0-1.24","FL","g8ez0w4wvj","1920","1080","0","1","0","5ec32348079dcc17451cac16","","null","","","learningBlock2","","","","That was a dep.","null","","","","","",""
"html-keyboard-response","321","529544","0.0-7.0-2.24","FL","g8ez0w4wvj","1920","1080","0","1","0","5ec32348079dcc17451cac16","","null","","","learningBlock2","","","","<div style=""font-size:60px;""> </div>","null","FL","learning/Slide105.JPG","That was a dep.","","",""
"image-keyboard-response","322","530542","0.0-7.0-0.25","FL","g8ez0w4wvj","1920","1080","0","1","0","5ec32348079dcc17451cac16","","null","","","","","","","learning/Slide106.JPG","null","","","","","",""
"html-keyboard-response","323","532542","0.0-7.0-1.25","FL","g8ez0w4wvj","1920","1080","0","1","0","5ec32348079dcc17451cac16","","null","","","learningBlock2","","","","That was a wug.","null","","","","","",""
"html-keyboard-response","324","534542","0.0-7.0-2.25","FL","g8ez0w4wvj","1920","1080","0","1","0","5ec32348079dcc17451cac16","","null","","","learningBlock2","","","","<div style=""font-size:60px;""> </div>","null","FL","learning/Slide106.JPG","That was a wug.","","",""
"image-keyboard-response","325","535542","0.0-7.0-0.26","FL","g8ez0w4wvj","1920","1080","0","1","0","5ec32348079dcc17451cac16","","null","","","","","","","learning/Slide107.JPG","null","","","","","",""
"html-keyboard-response","326","538542","0.0-7.0-1.26","FL","g8ez0w4wvj","1920","1080","0","1","0","5ec32348079dcc17451cac16","","null","","","learningBlock2","","","","That was a bim.","null","","","","","",""
"html-keyboard-response","327","540542","0.0-7.0-2.26","FL","g8ez0w4wvj","1920","1080","0","1","0","5ec32348079dcc17451cac16","","null","","","learningBlock2","","","","<div style=""font-size:60px;""> </div>","null","FL","learning/Slide107.JPG","That was a bim.","","",""
"image-keyboard-response","328","541541","0.0-7.0-0.27","FL","g8ez0w4wvj","1920","1080","0","1","0","5ec32348079dcc17451cac16","","null","","","","","","","learning/Slide108.JPG","null","","","","","",""
"html-keyboard-response","329","544543","0.0-7.0-1.27","FL","g8ez0w4wvj","1920","1080","0","1","0","5ec32348079dcc17451cac16","","null","","","learningBlock2","","","","That was a dep.","null","","","","","",""
"html-keyboard-response","330","546542","0.0-7.0-2.27","FL","g8ez0w4wvj","1920","1080","0","1","0","5ec32348079dcc17451cac16","","null","","","learningBlock2","","","","<div style=""font-size:60px;""> </div>","null","FL","learning/Slide108.JPG","That was a dep.","","",""
"image-keyboard-response","331","547541","0.0-7.0-0.28","FL","g8ez0w4wvj","1920","1080","0","1","0","5ec32348079dcc17451cac16","","null","","","","","","","learning/Slide109.JPG","null","","","","","",""
"html-keyboard-response","332","550542","0.0-7.0-1.28","FL","g8ez0w4wvj","1920","1080","0","1","0","5ec32348079dcc17451cac16","","null","","","learningBlock2","","","","That was a wug.","null","","","","","",""
"html-keyboard-response","333","552542","0.0-7.0-2.28","FL","g8ez0w4wvj","1920","1080","0","1","0","5ec32348079dcc17451cac16","","null","","","learningBlock2","","","","<div style=""font-size:60px;""> </div>","null","FL","learning/Slide109.JPG","That was a wug.","","",""
"image-keyboard-response","334","553541","0.0-7.0-0.29","FL","g8ez0w4wvj","1920","1080","0","1","0","5ec32348079dcc17451cac16","","null","","","","","","","learning/Slide110.JPG","null","","","","","",""
"html-keyboard-response","335","555543","0.0-7.0-1.29","FL","g8ez0w4wvj","1920","1080","0","1","0","5ec32348079dcc17451cac16","","null","","","learningBlock2","","","","That was a bim.","null","","","","","",""
"html-keyboard-response","336","557542","0.0-7.0-2.29","FL","g8ez0w4wvj","1920","1080","0","1","0","5ec32348079dcc17451cac16","","null","","","learningBlock2","","","","<div style=""font-size:60px;""> </div>","null","FL","learning/Slide110.JPG","That was a bim.","","",""
"image-keyboard-response","337","558542","0.0-7.0-0.30","FL","g8ez0w4wvj","1920","1080","0","1","0","5ec32348079dcc17451cac16","","null","","","","","","","learning/Slide111.JPG","null","","","","","",""
"html-keyboard-response","338","561542","0.0-7.0-1.30","FL","g8ez0w4wvj","1920","1080","0","1","0","5ec32348079dcc17451cac16","","null","","","learningBlock2","","","","That was a tob.","null","","","","","",""
"html-keyboard-response","339","563542","0.0-7.0-2.30","FL","g8ez0w4wvj","1920","1080","0","1","0","5ec32348079dcc17451cac16","","null","","","learningBlock2","","","","<div style=""font-size:60px;""> </div>","null","FL","learning/Slide111.JPG","That was a tob.","","",""
"image-keyboard-response","340","564541","0.0-7.0-0.31","FL","g8ez0w4wvj","1920","1080","0","1","0","5ec32348079dcc17451cac16","","null","","","","","","","learning/Slide112.JPG","null","","","","","",""
"html-keyboard-response","341","566542","0.0-7.0-1.31","FL","g8ez0w4wvj","1920","1080","0","1","0","5ec32348079dcc17451cac16","","null","","","learningBlock2","","","","That was a wug.","null","","","","","",""
"html-keyboard-response","342","567544","0.0-7.0-2.31","FL","g8ez0w4wvj","1920","1080","0","1","0","5ec32348079dcc17451cac16","","null","","","learningBlock2","","","","<div style=""font-size:60px;""> </div>","null","FL","learning/Slide112.JPG","That was a wug.","","",""
"image-keyboard-response","343","568554","0.0-7.0-0.32","FL","g8ez0w4wvj","1920","1080","0","1","0","5ec32348079dcc17451cac16","","null","","","","","","","learning/Slide113.JPG","null","","","","","",""
"html-keyboard-response","344","570543","0.0-7.0-1.32","FL","g8ez0w4wvj","1920","1080","0","1","0","5ec32348079dcc17451cac16","","null","","","learningBlock2","","","","That was a tob.","null","","","","","",""
"html-keyboard-response","345","572542","0.0-7.0-2.32","FL","g8ez0w4wvj","1920","1080","0","1","0","5ec32348079dcc17451cac16","","null","","","learningBlock2","","","","<div style=""font-size:60px;""> </div>","null","FL","learning/Slide113.JPG","That was a tob.","","",""
"image-keyboard-response","346","573542","0.0-7.0-0.33","FL","g8ez0w4wvj","1920","1080","0","1","0","5ec32348079dcc17451cac16","","null","","","","","","","learning/Slide114.JPG","null","","","","","",""
"html-keyboard-response","347","576543","0.0-7.0-1.33","FL","g8ez0w4wvj","1920","1080","0","1","0","5ec32348079dcc17451cac16","","null","","","learningBlock2","","","","That was a wug.","null","","","","","",""
"html-keyboard-response","348","578542","0.0-7.0-2.33","FL","g8ez0w4wvj","1920","1080","0","1","0","5ec32348079dcc17451cac16","","null","","","learningBlock2","","","","<div style=""font-size:60px;""> </div>","null","FL","learning/Slide114.JPG","That was a wug.","","",""
"image-keyboard-response","349","579541","0.0-7.0-0.34","FL","g8ez0w4wvj","1920","1080","0","1","0","5ec32348079dcc17451cac16","","null","","","","","","","learning/Slide115.JPG","null","","","","","",""
"html-keyboard-response","350","581543","0.0-7.0-1.34","FL","g8ez0w4wvj","1920","1080","0","1","0","5ec32348079dcc17451cac16","","null","","","learningBlock2","","","","That was a bim.","null","","","","","",""
"html-keyboard-response","351","583542","0.0-7.0-2.34","FL","g8ez0w4wvj","1920","1080","0","1","0","5ec32348079dcc17451cac16","","null","","","learningBlock2","","","","<div style=""font-size:60px;""> </div>","null","FL","learning/Slide115.JPG","That was a bim.","","",""
"image-keyboard-response","352","584542","0.0-7.0-0.35","FL","g8ez0w4wvj","1920","1080","0","1","0","5ec32348079dcc17451cac16","","null","","","","","","","learning/Slide116.JPG","null","","","","","",""
"html-keyboard-response","353","587542","0.0-7.0-1.35","FL","g8ez0w4wvj","1920","1080","0","1","0","5ec32348079dcc17451cac16","","null","","","learningBlock2","","","","That was a dep.","null","","","","","",""
"html-keyboard-response","354","589542","0.0-7.0-2.35","FL","g8ez0w4wvj","1920","1080","0","1","0","5ec32348079dcc17451cac16","","null","","","learningBlock2","","","","<div style=""font-size:60px;""> </div>","null","FL","learning/Slide116.JPG","That was a dep.","","",""
"image-keyboard-response","355","590541","0.0-7.0-0.36","FL","g8ez0w4wvj","1920","1080","0","1","0","5ec32348079dcc17451cac16","","null","","","","","","","learning/Slide117.JPG","null","","","","","",""
"html-keyboard-response","356","591919","0.0-7.0-1.36","FL","g8ez0w4wvj","1920","1080","0","1","0","5ec32348079dcc17451cac16","","null","","","learningBlock2","","","","That was a tob.","null","","","","","",""
"html-keyboard-response","357","592920","0.0-7.0-2.36","FL","g8ez0w4wvj","1920","1080","0","1","0","5ec32348079dcc17451cac16","","null","","","learningBlock2","","","","<div style=""font-size:60px;""> </div>","null","FL","learning/Slide117.JPG","That was a tob.","","",""
"image-keyboard-response","358","593097","0.0-7.0-0.37","FL","g8ez0w4wvj","1920","1080","0","1","0","5ec32348079dcc17451cac16","","null","","","","","","","learning/Slide118.JPG","null","","","","","",""
"html-keyboard-response","359","594250","0.0-7.0-1.37","FL","g8ez0w4wvj","1920","1080","0","1","0","5ec32348079dcc17451cac16","","null","","","learningBlock2","","","","That was a dep.","null","","","","","",""
"html-keyboard-response","360","595252","0.0-7.0-2.37","FL","g8ez0w4wvj","1920","1080","0","1","0","5ec32348079dcc17451cac16","","null","","","learningBlock2","","","","<div style=""font-size:60px;""> </div>","null","FL","learning/Slide118.JPG","That was a dep.","","",""
"image-keyboard-response","361","595428","0.0-7.0-0.38","FL","g8ez0w4wvj","1920","1080","0","1","0","5ec32348079dcc17451cac16","","null","","","","","","","learning/Slide119.JPG","null","","","","","",""
"html-keyboard-response","362","596580","0.0-7.0-1.38","FL","g8ez0w4wvj","1920","1080","0","1","0","5ec32348079dcc17451cac16","","null","","","learningBlock2","","","","That was a wug.","null","","","","","",""
"html-keyboard-response","363","597582","0.0-7.0-2.38","FL","g8ez0w4wvj","1920","1080","0","1","0","5ec32348079dcc17451cac16","","null","","","learningBlock2","","","","<div style=""font-size:60px;""> </div>","null","FL","learning/Slide119.JPG","That was a wug.","","",""
"image-keyboard-response","364","597758","0.0-7.0-0.39","FL","g8ez0w4wvj","1920","1080","0","1","0","5ec32348079dcc17451cac16","","null","","","","","","","learning/Slide120.JPG","null","","","","","",""
"html-keyboard-response","365","598916","0.0-7.0-1.39","FL","g8ez0w4wvj","1920","1080","0","1","0","5ec32348079dcc17451cac16","","null","","","learningBlock2","","","","That was a dep.","null","","","","","",""
"html-keyboard-response","366","599917","0.0-7.0-2.39","FL","g8ez0w4wvj","1920","1080","0","1","0","5ec32348079dcc17451cac16","","null","","","learningBlock2","","","","<div style=""font-size:60px;""> </div>","null","FL","learning/Slide120.JPG","That was a dep.","","",""
"image-keyboard-response","367","600093","0.0-7.0-0.40","FL","g8ez0w4wvj","1920","1080","0","1","0","5ec32348079dcc17451cac16","","null","","","","","","","learning/Slide121.JPG","null","","","","","",""
"html-keyboard-response","368","601246","0.0-7.0-1.40","FL","g8ez0w4wvj","1920","1080","0","1","0","5ec32348079dcc17451cac16","","null","","","learningBlock2","","","","That was a bim.","null","","","","","",""
"html-keyboard-response","369","602247","0.0-7.0-2.40","FL","g8ez0w4wvj","1920","1080","0","1","0","5ec32348079dcc17451cac16","","null","","","learningBlock2","","","","<div style=""font-size:60px;""> </div>","null","FL","learning/Slide121.JPG","That was a bim.","","",""
"image-keyboard-response","370","602424","0.0-7.0-0.41","FL","g8ez0w4wvj","1920","1080","0","1","0","5ec32348079dcc17451cac16","","null","","","","","","","learning/Slide122.JPG","null","","","","","",""
"html-keyboard-response","371","603577","0.0-7.0-1.41","FL","g8ez0w4wvj","1920","1080","0","1","0","5ec32348079dcc17451cac16","","null","","","learningBlock2","","","","That was a wug.","null","","","","","",""
"html-keyboard-response","372","604578","0.0-7.0-2.41","FL","g8ez0w4wvj","1920","1080","0","1","0","5ec32348079dcc17451cac16","","null","","","learningBlock2","","","","<div style=""font-size:60px;""> </div>","null","FL","learning/Slide122.JPG","That was a wug.","","",""
"image-keyboard-response","373","604755","0.0-7.0-0.42","FL","g8ez0w4wvj","1920","1080","0","1","0","5ec32348079dcc17451cac16","","null","","","","","","","learning/Slide123.JPG","null","","","","","",""
"html-keyboard-response","374","605908","0.0-7.0-1.42","FL","g8ez0w4wvj","1920","1080","0","1","0","5ec32348079dcc17451cac16","","null","","","learningBlock2","","","","That was a bim.","null","","","","","",""
"html-keyboard-response","375","606910","0.0-7.0-2.42","FL","g8ez0w4wvj","1920","1080","0","1","0","5ec32348079dcc17451cac16","","null","","","learningBlock2","","","","<div style=""font-size:60px;""> </div>","null","FL","learning/Slide123.JPG","That was a bim.","","",""
"image-keyboard-response","376","607087","0.0-7.0-0.43","FL","g8ez0w4wvj","1920","1080","0","1","0","5ec32348079dcc17451cac16","","null","","","","","","","learning/Slide124.JPG","null","","","","","",""
"html-keyboard-response","377","608239","0.0-7.0-1.43","FL","g8ez0w4wvj","1920","1080","0","1","0","5ec32348079dcc17451cac16","","null","","","learningBlock2","","","","That was a tob.","null","","","","","",""
"html-keyboard-response","378","609241","0.0-7.0-2.43","FL","g8ez0w4wvj","1920","1080","0","1","0","5ec32348079dcc17451cac16","","null","","","learningBlock2","","","","<div style=""font-size:60px;""> </div>","null","FL","learning/Slide124.JPG","That was a tob.","","",""
"image-keyboard-response","379","609418","0.0-7.0-0.44","FL","g8ez0w4wvj","1920","1080","0","1","0","5ec32348079dcc17451cac16","","null","","","","","","","learning/Slide125.JPG","null","","","","","",""
"html-keyboard-response","380","610569","0.0-7.0-1.44","FL","g8ez0w4wvj","1920","1080","0","1","0","5ec32348079dcc17451cac16","","null","","","learningBlock2","","","","That was a bim.","null","","","","","",""
"html-keyboard-response","381","611570","0.0-7.0-2.44","FL","g8ez0w4wvj","1920","1080","0","1","0","5ec32348079dcc17451cac16","","null","","","learningBlock2","","","","<div style=""font-size:60px;""> </div>","null","FL","learning/Slide125.JPG","That was a bim.","","",""
"image-keyboard-response","382","611747","0.0-7.0-0.45","FL","g8ez0w4wvj","1920","1080","0","1","0","5ec32348079dcc17451cac16","","null","","","","","","","learning/Slide126.JPG","null","","","","","",""
"html-keyboard-response","383","612899","0.0-7.0-1.45","FL","g8ez0w4wvj","1920","1080","0","1","0","5ec32348079dcc17451cac16","","null","","","learningBlock2","","","","That was a tob.","null","","","","","",""
"html-keyboard-response","384","613901","0.0-7.0-2.45","FL","g8ez0w4wvj","1920","1080","0","1","0","5ec32348079dcc17451cac16","","null","","","learningBlock2","","","","<div style=""font-size:60px;""> </div>","null","FL","learning/Slide126.JPG","That was a tob.","","",""
"image-keyboard-response","385","614079","0.0-7.0-0.46","FL","g8ez0w4wvj","1920","1080","0","1","0","5ec32348079dcc17451cac16","","null","","","","","","","learning/Slide127.JPG","null","","","","","",""
"html-keyboard-response","386","615548","0.0-7.0-1.46","FL","g8ez0w4wvj","1920","1080","0","1","0","5ec32348079dcc17451cac16","","null","","","learningBlock2","","","","That was a dep.","null","","","","","",""
"html-keyboard-response","387","616550","0.0-7.0-2.46","FL","g8ez0w4wvj","1920","1080","0","1","0","5ec32348079dcc17451cac16","","null","","","learningBlock2","","","","<div style=""font-size:60px;""> </div>","null","FL","learning/Slide127.JPG","That was a dep.","","",""
"image-keyboard-response","388","616727","0.0-7.0-0.47","FL","g8ez0w4wvj","1920","1080","0","1","0","5ec32348079dcc17451cac16","","null","","","","","","","learning/Slide128.JPG","null","","","","","",""
"html-keyboard-response","389","618541","0.0-7.0-1.47","FL","g8ez0w4wvj","1920","1080","0","1","0","5ec32348079dcc17451cac16","","null","","","learningBlock2","","","","That was a wug.","null","","","","","",""
"html-keyboard-response","390","620555","0.0-7.0-2.47","FL","g8ez0w4wvj","1920","1080","0","1","0","5ec32348079dcc17451cac16","","null","","","learningBlock2","","","","<div style=""font-size:60px;""> </div>","null","FL","learning/Slide128.JPG","That was a wug.","","",""
"image-keyboard-response","391","621541","0.0-7.0-0.48","FL","g8ez0w4wvj","1920","1080","0","1","0","5ec32348079dcc17451cac16","","null","","","","","","","learning/Slide129.JPG","null","","","","","",""
"html-keyboard-response","392","624542","0.0-7.0-1.48","FL","g8ez0w4wvj","1920","1080","0","1","0","5ec32348079dcc17451cac16","","null","","","learningBlock2","","","","That was a tob.","null","","","","","",""
"html-keyboard-response","393","626541","0.0-7.0-2.48","FL","g8ez0w4wvj","1920","1080","0","1","0","5ec32348079dcc17451cac16","","null","","","learningBlock2","","","","<div style=""font-size:60px;""> </div>","null","FL","learning/Slide129.JPG","That was a tob.","","",""
"image-keyboard-response","394","627542","0.0-7.0-0.49","FL","g8ez0w4wvj","1920","1080","0","1","0","5ec32348079dcc17451cac16","","null","","","","","","","learning/Slide130.JPG","null","","","","","",""
"html-keyboard-response","395","628694","0.0-7.0-1.49","FL","g8ez0w4wvj","1920","1080","0","1","0","5ec32348079dcc17451cac16","","null","","","learningBlock2","","","","That was a wug.","null","","","","","",""
"html-keyboard-response","396","630542","0.0-7.0-2.49","FL","g8ez0w4wvj","1920","1080","0","1","0","5ec32348079dcc17451cac16","","null","","","learningBlock2","","","","<div style=""font-size:60px;""> </div>","null","FL","learning/Slide130.JPG","That was a wug.","","",""
"image-keyboard-response","397","630719","0.0-7.0-0.50","FL","g8ez0w4wvj","1920","1080","0","1","0","5ec32348079dcc17451cac16","","null","","","","","","","learning/Slide131.JPG","null","","","","","",""
"html-keyboard-response","398","631870","0.0-7.0-1.50","FL","g8ez0w4wvj","1920","1080","0","1","0","5ec32348079dcc17451cac16","","null","","","learningBlock2","","","","That was a bim.","null","","","","","",""
"html-keyboard-response","399","632873","0.0-7.0-2.50","FL","g8ez0w4wvj","1920","1080","0","1","0","5ec32348079dcc17451cac16","","null","","","learningBlock2","","","","<div style=""font-size:60px;""> </div>","null","FL","learning/Slide131.JPG","That was a bim.","","",""
"image-keyboard-response","400","633049","0.0-7.0-0.51","FL","g8ez0w4wvj","1920","1080","0","1","0","5ec32348079dcc17451cac16","","null","","","","","","","learning/Slide132.JPG","null","","","","","",""
"html-keyboard-response","401","634201","0.0-7.0-1.51","FL","g8ez0w4wvj","1920","1080","0","1","0","5ec32348079dcc17451cac16","","null","","","learningBlock2","","","","That was a dep.","null","","","","","",""
"html-keyboard-response","402","635202","0.0-7.0-2.51","FL","g8ez0w4wvj","1920","1080","0","1","0","5ec32348079dcc17451cac16","","null","","","learningBlock2","","","","<div style=""font-size:60px;""> </div>","null","FL","learning/Slide132.JPG","That was a dep.","","",""
"image-keyboard-response","403","635379","0.0-7.0-0.52","FL","g8ez0w4wvj","1920","1080","0","1","0","5ec32348079dcc17451cac16","","null","","","","","","","learning/Slide133.JPG","null","","","","","",""
"html-keyboard-response","404","636533","0.0-7.0-1.52","FL","g8ez0w4wvj","1920","1080","0","1","0","5ec32348079dcc17451cac16","","null","","","learningBlock2","","","","That was a tob.","null","","","","","",""
"html-keyboard-response","405","637543","0.0-7.0-2.52","FL","g8ez0w4wvj","1920","1080","0","1","0","5ec32348079dcc17451cac16","","null","","","learningBlock2","","","","<div style=""font-size:60px;""> </div>","null","FL","learning/Slide133.JPG","That was a tob.","","",""
"image-keyboard-response","406","638541","0.0-7.0-0.53","FL","g8ez0w4wvj","1920","1080","0","1","0","5ec32348079dcc17451cac16","","null","","","","","","","learning/Slide134.JPG","null","","","","","",""
"html-keyboard-response","407","641541","0.0-7.0-1.53","FL","g8ez0w4wvj","1920","1080","0","1","0","5ec32348079dcc17451cac16","","null","","","learningBlock2","","","","That was a dep.","null","","","","","",""
"html-keyboard-response","408","643542","0.0-7.0-2.53","FL","g8ez0w4wvj","1920","1080","0","1","0","5ec32348079dcc17451cac16","","null","","","learningBlock2","","","","<div style=""font-size:60px;""> </div>","null","FL","learning/Slide134.JPG","That was a dep.","","",""
"image-keyboard-response","409","644542","0.0-7.0-0.54","FL","g8ez0w4wvj","1920","1080","0","1","0","5ec32348079dcc17451cac16","","null","","","","","","","learning/Slide135.JPG","null","","","","","",""
"html-keyboard-response","410","646542","0.0-7.0-1.54","FL","g8ez0w4wvj","1920","1080","0","1","0","5ec32348079dcc17451cac16","","null","","","learningBlock2","","","","That was a tob.","null","","","","","",""
"html-keyboard-response","411","647543","0.0-7.0-2.54","FL","g8ez0w4wvj","1920","1080","0","1","0","5ec32348079dcc17451cac16","","null","","","learningBlock2","","","","<div style=""font-size:60px;""> </div>","null","FL","learning/Slide135.JPG","That was a tob.","","",""
"image-keyboard-response","412","647721","0.0-7.0-0.55","FL","g8ez0w4wvj","1920","1080","0","1","0","5ec32348079dcc17451cac16","","null","","","","","","","learning/Slide136.JPG","null","","","","","",""
"html-keyboard-response","413","648874","0.0-7.0-1.55","FL","g8ez0w4wvj","1920","1080","0","1","0","5ec32348079dcc17451cac16","","null","","","learningBlock2","","","","That was a wug.","null","","","","","",""
"html-keyboard-response","414","650542","0.0-7.0-2.55","FL","g8ez0w4wvj","1920","1080","0","1","0","5ec32348079dcc17451cac16","","null","","","learningBlock2","","","","<div style=""font-size:60px;""> </div>","null","FL","learning/Slide136.JPG","That was a wug.","","",""
"image-keyboard-response","415","651541","0.0-7.0-0.56","FL","g8ez0w4wvj","1920","1080","0","1","0","5ec32348079dcc17451cac16","","null","","","","","","","learning/Slide137.JPG","null","","","","","",""
"html-keyboard-response","416","652694","0.0-7.0-1.56","FL","g8ez0w4wvj","1920","1080","0","1","0","5ec32348079dcc17451cac16","","null","","","learningBlock2","","","","That was a tob.","null","","","","","",""
"html-keyboard-response","417","653696","0.0-7.0-2.56","FL","g8ez0w4wvj","1920","1080","0","1","0","5ec32348079dcc17451cac16","","null","","","learningBlock2","","","","<div style=""font-size:60px;""> </div>","null","FL","learning/Slide137.JPG","That was a tob.","","",""
"image-keyboard-response","418","653873","0.0-7.0-0.57","FL","g8ez0w4wvj","1920","1080","0","1","0","5ec32348079dcc17451cac16","","null","","","","","","","learning/Slide138.JPG","null","","","","","",""
"html-keyboard-response","419","655026","0.0-7.0-1.57","FL","g8ez0w4wvj","1920","1080","0","1","0","5ec32348079dcc17451cac16","","null","","","learningBlock2","","","","That was a bim.","null","","","","","",""
"html-keyboard-response","420","656542","0.0-7.0-2.57","FL","g8ez0w4wvj","1920","1080","0","1","0","5ec32348079dcc17451cac16","","null","","","learningBlock2","","","","<div style=""font-size:60px;""> </div>","null","FL","learning/Slide138.JPG","That was a bim.","","",""
"image-keyboard-response","421","657542","0.0-7.0-0.58","FL","g8ez0w4wvj","1920","1080","0","1","0","5ec32348079dcc17451cac16","","null","","","","","","","learning/Slide139.JPG","null","","","","","",""
"html-keyboard-response","422","659542","0.0-7.0-1.58","FL","g8ez0w4wvj","1920","1080","0","1","0","5ec32348079dcc17451cac16","","null","","","learningBlock2","","","","That was a wug.","null","","","","","",""
"html-keyboard-response","423","660543","0.0-7.0-2.58","FL","g8ez0w4wvj","1920","1080","0","1","0","5ec32348079dcc17451cac16","","null","","","learningBlock2","","","","<div style=""font-size:60px;""> </div>","null","FL","learning/Slide139.JPG","That was a wug.","","",""
"image-keyboard-response","424","661541","0.0-7.0-0.59","FL","g8ez0w4wvj","1920","1080","0","1","0","5ec32348079dcc17451cac16","","null","","","","","","","learning/Slide140.JPG","null","","","","","",""
"html-keyboard-response","425","663543","0.0-7.0-1.59","FL","g8ez0w4wvj","1920","1080","0","1","0","5ec32348079dcc17451cac16","","null","","","learningBlock2","","","","That was a dep.","null","","","","","",""
"html-keyboard-response","426","664544","0.0-7.0-2.59","FL","g8ez0w4wvj","1920","1080","0","1","0","5ec32348079dcc17451cac16","","null","","","learningBlock2","","","","<div style=""font-size:60px;""> </div>","null","FL","learning/Slide140.JPG","That was a dep.","","",""
"image-keyboard-response","427","664722","0.0-7.0-0.60","FL","g8ez0w4wvj","1920","1080","0","1","0","5ec32348079dcc17451cac16","","null","","","","","","","learning/Slide141.JPG","null","","","","","",""
"html-keyboard-response","428","665876","0.0-7.0-1.60","FL","g8ez0w4wvj","1920","1080","0","1","0","5ec32348079dcc17451cac16","","null","","","learningBlock2","","","","That was a tob.","null","","","","","",""
"html-keyboard-response","429","666878","0.0-7.0-2.60","FL","g8ez0w4wvj","1920","1080","0","1","0","5ec32348079dcc17451cac16","","null","","","learningBlock2","","","","<div style=""font-size:60px;""> </div>","null","FL","learning/Slide141.JPG","That was a tob.","","",""
"image-keyboard-response","430","667056","0.0-7.0-0.61","FL","g8ez0w4wvj","1920","1080","0","1","0","5ec32348079dcc17451cac16","","null","","","","","","","learning/Slide142.JPG","null","","","","","",""
"html-keyboard-response","431","668542","0.0-7.0-1.61","FL","g8ez0w4wvj","1920","1080","0","1","0","5ec32348079dcc17451cac16","","null","","","learningBlock2","","","","That was a wug.","null","","","","","",""
"html-keyboard-response","432","670542","0.0-7.0-2.61","FL","g8ez0w4wvj","1920","1080","0","1","0","5ec32348079dcc17451cac16","","null","","","learningBlock2","","","","<div style=""font-size:60px;""> </div>","null","FL","learning/Slide142.JPG","That was a wug.","","",""
"image-keyboard-response","433","670718","0.0-7.0-0.62","FL","g8ez0w4wvj","1920","1080","0","1","0","5ec32348079dcc17451cac16","","null","","","","","","","learning/Slide143.JPG","null","","","","","",""
"html-keyboard-response","434","671870","0.0-7.0-1.62","FL","g8ez0w4wvj","1920","1080","0","1","0","5ec32348079dcc17451cac16","","null","","","learningBlock2","","","","That was a bim.","null","","","","","",""
