"trial_type","trial_index","time_elapsed","internal_node_id","condition","subject","screen_width","screen_height","attention","distraction","conscientious","prolificID","success","rt","url","view_history","test_part","final_height_px","final_width_px","scale_factor","stimulus","key_press","learningType","presentedImage","presentedLabel","button_pressed","response","responses"
"pavlovia","0","11","0.0-0.0","FL","ym6cxam2f3","1366","768","0","1","0","5ee87dba82ed8101333c7744","","","","","","","","","","","","","","","",""
"fullscreen","1","3876","0.0-1.0","FL","ym6cxam2f3","1366","768","0","1","0","5ee87dba82ed8101333c7744","true","","","","","","","","","","","","","","",""
"external-html","2","7308","0.0-2.0-0.0","FL","ym6cxam2f3","1366","768","0","1","0","5ee87dba82ed8101333c7744","","3340","text/information_english.html","","","","","","","","","","","","",""
"external-html","3","14852","0.0-2.0-1.0","FL","ym6cxam2f3","1366","768","0","1","0","5ee87dba82ed8101333c7744","","7410","text/consent_english.html","","","","","","","","","","","","",""
"instructions","4","27308","0.0-3.0","FL","ym6cxam2f3","1366","768","0","1","0","5ee87dba82ed8101333c7744","","NA","","[{""page_index"":0,""viewing_time"":2613},{""page_index"":1,""viewing_time"":9832}]","instructions","","","","","","","","","","",""
"resize","5","64156","0.0-4.0","FL","ym6cxam2f3","1366","768","0","1","0","5ee87dba82ed8101333c7744","","","","","","","352","2.234920634920635","","","","","","","",""
"image-keyboard-response","6","64350","0.0-5.0-0.0","FL","ym6cxam2f3","1366","768","0","1","0","5ee87dba82ed8101333c7744","","null","","","","","","","learning/Slide1.JPG","null","","","","","",""
"html-keyboard-response","7","65508","0.0-5.0-1.0","FL","ym6cxam2f3","1366","768","0","1","0","5ee87dba82ed8101333c7744","","null","","","learningBlock1","","","","That was a tob.","null","","","","","",""
"html-keyboard-response","8","66521","0.0-5.0-2.0","FL","ym6cxam2f3","1366","768","0","1","0","5ee87dba82ed8101333c7744","","null","","","learningBlock1","","","","<div style=""font-size:60px;""> </div>","null","FL","learning/Slide1.JPG","That was a tob.","","",""
"image-keyboard-response","9","66709","0.0-5.0-0.1","FL","ym6cxam2f3","1366","768","0","1","0","5ee87dba82ed8101333c7744","","null","","","","","","","learning/Slide2.JPG","null","","","","","",""
"html-keyboard-response","10","67880","0.0-5.0-1.1","FL","ym6cxam2f3","1366","768","0","1","0","5ee87dba82ed8101333c7744","","null","","","learningBlock1","","","","That was a wug.","null","","","","","",""
"html-keyboard-response","11","68883","0.0-5.0-2.1","FL","ym6cxam2f3","1366","768","0","1","0","5ee87dba82ed8101333c7744","","null","","","learningBlock1","","","","<div style=""font-size:60px;""> </div>","null","FL","learning/Slide2.JPG","That was a wug.","","",""
"image-keyboard-response","12","69063","0.0-5.0-0.2","FL","ym6cxam2f3","1366","768","0","1","0","5ee87dba82ed8101333c7744","","null","","","","","","","learning/Slide3.JPG","null","","","","","",""
"html-keyboard-response","13","70221","0.0-5.0-1.2","FL","ym6cxam2f3","1366","768","0","1","0","5ee87dba82ed8101333c7744","","null","","","learningBlock1","","","","That was a bim.","null","","","","","",""
"html-keyboard-response","14","71230","0.0-5.0-2.2","FL","ym6cxam2f3","1366","768","0","1","0","5ee87dba82ed8101333c7744","","null","","","learningBlock1","","","","<div style=""font-size:60px;""> </div>","null","FL","learning/Slide3.JPG","That was a bim.","","",""
"image-keyboard-response","15","71420","0.0-5.0-0.3","FL","ym6cxam2f3","1366","768","0","1","0","5ee87dba82ed8101333c7744","","null","","","","","","","learning/Slide4.JPG","null","","","","","",""
"html-keyboard-response","16","72581","0.0-5.0-1.3","FL","ym6cxam2f3","1366","768","0","1","0","5ee87dba82ed8101333c7744","","null","","","learningBlock1","","","","That was a dep.","null","","","","","",""
"html-keyboard-response","17","73588","0.0-5.0-2.3","FL","ym6cxam2f3","1366","768","0","1","0","5ee87dba82ed8101333c7744","","null","","","learningBlock1","","","","<div style=""font-size:60px;""> </div>","null","FL","learning/Slide4.JPG","That was a dep.","","",""
"image-keyboard-response","18","73777","0.0-5.0-0.4","FL","ym6cxam2f3","1366","768","0","1","0","5ee87dba82ed8101333c7744","","null","","","","","","","learning/Slide5.JPG","null","","","","","",""
"html-keyboard-response","19","74944","0.0-5.0-1.4","FL","ym6cxam2f3","1366","768","0","1","0","5ee87dba82ed8101333c7744","","null","","","learningBlock1","","","","That was a wug.","null","","","","","",""
"html-keyboard-response","20","75945","0.0-5.0-2.4","FL","ym6cxam2f3","1366","768","0","1","0","5ee87dba82ed8101333c7744","","null","","","learningBlock1","","","","<div style=""font-size:60px;""> </div>","null","FL","learning/Slide5.JPG","That was a wug.","","",""
"image-keyboard-response","21","76124","0.0-5.0-0.5","FL","ym6cxam2f3","1366","768","0","1","0","5ee87dba82ed8101333c7744","","null","","","","","","","learning/Slide6.JPG","null","","","","","",""
"html-keyboard-response","22","77287","0.0-5.0-1.5","FL","ym6cxam2f3","1366","768","0","1","0","5ee87dba82ed8101333c7744","","null","","","learningBlock1","","","","That was a dep.","null","","","","","",""
"html-keyboard-response","23","78301","0.0-5.0-2.5","FL","ym6cxam2f3","1366","768","0","1","0","5ee87dba82ed8101333c7744","","null","","","learningBlock1","","","","<div style=""font-size:60px;""> </div>","null","FL","learning/Slide6.JPG","That was a dep.","","",""
"image-keyboard-response","24","78492","0.0-5.0-0.6","FL","ym6cxam2f3","1366","768","0","1","0","5ee87dba82ed8101333c7744","","null","","","","","","","learning/Slide7.JPG","null","","","","","",""
"html-keyboard-response","25","79663","0.0-5.0-1.6","FL","ym6cxam2f3","1366","768","0","1","0","5ee87dba82ed8101333c7744","","null","","","learningBlock1","","","","That was a wug.","null","","","","","",""
"html-keyboard-response","26","80673","0.0-5.0-2.6","FL","ym6cxam2f3","1366","768","0","1","0","5ee87dba82ed8101333c7744","","null","","","learningBlock1","","","","<div style=""font-size:60px;""> </div>","null","FL","learning/Slide7.JPG","That was a wug.","","",""
"image-keyboard-response","27","80860","0.0-5.0-0.7","FL","ym6cxam2f3","1366","768","0","1","0","5ee87dba82ed8101333c7744","","null","","","","","","","learning/Slide8.JPG","null","","","","","",""
"html-keyboard-response","28","82034","0.0-5.0-1.7","FL","ym6cxam2f3","1366","768","0","1","0","5ee87dba82ed8101333c7744","","null","","","learningBlock1","","","","That was a bim.","null","","","","","",""
"html-keyboard-response","29","83045","0.0-5.0-2.7","FL","ym6cxam2f3","1366","768","0","1","0","5ee87dba82ed8101333c7744","","null","","","learningBlock1","","","","<div style=""font-size:60px;""> </div>","null","FL","learning/Slide8.JPG","That was a bim.","","",""
"image-keyboard-response","30","83234","0.0-5.0-0.8","FL","ym6cxam2f3","1366","768","0","1","0","5ee87dba82ed8101333c7744","","null","","","","","","","learning/Slide9.JPG","null","","","","","",""
"html-keyboard-response","31","84391","0.0-5.0-1.8","FL","ym6cxam2f3","1366","768","0","1","0","5ee87dba82ed8101333c7744","","null","","","learningBlock1","","","","That was a wug.","null","","","","","",""
"html-keyboard-response","32","85402","0.0-5.0-2.8","FL","ym6cxam2f3","1366","768","0","1","0","5ee87dba82ed8101333c7744","","null","","","learningBlock1","","","","<div style=""font-size:60px;""> </div>","null","FL","learning/Slide9.JPG","That was a wug.","","",""
"image-keyboard-response","33","85589","0.0-5.0-0.9","FL","ym6cxam2f3","1366","768","0","1","0","5ee87dba82ed8101333c7744","","null","","","","","","","learning/Slide10.JPG","null","","","","","",""
"html-keyboard-response","34","86756","0.0-5.0-1.9","FL","ym6cxam2f3","1366","768","0","1","0","5ee87dba82ed8101333c7744","","null","","","learningBlock1","","","","That was a dep.","null","","","","","",""
"html-keyboard-response","35","87769","0.0-5.0-2.9","FL","ym6cxam2f3","1366","768","0","1","0","5ee87dba82ed8101333c7744","","null","","","learningBlock1","","","","<div style=""font-size:60px;""> </div>","null","FL","learning/Slide10.JPG","That was a dep.","","",""
"image-keyboard-response","36","87957","0.0-5.0-0.10","FL","ym6cxam2f3","1366","768","0","1","0","5ee87dba82ed8101333c7744","","null","","","","","","","learning/Slide11.JPG","null","","","","","",""
"html-keyboard-response","37","89121","0.0-5.0-1.10","FL","ym6cxam2f3","1366","768","0","1","0","5ee87dba82ed8101333c7744","","null","","","learningBlock1","","","","That was a tob.","null","","","","","",""
"html-keyboard-response","38","90130","0.0-5.0-2.10","FL","ym6cxam2f3","1366","768","0","1","0","5ee87dba82ed8101333c7744","","null","","","learningBlock1","","","","<div style=""font-size:60px;""> </div>","null","FL","learning/Slide11.JPG","That was a tob.","","",""
"image-keyboard-response","39","90318","0.0-5.0-0.11","FL","ym6cxam2f3","1366","768","0","1","0","5ee87dba82ed8101333c7744","","null","","","","","","","learning/Slide12.JPG","null","","","","","",""
"html-keyboard-response","40","91483","0.0-5.0-1.11","FL","ym6cxam2f3","1366","768","0","1","0","5ee87dba82ed8101333c7744","","null","","","learningBlock1","","","","That was a dep.","null","","","","","",""
"html-keyboard-response","41","92488","0.0-5.0-2.11","FL","ym6cxam2f3","1366","768","0","1","0","5ee87dba82ed8101333c7744","","null","","","learningBlock1","","","","<div style=""font-size:60px;""> </div>","null","FL","learning/Slide12.JPG","That was a dep.","","",""
"image-keyboard-response","42","92674","0.0-5.0-0.12","FL","ym6cxam2f3","1366","768","0","1","0","5ee87dba82ed8101333c7744","","null","","","","","","","learning/Slide13.JPG","null","","","","","",""
"html-keyboard-response","43","93840","0.0-5.0-1.12","FL","ym6cxam2f3","1366","768","0","1","0","5ee87dba82ed8101333c7744","","null","","","learningBlock1","","","","That was a bim.","null","","","","","",""
"html-keyboard-response","44","94857","0.0-5.0-2.12","FL","ym6cxam2f3","1366","768","0","1","0","5ee87dba82ed8101333c7744","","null","","","learningBlock1","","","","<div style=""font-size:60px;""> </div>","null","FL","learning/Slide13.JPG","That was a bim.","","",""
"image-keyboard-response","45","95044","0.0-5.0-0.13","FL","ym6cxam2f3","1366","768","0","1","0","5ee87dba82ed8101333c7744","","null","","","","","","","learning/Slide14.JPG","null","","","","","",""
"html-keyboard-response","46","96210","0.0-5.0-1.13","FL","ym6cxam2f3","1366","768","0","1","0","5ee87dba82ed8101333c7744","","null","","","learningBlock1","","","","That was a wug.","null","","","","","",""
"html-keyboard-response","47","97216","0.0-5.0-2.13","FL","ym6cxam2f3","1366","768","0","1","0","5ee87dba82ed8101333c7744","","null","","","learningBlock1","","","","<div style=""font-size:60px;""> </div>","null","FL","learning/Slide14.JPG","That was a wug.","","",""
"image-keyboard-response","48","97405","0.0-5.0-0.14","FL","ym6cxam2f3","1366","768","0","1","0","5ee87dba82ed8101333c7744","","null","","","","","","","learning/Slide15.JPG","null","","","","","",""
"html-keyboard-response","49","98569","0.0-5.0-1.14","FL","ym6cxam2f3","1366","768","0","1","0","5ee87dba82ed8101333c7744","","null","","","learningBlock1","","","","That was a tob.","null","","","","","",""
"html-keyboard-response","50","99574","0.0-5.0-2.14","FL","ym6cxam2f3","1366","768","0","1","0","5ee87dba82ed8101333c7744","","null","","","learningBlock1","","","","<div style=""font-size:60px;""> </div>","null","FL","learning/Slide15.JPG","That was a tob.","","",""
"image-keyboard-response","51","99764","0.0-5.0-0.15","FL","ym6cxam2f3","1366","768","0","1","0","5ee87dba82ed8101333c7744","","null","","","","","","","learning/Slide16.JPG","null","","","","","",""
"html-keyboard-response","52","100933","0.0-5.0-1.15","FL","ym6cxam2f3","1366","768","0","1","0","5ee87dba82ed8101333c7744","","null","","","learningBlock1","","","","That was a dep.","null","","","","","",""
"html-keyboard-response","53","101946","0.0-5.0-2.15","FL","ym6cxam2f3","1366","768","0","1","0","5ee87dba82ed8101333c7744","","null","","","learningBlock1","","","","<div style=""font-size:60px;""> </div>","null","FL","learning/Slide16.JPG","That was a dep.","","",""
"image-keyboard-response","54","102128","0.0-5.0-0.16","FL","ym6cxam2f3","1366","768","0","1","0","5ee87dba82ed8101333c7744","","null","","","","","","","learning/Slide17.JPG","null","","","","","",""
"html-keyboard-response","55","103295","0.0-5.0-1.16","FL","ym6cxam2f3","1366","768","0","1","0","5ee87dba82ed8101333c7744","","null","","","learningBlock1","","","","That was a bim.","null","","","","","",""
"html-keyboard-response","56","104301","0.0-5.0-2.16","FL","ym6cxam2f3","1366","768","0","1","0","5ee87dba82ed8101333c7744","","null","","","learningBlock1","","","","<div style=""font-size:60px;""> </div>","null","FL","learning/Slide17.JPG","That was a bim.","","",""
"image-keyboard-response","57","104488","0.0-5.0-0.17","FL","ym6cxam2f3","1366","768","0","1","0","5ee87dba82ed8101333c7744","","null","","","","","","","learning/Slide18.JPG","null","","","","","",""
"html-keyboard-response","58","105649","0.0-5.0-1.17","FL","ym6cxam2f3","1366","768","0","1","0","5ee87dba82ed8101333c7744","","null","","","learningBlock1","","","","That was a tob.","null","","","","","",""
"html-keyboard-response","59","106660","0.0-5.0-2.17","FL","ym6cxam2f3","1366","768","0","1","0","5ee87dba82ed8101333c7744","","null","","","learningBlock1","","","","<div style=""font-size:60px;""> </div>","null","FL","learning/Slide18.JPG","That was a tob.","","",""
"image-keyboard-response","60","106848","0.0-5.0-0.18","FL","ym6cxam2f3","1366","768","0","1","0","5ee87dba82ed8101333c7744","","null","","","","","","","learning/Slide19.JPG","null","","","","","",""
"html-keyboard-response","61","108015","0.0-5.0-1.18","FL","ym6cxam2f3","1366","768","0","1","0","5ee87dba82ed8101333c7744","","null","","","learningBlock1","","","","That was a wug.","null","","","","","",""
"html-keyboard-response","62","109029","0.0-5.0-2.18","FL","ym6cxam2f3","1366","768","0","1","0","5ee87dba82ed8101333c7744","","null","","","learningBlock1","","","","<div style=""font-size:60px;""> </div>","null","FL","learning/Slide19.JPG","That was a wug.","","",""
"image-keyboard-response","63","109219","0.0-5.0-0.19","FL","ym6cxam2f3","1366","768","0","1","0","5ee87dba82ed8101333c7744","","null","","","","","","","learning/Slide20.JPG","null","","","","","",""
"html-keyboard-response","64","110383","0.0-5.0-1.19","FL","ym6cxam2f3","1366","768","0","1","0","5ee87dba82ed8101333c7744","","null","","","learningBlock1","","","","That was a bim.","null","","","","","",""
"html-keyboard-response","65","111400","0.0-5.0-2.19","FL","ym6cxam2f3","1366","768","0","1","0","5ee87dba82ed8101333c7744","","null","","","learningBlock1","","","","<div style=""font-size:60px;""> </div>","null","FL","learning/Slide20.JPG","That was a bim.","","",""
"image-keyboard-response","66","111587","0.0-5.0-0.20","FL","ym6cxam2f3","1366","768","0","1","0","5ee87dba82ed8101333c7744","","null","","","","","","","learning/Slide21.JPG","null","","","","","",""
"html-keyboard-response","67","112750","0.0-5.0-1.20","FL","ym6cxam2f3","1366","768","0","1","0","5ee87dba82ed8101333c7744","","null","","","learningBlock1","","","","That was a dep.","null","","","","","",""
"html-keyboard-response","68","113753","0.0-5.0-2.20","FL","ym6cxam2f3","1366","768","0","1","0","5ee87dba82ed8101333c7744","","null","","","learningBlock1","","","","<div style=""font-size:60px;""> </div>","null","FL","learning/Slide21.JPG","That was a dep.","","",""
"image-keyboard-response","69","113941","0.0-5.0-0.21","FL","ym6cxam2f3","1366","768","0","1","0","5ee87dba82ed8101333c7744","","null","","","","","","","learning/Slide22.JPG","null","","","","","",""
"html-keyboard-response","70","115109","0.0-5.0-1.21","FL","ym6cxam2f3","1366","768","0","1","0","5ee87dba82ed8101333c7744","","null","","","learningBlock1","","","","That was a bim.","null","","","","","",""
"html-keyboard-response","71","116119","0.0-5.0-2.21","FL","ym6cxam2f3","1366","768","0","1","0","5ee87dba82ed8101333c7744","","null","","","learningBlock1","","","","<div style=""font-size:60px;""> </div>","null","FL","learning/Slide22.JPG","That was a bim.","","",""
"image-keyboard-response","72","116306","0.0-5.0-0.22","FL","ym6cxam2f3","1366","768","0","1","0","5ee87dba82ed8101333c7744","","null","","","","","","","learning/Slide23.JPG","null","","","","","",""
"html-keyboard-response","73","117475","0.0-5.0-1.22","FL","ym6cxam2f3","1366","768","0","1","0","5ee87dba82ed8101333c7744","","null","","","learningBlock1","","","","That was a tob.","null","","","","","",""
"html-keyboard-response","74","118487","0.0-5.0-2.22","FL","ym6cxam2f3","1366","768","0","1","0","5ee87dba82ed8101333c7744","","null","","","learningBlock1","","","","<div style=""font-size:60px;""> </div>","null","FL","learning/Slide23.JPG","That was a tob.","","",""
"image-keyboard-response","75","118676","0.0-5.0-0.23","FL","ym6cxam2f3","1366","768","0","1","0","5ee87dba82ed8101333c7744","","null","","","","","","","learning/Slide24.JPG","null","","","","","",""
"html-keyboard-response","76","119843","0.0-5.0-1.23","FL","ym6cxam2f3","1366","768","0","1","0","5ee87dba82ed8101333c7744","","null","","","learningBlock1","","","","That was a wug.","null","","","","","",""
"html-keyboard-response","77","120856","0.0-5.0-2.23","FL","ym6cxam2f3","1366","768","0","1","0","5ee87dba82ed8101333c7744","","null","","","learningBlock1","","","","<div style=""font-size:60px;""> </div>","null","FL","learning/Slide24.JPG","That was a wug.","","",""
"image-keyboard-response","78","121043","0.0-5.0-0.24","FL","ym6cxam2f3","1366","768","0","1","0","5ee87dba82ed8101333c7744","","null","","","","","","","learning/Slide25.JPG","null","","","","","",""
"html-keyboard-response","79","122201","0.0-5.0-1.24","FL","ym6cxam2f3","1366","768","0","1","0","5ee87dba82ed8101333c7744","","null","","","learningBlock1","","","","That was a dep.","null","","","","","",""
"html-keyboard-response","80","123213","0.0-5.0-2.24","FL","ym6cxam2f3","1366","768","0","1","0","5ee87dba82ed8101333c7744","","null","","","learningBlock1","","","","<div style=""font-size:60px;""> </div>","null","FL","learning/Slide25.JPG","That was a dep.","","",""
"image-keyboard-response","81","123403","0.0-5.0-0.25","FL","ym6cxam2f3","1366","768","0","1","0","5ee87dba82ed8101333c7744","","null","","","","","","","learning/Slide26.JPG","null","","","","","",""
"html-keyboard-response","82","124567","0.0-5.0-1.25","FL","ym6cxam2f3","1366","768","0","1","0","5ee87dba82ed8101333c7744","","null","","","learningBlock1","","","","That was a wug.","null","","","","","",""
"html-keyboard-response","83","125573","0.0-5.0-2.25","FL","ym6cxam2f3","1366","768","0","1","0","5ee87dba82ed8101333c7744","","null","","","learningBlock1","","","","<div style=""font-size:60px;""> </div>","null","FL","learning/Slide26.JPG","That was a wug.","","",""
"image-keyboard-response","84","125759","0.0-5.0-0.26","FL","ym6cxam2f3","1366","768","0","1","0","5ee87dba82ed8101333c7744","","null","","","","","","","learning/Slide27.JPG","null","","","","","",""
"html-keyboard-response","85","126921","0.0-5.0-1.26","FL","ym6cxam2f3","1366","768","0","1","0","5ee87dba82ed8101333c7744","","null","","","learningBlock1","","","","That was a bim.","null","","","","","",""
"html-keyboard-response","86","127931","0.0-5.0-2.26","FL","ym6cxam2f3","1366","768","0","1","0","5ee87dba82ed8101333c7744","","null","","","learningBlock1","","","","<div style=""font-size:60px;""> </div>","null","FL","learning/Slide27.JPG","That was a bim.","","",""
"image-keyboard-response","87","128120","0.0-5.0-0.27","FL","ym6cxam2f3","1366","768","0","1","0","5ee87dba82ed8101333c7744","","null","","","","","","","learning/Slide28.JPG","null","","","","","",""
"html-keyboard-response","88","129289","0.0-5.0-1.27","FL","ym6cxam2f3","1366","768","0","1","0","5ee87dba82ed8101333c7744","","null","","","learningBlock1","","","","That was a dep.","null","","","","","",""
"html-keyboard-response","89","130299","0.0-5.0-2.27","FL","ym6cxam2f3","1366","768","0","1","0","5ee87dba82ed8101333c7744","","null","","","learningBlock1","","","","<div style=""font-size:60px;""> </div>","null","FL","learning/Slide28.JPG","That was a dep.","","",""
"image-keyboard-response","90","130491","0.0-5.0-0.28","FL","ym6cxam2f3","1366","768","0","1","0","5ee87dba82ed8101333c7744","","null","","","","","","","learning/Slide29.JPG","null","","","","","",""
"html-keyboard-response","91","131653","0.0-5.0-1.28","FL","ym6cxam2f3","1366","768","0","1","0","5ee87dba82ed8101333c7744","","null","","","learningBlock1","","","","That was a tob.","null","","","","","",""
"html-keyboard-response","92","132662","0.0-5.0-2.28","FL","ym6cxam2f3","1366","768","0","1","0","5ee87dba82ed8101333c7744","","null","","","learningBlock1","","","","<div style=""font-size:60px;""> </div>","null","FL","learning/Slide29.JPG","That was a tob.","","",""
"image-keyboard-response","93","132847","0.0-5.0-0.29","FL","ym6cxam2f3","1366","768","0","1","0","5ee87dba82ed8101333c7744","","null","","","","","","","learning/Slide30.JPG","null","","","","","",""
"html-keyboard-response","94","134012","0.0-5.0-1.29","FL","ym6cxam2f3","1366","768","0","1","0","5ee87dba82ed8101333c7744","","null","","","learningBlock1","","","","That was a dep.","null","","","","","",""
"html-keyboard-response","95","135019","0.0-5.0-2.29","FL","ym6cxam2f3","1366","768","0","1","0","5ee87dba82ed8101333c7744","","null","","","learningBlock1","","","","<div style=""font-size:60px;""> </div>","null","FL","learning/Slide30.JPG","That was a dep.","","",""
"image-keyboard-response","96","135208","0.0-5.0-0.30","FL","ym6cxam2f3","1366","768","0","1","0","5ee87dba82ed8101333c7744","","null","","","","","","","learning/Slide31.JPG","null","","","","","",""
"html-keyboard-response","97","136369","0.0-5.0-1.30","FL","ym6cxam2f3","1366","768","0","1","0","5ee87dba82ed8101333c7744","","null","","","learningBlock1","","","","That was a wug.","null","","","","","",""
"html-keyboard-response","98","137375","0.0-5.0-2.30","FL","ym6cxam2f3","1366","768","0","1","0","5ee87dba82ed8101333c7744","","null","","","learningBlock1","","","","<div style=""font-size:60px;""> </div>","null","FL","learning/Slide31.JPG","That was a wug.","","",""
"image-keyboard-response","99","137559","0.0-5.0-0.31","FL","ym6cxam2f3","1366","768","0","1","0","5ee87dba82ed8101333c7744","","null","","","","","","","learning/Slide32.JPG","null","","","","","",""
"html-keyboard-response","100","138723","0.0-5.0-1.31","FL","ym6cxam2f3","1366","768","0","1","0","5ee87dba82ed8101333c7744","","null","","","learningBlock1","","","","That was a tob.","null","","","","","",""
"html-keyboard-response","101","139733","0.0-5.0-2.31","FL","ym6cxam2f3","1366","768","0","1","0","5ee87dba82ed8101333c7744","","null","","","learningBlock1","","","","<div style=""font-size:60px;""> </div>","null","FL","learning/Slide32.JPG","That was a tob.","","",""
"image-keyboard-response","102","139923","0.0-5.0-0.32","FL","ym6cxam2f3","1366","768","0","1","0","5ee87dba82ed8101333c7744","","null","","","","","","","learning/Slide33.JPG","null","","","","","",""
"html-keyboard-response","103","141087","0.0-5.0-1.32","FL","ym6cxam2f3","1366","768","0","1","0","5ee87dba82ed8101333c7744","","null","","","learningBlock1","","","","That was a bim.","null","","","","","",""
"html-keyboard-response","104","142096","0.0-5.0-2.32","FL","ym6cxam2f3","1366","768","0","1","0","5ee87dba82ed8101333c7744","","null","","","learningBlock1","","","","<div style=""font-size:60px;""> </div>","null","FL","learning/Slide33.JPG","That was a bim.","","",""
"image-keyboard-response","105","142285","0.0-5.0-0.33","FL","ym6cxam2f3","1366","768","0","1","0","5ee87dba82ed8101333c7744","","null","","","","","","","learning/Slide34.JPG","null","","","","","",""
"html-keyboard-response","106","143451","0.0-5.0-1.33","FL","ym6cxam2f3","1366","768","0","1","0","5ee87dba82ed8101333c7744","","null","","","learningBlock1","","","","That was a tob.","null","","","","","",""
"html-keyboard-response","107","144456","0.0-5.0-2.33","FL","ym6cxam2f3","1366","768","0","1","0","5ee87dba82ed8101333c7744","","null","","","learningBlock1","","","","<div style=""font-size:60px;""> </div>","null","FL","learning/Slide34.JPG","That was a tob.","","",""
"image-keyboard-response","108","144644","0.0-5.0-0.34","FL","ym6cxam2f3","1366","768","0","1","0","5ee87dba82ed8101333c7744","","null","","","","","","","learning/Slide35.JPG","null","","","","","",""
"html-keyboard-response","109","145813","0.0-5.0-1.34","FL","ym6cxam2f3","1366","768","0","1","0","5ee87dba82ed8101333c7744","","null","","","learningBlock1","","","","That was a bim.","null","","","","","",""
"html-keyboard-response","110","146820","0.0-5.0-2.34","FL","ym6cxam2f3","1366","768","0","1","0","5ee87dba82ed8101333c7744","","null","","","learningBlock1","","","","<div style=""font-size:60px;""> </div>","null","FL","learning/Slide35.JPG","That was a bim.","","",""
"image-keyboard-response","111","147008","0.0-5.0-0.35","FL","ym6cxam2f3","1366","768","0","1","0","5ee87dba82ed8101333c7744","","null","","","","","","","learning/Slide36.JPG","null","","","","","",""
"html-keyboard-response","112","148174","0.0-5.0-1.35","FL","ym6cxam2f3","1366","768","0","1","0","5ee87dba82ed8101333c7744","","null","","","learningBlock1","","","","That was a dep.","null","","","","","",""
"html-keyboard-response","113","149188","0.0-5.0-2.35","FL","ym6cxam2f3","1366","768","0","1","0","5ee87dba82ed8101333c7744","","null","","","learningBlock1","","","","<div style=""font-size:60px;""> </div>","null","FL","learning/Slide36.JPG","That was a dep.","","",""
"image-keyboard-response","114","149378","0.0-5.0-0.36","FL","ym6cxam2f3","1366","768","0","1","0","5ee87dba82ed8101333c7744","","null","","","","","","","learning/Slide37.JPG","null","","","","","",""
"html-keyboard-response","115","150539","0.0-5.0-1.36","FL","ym6cxam2f3","1366","768","0","1","0","5ee87dba82ed8101333c7744","","null","","","learningBlock1","","","","That was a tob.","null","","","","","",""
"html-keyboard-response","116","151543","0.0-5.0-2.36","FL","ym6cxam2f3","1366","768","0","1","0","5ee87dba82ed8101333c7744","","null","","","learningBlock1","","","","<div style=""font-size:60px;""> </div>","null","FL","learning/Slide37.JPG","That was a tob.","","",""
"image-keyboard-response","117","151734","0.0-5.0-0.37","FL","ym6cxam2f3","1366","768","0","1","0","5ee87dba82ed8101333c7744","","null","","","","","","","learning/Slide38.JPG","null","","","","","",""
"html-keyboard-response","118","152900","0.0-5.0-1.37","FL","ym6cxam2f3","1366","768","0","1","0","5ee87dba82ed8101333c7744","","null","","","learningBlock1","","","","That was a wug.","null","","","","","",""
"html-keyboard-response","119","153909","0.0-5.0-2.37","FL","ym6cxam2f3","1366","768","0","1","0","5ee87dba82ed8101333c7744","","null","","","learningBlock1","","","","<div style=""font-size:60px;""> </div>","null","FL","learning/Slide38.JPG","That was a wug.","","",""
"image-keyboard-response","120","154096","0.0-5.0-0.38","FL","ym6cxam2f3","1366","768","0","1","0","5ee87dba82ed8101333c7744","","null","","","","","","","learning/Slide39.JPG","null","","","","","",""
"html-keyboard-response","121","155263","0.0-5.0-1.38","FL","ym6cxam2f3","1366","768","0","1","0","5ee87dba82ed8101333c7744","","null","","","learningBlock1","","","","That was a bim.","null","","","","","",""
"html-keyboard-response","122","156265","0.0-5.0-2.38","FL","ym6cxam2f3","1366","768","0","1","0","5ee87dba82ed8101333c7744","","null","","","learningBlock1","","","","<div style=""font-size:60px;""> </div>","null","FL","learning/Slide39.JPG","That was a bim.","","",""
"image-keyboard-response","123","156452","0.0-5.0-0.39","FL","ym6cxam2f3","1366","768","0","1","0","5ee87dba82ed8101333c7744","","null","","","","","","","learning/Slide40.JPG","null","","","","","",""
"html-keyboard-response","124","157617","0.0-5.0-1.39","FL","ym6cxam2f3","1366","768","0","1","0","5ee87dba82ed8101333c7744","","null","","","learningBlock1","","","","That was a tob.","null","","","","","",""
"html-keyboard-response","125","158623","0.0-5.0-2.39","FL","ym6cxam2f3","1366","768","0","1","0","5ee87dba82ed8101333c7744","","null","","","learningBlock1","","","","<div style=""font-size:60px;""> </div>","null","FL","learning/Slide40.JPG","That was a tob.","","",""
"image-keyboard-response","126","158813","0.0-5.0-0.40","FL","ym6cxam2f3","1366","768","0","1","0","5ee87dba82ed8101333c7744","","null","","","","","","","learning/Slide41.JPG","null","","","","","",""
"html-keyboard-response","127","159977","0.0-5.0-1.40","FL","ym6cxam2f3","1366","768","0","1","0","5ee87dba82ed8101333c7744","","null","","","learningBlock1","","","","That was a bim.","null","","","","","",""
"html-keyboard-response","128","160979","0.0-5.0-2.40","FL","ym6cxam2f3","1366","768","0","1","0","5ee87dba82ed8101333c7744","","null","","","learningBlock1","","","","<div style=""font-size:60px;""> </div>","null","FL","learning/Slide41.JPG","That was a bim.","","",""
"image-keyboard-response","129","161165","0.0-5.0-0.41","FL","ym6cxam2f3","1366","768","0","1","0","5ee87dba82ed8101333c7744","","null","","","","","","","learning/Slide42.JPG","null","","","","","",""
"html-keyboard-response","130","162324","0.0-5.0-1.41","FL","ym6cxam2f3","1366","768","0","1","0","5ee87dba82ed8101333c7744","","null","","","learningBlock1","","","","That was a dep.","null","","","","","",""
"html-keyboard-response","131","163328","0.0-5.0-2.41","FL","ym6cxam2f3","1366","768","0","1","0","5ee87dba82ed8101333c7744","","null","","","learningBlock1","","","","<div style=""font-size:60px;""> </div>","null","FL","learning/Slide42.JPG","That was a dep.","","",""
"image-keyboard-response","132","163508","0.0-5.0-0.42","FL","ym6cxam2f3","1366","768","0","1","0","5ee87dba82ed8101333c7744","","null","","","","","","","learning/Slide43.JPG","null","","","","","",""
"html-keyboard-response","133","164671","0.0-5.0-1.42","FL","ym6cxam2f3","1366","768","0","1","0","5ee87dba82ed8101333c7744","","null","","","learningBlock1","","","","That was a wug.","null","","","","","",""
"html-keyboard-response","134","165688","0.0-5.0-2.42","FL","ym6cxam2f3","1366","768","0","1","0","5ee87dba82ed8101333c7744","","null","","","learningBlock1","","","","<div style=""font-size:60px;""> </div>","null","FL","learning/Slide43.JPG","That was a wug.","","",""
"image-keyboard-response","135","165875","0.0-5.0-0.43","FL","ym6cxam2f3","1366","768","0","1","0","5ee87dba82ed8101333c7744","","null","","","","","","","learning/Slide44.JPG","null","","","","","",""
"html-keyboard-response","136","167040","0.0-5.0-1.43","FL","ym6cxam2f3","1366","768","0","1","0","5ee87dba82ed8101333c7744","","null","","","learningBlock1","","","","That was a bim.","null","","","","","",""
"html-keyboard-response","137","168055","0.0-5.0-2.43","FL","ym6cxam2f3","1366","768","0","1","0","5ee87dba82ed8101333c7744","","null","","","learningBlock1","","","","<div style=""font-size:60px;""> </div>","null","FL","learning/Slide44.JPG","That was a bim.","","",""
"image-keyboard-response","138","168241","0.0-5.0-0.44","FL","ym6cxam2f3","1366","768","0","1","0","5ee87dba82ed8101333c7744","","null","","","","","","","learning/Slide45.JPG","null","","","","","",""
"html-keyboard-response","139","169403","0.0-5.0-1.44","FL","ym6cxam2f3","1366","768","0","1","0","5ee87dba82ed8101333c7744","","null","","","learningBlock1","","","","That was a wug.","null","","","","","",""
"html-keyboard-response","140","170414","0.0-5.0-2.44","FL","ym6cxam2f3","1366","768","0","1","0","5ee87dba82ed8101333c7744","","null","","","learningBlock1","","","","<div style=""font-size:60px;""> </div>","null","FL","learning/Slide45.JPG","That was a wug.","","",""
"image-keyboard-response","141","170604","0.0-5.0-0.45","FL","ym6cxam2f3","1366","768","0","1","0","5ee87dba82ed8101333c7744","","null","","","","","","","learning/Slide46.JPG","null","","","","","",""
"html-keyboard-response","142","171778","0.0-5.0-1.45","FL","ym6cxam2f3","1366","768","0","1","0","5ee87dba82ed8101333c7744","","null","","","learningBlock1","","","","That was a dep.","null","","","","","",""
"html-keyboard-response","143","172783","0.0-5.0-2.45","FL","ym6cxam2f3","1366","768","0","1","0","5ee87dba82ed8101333c7744","","null","","","learningBlock1","","","","<div style=""font-size:60px;""> </div>","null","FL","learning/Slide46.JPG","That was a dep.","","",""
"image-keyboard-response","144","172972","0.0-5.0-0.46","FL","ym6cxam2f3","1366","768","0","1","0","5ee87dba82ed8101333c7744","","null","","","","","","","learning/Slide47.JPG","null","","","","","",""
"html-keyboard-response","145","174137","0.0-5.0-1.46","FL","ym6cxam2f3","1366","768","0","1","0","5ee87dba82ed8101333c7744","","null","","","learningBlock1","","","","That was a tob.","null","","","","","",""
"html-keyboard-response","146","175140","0.0-5.0-2.46","FL","ym6cxam2f3","1366","768","0","1","0","5ee87dba82ed8101333c7744","","null","","","learningBlock1","","","","<div style=""font-size:60px;""> </div>","null","FL","learning/Slide47.JPG","That was a tob.","","",""
"image-keyboard-response","147","175330","0.0-5.0-0.47","FL","ym6cxam2f3","1366","768","0","1","0","5ee87dba82ed8101333c7744","","null","","","","","","","learning/Slide48.JPG","null","","","","","",""
"html-keyboard-response","148","176495","0.0-5.0-1.47","FL","ym6cxam2f3","1366","768","0","1","0","5ee87dba82ed8101333c7744","","null","","","learningBlock1","","","","That was a bim.","null","","","","","",""
"html-keyboard-response","149","177496","0.0-5.0-2.47","FL","ym6cxam2f3","1366","768","0","1","0","5ee87dba82ed8101333c7744","","null","","","learningBlock1","","","","<div style=""font-size:60px;""> </div>","null","FL","learning/Slide48.JPG","That was a bim.","","",""
"image-keyboard-response","150","177688","0.0-5.0-0.48","FL","ym6cxam2f3","1366","768","0","1","0","5ee87dba82ed8101333c7744","","null","","","","","","","learning/Slide49.JPG","null","","","","","",""
"html-keyboard-response","151","178850","0.0-5.0-1.48","FL","ym6cxam2f3","1366","768","0","1","0","5ee87dba82ed8101333c7744","","null","","","learningBlock1","","","","That was a dep.","null","","","","","",""
"html-keyboard-response","152","179853","0.0-5.0-2.48","FL","ym6cxam2f3","1366","768","0","1","0","5ee87dba82ed8101333c7744","","null","","","learningBlock1","","","","<div style=""font-size:60px;""> </div>","null","FL","learning/Slide49.JPG","That was a dep.","","",""
"image-keyboard-response","153","180041","0.0-5.0-0.49","FL","ym6cxam2f3","1366","768","0","1","0","5ee87dba82ed8101333c7744","","null","","","","","","","learning/Slide50.JPG","null","","","","","",""
"html-keyboard-response","154","181209","0.0-5.0-1.49","FL","ym6cxam2f3","1366","768","0","1","0","5ee87dba82ed8101333c7744","","null","","","learningBlock1","","","","That was a tob.","null","","","","","",""
"html-keyboard-response","155","182215","0.0-5.0-2.49","FL","ym6cxam2f3","1366","768","0","1","0","5ee87dba82ed8101333c7744","","null","","","learningBlock1","","","","<div style=""font-size:60px;""> </div>","null","FL","learning/Slide50.JPG","That was a tob.","","",""
"image-keyboard-response","156","182404","0.0-5.0-0.50","FL","ym6cxam2f3","1366","768","0","1","0","5ee87dba82ed8101333c7744","","null","","","","","","","learning/Slide51.JPG","null","","","","","",""
"html-keyboard-response","157","183566","0.0-5.0-1.50","FL","ym6cxam2f3","1366","768","0","1","0","5ee87dba82ed8101333c7744","","null","","","learningBlock1","","","","That was a bim.","null","","","","","",""
"html-keyboard-response","158","184569","0.0-5.0-2.50","FL","ym6cxam2f3","1366","768","0","1","0","5ee87dba82ed8101333c7744","","null","","","learningBlock1","","","","<div style=""font-size:60px;""> </div>","null","FL","learning/Slide51.JPG","That was a bim.","","",""
"image-keyboard-response","159","184760","0.0-5.0-0.51","FL","ym6cxam2f3","1366","768","0","1","0","5ee87dba82ed8101333c7744","","null","","","","","","","learning/Slide52.JPG","null","","","","","",""
"html-keyboard-response","160","185923","0.0-5.0-1.51","FL","ym6cxam2f3","1366","768","0","1","0","5ee87dba82ed8101333c7744","","null","","","learningBlock1","","","","That was a wug.","null","","","","","",""
"html-keyboard-response","161","186928","0.0-5.0-2.51","FL","ym6cxam2f3","1366","768","0","1","0","5ee87dba82ed8101333c7744","","null","","","learningBlock1","","","","<div style=""font-size:60px;""> </div>","null","FL","learning/Slide52.JPG","That was a wug.","","",""
"image-keyboard-response","162","187118","0.0-5.0-0.52","FL","ym6cxam2f3","1366","768","0","1","0","5ee87dba82ed8101333c7744","","null","","","","","","","learning/Slide53.JPG","null","","","","","",""
"html-keyboard-response","163","188281","0.0-5.0-1.52","FL","ym6cxam2f3","1366","768","0","1","0","5ee87dba82ed8101333c7744","","null","","","learningBlock1","","","","That was a tob.","null","","","","","",""
"html-keyboard-response","164","189284","0.0-5.0-2.52","FL","ym6cxam2f3","1366","768","0","1","0","5ee87dba82ed8101333c7744","","null","","","learningBlock1","","","","<div style=""font-size:60px;""> </div>","null","FL","learning/Slide53.JPG","That was a tob.","","",""
"image-keyboard-response","165","189470","0.0-5.0-0.53","FL","ym6cxam2f3","1366","768","0","1","0","5ee87dba82ed8101333c7744","","null","","","","","","","learning/Slide54.JPG","null","","","","","",""
"html-keyboard-response","166","190630","0.0-5.0-1.53","FL","ym6cxam2f3","1366","768","0","1","0","5ee87dba82ed8101333c7744","","null","","","learningBlock1","","","","That was a dep.","null","","","","","",""
"html-keyboard-response","167","191638","0.0-5.0-2.53","FL","ym6cxam2f3","1366","768","0","1","0","5ee87dba82ed8101333c7744","","null","","","learningBlock1","","","","<div style=""font-size:60px;""> </div>","null","FL","learning/Slide54.JPG","That was a dep.","","",""
"image-keyboard-response","168","191824","0.0-5.0-0.54","FL","ym6cxam2f3","1366","768","0","1","0","5ee87dba82ed8101333c7744","","null","","","","","","","learning/Slide55.JPG","null","","","","","",""
"html-keyboard-response","169","192990","0.0-5.0-1.54","FL","ym6cxam2f3","1366","768","0","1","0","5ee87dba82ed8101333c7744","","null","","","learningBlock1","","","","That was a bim.","null","","","","","",""
"html-keyboard-response","170","193996","0.0-5.0-2.54","FL","ym6cxam2f3","1366","768","0","1","0","5ee87dba82ed8101333c7744","","null","","","learningBlock1","","","","<div style=""font-size:60px;""> </div>","null","FL","learning/Slide55.JPG","That was a bim.","","",""
"image-keyboard-response","171","194186","0.0-5.0-0.55","FL","ym6cxam2f3","1366","768","0","1","0","5ee87dba82ed8101333c7744","","null","","","","","","","learning/Slide56.JPG","null","","","","","",""
"html-keyboard-response","172","195348","0.0-5.0-1.55","FL","ym6cxam2f3","1366","768","0","1","0","5ee87dba82ed8101333c7744","","null","","","learningBlock1","","","","That was a tob.","null","","","","","",""
"html-keyboard-response","173","196350","0.0-5.0-2.55","FL","ym6cxam2f3","1366","768","0","1","0","5ee87dba82ed8101333c7744","","null","","","learningBlock1","","","","<div style=""font-size:60px;""> </div>","null","FL","learning/Slide56.JPG","That was a tob.","","",""
"image-keyboard-response","174","196539","0.0-5.0-0.56","FL","ym6cxam2f3","1366","768","0","1","0","5ee87dba82ed8101333c7744","","null","","","","","","","learning/Slide57.JPG","null","","","","","",""
"html-keyboard-response","175","197706","0.0-5.0-1.56","FL","ym6cxam2f3","1366","768","0","1","0","5ee87dba82ed8101333c7744","","null","","","learningBlock1","","","","That was a dep.","null","","","","","",""
"html-keyboard-response","176","198711","0.0-5.0-2.56","FL","ym6cxam2f3","1366","768","0","1","0","5ee87dba82ed8101333c7744","","null","","","learningBlock1","","","","<div style=""font-size:60px;""> </div>","null","FL","learning/Slide57.JPG","That was a dep.","","",""
"image-keyboard-response","177","198901","0.0-5.0-0.57","FL","ym6cxam2f3","1366","768","0","1","0","5ee87dba82ed8101333c7744","","null","","","","","","","learning/Slide58.JPG","null","","","","","",""
"html-keyboard-response","178","200060","0.0-5.0-1.57","FL","ym6cxam2f3","1366","768","0","1","0","5ee87dba82ed8101333c7744","","null","","","learningBlock1","","","","That was a wug.","null","","","","","",""
"html-keyboard-response","179","201067","0.0-5.0-2.57","FL","ym6cxam2f3","1366","768","0","1","0","5ee87dba82ed8101333c7744","","null","","","learningBlock1","","","","<div style=""font-size:60px;""> </div>","null","FL","learning/Slide58.JPG","That was a wug.","","",""
"image-keyboard-response","180","201254","0.0-5.0-0.58","FL","ym6cxam2f3","1366","768","0","1","0","5ee87dba82ed8101333c7744","","null","","","","","","","learning/Slide59.JPG","null","","","","","",""
"html-keyboard-response","181","202418","0.0-5.0-1.58","FL","ym6cxam2f3","1366","768","0","1","0","5ee87dba82ed8101333c7744","","null","","","learningBlock1","","","","That was a dep.","null","","","","","",""
"html-keyboard-response","182","203421","0.0-5.0-2.58","FL","ym6cxam2f3","1366","768","0","1","0","5ee87dba82ed8101333c7744","","null","","","learningBlock1","","","","<div style=""font-size:60px;""> </div>","null","FL","learning/Slide59.JPG","That was a dep.","","",""
"image-keyboard-response","183","203612","0.0-5.0-0.59","FL","ym6cxam2f3","1366","768","0","1","0","5ee87dba82ed8101333c7744","","null","","","","","","","learning/Slide60.JPG","null","","","","","",""
"html-keyboard-response","184","204772","0.0-5.0-1.59","FL","ym6cxam2f3","1366","768","0","1","0","5ee87dba82ed8101333c7744","","null","","","learningBlock1","","","","That was a wug.","null","","","","","",""
"html-keyboard-response","185","205788","0.0-5.0-2.59","FL","ym6cxam2f3","1366","768","0","1","0","5ee87dba82ed8101333c7744","","null","","","learningBlock1","","","","<div style=""font-size:60px;""> </div>","null","FL","learning/Slide60.JPG","That was a wug.","","",""
"image-keyboard-response","186","205975","0.0-5.0-0.60","FL","ym6cxam2f3","1366","768","0","1","0","5ee87dba82ed8101333c7744","","null","","","","","","","learning/Slide61.JPG","null","","","","","",""
"html-keyboard-response","187","207148","0.0-5.0-1.60","FL","ym6cxam2f3","1366","768","0","1","0","5ee87dba82ed8101333c7744","","null","","","learningBlock1","","","","That was a bim.","null","","","","","",""
"html-keyboard-response","188","208157","0.0-5.0-2.60","FL","ym6cxam2f3","1366","768","0","1","0","5ee87dba82ed8101333c7744","","null","","","learningBlock1","","","","<div style=""font-size:60px;""> </div>","null","FL","learning/Slide61.JPG","That was a bim.","","",""
"image-keyboard-response","189","208343","0.0-5.0-0.61","FL","ym6cxam2f3","1366","768","0","1","0","5ee87dba82ed8101333c7744","","null","","","","","","","learning/Slide62.JPG","null","","","","","",""
"html-keyboard-response","190","209510","0.0-5.0-1.61","FL","ym6cxam2f3","1366","768","0","1","0","5ee87dba82ed8101333c7744","","null","","","learningBlock1","","","","That was a dep.","null","","","","","",""
"html-keyboard-response","191","210527","0.0-5.0-2.61","FL","ym6cxam2f3","1366","768","0","1","0","5ee87dba82ed8101333c7744","","null","","","learningBlock1","","","","<div style=""font-size:60px;""> </div>","null","FL","learning/Slide62.JPG","That was a dep.","","",""
"image-keyboard-response","192","210715","0.0-5.0-0.62","FL","ym6cxam2f3","1366","768","0","1","0","5ee87dba82ed8101333c7744","","null","","","","","","","learning/Slide63.JPG","null","","","","","",""
"html-keyboard-response","193","211877","0.0-5.0-1.62","FL","ym6cxam2f3","1366","768","0","1","0","5ee87dba82ed8101333c7744","","null","","","learningBlock1","","","","That was a bim.","null","","","","","",""
"html-keyboard-response","194","212881","0.0-5.0-2.62","FL","ym6cxam2f3","1366","768","0","1","0","5ee87dba82ed8101333c7744","","null","","","learningBlock1","","","","<div style=""font-size:60px;""> </div>","null","FL","learning/Slide63.JPG","That was a bim.","","",""
"image-keyboard-response","195","213069","0.0-5.0-0.63","FL","ym6cxam2f3","1366","768","0","1","0","5ee87dba82ed8101333c7744","","null","","","","","","","learning/Slide64.JPG","null","","","","","",""
"html-keyboard-response","196","214228","0.0-5.0-1.63","FL","ym6cxam2f3","1366","768","0","1","0","5ee87dba82ed8101333c7744","","null","","","learningBlock1","","","","That was a tob.","null","","","","","",""
"html-keyboard-response","197","215245","0.0-5.0-2.63","FL","ym6cxam2f3","1366","768","0","1","0","5ee87dba82ed8101333c7744","","null","","","learningBlock1","","","","<div style=""font-size:60px;""> </div>","null","FL","learning/Slide64.JPG","That was a tob.","","",""
"image-keyboard-response","198","215431","0.0-5.0-0.64","FL","ym6cxam2f3","1366","768","0","1","0","5ee87dba82ed8101333c7744","","null","","","","","","","learning/Slide65.JPG","null","","","","","",""
"html-keyboard-response","199","216603","0.0-5.0-1.64","FL","ym6cxam2f3","1366","768","0","1","0","5ee87dba82ed8101333c7744","","null","","","learningBlock1","","","","That was a wug.","null","","","","","",""
"html-keyboard-response","200","217616","0.0-5.0-2.64","FL","ym6cxam2f3","1366","768","0","1","0","5ee87dba82ed8101333c7744","","null","","","learningBlock1","","","","<div style=""font-size:60px;""> </div>","null","FL","learning/Slide65.JPG","That was a wug.","","",""
"image-keyboard-response","201","217794","0.0-5.0-0.65","FL","ym6cxam2f3","1366","768","0","1","0","5ee87dba82ed8101333c7744","","null","","","","","","","learning/Slide66.JPG","null","","","","","",""
"html-keyboard-response","202","218962","0.0-5.0-1.65","FL","ym6cxam2f3","1366","768","0","1","0","5ee87dba82ed8101333c7744","","null","","","learningBlock1","","","","That was a dep.","null","","","","","",""
"html-keyboard-response","203","219968","0.0-5.0-2.65","FL","ym6cxam2f3","1366","768","0","1","0","5ee87dba82ed8101333c7744","","null","","","learningBlock1","","","","<div style=""font-size:60px;""> </div>","null","FL","learning/Slide66.JPG","That was a dep.","","",""
"image-keyboard-response","204","220155","0.0-5.0-0.66","FL","ym6cxam2f3","1366","768","0","1","0","5ee87dba82ed8101333c7744","","null","","","","","","","learning/Slide67.JPG","null","","","","","",""
"html-keyboard-response","205","221317","0.0-5.0-1.66","FL","ym6cxam2f3","1366","768","0","1","0","5ee87dba82ed8101333c7744","","null","","","learningBlock1","","","","That was a tob.","null","","","","","",""
"html-keyboard-response","206","222323","0.0-5.0-2.66","FL","ym6cxam2f3","1366","768","0","1","0","5ee87dba82ed8101333c7744","","null","","","learningBlock1","","","","<div style=""font-size:60px;""> </div>","null","FL","learning/Slide67.JPG","That was a tob.","","",""
"image-keyboard-response","207","222512","0.0-5.0-0.67","FL","ym6cxam2f3","1366","768","0","1","0","5ee87dba82ed8101333c7744","","null","","","","","","","learning/Slide68.JPG","null","","","","","",""
"html-keyboard-response","208","223676","0.0-5.0-1.67","FL","ym6cxam2f3","1366","768","0","1","0","5ee87dba82ed8101333c7744","","null","","","learningBlock1","","","","That was a wug.","null","","","","","",""
"html-keyboard-response","209","224685","0.0-5.0-2.67","FL","ym6cxam2f3","1366","768","0","1","0","5ee87dba82ed8101333c7744","","null","","","learningBlock1","","","","<div style=""font-size:60px;""> </div>","null","FL","learning/Slide68.JPG","That was a wug.","","",""
"image-keyboard-response","210","224870","0.0-5.0-0.68","FL","ym6cxam2f3","1366","768","0","1","0","5ee87dba82ed8101333c7744","","null","","","","","","","learning/Slide69.JPG","null","","","","","",""
"html-keyboard-response","211","226035","0.0-5.0-1.68","FL","ym6cxam2f3","1366","768","0","1","0","5ee87dba82ed8101333c7744","","null","","","learningBlock1","","","","That was a tob.","null","","","","","",""
"html-keyboard-response","212","227046","0.0-5.0-2.68","FL","ym6cxam2f3","1366","768","0","1","0","5ee87dba82ed8101333c7744","","null","","","learningBlock1","","","","<div style=""font-size:60px;""> </div>","null","FL","learning/Slide69.JPG","That was a tob.","","",""
"image-keyboard-response","213","227239","0.0-5.0-0.69","FL","ym6cxam2f3","1366","768","0","1","0","5ee87dba82ed8101333c7744","","null","","","","","","","learning/Slide70.JPG","null","","","","","",""
"html-keyboard-response","214","228400","0.0-5.0-1.69","FL","ym6cxam2f3","1366","768","0","1","0","5ee87dba82ed8101333c7744","","null","","","learningBlock1","","","","That was a dep.","null","","","","","",""
"html-keyboard-response","215","229405","0.0-5.0-2.69","FL","ym6cxam2f3","1366","768","0","1","0","5ee87dba82ed8101333c7744","","null","","","learningBlock1","","","","<div style=""font-size:60px;""> </div>","null","FL","learning/Slide70.JPG","That was a dep.","","",""
"image-keyboard-response","216","229591","0.0-5.0-0.70","FL","ym6cxam2f3","1366","768","0","1","0","5ee87dba82ed8101333c7744","","null","","","","","","","learning/Slide71.JPG","null","","","","","",""
"html-keyboard-response","217","230762","0.0-5.0-1.70","FL","ym6cxam2f3","1366","768","0","1","0","5ee87dba82ed8101333c7744","","null","","","learningBlock1","","","","That was a wug.","null","","","","","",""
"html-keyboard-response","218","231768","0.0-5.0-2.70","FL","ym6cxam2f3","1366","768","0","1","0","5ee87dba82ed8101333c7744","","null","","","learningBlock1","","","","<div style=""font-size:60px;""> </div>","null","FL","learning/Slide71.JPG","That was a wug.","","",""
"image-keyboard-response","219","231954","0.0-5.0-0.71","FL","ym6cxam2f3","1366","768","0","1","0","5ee87dba82ed8101333c7744","","null","","","","","","","learning/Slide72.JPG","null","","","","","",""
"html-keyboard-response","220","233115","0.0-5.0-1.71","FL","ym6cxam2f3","1366","768","0","1","0","5ee87dba82ed8101333c7744","","null","","","learningBlock1","","","","That was a bim.","null","","","","","",""
"html-keyboard-response","221","234129","0.0-5.0-2.71","FL","ym6cxam2f3","1366","768","0","1","0","5ee87dba82ed8101333c7744","","null","","","learningBlock1","","","","<div style=""font-size:60px;""> </div>","null","FL","learning/Slide72.JPG","That was a bim.","","",""
"image-keyboard-response","222","234316","0.0-5.0-0.72","FL","ym6cxam2f3","1366","768","0","1","0","5ee87dba82ed8101333c7744","","null","","","","","","","learning/Slide73.JPG","null","","","","","",""
"html-keyboard-response","223","235481","0.0-5.0-1.72","FL","ym6cxam2f3","1366","768","0","1","0","5ee87dba82ed8101333c7744","","null","","","learningBlock1","","","","That was a wug.","null","","","","","",""
"html-keyboard-response","224","236495","0.0-5.0-2.72","FL","ym6cxam2f3","1366","768","0","1","0","5ee87dba82ed8101333c7744","","null","","","learningBlock1","","","","<div style=""font-size:60px;""> </div>","null","FL","learning/Slide73.JPG","That was a wug.","","",""
"image-keyboard-response","225","236681","0.0-5.0-0.73","FL","ym6cxam2f3","1366","768","0","1","0","5ee87dba82ed8101333c7744","","null","","","","","","","learning/Slide74.JPG","null","","","","","",""
"html-keyboard-response","226","237854","0.0-5.0-1.73","FL","ym6cxam2f3","1366","768","0","1","0","5ee87dba82ed8101333c7744","","null","","","learningBlock1","","","","That was a dep.","null","","","","","",""
"html-keyboard-response","227","238868","0.0-5.0-2.73","FL","ym6cxam2f3","1366","768","0","1","0","5ee87dba82ed8101333c7744","","null","","","learningBlock1","","","","<div style=""font-size:60px;""> </div>","null","FL","learning/Slide74.JPG","That was a dep.","","",""
"image-keyboard-response","228","239054","0.0-5.0-0.74","FL","ym6cxam2f3","1366","768","0","1","0","5ee87dba82ed8101333c7744","","null","","","","","","","learning/Slide75.JPG","null","","","","","",""
"html-keyboard-response","229","240218","0.0-5.0-1.74","FL","ym6cxam2f3","1366","768","0","1","0","5ee87dba82ed8101333c7744","","null","","","learningBlock1","","","","That was a tob.","null","","","","","",""
"html-keyboard-response","230","241224","0.0-5.0-2.74","FL","ym6cxam2f3","1366","768","0","1","0","5ee87dba82ed8101333c7744","","null","","","learningBlock1","","","","<div style=""font-size:60px;""> </div>","null","FL","learning/Slide75.JPG","That was a tob.","","",""
"image-keyboard-response","231","241414","0.0-5.0-0.75","FL","ym6cxam2f3","1366","768","0","1","0","5ee87dba82ed8101333c7744","","null","","","","","","","learning/Slide76.JPG","null","","","","","",""
"html-keyboard-response","232","242573","0.0-5.0-1.75","FL","ym6cxam2f3","1366","768","0","1","0","5ee87dba82ed8101333c7744","","null","","","learningBlock1","","","","That was a bim.","null","","","","","",""
"html-keyboard-response","233","243588","0.0-5.0-2.75","FL","ym6cxam2f3","1366","768","0","1","0","5ee87dba82ed8101333c7744","","null","","","learningBlock1","","","","<div style=""font-size:60px;""> </div>","null","FL","learning/Slide76.JPG","That was a bim.","","",""
"image-keyboard-response","234","243775","0.0-5.0-0.76","FL","ym6cxam2f3","1366","768","0","1","0","5ee87dba82ed8101333c7744","","null","","","","","","","learning/Slide77.JPG","null","","","","","",""
"html-keyboard-response","235","244955","0.0-5.0-1.76","FL","ym6cxam2f3","1366","768","0","1","0","5ee87dba82ed8101333c7744","","null","","","learningBlock1","","","","That was a tob.","null","","","","","",""
"html-keyboard-response","236","245965","0.0-5.0-2.76","FL","ym6cxam2f3","1366","768","0","1","0","5ee87dba82ed8101333c7744","","null","","","learningBlock1","","","","<div style=""font-size:60px;""> </div>","null","FL","learning/Slide77.JPG","That was a tob.","","",""
"image-keyboard-response","237","246153","0.0-5.0-0.77","FL","ym6cxam2f3","1366","768","0","1","0","5ee87dba82ed8101333c7744","","null","","","","","","","learning/Slide78.JPG","null","","","","","",""
"html-keyboard-response","238","247321","0.0-5.0-1.77","FL","ym6cxam2f3","1366","768","0","1","0","5ee87dba82ed8101333c7744","","null","","","learningBlock1","","","","That was a wug.","null","","","","","",""
"html-keyboard-response","239","248327","0.0-5.0-2.77","FL","ym6cxam2f3","1366","768","0","1","0","5ee87dba82ed8101333c7744","","null","","","learningBlock1","","","","<div style=""font-size:60px;""> </div>","null","FL","learning/Slide78.JPG","That was a wug.","","",""
"image-keyboard-response","240","248511","0.0-5.0-0.78","FL","ym6cxam2f3","1366","768","0","1","0","5ee87dba82ed8101333c7744","","null","","","","","","","learning/Slide79.JPG","null","","","","","",""
"html-keyboard-response","241","249677","0.0-5.0-1.78","FL","ym6cxam2f3","1366","768","0","1","0","5ee87dba82ed8101333c7744","","null","","","learningBlock1","","","","That was a bim.","null","","","","","",""
"html-keyboard-response","242","250689","0.0-5.0-2.78","FL","ym6cxam2f3","1366","768","0","1","0","5ee87dba82ed8101333c7744","","null","","","learningBlock1","","","","<div style=""font-size:60px;""> </div>","null","FL","learning/Slide79.JPG","That was a bim.","","",""
"image-keyboard-response","243","250872","0.0-5.0-0.79","FL","ym6cxam2f3","1366","768","0","1","0","5ee87dba82ed8101333c7744","","null","","","","","","","learning/Slide80.JPG","null","","","","","",""
"html-keyboard-response","244","252037","0.0-5.0-1.79","FL","ym6cxam2f3","1366","768","0","1","0","5ee87dba82ed8101333c7744","","null","","","learningBlock1","","","","That was a tob.","null","","","","","",""
"html-keyboard-response","245","253037","0.0-5.0-2.79","FL","ym6cxam2f3","1366","768","0","1","0","5ee87dba82ed8101333c7744","","null","","","learningBlock1","","","","<div style=""font-size:60px;""> </div>","null","FL","learning/Slide80.JPG","That was a tob.","","",""
"instructions","246","256809","0.0-6.0","FL","ym6cxam2f3","1366","768","0","1","0","5ee87dba82ed8101333c7744","","NA","","[{""page_index"":0,""viewing_time"":3770}]","instructions","","","","","","","","","","",""
"image-keyboard-response","247","256997","0.0-7.0-0.0","FL","ym6cxam2f3","1366","768","0","1","0","5ee87dba82ed8101333c7744","","null","","","","","","","learning/Slide81.JPG","null","","","","","",""
"html-keyboard-response","248","258160","0.0-7.0-1.0","FL","ym6cxam2f3","1366","768","0","1","0","5ee87dba82ed8101333c7744","","null","","","learningBlock2","","","","That was a wug.","null","","","","","",""
"html-keyboard-response","249","259169","0.0-7.0-2.0","FL","ym6cxam2f3","1366","768","0","1","0","5ee87dba82ed8101333c7744","","null","","","learningBlock2","","","","<div style=""font-size:60px;""> </div>","null","FL","learning/Slide81.JPG","That was a wug.","","",""
"image-keyboard-response","250","259354","0.0-7.0-0.1","FL","ym6cxam2f3","1366","768","0","1","0","5ee87dba82ed8101333c7744","","null","","","","","","","learning/Slide82.JPG","null","","","","","",""
"html-keyboard-response","251","260512","0.0-7.0-1.1","FL","ym6cxam2f3","1366","768","0","1","0","5ee87dba82ed8101333c7744","","null","","","learningBlock2","","","","That was a bim.","null","","","","","",""
"html-keyboard-response","252","261518","0.0-7.0-2.1","FL","ym6cxam2f3","1366","768","0","1","0","5ee87dba82ed8101333c7744","","null","","","learningBlock2","","","","<div style=""font-size:60px;""> </div>","null","FL","learning/Slide82.JPG","That was a bim.","","",""
"image-keyboard-response","253","261707","0.0-7.0-0.2","FL","ym6cxam2f3","1366","768","0","1","0","5ee87dba82ed8101333c7744","","null","","","","","","","learning/Slide83.JPG","null","","","","","",""
"html-keyboard-response","254","262873","0.0-7.0-1.2","FL","ym6cxam2f3","1366","768","0","1","0","5ee87dba82ed8101333c7744","","null","","","learningBlock2","","","","That was a wug.","null","","","","","",""
"html-keyboard-response","255","263875","0.0-7.0-2.2","FL","ym6cxam2f3","1366","768","0","1","0","5ee87dba82ed8101333c7744","","null","","","learningBlock2","","","","<div style=""font-size:60px;""> </div>","null","FL","learning/Slide83.JPG","That was a wug.","","",""
"image-keyboard-response","256","264067","0.0-7.0-0.3","FL","ym6cxam2f3","1366","768","0","1","0","5ee87dba82ed8101333c7744","","null","","","","","","","learning/Slide84.JPG","null","","","","","",""
"html-keyboard-response","257","265230","0.0-7.0-1.3","FL","ym6cxam2f3","1366","768","0","1","0","5ee87dba82ed8101333c7744","","null","","","learningBlock2","","","","That was a dep.","null","","","","","",""
"html-keyboard-response","258","266235","0.0-7.0-2.3","FL","ym6cxam2f3","1366","768","0","1","0","5ee87dba82ed8101333c7744","","null","","","learningBlock2","","","","<div style=""font-size:60px;""> </div>","null","FL","learning/Slide84.JPG","That was a dep.","","",""
"image-keyboard-response","259","266426","0.0-7.0-0.4","FL","ym6cxam2f3","1366","768","0","1","0","5ee87dba82ed8101333c7744","","null","","","","","","","learning/Slide85.JPG","null","","","","","",""
"html-keyboard-response","260","267592","0.0-7.0-1.4","FL","ym6cxam2f3","1366","768","0","1","0","5ee87dba82ed8101333c7744","","null","","","learningBlock2","","","","That was a bim.","null","","","","","",""
"html-keyboard-response","261","268607","0.0-7.0-2.4","FL","ym6cxam2f3","1366","768","0","1","0","5ee87dba82ed8101333c7744","","null","","","learningBlock2","","","","<div style=""font-size:60px;""> </div>","null","FL","learning/Slide85.JPG","That was a bim.","","",""
"image-keyboard-response","262","268796","0.0-7.0-0.5","FL","ym6cxam2f3","1366","768","0","1","0","5ee87dba82ed8101333c7744","","null","","","","","","","learning/Slide86.JPG","null","","","","","",""
"html-keyboard-response","263","269961","0.0-7.0-1.5","FL","ym6cxam2f3","1366","768","0","1","0","5ee87dba82ed8101333c7744","","null","","","learningBlock2","","","","That was a tob.","null","","","","","",""
"html-keyboard-response","264","270968","0.0-7.0-2.5","FL","ym6cxam2f3","1366","768","0","1","0","5ee87dba82ed8101333c7744","","null","","","learningBlock2","","","","<div style=""font-size:60px;""> </div>","null","FL","learning/Slide86.JPG","That was a tob.","","",""
"image-keyboard-response","265","271152","0.0-7.0-0.6","FL","ym6cxam2f3","1366","768","0","1","0","5ee87dba82ed8101333c7744","","null","","","","","","","learning/Slide87.JPG","null","","","","","",""
"html-keyboard-response","266","272317","0.0-7.0-1.6","FL","ym6cxam2f3","1366","768","0","1","0","5ee87dba82ed8101333c7744","","null","","","learningBlock2","","","","That was a wug.","null","","","","","",""
"html-keyboard-response","267","273324","0.0-7.0-2.6","FL","ym6cxam2f3","1366","768","0","1","0","5ee87dba82ed8101333c7744","","null","","","learningBlock2","","","","<div style=""font-size:60px;""> </div>","null","FL","learning/Slide87.JPG","That was a wug.","","",""
"image-keyboard-response","268","273512","0.0-7.0-0.7","FL","ym6cxam2f3","1366","768","0","1","0","5ee87dba82ed8101333c7744","","null","","","","","","","learning/Slide88.JPG","null","","","","","",""
"html-keyboard-response","269","274675","0.0-7.0-1.7","FL","ym6cxam2f3","1366","768","0","1","0","5ee87dba82ed8101333c7744","","null","","","learningBlock2","","","","That was a tob.","null","","","","","",""
"html-keyboard-response","270","275682","0.0-7.0-2.7","FL","ym6cxam2f3","1366","768","0","1","0","5ee87dba82ed8101333c7744","","null","","","learningBlock2","","","","<div style=""font-size:60px;""> </div>","null","FL","learning/Slide88.JPG","That was a tob.","","",""
"image-keyboard-response","271","275872","0.0-7.0-0.8","FL","ym6cxam2f3","1366","768","0","1","0","5ee87dba82ed8101333c7744","","null","","","","","","","learning/Slide89.JPG","null","","","","","",""
"html-keyboard-response","272","277047","0.0-7.0-1.8","FL","ym6cxam2f3","1366","768","0","1","0","5ee87dba82ed8101333c7744","","null","","","learningBlock2","","","","That was a bim.","null","","","","","",""
"html-keyboard-response","273","278058","0.0-7.0-2.8","FL","ym6cxam2f3","1366","768","0","1","0","5ee87dba82ed8101333c7744","","null","","","learningBlock2","","","","<div style=""font-size:60px;""> </div>","null","FL","learning/Slide89.JPG","That was a bim.","","",""
"image-keyboard-response","274","278246","0.0-7.0-0.9","FL","ym6cxam2f3","1366","768","0","1","0","5ee87dba82ed8101333c7744","","null","","","","","","","learning/Slide90.JPG","null","","","","","",""
"html-keyboard-response","275","279414","0.0-7.0-1.9","FL","ym6cxam2f3","1366","768","0","1","0","5ee87dba82ed8101333c7744","","null","","","learningBlock2","","","","That was a dep.","null","","","","","",""
"html-keyboard-response","276","280424","0.0-7.0-2.9","FL","ym6cxam2f3","1366","768","0","1","0","5ee87dba82ed8101333c7744","","null","","","learningBlock2","","","","<div style=""font-size:60px;""> </div>","null","FL","learning/Slide90.JPG","That was a dep.","","",""
"image-keyboard-response","277","280613","0.0-7.0-0.10","FL","ym6cxam2f3","1366","768","0","1","0","5ee87dba82ed8101333c7744","","null","","","","","","","learning/Slide91.JPG","null","","","","","",""
"html-keyboard-response","278","281783","0.0-7.0-1.10","FL","ym6cxam2f3","1366","768","0","1","0","5ee87dba82ed8101333c7744","","null","","","learningBlock2","","","","That was a wug.","null","","","","","",""
"html-keyboard-response","279","282797","0.0-7.0-2.10","FL","ym6cxam2f3","1366","768","0","1","0","5ee87dba82ed8101333c7744","","null","","","learningBlock2","","","","<div style=""font-size:60px;""> </div>","null","FL","learning/Slide91.JPG","That was a wug.","","",""
"image-keyboard-response","280","282987","0.0-7.0-0.11","FL","ym6cxam2f3","1366","768","0","1","0","5ee87dba82ed8101333c7744","","null","","","","","","","learning/Slide92.JPG","null","","","","","",""
"html-keyboard-response","281","284149","0.0-7.0-1.11","FL","ym6cxam2f3","1366","768","0","1","0","5ee87dba82ed8101333c7744","","null","","","learningBlock2","","","","That was a tob.","null","","","","","",""
"html-keyboard-response","282","285155","0.0-7.0-2.11","FL","ym6cxam2f3","1366","768","0","1","0","5ee87dba82ed8101333c7744","","null","","","learningBlock2","","","","<div style=""font-size:60px;""> </div>","null","FL","learning/Slide92.JPG","That was a tob.","","",""
"image-keyboard-response","283","285343","0.0-7.0-0.12","FL","ym6cxam2f3","1366","768","0","1","0","5ee87dba82ed8101333c7744","","null","","","","","","","learning/Slide93.JPG","null","","","","","",""
"html-keyboard-response","284","286503","0.0-7.0-1.12","FL","ym6cxam2f3","1366","768","0","1","0","5ee87dba82ed8101333c7744","","null","","","learningBlock2","","","","That was a bim.","null","","","","","",""
"html-keyboard-response","285","287510","0.0-7.0-2.12","FL","ym6cxam2f3","1366","768","0","1","0","5ee87dba82ed8101333c7744","","null","","","learningBlock2","","","","<div style=""font-size:60px;""> </div>","null","FL","learning/Slide93.JPG","That was a bim.","","",""
"image-keyboard-response","286","287696","0.0-7.0-0.13","FL","ym6cxam2f3","1366","768","0","1","0","5ee87dba82ed8101333c7744","","null","","","","","","","learning/Slide94.JPG","null","","","","","",""
"html-keyboard-response","287","288867","0.0-7.0-1.13","FL","ym6cxam2f3","1366","768","0","1","0","5ee87dba82ed8101333c7744","","null","","","learningBlock2","","","","That was a tob.","null","","","","","",""
"html-keyboard-response","288","289881","0.0-7.0-2.13","FL","ym6cxam2f3","1366","768","0","1","0","5ee87dba82ed8101333c7744","","null","","","learningBlock2","","","","<div style=""font-size:60px;""> </div>","null","FL","learning/Slide94.JPG","That was a tob.","","",""
"image-keyboard-response","289","290073","0.0-7.0-0.14","FL","ym6cxam2f3","1366","768","0","1","0","5ee87dba82ed8101333c7744","","null","","","","","","","learning/Slide95.JPG","null","","","","","",""
"html-keyboard-response","290","291235","0.0-7.0-1.14","FL","ym6cxam2f3","1366","768","0","1","0","5ee87dba82ed8101333c7744","","null","","","learningBlock2","","","","That was a wug.","null","","","","","",""
"html-keyboard-response","291","292241","0.0-7.0-2.14","FL","ym6cxam2f3","1366","768","0","1","0","5ee87dba82ed8101333c7744","","null","","","learningBlock2","","","","<div style=""font-size:60px;""> </div>","null","FL","learning/Slide95.JPG","That was a wug.","","",""
"image-keyboard-response","292","292428","0.0-7.0-0.15","FL","ym6cxam2f3","1366","768","0","1","0","5ee87dba82ed8101333c7744","","null","","","","","","","learning/Slide96.JPG","null","","","","","",""
"html-keyboard-response","293","293590","0.0-7.0-1.15","FL","ym6cxam2f3","1366","768","0","1","0","5ee87dba82ed8101333c7744","","null","","","learningBlock2","","","","That was a tob.","null","","","","","",""
"html-keyboard-response","294","294597","0.0-7.0-2.15","FL","ym6cxam2f3","1366","768","0","1","0","5ee87dba82ed8101333c7744","","null","","","learningBlock2","","","","<div style=""font-size:60px;""> </div>","null","FL","learning/Slide96.JPG","That was a tob.","","",""
"image-keyboard-response","295","294784","0.0-7.0-0.16","FL","ym6cxam2f3","1366","768","0","1","0","5ee87dba82ed8101333c7744","","null","","","","","","","learning/Slide97.JPG","null","","","","","",""
"html-keyboard-response","296","295956","0.0-7.0-1.16","FL","ym6cxam2f3","1366","768","0","1","0","5ee87dba82ed8101333c7744","","null","","","learningBlock2","","","","That was a dep.","null","","","","","",""
"html-keyboard-response","297","296965","0.0-7.0-2.16","FL","ym6cxam2f3","1366","768","0","1","0","5ee87dba82ed8101333c7744","","null","","","learningBlock2","","","","<div style=""font-size:60px;""> </div>","null","FL","learning/Slide97.JPG","That was a dep.","","",""
"image-keyboard-response","298","297144","0.0-7.0-0.17","FL","ym6cxam2f3","1366","768","0","1","0","5ee87dba82ed8101333c7744","","null","","","","","","","learning/Slide98.JPG","null","","","","","",""
"html-keyboard-response","299","298303","0.0-7.0-1.17","FL","ym6cxam2f3","1366","768","0","1","0","5ee87dba82ed8101333c7744","","null","","","learningBlock2","","","","That was a bim.","null","","","","","",""
"html-keyboard-response","300","299317","0.0-7.0-2.17","FL","ym6cxam2f3","1366","768","0","1","0","5ee87dba82ed8101333c7744","","null","","","learningBlock2","","","","<div style=""font-size:60px;""> </div>","null","FL","learning/Slide98.JPG","That was a bim.","","",""
"image-keyboard-response","301","299509","0.0-7.0-0.18","FL","ym6cxam2f3","1366","768","0","1","0","5ee87dba82ed8101333c7744","","null","","","","","","","learning/Slide99.JPG","null","","","","","",""
"html-keyboard-response","302","300672","0.0-7.0-1.18","FL","ym6cxam2f3","1366","768","0","1","0","5ee87dba82ed8101333c7744","","null","","","learningBlock2","","","","That was a dep.","null","","","","","",""
"html-keyboard-response","303","301687","0.0-7.0-2.18","FL","ym6cxam2f3","1366","768","0","1","0","5ee87dba82ed8101333c7744","","null","","","learningBlock2","","","","<div style=""font-size:60px;""> </div>","null","FL","learning/Slide99.JPG","That was a dep.","","",""
"image-keyboard-response","304","301874","0.0-7.0-0.19","FL","ym6cxam2f3","1366","768","0","1","0","5ee87dba82ed8101333c7744","","null","","","","","","","learning/Slide100.JPG","null","","","","","",""
"html-keyboard-response","305","303035","0.0-7.0-1.19","FL","ym6cxam2f3","1366","768","0","1","0","5ee87dba82ed8101333c7744","","null","","","learningBlock2","","","","That was a bim.","null","","","","","",""
"html-keyboard-response","306","304041","0.0-7.0-2.19","FL","ym6cxam2f3","1366","768","0","1","0","5ee87dba82ed8101333c7744","","null","","","learningBlock2","","","","<div style=""font-size:60px;""> </div>","null","FL","learning/Slide100.JPG","That was a bim.","","",""
"image-keyboard-response","307","304228","0.0-7.0-0.20","FL","ym6cxam2f3","1366","768","0","1","0","5ee87dba82ed8101333c7744","","null","","","","","","","learning/Slide101.JPG","null","","","","","",""
"html-keyboard-response","308","305388","0.0-7.0-1.20","FL","ym6cxam2f3","1366","768","0","1","0","5ee87dba82ed8101333c7744","","null","","","learningBlock2","","","","That was a tob.","null","","","","","",""
"html-keyboard-response","309","306404","0.0-7.0-2.20","FL","ym6cxam2f3","1366","768","0","1","0","5ee87dba82ed8101333c7744","","null","","","learningBlock2","","","","<div style=""font-size:60px;""> </div>","null","FL","learning/Slide101.JPG","That was a tob.","","",""
"image-keyboard-response","310","306594","0.0-7.0-0.21","FL","ym6cxam2f3","1366","768","0","1","0","5ee87dba82ed8101333c7744","","null","","","","","","","learning/Slide102.JPG","null","","","","","",""
"html-keyboard-response","311","307760","0.0-7.0-1.21","FL","ym6cxam2f3","1366","768","0","1","0","5ee87dba82ed8101333c7744","","null","","","learningBlock2","","","","That was a bim.","null","","","","","",""
"html-keyboard-response","312","308766","0.0-7.0-2.21","FL","ym6cxam2f3","1366","768","0","1","0","5ee87dba82ed8101333c7744","","null","","","learningBlock2","","","","<div style=""font-size:60px;""> </div>","null","FL","learning/Slide102.JPG","That was a bim.","","",""
"image-keyboard-response","313","308956","0.0-7.0-0.22","FL","ym6cxam2f3","1366","768","0","1","0","5ee87dba82ed8101333c7744","","null","","","","","","","learning/Slide103.JPG","null","","","","","",""
"html-keyboard-response","314","310118","0.0-7.0-1.22","FL","ym6cxam2f3","1366","768","0","1","0","5ee87dba82ed8101333c7744","","null","","","learningBlock2","","","","That was a dep.","null","","","","","",""
"html-keyboard-response","315","311132","0.0-7.0-2.22","FL","ym6cxam2f3","1366","768","0","1","0","5ee87dba82ed8101333c7744","","null","","","learningBlock2","","","","<div style=""font-size:60px;""> </div>","null","FL","learning/Slide103.JPG","That was a dep.","","",""
"image-keyboard-response","316","311309","0.0-7.0-0.23","FL","ym6cxam2f3","1366","768","0","1","0","5ee87dba82ed8101333c7744","","null","","","","","","","learning/Slide104.JPG","null","","","","","",""
"html-keyboard-response","317","312476","0.0-7.0-1.23","FL","ym6cxam2f3","1366","768","0","1","0","5ee87dba82ed8101333c7744","","null","","","learningBlock2","","","","That was a tob.","null","","","","","",""
"html-keyboard-response","318","313491","0.0-7.0-2.23","FL","ym6cxam2f3","1366","768","0","1","0","5ee87dba82ed8101333c7744","","null","","","learningBlock2","","","","<div style=""font-size:60px;""> </div>","null","FL","learning/Slide104.JPG","That was a tob.","","",""
"image-keyboard-response","319","313676","0.0-7.0-0.24","FL","ym6cxam2f3","1366","768","0","1","0","5ee87dba82ed8101333c7744","","null","","","","","","","learning/Slide105.JPG","null","","","","","",""
"html-keyboard-response","320","314842","0.0-7.0-1.24","FL","ym6cxam2f3","1366","768","0","1","0","5ee87dba82ed8101333c7744","","null","","","learningBlock2","","","","That was a dep.","null","","","","","",""
"html-keyboard-response","321","315855","0.0-7.0-2.24","FL","ym6cxam2f3","1366","768","0","1","0","5ee87dba82ed8101333c7744","","null","","","learningBlock2","","","","<div style=""font-size:60px;""> </div>","null","FL","learning/Slide105.JPG","That was a dep.","","",""
"image-keyboard-response","322","316044","0.0-7.0-0.25","FL","ym6cxam2f3","1366","768","0","1","0","5ee87dba82ed8101333c7744","","null","","","","","","","learning/Slide106.JPG","null","","","","","",""
"html-keyboard-response","323","317205","0.0-7.0-1.25","FL","ym6cxam2f3","1366","768","0","1","0","5ee87dba82ed8101333c7744","","null","","","learningBlock2","","","","That was a wug.","null","","","","","",""
"html-keyboard-response","324","318210","0.0-7.0-2.25","FL","ym6cxam2f3","1366","768","0","1","0","5ee87dba82ed8101333c7744","","null","","","learningBlock2","","","","<div style=""font-size:60px;""> </div>","null","FL","learning/Slide106.JPG","That was a wug.","","",""
"image-keyboard-response","325","318398","0.0-7.0-0.26","FL","ym6cxam2f3","1366","768","0","1","0","5ee87dba82ed8101333c7744","","null","","","","","","","learning/Slide107.JPG","null","","","","","",""
"html-keyboard-response","326","319559","0.0-7.0-1.26","FL","ym6cxam2f3","1366","768","0","1","0","5ee87dba82ed8101333c7744","","null","","","learningBlock2","","","","That was a bim.","null","","","","","",""
"html-keyboard-response","327","320563","0.0-7.0-2.26","FL","ym6cxam2f3","1366","768","0","1","0","5ee87dba82ed8101333c7744","","null","","","learningBlock2","","","","<div style=""font-size:60px;""> </div>","null","FL","learning/Slide107.JPG","That was a bim.","","",""
"image-keyboard-response","328","320751","0.0-7.0-0.27","FL","ym6cxam2f3","1366","768","0","1","0","5ee87dba82ed8101333c7744","","null","","","","","","","learning/Slide108.JPG","null","","","","","",""
"html-keyboard-response","329","321917","0.0-7.0-1.27","FL","ym6cxam2f3","1366","768","0","1","0","5ee87dba82ed8101333c7744","","null","","","learningBlock2","","","","That was a dep.","null","","","","","",""
"html-keyboard-response","330","322920","0.0-7.0-2.27","FL","ym6cxam2f3","1366","768","0","1","0","5ee87dba82ed8101333c7744","","null","","","learningBlock2","","","","<div style=""font-size:60px;""> </div>","null","FL","learning/Slide108.JPG","That was a dep.","","",""
"image-keyboard-response","331","323107","0.0-7.0-0.28","FL","ym6cxam2f3","1366","768","0","1","0","5ee87dba82ed8101333c7744","","null","","","","","","","learning/Slide109.JPG","null","","","","","",""
"html-keyboard-response","332","324278","0.0-7.0-1.28","FL","ym6cxam2f3","1366","768","0","1","0","5ee87dba82ed8101333c7744","","null","","","learningBlock2","","","","That was a wug.","null","","","","","",""
"html-keyboard-response","333","325282","0.0-7.0-2.28","FL","ym6cxam2f3","1366","768","0","1","0","5ee87dba82ed8101333c7744","","null","","","learningBlock2","","","","<div style=""font-size:60px;""> </div>","null","FL","learning/Slide109.JPG","That was a wug.","","",""
"image-keyboard-response","334","325469","0.0-7.0-0.29","FL","ym6cxam2f3","1366","768","0","1","0","5ee87dba82ed8101333c7744","","null","","","","","","","learning/Slide110.JPG","null","","","","","",""
"html-keyboard-response","335","326630","0.0-7.0-1.29","FL","ym6cxam2f3","1366","768","0","1","0","5ee87dba82ed8101333c7744","","null","","","learningBlock2","","","","That was a bim.","null","","","","","",""
"html-keyboard-response","336","327635","0.0-7.0-2.29","FL","ym6cxam2f3","1366","768","0","1","0","5ee87dba82ed8101333c7744","","null","","","learningBlock2","","","","<div style=""font-size:60px;""> </div>","null","FL","learning/Slide110.JPG","That was a bim.","","",""
"image-keyboard-response","337","327822","0.0-7.0-0.30","FL","ym6cxam2f3","1366","768","0","1","0","5ee87dba82ed8101333c7744","","null","","","","","","","learning/Slide111.JPG","null","","","","","",""
"html-keyboard-response","338","328994","0.0-7.0-1.30","FL","ym6cxam2f3","1366","768","0","1","0","5ee87dba82ed8101333c7744","","null","","","learningBlock2","","","","That was a tob.","null","","","","","",""
"html-keyboard-response","339","330009","0.0-7.0-2.30","FL","ym6cxam2f3","1366","768","0","1","0","5ee87dba82ed8101333c7744","","null","","","learningBlock2","","","","<div style=""font-size:60px;""> </div>","null","FL","learning/Slide111.JPG","That was a tob.","","",""
"image-keyboard-response","340","330196","0.0-7.0-0.31","FL","ym6cxam2f3","1366","768","0","1","0","5ee87dba82ed8101333c7744","","null","","","","","","","learning/Slide112.JPG","null","","","","","",""
"html-keyboard-response","341","331356","0.0-7.0-1.31","FL","ym6cxam2f3","1366","768","0","1","0","5ee87dba82ed8101333c7744","","null","","","learningBlock2","","","","That was a wug.","null","","","","","",""
"html-keyboard-response","342","332366","0.0-7.0-2.31","FL","ym6cxam2f3","1366","768","0","1","0","5ee87dba82ed8101333c7744","","null","","","learningBlock2","","","","<div style=""font-size:60px;""> </div>","null","FL","learning/Slide112.JPG","That was a wug.","","",""
"image-keyboard-response","343","332557","0.0-7.0-0.32","FL","ym6cxam2f3","1366","768","0","1","0","5ee87dba82ed8101333c7744","","null","","","","","","","learning/Slide113.JPG","null","","","","","",""
"html-keyboard-response","344","333715","0.0-7.0-1.32","FL","ym6cxam2f3","1366","768","0","1","0","5ee87dba82ed8101333c7744","","null","","","learningBlock2","","","","That was a tob.","null","","","","","",""
"html-keyboard-response","345","334722","0.0-7.0-2.32","FL","ym6cxam2f3","1366","768","0","1","0","5ee87dba82ed8101333c7744","","null","","","learningBlock2","","","","<div style=""font-size:60px;""> </div>","null","FL","learning/Slide113.JPG","That was a tob.","","",""
"image-keyboard-response","346","334912","0.0-7.0-0.33","FL","ym6cxam2f3","1366","768","0","1","0","5ee87dba82ed8101333c7744","","null","","","","","","","learning/Slide114.JPG","null","","","","","",""
"html-keyboard-response","347","336087","0.0-7.0-1.33","FL","ym6cxam2f3","1366","768","0","1","0","5ee87dba82ed8101333c7744","","null","","","learningBlock2","","","","That was a wug.","null","","","","","",""
"html-keyboard-response","348","337092","0.0-7.0-2.33","FL","ym6cxam2f3","1366","768","0","1","0","5ee87dba82ed8101333c7744","","null","","","learningBlock2","","","","<div style=""font-size:60px;""> </div>","null","FL","learning/Slide114.JPG","That was a wug.","","",""
"image-keyboard-response","349","337283","0.0-7.0-0.34","FL","ym6cxam2f3","1366","768","0","1","0","5ee87dba82ed8101333c7744","","null","","","","","","","learning/Slide115.JPG","null","","","","","",""
"html-keyboard-response","350","338448","0.0-7.0-1.34","FL","ym6cxam2f3","1366","768","0","1","0","5ee87dba82ed8101333c7744","","null","","","learningBlock2","","","","That was a bim.","null","","","","","",""
"html-keyboard-response","351","339453","0.0-7.0-2.34","FL","ym6cxam2f3","1366","768","0","1","0","5ee87dba82ed8101333c7744","","null","","","learningBlock2","","","","<div style=""font-size:60px;""> </div>","null","FL","learning/Slide115.JPG","That was a bim.","","",""
"image-keyboard-response","352","339640","0.0-7.0-0.35","FL","ym6cxam2f3","1366","768","0","1","0","5ee87dba82ed8101333c7744","","null","","","","","","","learning/Slide116.JPG","null","","","","","",""
"html-keyboard-response","353","340802","0.0-7.0-1.35","FL","ym6cxam2f3","1366","768","0","1","0","5ee87dba82ed8101333c7744","","null","","","learningBlock2","","","","That was a dep.","null","","","","","",""
"html-keyboard-response","354","341807","0.0-7.0-2.35","FL","ym6cxam2f3","1366","768","0","1","0","5ee87dba82ed8101333c7744","","null","","","learningBlock2","","","","<div style=""font-size:60px;""> </div>","null","FL","learning/Slide116.JPG","That was a dep.","","",""
"image-keyboard-response","355","341995","0.0-7.0-0.36","FL","ym6cxam2f3","1366","768","0","1","0","5ee87dba82ed8101333c7744","","null","","","","","","","learning/Slide117.JPG","null","","","","","",""
"html-keyboard-response","356","343164","0.0-7.0-1.36","FL","ym6cxam2f3","1366","768","0","1","0","5ee87dba82ed8101333c7744","","null","","","learningBlock2","","","","That was a tob.","null","","","","","",""
"html-keyboard-response","357","344167","0.0-7.0-2.36","FL","ym6cxam2f3","1366","768","0","1","0","5ee87dba82ed8101333c7744","","null","","","learningBlock2","","","","<div style=""font-size:60px;""> </div>","null","FL","learning/Slide117.JPG","That was a tob.","","",""
"image-keyboard-response","358","344354","0.0-7.0-0.37","FL","ym6cxam2f3","1366","768","0","1","0","5ee87dba82ed8101333c7744","","null","","","","","","","learning/Slide118.JPG","null","","","","","",""
"html-keyboard-response","359","345519","0.0-7.0-1.37","FL","ym6cxam2f3","1366","768","0","1","0","5ee87dba82ed8101333c7744","","null","","","learningBlock2","","","","That was a dep.","null","","","","","",""
"html-keyboard-response","360","346527","0.0-7.0-2.37","FL","ym6cxam2f3","1366","768","0","1","0","5ee87dba82ed8101333c7744","","null","","","learningBlock2","","","","<div style=""font-size:60px;""> </div>","null","FL","learning/Slide118.JPG","That was a dep.","","",""
"image-keyboard-response","361","346713","0.0-7.0-0.38","FL","ym6cxam2f3","1366","768","0","1","0","5ee87dba82ed8101333c7744","","null","","","","","","","learning/Slide119.JPG","null","","","","","",""
"html-keyboard-response","362","347875","0.0-7.0-1.38","FL","ym6cxam2f3","1366","768","0","1","0","5ee87dba82ed8101333c7744","","null","","","learningBlock2","","","","That was a wug.","null","","","","","",""
"html-keyboard-response","363","348880","0.0-7.0-2.38","FL","ym6cxam2f3","1366","768","0","1","0","5ee87dba82ed8101333c7744","","null","","","learningBlock2","","","","<div style=""font-size:60px;""> </div>","null","FL","learning/Slide119.JPG","That was a wug.","","",""
"image-keyboard-response","364","349067","0.0-7.0-0.39","FL","ym6cxam2f3","1366","768","0","1","0","5ee87dba82ed8101333c7744","","null","","","","","","","learning/Slide120.JPG","null","","","","","",""
"html-keyboard-response","365","350224","0.0-7.0-1.39","FL","ym6cxam2f3","1366","768","0","1","0","5ee87dba82ed8101333c7744","","null","","","learningBlock2","","","","That was a dep.","null","","","","","",""
"html-keyboard-response","366","351229","0.0-7.0-2.39","FL","ym6cxam2f3","1366","768","0","1","0","5ee87dba82ed8101333c7744","","null","","","learningBlock2","","","","<div style=""font-size:60px;""> </div>","null","FL","learning/Slide120.JPG","That was a dep.","","",""
"image-keyboard-response","367","351421","0.0-7.0-0.40","FL","ym6cxam2f3","1366","768","0","1","0","5ee87dba82ed8101333c7744","","null","","","","","","","learning/Slide121.JPG","null","","","","","",""
"html-keyboard-response","368","352586","0.0-7.0-1.40","FL","ym6cxam2f3","1366","768","0","1","0","5ee87dba82ed8101333c7744","","null","","","learningBlock2","","","","That was a bim.","null","","","","","",""
"html-keyboard-response","369","353602","0.0-7.0-2.40","FL","ym6cxam2f3","1366","768","0","1","0","5ee87dba82ed8101333c7744","","null","","","learningBlock2","","","","<div style=""font-size:60px;""> </div>","null","FL","learning/Slide121.JPG","That was a bim.","","",""
"image-keyboard-response","370","353791","0.0-7.0-0.41","FL","ym6cxam2f3","1366","768","0","1","0","5ee87dba82ed8101333c7744","","null","","","","","","","learning/Slide122.JPG","null","","","","","",""
"html-keyboard-response","371","354955","0.0-7.0-1.41","FL","ym6cxam2f3","1366","768","0","1","0","5ee87dba82ed8101333c7744","","null","","","learningBlock2","","","","That was a wug.","null","","","","","",""
"html-keyboard-response","372","355970","0.0-7.0-2.41","FL","ym6cxam2f3","1366","768","0","1","0","5ee87dba82ed8101333c7744","","null","","","learningBlock2","","","","<div style=""font-size:60px;""> </div>","null","FL","learning/Slide122.JPG","That was a wug.","","",""
"image-keyboard-response","373","356159","0.0-7.0-0.42","FL","ym6cxam2f3","1366","768","0","1","0","5ee87dba82ed8101333c7744","","null","","","","","","","learning/Slide123.JPG","null","","","","","",""
"html-keyboard-response","374","357327","0.0-7.0-1.42","FL","ym6cxam2f3","1366","768","0","1","0","5ee87dba82ed8101333c7744","","null","","","learningBlock2","","","","That was a bim.","null","","","","","",""
"html-keyboard-response","375","358344","0.0-7.0-2.42","FL","ym6cxam2f3","1366","768","0","1","0","5ee87dba82ed8101333c7744","","null","","","learningBlock2","","","","<div style=""font-size:60px;""> </div>","null","FL","learning/Slide123.JPG","That was a bim.","","",""
"image-keyboard-response","376","358536","0.0-7.0-0.43","FL","ym6cxam2f3","1366","768","0","1","0","5ee87dba82ed8101333c7744","","null","","","","","","","learning/Slide124.JPG","null","","","","","",""
"html-keyboard-response","377","359698","0.0-7.0-1.43","FL","ym6cxam2f3","1366","768","0","1","0","5ee87dba82ed8101333c7744","","null","","","learningBlock2","","","","That was a tob.","null","","","","","",""
"html-keyboard-response","378","360714","0.0-7.0-2.43","FL","ym6cxam2f3","1366","768","0","1","0","5ee87dba82ed8101333c7744","","null","","","learningBlock2","","","","<div style=""font-size:60px;""> </div>","null","FL","learning/Slide124.JPG","That was a tob.","","",""
"image-keyboard-response","379","360901","0.0-7.0-0.44","FL","ym6cxam2f3","1366","768","0","1","0","5ee87dba82ed8101333c7744","","null","","","","","","","learning/Slide125.JPG","null","","","","","",""
"html-keyboard-response","380","362059","0.0-7.0-1.44","FL","ym6cxam2f3","1366","768","0","1","0","5ee87dba82ed8101333c7744","","null","","","learningBlock2","","","","That was a bim.","null","","","","","",""
"html-keyboard-response","381","363062","0.0-7.0-2.44","FL","ym6cxam2f3","1366","768","0","1","0","5ee87dba82ed8101333c7744","","null","","","learningBlock2","","","","<div style=""font-size:60px;""> </div>","null","FL","learning/Slide125.JPG","That was a bim.","","",""
"image-keyboard-response","382","363250","0.0-7.0-0.45","FL","ym6cxam2f3","1366","768","0","1","0","5ee87dba82ed8101333c7744","","null","","","","","","","learning/Slide126.JPG","null","","","","","",""
"html-keyboard-response","383","364417","0.0-7.0-1.45","FL","ym6cxam2f3","1366","768","0","1","0","5ee87dba82ed8101333c7744","","null","","","learningBlock2","","","","That was a tob.","null","","","","","",""
"html-keyboard-response","384","365429","0.0-7.0-2.45","FL","ym6cxam2f3","1366","768","0","1","0","5ee87dba82ed8101333c7744","","null","","","learningBlock2","","","","<div style=""font-size:60px;""> </div>","null","FL","learning/Slide126.JPG","That was a tob.","","",""
"image-keyboard-response","385","365623","0.0-7.0-0.46","FL","ym6cxam2f3","1366","768","0","1","0","5ee87dba82ed8101333c7744","","null","","","","","","","learning/Slide127.JPG","null","","","","","",""
"html-keyboard-response","386","366788","0.0-7.0-1.46","FL","ym6cxam2f3","1366","768","0","1","0","5ee87dba82ed8101333c7744","","null","","","learningBlock2","","","","That was a dep.","null","","","","","",""
"html-keyboard-response","387","367802","0.0-7.0-2.46","FL","ym6cxam2f3","1366","768","0","1","0","5ee87dba82ed8101333c7744","","null","","","learningBlock2","","","","<div style=""font-size:60px;""> </div>","null","FL","learning/Slide127.JPG","That was a dep.","","",""
"image-keyboard-response","388","367989","0.0-7.0-0.47","FL","ym6cxam2f3","1366","768","0","1","0","5ee87dba82ed8101333c7744","","null","","","","","","","learning/Slide128.JPG","null","","","","","",""
"html-keyboard-response","389","369158","0.0-7.0-1.47","FL","ym6cxam2f3","1366","768","0","1","0","5ee87dba82ed8101333c7744","","null","","","learningBlock2","","","","That was a wug.","null","","","","","",""
"html-keyboard-response","390","370170","0.0-7.0-2.47","FL","ym6cxam2f3","1366","768","0","1","0","5ee87dba82ed8101333c7744","","null","","","learningBlock2","","","","<div style=""font-size:60px;""> </div>","null","FL","learning/Slide128.JPG","That was a wug.","","",""
"image-keyboard-response","391","370361","0.0-7.0-0.48","FL","ym6cxam2f3","1366","768","0","1","0","5ee87dba82ed8101333c7744","","null","","","","","","","learning/Slide129.JPG","null","","","","","",""
"html-keyboard-response","392","371521","0.0-7.0-1.48","FL","ym6cxam2f3","1366","768","0","1","0","5ee87dba82ed8101333c7744","","null","","","learningBlock2","","","","That was a tob.","null","","","","","",""
"html-keyboard-response","393","372536","0.0-7.0-2.48","FL","ym6cxam2f3","1366","768","0","1","0","5ee87dba82ed8101333c7744","","null","","","learningBlock2","","","","<div style=""font-size:60px;""> </div>","null","FL","learning/Slide129.JPG","That was a tob.","","",""
"image-keyboard-response","394","372726","0.0-7.0-0.49","FL","ym6cxam2f3","1366","768","0","1","0","5ee87dba82ed8101333c7744","","null","","","","","","","learning/Slide130.JPG","null","","","","","",""
"html-keyboard-response","395","373892","0.0-7.0-1.49","FL","ym6cxam2f3","1366","768","0","1","0","5ee87dba82ed8101333c7744","","null","","","learningBlock2","","","","That was a wug.","null","","","","","",""
"html-keyboard-response","396","374896","0.0-7.0-2.49","FL","ym6cxam2f3","1366","768","0","1","0","5ee87dba82ed8101333c7744","","null","","","learningBlock2","","","","<div style=""font-size:60px;""> </div>","null","FL","learning/Slide130.JPG","That was a wug.","","",""
"image-keyboard-response","397","375086","0.0-7.0-0.50","FL","ym6cxam2f3","1366","768","0","1","0","5ee87dba82ed8101333c7744","","null","","","","","","","learning/Slide131.JPG","null","","","","","",""
"html-keyboard-response","398","376244","0.0-7.0-1.50","FL","ym6cxam2f3","1366","768","0","1","0","5ee87dba82ed8101333c7744","","null","","","learningBlock2","","","","That was a bim.","null","","","","","",""
"html-keyboard-response","399","377260","0.0-7.0-2.50","FL","ym6cxam2f3","1366","768","0","1","0","5ee87dba82ed8101333c7744","","null","","","learningBlock2","","","","<div style=""font-size:60px;""> </div>","null","FL","learning/Slide131.JPG","That was a bim.","","",""
"image-keyboard-response","400","377445","0.0-7.0-0.51","FL","ym6cxam2f3","1366","768","0","1","0","5ee87dba82ed8101333c7744","","null","","","","","","","learning/Slide132.JPG","null","","","","","",""
"html-keyboard-response","401","378607","0.0-7.0-1.51","FL","ym6cxam2f3","1366","768","0","1","0","5ee87dba82ed8101333c7744","","null","","","learningBlock2","","","","That was a dep.","null","","","","","",""
"html-keyboard-response","402","379622","0.0-7.0-2.51","FL","ym6cxam2f3","1366","768","0","1","0","5ee87dba82ed8101333c7744","","null","","","learningBlock2","","","","<div style=""font-size:60px;""> </div>","null","FL","learning/Slide132.JPG","That was a dep.","","",""
"image-keyboard-response","403","379810","0.0-7.0-0.52","FL","ym6cxam2f3","1366","768","0","1","0","5ee87dba82ed8101333c7744","","null","","","","","","","learning/Slide133.JPG","null","","","","","",""
"html-keyboard-response","404","380979","0.0-7.0-1.52","FL","ym6cxam2f3","1366","768","0","1","0","5ee87dba82ed8101333c7744","","null","","","learningBlock2","","","","That was a tob.","null","","","","","",""
"html-keyboard-response","405","381994","0.0-7.0-2.52","FL","ym6cxam2f3","1366","768","0","1","0","5ee87dba82ed8101333c7744","","null","","","learningBlock2","","","","<div style=""font-size:60px;""> </div>","null","FL","learning/Slide133.JPG","That was a tob.","","",""
"image-keyboard-response","406","382181","0.0-7.0-0.53","FL","ym6cxam2f3","1366","768","0","1","0","5ee87dba82ed8101333c7744","","null","","","","","","","learning/Slide134.JPG","null","","","","","",""
"html-keyboard-response","407","383349","0.0-7.0-1.53","FL","ym6cxam2f3","1366","768","0","1","0","5ee87dba82ed8101333c7744","","null","","","learningBlock2","","","","That was a dep.","null","","","","","",""
"html-keyboard-response","408","384355","0.0-7.0-2.53","FL","ym6cxam2f3","1366","768","0","1","0","5ee87dba82ed8101333c7744","","null","","","learningBlock2","","","","<div style=""font-size:60px;""> </div>","null","FL","learning/Slide134.JPG","That was a dep.","","",""
"image-keyboard-response","409","384544","0.0-7.0-0.54","FL","ym6cxam2f3","1366","768","0","1","0","5ee87dba82ed8101333c7744","","null","","","","","","","learning/Slide135.JPG","null","","","","","",""
"html-keyboard-response","410","385712","0.0-7.0-1.54","FL","ym6cxam2f3","1366","768","0","1","0","5ee87dba82ed8101333c7744","","null","","","learningBlock2","","","","That was a tob.","null","","","","","",""
"html-keyboard-response","411","386726","0.0-7.0-2.54","FL","ym6cxam2f3","1366","768","0","1","0","5ee87dba82ed8101333c7744","","null","","","learningBlock2","","","","<div style=""font-size:60px;""> </div>","null","FL","learning/Slide135.JPG","That was a tob.","","",""
"image-keyboard-response","412","386915","0.0-7.0-0.55","FL","ym6cxam2f3","1366","768","0","1","0","5ee87dba82ed8101333c7744","","null","","","","","","","learning/Slide136.JPG","null","","","","","",""
"html-keyboard-response","413","388083","0.0-7.0-1.55","FL","ym6cxam2f3","1366","768","0","1","0","5ee87dba82ed8101333c7744","","null","","","learningBlock2","","","","That was a wug.","null","","","","","",""
"html-keyboard-response","414","389088","0.0-7.0-2.55","FL","ym6cxam2f3","1366","768","0","1","0","5ee87dba82ed8101333c7744","","null","","","learningBlock2","","","","<div style=""font-size:60px;""> </div>","null","FL","learning/Slide136.JPG","That was a wug.","","",""
"image-keyboard-response","415","389276","0.0-7.0-0.56","FL","ym6cxam2f3","1366","768","0","1","0","5ee87dba82ed8101333c7744","","null","","","","","","","learning/Slide137.JPG","null","","","","","",""
"html-keyboard-response","416","390435","0.0-7.0-1.56","FL","ym6cxam2f3","1366","768","0","1","0","5ee87dba82ed8101333c7744","","null","","","learningBlock2","","","","That was a tob.","null","","","","","",""
"html-keyboard-response","417","391439","0.0-7.0-2.56","FL","ym6cxam2f3","1366","768","0","1","0","5ee87dba82ed8101333c7744","","null","","","learningBlock2","","","","<div style=""font-size:60px;""> </div>","null","FL","learning/Slide137.JPG","That was a tob.","","",""
"image-keyboard-response","418","391631","0.0-7.0-0.57","FL","ym6cxam2f3","1366","768","0","1","0","5ee87dba82ed8101333c7744","","null","","","","","","","learning/Slide138.JPG","null","","","","","",""
"html-keyboard-response","419","392793","0.0-7.0-1.57","FL","ym6cxam2f3","1366","768","0","1","0","5ee87dba82ed8101333c7744","","null","","","learningBlock2","","","","That was a bim.","null","","","","","",""
"html-keyboard-response","420","393796","0.0-7.0-2.57","FL","ym6cxam2f3","1366","768","0","1","0","5ee87dba82ed8101333c7744","","null","","","learningBlock2","","","","<div style=""font-size:60px;""> </div>","null","FL","learning/Slide138.JPG","That was a bim.","","",""
"image-keyboard-response","421","393986","0.0-7.0-0.58","FL","ym6cxam2f3","1366","768","0","1","0","5ee87dba82ed8101333c7744","","null","","","","","","","learning/Slide139.JPG","null","","","","","",""
"html-keyboard-response","422","395152","0.0-7.0-1.58","FL","ym6cxam2f3","1366","768","0","1","0","5ee87dba82ed8101333c7744","","null","","","learningBlock2","","","","That was a wug.","null","","","","","",""
"html-keyboard-response","423","396160","0.0-7.0-2.58","FL","ym6cxam2f3","1366","768","0","1","0","5ee87dba82ed8101333c7744","","null","","","learningBlock2","","","","<div style=""font-size:60px;""> </div>","null","FL","learning/Slide139.JPG","That was a wug.","","",""
"image-keyboard-response","424","396346","0.0-7.0-0.59","FL","ym6cxam2f3","1366","768","0","1","0","5ee87dba82ed8101333c7744","","null","","","","","","","learning/Slide140.JPG","null","","","","","",""
"html-keyboard-response","425","397515","0.0-7.0-1.59","FL","ym6cxam2f3","1366","768","0","1","0","5ee87dba82ed8101333c7744","","null","","","learningBlock2","","","","That was a dep.","null","","","","","",""
"html-keyboard-response","426","398521","0.0-7.0-2.59","FL","ym6cxam2f3","1366","768","0","1","0","5ee87dba82ed8101333c7744","","null","","","learningBlock2","","","","<div style=""font-size:60px;""> </div>","null","FL","learning/Slide140.JPG","That was a dep.","","",""
"image-keyboard-response","427","398709","0.0-7.0-0.60","FL","ym6cxam2f3","1366","768","0","1","0","5ee87dba82ed8101333c7744","","null","","","","","","","learning/Slide141.JPG","null","","","","","",""
"html-keyboard-response","428","399880","0.0-7.0-1.60","FL","ym6cxam2f3","1366","768","0","1","0","5ee87dba82ed8101333c7744","","null","","","learningBlock2","","","","That was a tob.","null","","","","","",""
"html-keyboard-response","429","400883","0.0-7.0-2.60","FL","ym6cxam2f3","1366","768","0","1","0","5ee87dba82ed8101333c7744","","null","","","learningBlock2","","","","<div style=""font-size:60px;""> </div>","null","FL","learning/Slide141.JPG","That was a tob.","","",""
"image-keyboard-response","430","401069","0.0-7.0-0.61","FL","ym6cxam2f3","1366","768","0","1","0","5ee87dba82ed8101333c7744","","null","","","","","","","learning/Slide142.JPG","null","","","","","",""
"html-keyboard-response","431","402233","0.0-7.0-1.61","FL","ym6cxam2f3","1366","768","0","1","0","5ee87dba82ed8101333c7744","","null","","","learningBlock2","","","","That was a wug.","null","","","","","",""
"html-keyboard-response","432","403237","0.0-7.0-2.61","FL","ym6cxam2f3","1366","768","0","1","0","5ee87dba82ed8101333c7744","","null","","","learningBlock2","","","","<div style=""font-size:60px;""> </div>","null","FL","learning/Slide142.JPG","That was a wug.","","",""
"image-keyboard-response","433","403426","0.0-7.0-0.62","FL","ym6cxam2f3","1366","768","0","1","0","5ee87dba82ed8101333c7744","","null","","","","","","","learning/Slide143.JPG","null","","","","","",""
"html-keyboard-response","434","404587","0.0-7.0-1.62","FL","ym6cxam2f3","1366","768","0","1","0","5ee87dba82ed8101333c7744","","null","","","learningBlock2","","","","That was a bim.","null","","","","","",""
"html-keyboard-response","435","405606","0.0-7.0-2.62","FL","ym6cxam2f3","1366","768","0","1","0","5ee87dba82ed8101333c7744","","null","","","learningBlock2","","","","<div style=""font-size:60px;""> </div>","null","FL","learning/Slide143.JPG","That was a bim.","","",""
"image-keyboard-response","436","405797","0.0-7.0-0.63","FL","ym6cxam2f3","1366","768","0","1","0","5ee87dba82ed8101333c7744","","null","","","","","","","learning/Slide144.JPG","null","","","","","",""
"html-keyboard-response","437","406966","0.0-7.0-1.63","FL","ym6cxam2f3","1366","768","0","1","0","5ee87dba82ed8101333c7744","","null","","","learningBlock2","","","","That was a dep.","null","","","","","",""
