"trial_type","trial_index","time_elapsed","internal_node_id","condition","subject","screen_width","screen_height","attention","distraction","conscientious","prolificID","success","rt","url","view_history","test_part","final_height_px","final_width_px","scale_factor","stimulus","key_press","learningType","presentedImage","presentedLabel","button_pressed","response","responses"
"pavlovia","0","13","0.0-0.0","FL","kfhtlqkth4","1920","1080","0","1","0","5edf8803c008532459792282","","","","","","","","","","","","","","","",""
"fullscreen","1","16944","0.0-1.0","FL","kfhtlqkth4","1920","1080","0","1","0","5edf8803c008532459792282","true","","","","","","","","","","","","","","",""
"external-html","2","61905","0.0-2.0-0.0","FL","kfhtlqkth4","1920","1080","0","1","0","5edf8803c008532459792282","","44646.82499994524","text/information_english.html","","","","","","","","","","","","",""
"external-html","3","74372","0.0-2.0-1.0","FL","kfhtlqkth4","1920","1080","0","1","0","5edf8803c008532459792282","","12160.819999990053","text/consent_english.html","","","","","","","","","","","","",""
"instructions","4","102977","0.0-3.0","FL","kfhtlqkth4","1920","1080","0","1","0","5edf8803c008532459792282","","NA","","[{""page_index"":0,""viewing_time"":3249.710000003688},{""page_index"":1,""viewing_time"":25354.01000001002}]","instructions","","","","","","","","","","",""
"resize","5","134277","0.0-4.0","FL","kfhtlqkth4","1920","1080","0","1","0","5edf8803c008532459792282","","","","","","","278","1.765079365079365","","","","","","","",""
"image-keyboard-response","6","134455","0.0-5.0-0.0","FL","kfhtlqkth4","1920","1080","0","1","0","5edf8803c008532459792282","","null","","","","","","","learning/Slide1.JPG","null","","","","","",""
"html-keyboard-response","7","135606","0.0-5.0-1.0","FL","kfhtlqkth4","1920","1080","0","1","0","5edf8803c008532459792282","","null","","","learningBlock1","","","","That was a tob.","null","","","","","",""
"html-keyboard-response","8","136609","0.0-5.0-2.0","FL","kfhtlqkth4","1920","1080","0","1","0","5edf8803c008532459792282","","null","","","learningBlock1","","","","<div style=""font-size:60px;""> </div>","null","FL","learning/Slide1.JPG","That was a tob.","","",""
"image-keyboard-response","9","136785","0.0-5.0-0.1","FL","kfhtlqkth4","1920","1080","0","1","0","5edf8803c008532459792282","","null","","","","","","","learning/Slide2.JPG","null","","","","","",""
"html-keyboard-response","10","137936","0.0-5.0-1.1","FL","kfhtlqkth4","1920","1080","0","1","0","5edf8803c008532459792282","","null","","","learningBlock1","","","","That was a wug.","null","","","","","",""
"html-keyboard-response","11","138938","0.0-5.0-2.1","FL","kfhtlqkth4","1920","1080","0","1","0","5edf8803c008532459792282","","null","","","learningBlock1","","","","<div style=""font-size:60px;""> </div>","null","FL","learning/Slide2.JPG","That was a wug.","","",""
"image-keyboard-response","12","139114","0.0-5.0-0.2","FL","kfhtlqkth4","1920","1080","0","1","0","5edf8803c008532459792282","","null","","","","","","","learning/Slide3.JPG","null","","","","","",""
"html-keyboard-response","13","140265","0.0-5.0-1.2","FL","kfhtlqkth4","1920","1080","0","1","0","5edf8803c008532459792282","","null","","","learningBlock1","","","","That was a bim.","null","","","","","",""
"html-keyboard-response","14","141266","0.0-5.0-2.2","FL","kfhtlqkth4","1920","1080","0","1","0","5edf8803c008532459792282","","null","","","learningBlock1","","","","<div style=""font-size:60px;""> </div>","null","FL","learning/Slide3.JPG","That was a bim.","","",""
"image-keyboard-response","15","141442","0.0-5.0-0.3","FL","kfhtlqkth4","1920","1080","0","1","0","5edf8803c008532459792282","","null","","","","","","","learning/Slide4.JPG","null","","","","","",""
"html-keyboard-response","16","142593","0.0-5.0-1.3","FL","kfhtlqkth4","1920","1080","0","1","0","5edf8803c008532459792282","","null","","","learningBlock1","","","","That was a dep.","null","","","","","",""
"html-keyboard-response","17","143594","0.0-5.0-2.3","FL","kfhtlqkth4","1920","1080","0","1","0","5edf8803c008532459792282","","null","","","learningBlock1","","","","<div style=""font-size:60px;""> </div>","null","FL","learning/Slide4.JPG","That was a dep.","","",""
"image-keyboard-response","18","143770","0.0-5.0-0.4","FL","kfhtlqkth4","1920","1080","0","1","0","5edf8803c008532459792282","","null","","","","","","","learning/Slide5.JPG","null","","","","","",""
"html-keyboard-response","19","144922","0.0-5.0-1.4","FL","kfhtlqkth4","1920","1080","0","1","0","5edf8803c008532459792282","","null","","","learningBlock1","","","","That was a wug.","null","","","","","",""
"html-keyboard-response","20","145923","0.0-5.0-2.4","FL","kfhtlqkth4","1920","1080","0","1","0","5edf8803c008532459792282","","null","","","learningBlock1","","","","<div style=""font-size:60px;""> </div>","null","FL","learning/Slide5.JPG","That was a wug.","","",""
"image-keyboard-response","21","146099","0.0-5.0-0.5","FL","kfhtlqkth4","1920","1080","0","1","0","5edf8803c008532459792282","","null","","","","","","","learning/Slide6.JPG","null","","","","","",""
"html-keyboard-response","22","147250","0.0-5.0-1.5","FL","kfhtlqkth4","1920","1080","0","1","0","5edf8803c008532459792282","","null","","","learningBlock1","","","","That was a dep.","null","","","","","",""
"html-keyboard-response","23","148251","0.0-5.0-2.5","FL","kfhtlqkth4","1920","1080","0","1","0","5edf8803c008532459792282","","null","","","learningBlock1","","","","<div style=""font-size:60px;""> </div>","null","FL","learning/Slide6.JPG","That was a dep.","","",""
"image-keyboard-response","24","148428","0.0-5.0-0.6","FL","kfhtlqkth4","1920","1080","0","1","0","5edf8803c008532459792282","","null","","","","","","","learning/Slide7.JPG","null","","","","","",""
"html-keyboard-response","25","149579","0.0-5.0-1.6","FL","kfhtlqkth4","1920","1080","0","1","0","5edf8803c008532459792282","","null","","","learningBlock1","","","","That was a wug.","null","","","","","",""
"html-keyboard-response","26","150581","0.0-5.0-2.6","FL","kfhtlqkth4","1920","1080","0","1","0","5edf8803c008532459792282","","null","","","learningBlock1","","","","<div style=""font-size:60px;""> </div>","null","FL","learning/Slide7.JPG","That was a wug.","","",""
"image-keyboard-response","27","150757","0.0-5.0-0.7","FL","kfhtlqkth4","1920","1080","0","1","0","5edf8803c008532459792282","","null","","","","","","","learning/Slide8.JPG","null","","","","","",""
"html-keyboard-response","28","151910","0.0-5.0-1.7","FL","kfhtlqkth4","1920","1080","0","1","0","5edf8803c008532459792282","","null","","","learningBlock1","","","","That was a bim.","null","","","","","",""
"html-keyboard-response","29","152911","0.0-5.0-2.7","FL","kfhtlqkth4","1920","1080","0","1","0","5edf8803c008532459792282","","null","","","learningBlock1","","","","<div style=""font-size:60px;""> </div>","null","FL","learning/Slide8.JPG","That was a bim.","","",""
"image-keyboard-response","30","153087","0.0-5.0-0.8","FL","kfhtlqkth4","1920","1080","0","1","0","5edf8803c008532459792282","","null","","","","","","","learning/Slide9.JPG","null","","","","","",""
"html-keyboard-response","31","154239","0.0-5.0-1.8","FL","kfhtlqkth4","1920","1080","0","1","0","5edf8803c008532459792282","","null","","","learningBlock1","","","","That was a wug.","null","","","","","",""
"html-keyboard-response","32","155241","0.0-5.0-2.8","FL","kfhtlqkth4","1920","1080","0","1","0","5edf8803c008532459792282","","null","","","learningBlock1","","","","<div style=""font-size:60px;""> </div>","null","FL","learning/Slide9.JPG","That was a wug.","","",""
"image-keyboard-response","33","155417","0.0-5.0-0.9","FL","kfhtlqkth4","1920","1080","0","1","0","5edf8803c008532459792282","","null","","","","","","","learning/Slide10.JPG","null","","","","","",""
"html-keyboard-response","34","156569","0.0-5.0-1.9","FL","kfhtlqkth4","1920","1080","0","1","0","5edf8803c008532459792282","","null","","","learningBlock1","","","","That was a dep.","null","","","","","",""
"html-keyboard-response","35","157571","0.0-5.0-2.9","FL","kfhtlqkth4","1920","1080","0","1","0","5edf8803c008532459792282","","null","","","learningBlock1","","","","<div style=""font-size:60px;""> </div>","null","FL","learning/Slide10.JPG","That was a dep.","","",""
"image-keyboard-response","36","157747","0.0-5.0-0.10","FL","kfhtlqkth4","1920","1080","0","1","0","5edf8803c008532459792282","","null","","","","","","","learning/Slide11.JPG","null","","","","","",""
"html-keyboard-response","37","158900","0.0-5.0-1.10","FL","kfhtlqkth4","1920","1080","0","1","0","5edf8803c008532459792282","","null","","","learningBlock1","","","","That was a tob.","null","","","","","",""
"html-keyboard-response","38","159900","0.0-5.0-2.10","FL","kfhtlqkth4","1920","1080","0","1","0","5edf8803c008532459792282","","null","","","learningBlock1","","","","<div style=""font-size:60px;""> </div>","null","FL","learning/Slide11.JPG","That was a tob.","","",""
"image-keyboard-response","39","160076","0.0-5.0-0.11","FL","kfhtlqkth4","1920","1080","0","1","0","5edf8803c008532459792282","","null","","","","","","","learning/Slide12.JPG","null","","","","","",""
"html-keyboard-response","40","161228","0.0-5.0-1.11","FL","kfhtlqkth4","1920","1080","0","1","0","5edf8803c008532459792282","","null","","","learningBlock1","","","","That was a dep.","null","","","","","",""
"html-keyboard-response","41","162230","0.0-5.0-2.11","FL","kfhtlqkth4","1920","1080","0","1","0","5edf8803c008532459792282","","null","","","learningBlock1","","","","<div style=""font-size:60px;""> </div>","null","FL","learning/Slide12.JPG","That was a dep.","","",""
"image-keyboard-response","42","162406","0.0-5.0-0.12","FL","kfhtlqkth4","1920","1080","0","1","0","5edf8803c008532459792282","","null","","","","","","","learning/Slide13.JPG","null","","","","","",""
"html-keyboard-response","43","163558","0.0-5.0-1.12","FL","kfhtlqkth4","1920","1080","0","1","0","5edf8803c008532459792282","","null","","","learningBlock1","","","","That was a bim.","null","","","","","",""
"html-keyboard-response","44","164559","0.0-5.0-2.12","FL","kfhtlqkth4","1920","1080","0","1","0","5edf8803c008532459792282","","null","","","learningBlock1","","","","<div style=""font-size:60px;""> </div>","null","FL","learning/Slide13.JPG","That was a bim.","","",""
"image-keyboard-response","45","164735","0.0-5.0-0.13","FL","kfhtlqkth4","1920","1080","0","1","0","5edf8803c008532459792282","","null","","","","","","","learning/Slide14.JPG","null","","","","","",""
"html-keyboard-response","46","165887","0.0-5.0-1.13","FL","kfhtlqkth4","1920","1080","0","1","0","5edf8803c008532459792282","","null","","","learningBlock1","","","","That was a wug.","null","","","","","",""
"html-keyboard-response","47","166888","0.0-5.0-2.13","FL","kfhtlqkth4","1920","1080","0","1","0","5edf8803c008532459792282","","null","","","learningBlock1","","","","<div style=""font-size:60px;""> </div>","null","FL","learning/Slide14.JPG","That was a wug.","","",""
"image-keyboard-response","48","167064","0.0-5.0-0.14","FL","kfhtlqkth4","1920","1080","0","1","0","5edf8803c008532459792282","","null","","","","","","","learning/Slide15.JPG","null","","","","","",""
"html-keyboard-response","49","168217","0.0-5.0-1.14","FL","kfhtlqkth4","1920","1080","0","1","0","5edf8803c008532459792282","","null","","","learningBlock1","","","","That was a tob.","null","","","","","",""
"html-keyboard-response","50","169218","0.0-5.0-2.14","FL","kfhtlqkth4","1920","1080","0","1","0","5edf8803c008532459792282","","null","","","learningBlock1","","","","<div style=""font-size:60px;""> </div>","null","FL","learning/Slide15.JPG","That was a tob.","","",""
"image-keyboard-response","51","169394","0.0-5.0-0.15","FL","kfhtlqkth4","1920","1080","0","1","0","5edf8803c008532459792282","","null","","","","","","","learning/Slide16.JPG","null","","","","","",""
"html-keyboard-response","52","170545","0.0-5.0-1.15","FL","kfhtlqkth4","1920","1080","0","1","0","5edf8803c008532459792282","","null","","","learningBlock1","","","","That was a dep.","null","","","","","",""
"html-keyboard-response","53","171547","0.0-5.0-2.15","FL","kfhtlqkth4","1920","1080","0","1","0","5edf8803c008532459792282","","null","","","learningBlock1","","","","<div style=""font-size:60px;""> </div>","null","FL","learning/Slide16.JPG","That was a dep.","","",""
"image-keyboard-response","54","171723","0.0-5.0-0.16","FL","kfhtlqkth4","1920","1080","0","1","0","5edf8803c008532459792282","","null","","","","","","","learning/Slide17.JPG","null","","","","","",""
"html-keyboard-response","55","172876","0.0-5.0-1.16","FL","kfhtlqkth4","1920","1080","0","1","0","5edf8803c008532459792282","","null","","","learningBlock1","","","","That was a bim.","null","","","","","",""
"html-keyboard-response","56","173878","0.0-5.0-2.16","FL","kfhtlqkth4","1920","1080","0","1","0","5edf8803c008532459792282","","null","","","learningBlock1","","","","<div style=""font-size:60px;""> </div>","null","FL","learning/Slide17.JPG","That was a bim.","","",""
"image-keyboard-response","57","174054","0.0-5.0-0.17","FL","kfhtlqkth4","1920","1080","0","1","0","5edf8803c008532459792282","","null","","","","","","","learning/Slide18.JPG","null","","","","","",""
"html-keyboard-response","58","175204","0.0-5.0-1.17","FL","kfhtlqkth4","1920","1080","0","1","0","5edf8803c008532459792282","","null","","","learningBlock1","","","","That was a tob.","null","","","","","",""
"html-keyboard-response","59","176206","0.0-5.0-2.17","FL","kfhtlqkth4","1920","1080","0","1","0","5edf8803c008532459792282","","null","","","learningBlock1","","","","<div style=""font-size:60px;""> </div>","null","FL","learning/Slide18.JPG","That was a tob.","","",""
"image-keyboard-response","60","176383","0.0-5.0-0.18","FL","kfhtlqkth4","1920","1080","0","1","0","5edf8803c008532459792282","","null","","","","","","","learning/Slide19.JPG","null","","","","","",""
"html-keyboard-response","61","177535","0.0-5.0-1.18","FL","kfhtlqkth4","1920","1080","0","1","0","5edf8803c008532459792282","","null","","","learningBlock1","","","","That was a wug.","null","","","","","",""
"html-keyboard-response","62","178537","0.0-5.0-2.18","FL","kfhtlqkth4","1920","1080","0","1","0","5edf8803c008532459792282","","null","","","learningBlock1","","","","<div style=""font-size:60px;""> </div>","null","FL","learning/Slide19.JPG","That was a wug.","","",""
"image-keyboard-response","63","178713","0.0-5.0-0.19","FL","kfhtlqkth4","1920","1080","0","1","0","5edf8803c008532459792282","","null","","","","","","","learning/Slide20.JPG","null","","","","","",""
"html-keyboard-response","64","179864","0.0-5.0-1.19","FL","kfhtlqkth4","1920","1080","0","1","0","5edf8803c008532459792282","","null","","","learningBlock1","","","","That was a bim.","null","","","","","",""
"html-keyboard-response","65","180865","0.0-5.0-2.19","FL","kfhtlqkth4","1920","1080","0","1","0","5edf8803c008532459792282","","null","","","learningBlock1","","","","<div style=""font-size:60px;""> </div>","null","FL","learning/Slide20.JPG","That was a bim.","","",""
"image-keyboard-response","66","181041","0.0-5.0-0.20","FL","kfhtlqkth4","1920","1080","0","1","0","5edf8803c008532459792282","","null","","","","","","","learning/Slide21.JPG","null","","","","","",""
"html-keyboard-response","67","182192","0.0-5.0-1.20","FL","kfhtlqkth4","1920","1080","0","1","0","5edf8803c008532459792282","","null","","","learningBlock1","","","","That was a dep.","null","","","","","",""
"html-keyboard-response","68","183194","0.0-5.0-2.20","FL","kfhtlqkth4","1920","1080","0","1","0","5edf8803c008532459792282","","null","","","learningBlock1","","","","<div style=""font-size:60px;""> </div>","null","FL","learning/Slide21.JPG","That was a dep.","","",""
"image-keyboard-response","69","183371","0.0-5.0-0.21","FL","kfhtlqkth4","1920","1080","0","1","0","5edf8803c008532459792282","","null","","","","","","","learning/Slide22.JPG","null","","","","","",""
"html-keyboard-response","70","184523","0.0-5.0-1.21","FL","kfhtlqkth4","1920","1080","0","1","0","5edf8803c008532459792282","","null","","","learningBlock1","","","","That was a bim.","null","","","","","",""
"html-keyboard-response","71","185524","0.0-5.0-2.21","FL","kfhtlqkth4","1920","1080","0","1","0","5edf8803c008532459792282","","null","","","learningBlock1","","","","<div style=""font-size:60px;""> </div>","null","FL","learning/Slide22.JPG","That was a bim.","","",""
"image-keyboard-response","72","185701","0.0-5.0-0.22","FL","kfhtlqkth4","1920","1080","0","1","0","5edf8803c008532459792282","","null","","","","","","","learning/Slide23.JPG","null","","","","","",""
"html-keyboard-response","73","186853","0.0-5.0-1.22","FL","kfhtlqkth4","1920","1080","0","1","0","5edf8803c008532459792282","","null","","","learningBlock1","","","","That was a tob.","null","","","","","",""
"html-keyboard-response","74","187854","0.0-5.0-2.22","FL","kfhtlqkth4","1920","1080","0","1","0","5edf8803c008532459792282","","null","","","learningBlock1","","","","<div style=""font-size:60px;""> </div>","null","FL","learning/Slide23.JPG","That was a tob.","","",""
"image-keyboard-response","75","188030","0.0-5.0-0.23","FL","kfhtlqkth4","1920","1080","0","1","0","5edf8803c008532459792282","","null","","","","","","","learning/Slide24.JPG","null","","","","","",""
"html-keyboard-response","76","189182","0.0-5.0-1.23","FL","kfhtlqkth4","1920","1080","0","1","0","5edf8803c008532459792282","","null","","","learningBlock1","","","","That was a wug.","null","","","","","",""
"html-keyboard-response","77","190183","0.0-5.0-2.23","FL","kfhtlqkth4","1920","1080","0","1","0","5edf8803c008532459792282","","null","","","learningBlock1","","","","<div style=""font-size:60px;""> </div>","null","FL","learning/Slide24.JPG","That was a wug.","","",""
"image-keyboard-response","78","190360","0.0-5.0-0.24","FL","kfhtlqkth4","1920","1080","0","1","0","5edf8803c008532459792282","","null","","","","","","","learning/Slide25.JPG","null","","","","","",""
"html-keyboard-response","79","191512","0.0-5.0-1.24","FL","kfhtlqkth4","1920","1080","0","1","0","5edf8803c008532459792282","","null","","","learningBlock1","","","","That was a dep.","null","","","","","",""
"html-keyboard-response","80","192514","0.0-5.0-2.24","FL","kfhtlqkth4","1920","1080","0","1","0","5edf8803c008532459792282","","null","","","learningBlock1","","","","<div style=""font-size:60px;""> </div>","null","FL","learning/Slide25.JPG","That was a dep.","","",""
"image-keyboard-response","81","192691","0.0-5.0-0.25","FL","kfhtlqkth4","1920","1080","0","1","0","5edf8803c008532459792282","","null","","","","","","","learning/Slide26.JPG","null","","","","","",""
"html-keyboard-response","82","193843","0.0-5.0-1.25","FL","kfhtlqkth4","1920","1080","0","1","0","5edf8803c008532459792282","","null","","","learningBlock1","","","","That was a wug.","null","","","","","",""
"html-keyboard-response","83","194844","0.0-5.0-2.25","FL","kfhtlqkth4","1920","1080","0","1","0","5edf8803c008532459792282","","null","","","learningBlock1","","","","<div style=""font-size:60px;""> </div>","null","FL","learning/Slide26.JPG","That was a wug.","","",""
"image-keyboard-response","84","195021","0.0-5.0-0.26","FL","kfhtlqkth4","1920","1080","0","1","0","5edf8803c008532459792282","","null","","","","","","","learning/Slide27.JPG","null","","","","","",""
"html-keyboard-response","85","196173","0.0-5.0-1.26","FL","kfhtlqkth4","1920","1080","0","1","0","5edf8803c008532459792282","","null","","","learningBlock1","","","","That was a bim.","null","","","","","",""
"html-keyboard-response","86","197174","0.0-5.0-2.26","FL","kfhtlqkth4","1920","1080","0","1","0","5edf8803c008532459792282","","null","","","learningBlock1","","","","<div style=""font-size:60px;""> </div>","null","FL","learning/Slide27.JPG","That was a bim.","","",""
"image-keyboard-response","87","197350","0.0-5.0-0.27","FL","kfhtlqkth4","1920","1080","0","1","0","5edf8803c008532459792282","","null","","","","","","","learning/Slide28.JPG","null","","","","","",""
"html-keyboard-response","88","198502","0.0-5.0-1.27","FL","kfhtlqkth4","1920","1080","0","1","0","5edf8803c008532459792282","","null","","","learningBlock1","","","","That was a dep.","null","","","","","",""
"html-keyboard-response","89","199503","0.0-5.0-2.27","FL","kfhtlqkth4","1920","1080","0","1","0","5edf8803c008532459792282","","null","","","learningBlock1","","","","<div style=""font-size:60px;""> </div>","null","FL","learning/Slide28.JPG","That was a dep.","","",""
"image-keyboard-response","90","199680","0.0-5.0-0.28","FL","kfhtlqkth4","1920","1080","0","1","0","5edf8803c008532459792282","","null","","","","","","","learning/Slide29.JPG","null","","","","","",""
"html-keyboard-response","91","200831","0.0-5.0-1.28","FL","kfhtlqkth4","1920","1080","0","1","0","5edf8803c008532459792282","","null","","","learningBlock1","","","","That was a tob.","null","","","","","",""
"html-keyboard-response","92","201832","0.0-5.0-2.28","FL","kfhtlqkth4","1920","1080","0","1","0","5edf8803c008532459792282","","null","","","learningBlock1","","","","<div style=""font-size:60px;""> </div>","null","FL","learning/Slide29.JPG","That was a tob.","","",""
"image-keyboard-response","93","202009","0.0-5.0-0.29","FL","kfhtlqkth4","1920","1080","0","1","0","5edf8803c008532459792282","","null","","","","","","","learning/Slide30.JPG","null","","","","","",""
"html-keyboard-response","94","203160","0.0-5.0-1.29","FL","kfhtlqkth4","1920","1080","0","1","0","5edf8803c008532459792282","","null","","","learningBlock1","","","","That was a dep.","null","","","","","",""
"html-keyboard-response","95","204162","0.0-5.0-2.29","FL","kfhtlqkth4","1920","1080","0","1","0","5edf8803c008532459792282","","null","","","learningBlock1","","","","<div style=""font-size:60px;""> </div>","null","FL","learning/Slide30.JPG","That was a dep.","","",""
"image-keyboard-response","96","204339","0.0-5.0-0.30","FL","kfhtlqkth4","1920","1080","0","1","0","5edf8803c008532459792282","","null","","","","","","","learning/Slide31.JPG","null","","","","","",""
"html-keyboard-response","97","205491","0.0-5.0-1.30","FL","kfhtlqkth4","1920","1080","0","1","0","5edf8803c008532459792282","","null","","","learningBlock1","","","","That was a wug.","null","","","","","",""
"html-keyboard-response","98","206493","0.0-5.0-2.30","FL","kfhtlqkth4","1920","1080","0","1","0","5edf8803c008532459792282","","null","","","learningBlock1","","","","<div style=""font-size:60px;""> </div>","null","FL","learning/Slide31.JPG","That was a wug.","","",""
"image-keyboard-response","99","206669","0.0-5.0-0.31","FL","kfhtlqkth4","1920","1080","0","1","0","5edf8803c008532459792282","","null","","","","","","","learning/Slide32.JPG","null","","","","","",""
"html-keyboard-response","100","207820","0.0-5.0-1.31","FL","kfhtlqkth4","1920","1080","0","1","0","5edf8803c008532459792282","","null","","","learningBlock1","","","","That was a tob.","null","","","","","",""
"html-keyboard-response","101","208822","0.0-5.0-2.31","FL","kfhtlqkth4","1920","1080","0","1","0","5edf8803c008532459792282","","null","","","learningBlock1","","","","<div style=""font-size:60px;""> </div>","null","FL","learning/Slide32.JPG","That was a tob.","","",""
"image-keyboard-response","102","208998","0.0-5.0-0.32","FL","kfhtlqkth4","1920","1080","0","1","0","5edf8803c008532459792282","","null","","","","","","","learning/Slide33.JPG","null","","","","","",""
"html-keyboard-response","103","210150","0.0-5.0-1.32","FL","kfhtlqkth4","1920","1080","0","1","0","5edf8803c008532459792282","","null","","","learningBlock1","","","","That was a bim.","null","","","","","",""
"html-keyboard-response","104","211151","0.0-5.0-2.32","FL","kfhtlqkth4","1920","1080","0","1","0","5edf8803c008532459792282","","null","","","learningBlock1","","","","<div style=""font-size:60px;""> </div>","null","FL","learning/Slide33.JPG","That was a bim.","","",""
"image-keyboard-response","105","211327","0.0-5.0-0.33","FL","kfhtlqkth4","1920","1080","0","1","0","5edf8803c008532459792282","","null","","","","","","","learning/Slide34.JPG","null","","","","","",""
"html-keyboard-response","106","212479","0.0-5.0-1.33","FL","kfhtlqkth4","1920","1080","0","1","0","5edf8803c008532459792282","","null","","","learningBlock1","","","","That was a tob.","null","","","","","",""
"html-keyboard-response","107","213480","0.0-5.0-2.33","FL","kfhtlqkth4","1920","1080","0","1","0","5edf8803c008532459792282","","null","","","learningBlock1","","","","<div style=""font-size:60px;""> </div>","null","FL","learning/Slide34.JPG","That was a tob.","","",""
"image-keyboard-response","108","213656","0.0-5.0-0.34","FL","kfhtlqkth4","1920","1080","0","1","0","5edf8803c008532459792282","","null","","","","","","","learning/Slide35.JPG","null","","","","","",""
"html-keyboard-response","109","214809","0.0-5.0-1.34","FL","kfhtlqkth4","1920","1080","0","1","0","5edf8803c008532459792282","","null","","","learningBlock1","","","","That was a bim.","null","","","","","",""
"html-keyboard-response","110","215810","0.0-5.0-2.34","FL","kfhtlqkth4","1920","1080","0","1","0","5edf8803c008532459792282","","null","","","learningBlock1","","","","<div style=""font-size:60px;""> </div>","null","FL","learning/Slide35.JPG","That was a bim.","","",""
"image-keyboard-response","111","215986","0.0-5.0-0.35","FL","kfhtlqkth4","1920","1080","0","1","0","5edf8803c008532459792282","","null","","","","","","","learning/Slide36.JPG","null","","","","","",""
"html-keyboard-response","112","217137","0.0-5.0-1.35","FL","kfhtlqkth4","1920","1080","0","1","0","5edf8803c008532459792282","","null","","","learningBlock1","","","","That was a dep.","null","","","","","",""
"html-keyboard-response","113","218140","0.0-5.0-2.35","FL","kfhtlqkth4","1920","1080","0","1","0","5edf8803c008532459792282","","null","","","learningBlock1","","","","<div style=""font-size:60px;""> </div>","null","FL","learning/Slide36.JPG","That was a dep.","","",""
"image-keyboard-response","114","218316","0.0-5.0-0.36","FL","kfhtlqkth4","1920","1080","0","1","0","5edf8803c008532459792282","","null","","","","","","","learning/Slide37.JPG","null","","","","","",""
"html-keyboard-response","115","219468","0.0-5.0-1.36","FL","kfhtlqkth4","1920","1080","0","1","0","5edf8803c008532459792282","","null","","","learningBlock1","","","","That was a tob.","null","","","","","",""
"html-keyboard-response","116","220470","0.0-5.0-2.36","FL","kfhtlqkth4","1920","1080","0","1","0","5edf8803c008532459792282","","null","","","learningBlock1","","","","<div style=""font-size:60px;""> </div>","null","FL","learning/Slide37.JPG","That was a tob.","","",""
"image-keyboard-response","117","220646","0.0-5.0-0.37","FL","kfhtlqkth4","1920","1080","0","1","0","5edf8803c008532459792282","","null","","","","","","","learning/Slide38.JPG","null","","","","","",""
"html-keyboard-response","118","221798","0.0-5.0-1.37","FL","kfhtlqkth4","1920","1080","0","1","0","5edf8803c008532459792282","","null","","","learningBlock1","","","","That was a wug.","null","","","","","",""
"html-keyboard-response","119","222798","0.0-5.0-2.37","FL","kfhtlqkth4","1920","1080","0","1","0","5edf8803c008532459792282","","null","","","learningBlock1","","","","<div style=""font-size:60px;""> </div>","null","FL","learning/Slide38.JPG","That was a wug.","","",""
"image-keyboard-response","120","222975","0.0-5.0-0.38","FL","kfhtlqkth4","1920","1080","0","1","0","5edf8803c008532459792282","","null","","","","","","","learning/Slide39.JPG","null","","","","","",""
"html-keyboard-response","121","224126","0.0-5.0-1.38","FL","kfhtlqkth4","1920","1080","0","1","0","5edf8803c008532459792282","","null","","","learningBlock1","","","","That was a bim.","null","","","","","",""
"html-keyboard-response","122","225127","0.0-5.0-2.38","FL","kfhtlqkth4","1920","1080","0","1","0","5edf8803c008532459792282","","null","","","learningBlock1","","","","<div style=""font-size:60px;""> </div>","null","FL","learning/Slide39.JPG","That was a bim.","","",""
"image-keyboard-response","123","225303","0.0-5.0-0.39","FL","kfhtlqkth4","1920","1080","0","1","0","5edf8803c008532459792282","","null","","","","","","","learning/Slide40.JPG","null","","","","","",""
"html-keyboard-response","124","226455","0.0-5.0-1.39","FL","kfhtlqkth4","1920","1080","0","1","0","5edf8803c008532459792282","","null","","","learningBlock1","","","","That was a tob.","null","","","","","",""
"html-keyboard-response","125","227456","0.0-5.0-2.39","FL","kfhtlqkth4","1920","1080","0","1","0","5edf8803c008532459792282","","null","","","learningBlock1","","","","<div style=""font-size:60px;""> </div>","null","FL","learning/Slide40.JPG","That was a tob.","","",""
"image-keyboard-response","126","227633","0.0-5.0-0.40","FL","kfhtlqkth4","1920","1080","0","1","0","5edf8803c008532459792282","","null","","","","","","","learning/Slide41.JPG","null","","","","","",""
"html-keyboard-response","127","228784","0.0-5.0-1.40","FL","kfhtlqkth4","1920","1080","0","1","0","5edf8803c008532459792282","","null","","","learningBlock1","","","","That was a bim.","null","","","","","",""
"html-keyboard-response","128","229786","0.0-5.0-2.40","FL","kfhtlqkth4","1920","1080","0","1","0","5edf8803c008532459792282","","null","","","learningBlock1","","","","<div style=""font-size:60px;""> </div>","null","FL","learning/Slide41.JPG","That was a bim.","","",""
"image-keyboard-response","129","229963","0.0-5.0-0.41","FL","kfhtlqkth4","1920","1080","0","1","0","5edf8803c008532459792282","","null","","","","","","","learning/Slide42.JPG","null","","","","","",""
"html-keyboard-response","130","231115","0.0-5.0-1.41","FL","kfhtlqkth4","1920","1080","0","1","0","5edf8803c008532459792282","","null","","","learningBlock1","","","","That was a dep.","null","","","","","",""
"html-keyboard-response","131","232116","0.0-5.0-2.41","FL","kfhtlqkth4","1920","1080","0","1","0","5edf8803c008532459792282","","null","","","learningBlock1","","","","<div style=""font-size:60px;""> </div>","null","FL","learning/Slide42.JPG","That was a dep.","","",""
"image-keyboard-response","132","232293","0.0-5.0-0.42","FL","kfhtlqkth4","1920","1080","0","1","0","5edf8803c008532459792282","","null","","","","","","","learning/Slide43.JPG","null","","","","","",""
"html-keyboard-response","133","233445","0.0-5.0-1.42","FL","kfhtlqkth4","1920","1080","0","1","0","5edf8803c008532459792282","","null","","","learningBlock1","","","","That was a wug.","null","","","","","",""
"html-keyboard-response","134","234446","0.0-5.0-2.42","FL","kfhtlqkth4","1920","1080","0","1","0","5edf8803c008532459792282","","null","","","learningBlock1","","","","<div style=""font-size:60px;""> </div>","null","FL","learning/Slide43.JPG","That was a wug.","","",""
"image-keyboard-response","135","234622","0.0-5.0-0.43","FL","kfhtlqkth4","1920","1080","0","1","0","5edf8803c008532459792282","","null","","","","","","","learning/Slide44.JPG","null","","","","","",""
"html-keyboard-response","136","235775","0.0-5.0-1.43","FL","kfhtlqkth4","1920","1080","0","1","0","5edf8803c008532459792282","","null","","","learningBlock1","","","","That was a bim.","null","","","","","",""
"html-keyboard-response","137","236777","0.0-5.0-2.43","FL","kfhtlqkth4","1920","1080","0","1","0","5edf8803c008532459792282","","null","","","learningBlock1","","","","<div style=""font-size:60px;""> </div>","null","FL","learning/Slide44.JPG","That was a bim.","","",""
"image-keyboard-response","138","236953","0.0-5.0-0.44","FL","kfhtlqkth4","1920","1080","0","1","0","5edf8803c008532459792282","","null","","","","","","","learning/Slide45.JPG","null","","","","","",""
"html-keyboard-response","139","238107","0.0-5.0-1.44","FL","kfhtlqkth4","1920","1080","0","1","0","5edf8803c008532459792282","","null","","","learningBlock1","","","","That was a wug.","null","","","","","",""
"html-keyboard-response","140","239108","0.0-5.0-2.44","FL","kfhtlqkth4","1920","1080","0","1","0","5edf8803c008532459792282","","null","","","learningBlock1","","","","<div style=""font-size:60px;""> </div>","null","FL","learning/Slide45.JPG","That was a wug.","","",""
"image-keyboard-response","141","239284","0.0-5.0-0.45","FL","kfhtlqkth4","1920","1080","0","1","0","5edf8803c008532459792282","","null","","","","","","","learning/Slide46.JPG","null","","","","","",""
"html-keyboard-response","142","240437","0.0-5.0-1.45","FL","kfhtlqkth4","1920","1080","0","1","0","5edf8803c008532459792282","","null","","","learningBlock1","","","","That was a dep.","null","","","","","",""
"html-keyboard-response","143","241438","0.0-5.0-2.45","FL","kfhtlqkth4","1920","1080","0","1","0","5edf8803c008532459792282","","null","","","learningBlock1","","","","<div style=""font-size:60px;""> </div>","null","FL","learning/Slide46.JPG","That was a dep.","","",""
"image-keyboard-response","144","241614","0.0-5.0-0.46","FL","kfhtlqkth4","1920","1080","0","1","0","5edf8803c008532459792282","","null","","","","","","","learning/Slide47.JPG","null","","","","","",""
"html-keyboard-response","145","242766","0.0-5.0-1.46","FL","kfhtlqkth4","1920","1080","0","1","0","5edf8803c008532459792282","","null","","","learningBlock1","","","","That was a tob.","null","","","","","",""
"html-keyboard-response","146","243767","0.0-5.0-2.46","FL","kfhtlqkth4","1920","1080","0","1","0","5edf8803c008532459792282","","null","","","learningBlock1","","","","<div style=""font-size:60px;""> </div>","null","FL","learning/Slide47.JPG","That was a tob.","","",""
"image-keyboard-response","147","243943","0.0-5.0-0.47","FL","kfhtlqkth4","1920","1080","0","1","0","5edf8803c008532459792282","","null","","","","","","","learning/Slide48.JPG","null","","","","","",""
"html-keyboard-response","148","245095","0.0-5.0-1.47","FL","kfhtlqkth4","1920","1080","0","1","0","5edf8803c008532459792282","","null","","","learningBlock1","","","","That was a bim.","null","","","","","",""
"html-keyboard-response","149","246097","0.0-5.0-2.47","FL","kfhtlqkth4","1920","1080","0","1","0","5edf8803c008532459792282","","null","","","learningBlock1","","","","<div style=""font-size:60px;""> </div>","null","FL","learning/Slide48.JPG","That was a bim.","","",""
"image-keyboard-response","150","246273","0.0-5.0-0.48","FL","kfhtlqkth4","1920","1080","0","1","0","5edf8803c008532459792282","","null","","","","","","","learning/Slide49.JPG","null","","","","","",""
"html-keyboard-response","151","247425","0.0-5.0-1.48","FL","kfhtlqkth4","1920","1080","0","1","0","5edf8803c008532459792282","","null","","","learningBlock1","","","","That was a dep.","null","","","","","",""
"html-keyboard-response","152","248426","0.0-5.0-2.48","FL","kfhtlqkth4","1920","1080","0","1","0","5edf8803c008532459792282","","null","","","learningBlock1","","","","<div style=""font-size:60px;""> </div>","null","FL","learning/Slide49.JPG","That was a dep.","","",""
"image-keyboard-response","153","248601","0.0-5.0-0.49","FL","kfhtlqkth4","1920","1080","0","1","0","5edf8803c008532459792282","","null","","","","","","","learning/Slide50.JPG","null","","","","","",""
"html-keyboard-response","154","249753","0.0-5.0-1.49","FL","kfhtlqkth4","1920","1080","0","1","0","5edf8803c008532459792282","","null","","","learningBlock1","","","","That was a tob.","null","","","","","",""
"html-keyboard-response","155","250754","0.0-5.0-2.49","FL","kfhtlqkth4","1920","1080","0","1","0","5edf8803c008532459792282","","null","","","learningBlock1","","","","<div style=""font-size:60px;""> </div>","null","FL","learning/Slide50.JPG","That was a tob.","","",""
"image-keyboard-response","156","250931","0.0-5.0-0.50","FL","kfhtlqkth4","1920","1080","0","1","0","5edf8803c008532459792282","","null","","","","","","","learning/Slide51.JPG","null","","","","","",""
"html-keyboard-response","157","252083","0.0-5.0-1.50","FL","kfhtlqkth4","1920","1080","0","1","0","5edf8803c008532459792282","","null","","","learningBlock1","","","","That was a bim.","null","","","","","",""
"html-keyboard-response","158","253083","0.0-5.0-2.50","FL","kfhtlqkth4","1920","1080","0","1","0","5edf8803c008532459792282","","null","","","learningBlock1","","","","<div style=""font-size:60px;""> </div>","null","FL","learning/Slide51.JPG","That was a bim.","","",""
"image-keyboard-response","159","253260","0.0-5.0-0.51","FL","kfhtlqkth4","1920","1080","0","1","0","5edf8803c008532459792282","","null","","","","","","","learning/Slide52.JPG","null","","","","","",""
"html-keyboard-response","160","254412","0.0-5.0-1.51","FL","kfhtlqkth4","1920","1080","0","1","0","5edf8803c008532459792282","","null","","","learningBlock1","","","","That was a wug.","null","","","","","",""
"html-keyboard-response","161","255414","0.0-5.0-2.51","FL","kfhtlqkth4","1920","1080","0","1","0","5edf8803c008532459792282","","null","","","learningBlock1","","","","<div style=""font-size:60px;""> </div>","null","FL","learning/Slide52.JPG","That was a wug.","","",""
"image-keyboard-response","162","255591","0.0-5.0-0.52","FL","kfhtlqkth4","1920","1080","0","1","0","5edf8803c008532459792282","","null","","","","","","","learning/Slide53.JPG","null","","","","","",""
"html-keyboard-response","163","256742","0.0-5.0-1.52","FL","kfhtlqkth4","1920","1080","0","1","0","5edf8803c008532459792282","","null","","","learningBlock1","","","","That was a tob.","null","","","","","",""
"html-keyboard-response","164","257744","0.0-5.0-2.52","FL","kfhtlqkth4","1920","1080","0","1","0","5edf8803c008532459792282","","null","","","learningBlock1","","","","<div style=""font-size:60px;""> </div>","null","FL","learning/Slide53.JPG","That was a tob.","","",""
"image-keyboard-response","165","257919","0.0-5.0-0.53","FL","kfhtlqkth4","1920","1080","0","1","0","5edf8803c008532459792282","","null","","","","","","","learning/Slide54.JPG","null","","","","","",""
"html-keyboard-response","166","259072","0.0-5.0-1.53","FL","kfhtlqkth4","1920","1080","0","1","0","5edf8803c008532459792282","","null","","","learningBlock1","","","","That was a dep.","null","","","","","",""
"html-keyboard-response","167","260073","0.0-5.0-2.53","FL","kfhtlqkth4","1920","1080","0","1","0","5edf8803c008532459792282","","null","","","learningBlock1","","","","<div style=""font-size:60px;""> </div>","null","FL","learning/Slide54.JPG","That was a dep.","","",""
"image-keyboard-response","168","260249","0.0-5.0-0.54","FL","kfhtlqkth4","1920","1080","0","1","0","5edf8803c008532459792282","","null","","","","","","","learning/Slide55.JPG","null","","","","","",""
"html-keyboard-response","169","261402","0.0-5.0-1.54","FL","kfhtlqkth4","1920","1080","0","1","0","5edf8803c008532459792282","","null","","","learningBlock1","","","","That was a bim.","null","","","","","",""
"html-keyboard-response","170","262402","0.0-5.0-2.54","FL","kfhtlqkth4","1920","1080","0","1","0","5edf8803c008532459792282","","null","","","learningBlock1","","","","<div style=""font-size:60px;""> </div>","null","FL","learning/Slide55.JPG","That was a bim.","","",""
"image-keyboard-response","171","262578","0.0-5.0-0.55","FL","kfhtlqkth4","1920","1080","0","1","0","5edf8803c008532459792282","","null","","","","","","","learning/Slide56.JPG","null","","","","","",""
"html-keyboard-response","172","263729","0.0-5.0-1.55","FL","kfhtlqkth4","1920","1080","0","1","0","5edf8803c008532459792282","","null","","","learningBlock1","","","","That was a tob.","null","","","","","",""
"html-keyboard-response","173","264731","0.0-5.0-2.55","FL","kfhtlqkth4","1920","1080","0","1","0","5edf8803c008532459792282","","null","","","learningBlock1","","","","<div style=""font-size:60px;""> </div>","null","FL","learning/Slide56.JPG","That was a tob.","","",""
"image-keyboard-response","174","264907","0.0-5.0-0.56","FL","kfhtlqkth4","1920","1080","0","1","0","5edf8803c008532459792282","","null","","","","","","","learning/Slide57.JPG","null","","","","","",""
"html-keyboard-response","175","266060","0.0-5.0-1.56","FL","kfhtlqkth4","1920","1080","0","1","0","5edf8803c008532459792282","","null","","","learningBlock1","","","","That was a dep.","null","","","","","",""
"html-keyboard-response","176","267062","0.0-5.0-2.56","FL","kfhtlqkth4","1920","1080","0","1","0","5edf8803c008532459792282","","null","","","learningBlock1","","","","<div style=""font-size:60px;""> </div>","null","FL","learning/Slide57.JPG","That was a dep.","","",""
"image-keyboard-response","177","267238","0.0-5.0-0.57","FL","kfhtlqkth4","1920","1080","0","1","0","5edf8803c008532459792282","","null","","","","","","","learning/Slide58.JPG","null","","","","","",""
"html-keyboard-response","178","268390","0.0-5.0-1.57","FL","kfhtlqkth4","1920","1080","0","1","0","5edf8803c008532459792282","","null","","","learningBlock1","","","","That was a wug.","null","","","","","",""
"html-keyboard-response","179","269392","0.0-5.0-2.57","FL","kfhtlqkth4","1920","1080","0","1","0","5edf8803c008532459792282","","null","","","learningBlock1","","","","<div style=""font-size:60px;""> </div>","null","FL","learning/Slide58.JPG","That was a wug.","","",""
"image-keyboard-response","180","269568","0.0-5.0-0.58","FL","kfhtlqkth4","1920","1080","0","1","0","5edf8803c008532459792282","","null","","","","","","","learning/Slide59.JPG","null","","","","","",""
"html-keyboard-response","181","270721","0.0-5.0-1.58","FL","kfhtlqkth4","1920","1080","0","1","0","5edf8803c008532459792282","","null","","","learningBlock1","","","","That was a dep.","null","","","","","",""
"html-keyboard-response","182","271722","0.0-5.0-2.58","FL","kfhtlqkth4","1920","1080","0","1","0","5edf8803c008532459792282","","null","","","learningBlock1","","","","<div style=""font-size:60px;""> </div>","null","FL","learning/Slide59.JPG","That was a dep.","","",""
"image-keyboard-response","183","271898","0.0-5.0-0.59","FL","kfhtlqkth4","1920","1080","0","1","0","5edf8803c008532459792282","","null","","","","","","","learning/Slide60.JPG","null","","","","","",""
"html-keyboard-response","184","273049","0.0-5.0-1.59","FL","kfhtlqkth4","1920","1080","0","1","0","5edf8803c008532459792282","","null","","","learningBlock1","","","","That was a wug.","null","","","","","",""
"html-keyboard-response","185","274050","0.0-5.0-2.59","FL","kfhtlqkth4","1920","1080","0","1","0","5edf8803c008532459792282","","null","","","learningBlock1","","","","<div style=""font-size:60px;""> </div>","null","FL","learning/Slide60.JPG","That was a wug.","","",""
"image-keyboard-response","186","274226","0.0-5.0-0.60","FL","kfhtlqkth4","1920","1080","0","1","0","5edf8803c008532459792282","","null","","","","","","","learning/Slide61.JPG","null","","","","","",""
"html-keyboard-response","187","275378","0.0-5.0-1.60","FL","kfhtlqkth4","1920","1080","0","1","0","5edf8803c008532459792282","","null","","","learningBlock1","","","","That was a bim.","null","","","","","",""
"html-keyboard-response","188","276380","0.0-5.0-2.60","FL","kfhtlqkth4","1920","1080","0","1","0","5edf8803c008532459792282","","null","","","learningBlock1","","","","<div style=""font-size:60px;""> </div>","null","FL","learning/Slide61.JPG","That was a bim.","","",""
"image-keyboard-response","189","276557","0.0-5.0-0.61","FL","kfhtlqkth4","1920","1080","0","1","0","5edf8803c008532459792282","","null","","","","","","","learning/Slide62.JPG","null","","","","","",""
"html-keyboard-response","190","277709","0.0-5.0-1.61","FL","kfhtlqkth4","1920","1080","0","1","0","5edf8803c008532459792282","","null","","","learningBlock1","","","","That was a dep.","null","","","","","",""
"html-keyboard-response","191","278711","0.0-5.0-2.61","FL","kfhtlqkth4","1920","1080","0","1","0","5edf8803c008532459792282","","null","","","learningBlock1","","","","<div style=""font-size:60px;""> </div>","null","FL","learning/Slide62.JPG","That was a dep.","","",""
"image-keyboard-response","192","278888","0.0-5.0-0.62","FL","kfhtlqkth4","1920","1080","0","1","0","5edf8803c008532459792282","","null","","","","","","","learning/Slide63.JPG","null","","","","","",""
"html-keyboard-response","193","280040","0.0-5.0-1.62","FL","kfhtlqkth4","1920","1080","0","1","0","5edf8803c008532459792282","","null","","","learningBlock1","","","","That was a bim.","null","","","","","",""
"html-keyboard-response","194","281041","0.0-5.0-2.62","FL","kfhtlqkth4","1920","1080","0","1","0","5edf8803c008532459792282","","null","","","learningBlock1","","","","<div style=""font-size:60px;""> </div>","null","FL","learning/Slide63.JPG","That was a bim.","","",""
"image-keyboard-response","195","281218","0.0-5.0-0.63","FL","kfhtlqkth4","1920","1080","0","1","0","5edf8803c008532459792282","","null","","","","","","","learning/Slide64.JPG","null","","","","","",""
"html-keyboard-response","196","282370","0.0-5.0-1.63","FL","kfhtlqkth4","1920","1080","0","1","0","5edf8803c008532459792282","","null","","","learningBlock1","","","","That was a tob.","null","","","","","",""
"html-keyboard-response","197","283371","0.0-5.0-2.63","FL","kfhtlqkth4","1920","1080","0","1","0","5edf8803c008532459792282","","null","","","learningBlock1","","","","<div style=""font-size:60px;""> </div>","null","FL","learning/Slide64.JPG","That was a tob.","","",""
"image-keyboard-response","198","283547","0.0-5.0-0.64","FL","kfhtlqkth4","1920","1080","0","1","0","5edf8803c008532459792282","","null","","","","","","","learning/Slide65.JPG","null","","","","","",""
"html-keyboard-response","199","284699","0.0-5.0-1.64","FL","kfhtlqkth4","1920","1080","0","1","0","5edf8803c008532459792282","","null","","","learningBlock1","","","","That was a wug.","null","","","","","",""
"html-keyboard-response","200","285701","0.0-5.0-2.64","FL","kfhtlqkth4","1920","1080","0","1","0","5edf8803c008532459792282","","null","","","learningBlock1","","","","<div style=""font-size:60px;""> </div>","null","FL","learning/Slide65.JPG","That was a wug.","","",""
"image-keyboard-response","201","285877","0.0-5.0-0.65","FL","kfhtlqkth4","1920","1080","0","1","0","5edf8803c008532459792282","","null","","","","","","","learning/Slide66.JPG","null","","","","","",""
"html-keyboard-response","202","287030","0.0-5.0-1.65","FL","kfhtlqkth4","1920","1080","0","1","0","5edf8803c008532459792282","","null","","","learningBlock1","","","","That was a dep.","null","","","","","",""
"html-keyboard-response","203","288033","0.0-5.0-2.65","FL","kfhtlqkth4","1920","1080","0","1","0","5edf8803c008532459792282","","null","","","learningBlock1","","","","<div style=""font-size:60px;""> </div>","null","FL","learning/Slide66.JPG","That was a dep.","","",""
"image-keyboard-response","204","288209","0.0-5.0-0.66","FL","kfhtlqkth4","1920","1080","0","1","0","5edf8803c008532459792282","","null","","","","","","","learning/Slide67.JPG","null","","","","","",""
"html-keyboard-response","205","289363","0.0-5.0-1.66","FL","kfhtlqkth4","1920","1080","0","1","0","5edf8803c008532459792282","","null","","","learningBlock1","","","","That was a tob.","null","","","","","",""
"html-keyboard-response","206","290363","0.0-5.0-2.66","FL","kfhtlqkth4","1920","1080","0","1","0","5edf8803c008532459792282","","null","","","learningBlock1","","","","<div style=""font-size:60px;""> </div>","null","FL","learning/Slide67.JPG","That was a tob.","","",""
"image-keyboard-response","207","290541","0.0-5.0-0.67","FL","kfhtlqkth4","1920","1080","0","1","0","5edf8803c008532459792282","","null","","","","","","","learning/Slide68.JPG","null","","","","","",""
"html-keyboard-response","208","291693","0.0-5.0-1.67","FL","kfhtlqkth4","1920","1080","0","1","0","5edf8803c008532459792282","","null","","","learningBlock1","","","","That was a wug.","null","","","","","",""
"html-keyboard-response","209","292694","0.0-5.0-2.67","FL","kfhtlqkth4","1920","1080","0","1","0","5edf8803c008532459792282","","null","","","learningBlock1","","","","<div style=""font-size:60px;""> </div>","null","FL","learning/Slide68.JPG","That was a wug.","","",""
"image-keyboard-response","210","292872","0.0-5.0-0.68","FL","kfhtlqkth4","1920","1080","0","1","0","5edf8803c008532459792282","","null","","","","","","","learning/Slide69.JPG","null","","","","","",""
"html-keyboard-response","211","294024","0.0-5.0-1.68","FL","kfhtlqkth4","1920","1080","0","1","0","5edf8803c008532459792282","","null","","","learningBlock1","","","","That was a tob.","null","","","","","",""
"html-keyboard-response","212","295025","0.0-5.0-2.68","FL","kfhtlqkth4","1920","1080","0","1","0","5edf8803c008532459792282","","null","","","learningBlock1","","","","<div style=""font-size:60px;""> </div>","null","FL","learning/Slide69.JPG","That was a tob.","","",""
"image-keyboard-response","213","295201","0.0-5.0-0.69","FL","kfhtlqkth4","1920","1080","0","1","0","5edf8803c008532459792282","","null","","","","","","","learning/Slide70.JPG","null","","","","","",""
"html-keyboard-response","214","296353","0.0-5.0-1.69","FL","kfhtlqkth4","1920","1080","0","1","0","5edf8803c008532459792282","","null","","","learningBlock1","","","","That was a dep.","null","","","","","",""
"html-keyboard-response","215","297354","0.0-5.0-2.69","FL","kfhtlqkth4","1920","1080","0","1","0","5edf8803c008532459792282","","null","","","learningBlock1","","","","<div style=""font-size:60px;""> </div>","null","FL","learning/Slide70.JPG","That was a dep.","","",""
"image-keyboard-response","216","297530","0.0-5.0-0.70","FL","kfhtlqkth4","1920","1080","0","1","0","5edf8803c008532459792282","","null","","","","","","","learning/Slide71.JPG","null","","","","","",""
"html-keyboard-response","217","298681","0.0-5.0-1.70","FL","kfhtlqkth4","1920","1080","0","1","0","5edf8803c008532459792282","","null","","","learningBlock1","","","","That was a wug.","null","","","","","",""
"html-keyboard-response","218","299683","0.0-5.0-2.70","FL","kfhtlqkth4","1920","1080","0","1","0","5edf8803c008532459792282","","null","","","learningBlock1","","","","<div style=""font-size:60px;""> </div>","null","FL","learning/Slide71.JPG","That was a wug.","","",""
"image-keyboard-response","219","299858","0.0-5.0-0.71","FL","kfhtlqkth4","1920","1080","0","1","0","5edf8803c008532459792282","","null","","","","","","","learning/Slide72.JPG","null","","","","","",""
"html-keyboard-response","220","301009","0.0-5.0-1.71","FL","kfhtlqkth4","1920","1080","0","1","0","5edf8803c008532459792282","","null","","","learningBlock1","","","","That was a bim.","null","","","","","",""
"html-keyboard-response","221","302010","0.0-5.0-2.71","FL","kfhtlqkth4","1920","1080","0","1","0","5edf8803c008532459792282","","null","","","learningBlock1","","","","<div style=""font-size:60px;""> </div>","null","FL","learning/Slide72.JPG","That was a bim.","","",""
"image-keyboard-response","222","302187","0.0-5.0-0.72","FL","kfhtlqkth4","1920","1080","0","1","0","5edf8803c008532459792282","","null","","","","","","","learning/Slide73.JPG","null","","","","","",""
"html-keyboard-response","223","303339","0.0-5.0-1.72","FL","kfhtlqkth4","1920","1080","0","1","0","5edf8803c008532459792282","","null","","","learningBlock1","","","","That was a wug.","null","","","","","",""
"html-keyboard-response","224","304341","0.0-5.0-2.72","FL","kfhtlqkth4","1920","1080","0","1","0","5edf8803c008532459792282","","null","","","learningBlock1","","","","<div style=""font-size:60px;""> </div>","null","FL","learning/Slide73.JPG","That was a wug.","","",""
"image-keyboard-response","225","304518","0.0-5.0-0.73","FL","kfhtlqkth4","1920","1080","0","1","0","5edf8803c008532459792282","","null","","","","","","","learning/Slide74.JPG","null","","","","","",""
"html-keyboard-response","226","305670","0.0-5.0-1.73","FL","kfhtlqkth4","1920","1080","0","1","0","5edf8803c008532459792282","","null","","","learningBlock1","","","","That was a dep.","null","","","","","",""
"html-keyboard-response","227","306672","0.0-5.0-2.73","FL","kfhtlqkth4","1920","1080","0","1","0","5edf8803c008532459792282","","null","","","learningBlock1","","","","<div style=""font-size:60px;""> </div>","null","FL","learning/Slide74.JPG","That was a dep.","","",""
"image-keyboard-response","228","306848","0.0-5.0-0.74","FL","kfhtlqkth4","1920","1080","0","1","0","5edf8803c008532459792282","","null","","","","","","","learning/Slide75.JPG","null","","","","","",""
"html-keyboard-response","229","308001","0.0-5.0-1.74","FL","kfhtlqkth4","1920","1080","0","1","0","5edf8803c008532459792282","","null","","","learningBlock1","","","","That was a tob.","null","","","","","",""
"html-keyboard-response","230","309002","0.0-5.0-2.74","FL","kfhtlqkth4","1920","1080","0","1","0","5edf8803c008532459792282","","null","","","learningBlock1","","","","<div style=""font-size:60px;""> </div>","null","FL","learning/Slide75.JPG","That was a tob.","","",""
"image-keyboard-response","231","309179","0.0-5.0-0.75","FL","kfhtlqkth4","1920","1080","0","1","0","5edf8803c008532459792282","","null","","","","","","","learning/Slide76.JPG","null","","","","","",""
"html-keyboard-response","232","310330","0.0-5.0-1.75","FL","kfhtlqkth4","1920","1080","0","1","0","5edf8803c008532459792282","","null","","","learningBlock1","","","","That was a bim.","null","","","","","",""
"html-keyboard-response","233","311331","0.0-5.0-2.75","FL","kfhtlqkth4","1920","1080","0","1","0","5edf8803c008532459792282","","null","","","learningBlock1","","","","<div style=""font-size:60px;""> </div>","null","FL","learning/Slide76.JPG","That was a bim.","","",""
"image-keyboard-response","234","311508","0.0-5.0-0.76","FL","kfhtlqkth4","1920","1080","0","1","0","5edf8803c008532459792282","","null","","","","","","","learning/Slide77.JPG","null","","","","","",""
"html-keyboard-response","235","312659","0.0-5.0-1.76","FL","kfhtlqkth4","1920","1080","0","1","0","5edf8803c008532459792282","","null","","","learningBlock1","","","","That was a tob.","null","","","","","",""
"html-keyboard-response","236","313660","0.0-5.0-2.76","FL","kfhtlqkth4","1920","1080","0","1","0","5edf8803c008532459792282","","null","","","learningBlock1","","","","<div style=""font-size:60px;""> </div>","null","FL","learning/Slide77.JPG","That was a tob.","","",""
"image-keyboard-response","237","313837","0.0-5.0-0.77","FL","kfhtlqkth4","1920","1080","0","1","0","5edf8803c008532459792282","","null","","","","","","","learning/Slide78.JPG","null","","","","","",""
"html-keyboard-response","238","314988","0.0-5.0-1.77","FL","kfhtlqkth4","1920","1080","0","1","0","5edf8803c008532459792282","","null","","","learningBlock1","","","","That was a wug.","null","","","","","",""
"html-keyboard-response","239","315990","0.0-5.0-2.77","FL","kfhtlqkth4","1920","1080","0","1","0","5edf8803c008532459792282","","null","","","learningBlock1","","","","<div style=""font-size:60px;""> </div>","null","FL","learning/Slide78.JPG","That was a wug.","","",""
"image-keyboard-response","240","316167","0.0-5.0-0.78","FL","kfhtlqkth4","1920","1080","0","1","0","5edf8803c008532459792282","","null","","","","","","","learning/Slide79.JPG","null","","","","","",""
"html-keyboard-response","241","317319","0.0-5.0-1.78","FL","kfhtlqkth4","1920","1080","0","1","0","5edf8803c008532459792282","","null","","","learningBlock1","","","","That was a bim.","null","","","","","",""
"html-keyboard-response","242","318320","0.0-5.0-2.78","FL","kfhtlqkth4","1920","1080","0","1","0","5edf8803c008532459792282","","null","","","learningBlock1","","","","<div style=""font-size:60px;""> </div>","null","FL","learning/Slide79.JPG","That was a bim.","","",""
"image-keyboard-response","243","318495","0.0-5.0-0.79","FL","kfhtlqkth4","1920","1080","0","1","0","5edf8803c008532459792282","","null","","","","","","","learning/Slide80.JPG","null","","","","","",""
"html-keyboard-response","244","319648","0.0-5.0-1.79","FL","kfhtlqkth4","1920","1080","0","1","0","5edf8803c008532459792282","","null","","","learningBlock1","","","","That was a tob.","null","","","","","",""
"html-keyboard-response","245","320649","0.0-5.0-2.79","FL","kfhtlqkth4","1920","1080","0","1","0","5edf8803c008532459792282","","null","","","learningBlock1","","","","<div style=""font-size:60px;""> </div>","null","FL","learning/Slide80.JPG","That was a tob.","","",""
"instructions","246","356895","0.0-6.0","FL","kfhtlqkth4","1920","1080","0","1","0","5edf8803c008532459792282","","NA","","[{""page_index"":0,""viewing_time"":36245.00999995507}]","instructions","","","","","","","","","","",""
"image-keyboard-response","247","357071","0.0-7.0-0.0","FL","kfhtlqkth4","1920","1080","0","1","0","5edf8803c008532459792282","","null","","","","","","","learning/Slide81.JPG","null","","","","","",""
"html-keyboard-response","248","358224","0.0-7.0-1.0","FL","kfhtlqkth4","1920","1080","0","1","0","5edf8803c008532459792282","","null","","","learningBlock2","","","","That was a wug.","null","","","","","",""
"html-keyboard-response","249","359225","0.0-7.0-2.0","FL","kfhtlqkth4","1920","1080","0","1","0","5edf8803c008532459792282","","null","","","learningBlock2","","","","<div style=""font-size:60px;""> </div>","null","FL","learning/Slide81.JPG","That was a wug.","","",""
"image-keyboard-response","250","359401","0.0-7.0-0.1","FL","kfhtlqkth4","1920","1080","0","1","0","5edf8803c008532459792282","","null","","","","","","","learning/Slide82.JPG","null","","","","","",""
"html-keyboard-response","251","360553","0.0-7.0-1.1","FL","kfhtlqkth4","1920","1080","0","1","0","5edf8803c008532459792282","","null","","","learningBlock2","","","","That was a bim.","null","","","","","",""
"html-keyboard-response","252","361555","0.0-7.0-2.1","FL","kfhtlqkth4","1920","1080","0","1","0","5edf8803c008532459792282","","null","","","learningBlock2","","","","<div style=""font-size:60px;""> </div>","null","FL","learning/Slide82.JPG","That was a bim.","","",""
"image-keyboard-response","253","361731","0.0-7.0-0.2","FL","kfhtlqkth4","1920","1080","0","1","0","5edf8803c008532459792282","","null","","","","","","","learning/Slide83.JPG","null","","","","","",""
"html-keyboard-response","254","362882","0.0-7.0-1.2","FL","kfhtlqkth4","1920","1080","0","1","0","5edf8803c008532459792282","","null","","","learningBlock2","","","","That was a wug.","null","","","","","",""
"html-keyboard-response","255","363883","0.0-7.0-2.2","FL","kfhtlqkth4","1920","1080","0","1","0","5edf8803c008532459792282","","null","","","learningBlock2","","","","<div style=""font-size:60px;""> </div>","null","FL","learning/Slide83.JPG","That was a wug.","","",""
"image-keyboard-response","256","364060","0.0-7.0-0.3","FL","kfhtlqkth4","1920","1080","0","1","0","5edf8803c008532459792282","","null","","","","","","","learning/Slide84.JPG","null","","","","","",""
"html-keyboard-response","257","365212","0.0-7.0-1.3","FL","kfhtlqkth4","1920","1080","0","1","0","5edf8803c008532459792282","","null","","","learningBlock2","","","","That was a dep.","null","","","","","",""
"html-keyboard-response","258","366213","0.0-7.0-2.3","FL","kfhtlqkth4","1920","1080","0","1","0","5edf8803c008532459792282","","null","","","learningBlock2","","","","<div style=""font-size:60px;""> </div>","null","FL","learning/Slide84.JPG","That was a dep.","","",""
"image-keyboard-response","259","366390","0.0-7.0-0.4","FL","kfhtlqkth4","1920","1080","0","1","0","5edf8803c008532459792282","","null","","","","","","","learning/Slide85.JPG","null","","","","","",""
"html-keyboard-response","260","367542","0.0-7.0-1.4","FL","kfhtlqkth4","1920","1080","0","1","0","5edf8803c008532459792282","","null","","","learningBlock2","","","","That was a bim.","null","","","","","",""
"html-keyboard-response","261","368543","0.0-7.0-2.4","FL","kfhtlqkth4","1920","1080","0","1","0","5edf8803c008532459792282","","null","","","learningBlock2","","","","<div style=""font-size:60px;""> </div>","null","FL","learning/Slide85.JPG","That was a bim.","","",""
"image-keyboard-response","262","368720","0.0-7.0-0.5","FL","kfhtlqkth4","1920","1080","0","1","0","5edf8803c008532459792282","","null","","","","","","","learning/Slide86.JPG","null","","","","","",""
"html-keyboard-response","263","369872","0.0-7.0-1.5","FL","kfhtlqkth4","1920","1080","0","1","0","5edf8803c008532459792282","","null","","","learningBlock2","","","","That was a tob.","null","","","","","",""
"html-keyboard-response","264","370873","0.0-7.0-2.5","FL","kfhtlqkth4","1920","1080","0","1","0","5edf8803c008532459792282","","null","","","learningBlock2","","","","<div style=""font-size:60px;""> </div>","null","FL","learning/Slide86.JPG","That was a tob.","","",""
"image-keyboard-response","265","371049","0.0-7.0-0.6","FL","kfhtlqkth4","1920","1080","0","1","0","5edf8803c008532459792282","","null","","","","","","","learning/Slide87.JPG","null","","","","","",""
"html-keyboard-response","266","372200","0.0-7.0-1.6","FL","kfhtlqkth4","1920","1080","0","1","0","5edf8803c008532459792282","","null","","","learningBlock2","","","","That was a wug.","null","","","","","",""
"html-keyboard-response","267","373202","0.0-7.0-2.6","FL","kfhtlqkth4","1920","1080","0","1","0","5edf8803c008532459792282","","null","","","learningBlock2","","","","<div style=""font-size:60px;""> </div>","null","FL","learning/Slide87.JPG","That was a wug.","","",""
"image-keyboard-response","268","373378","0.0-7.0-0.7","FL","kfhtlqkth4","1920","1080","0","1","0","5edf8803c008532459792282","","null","","","","","","","learning/Slide88.JPG","null","","","","","",""
"html-keyboard-response","269","374529","0.0-7.0-1.7","FL","kfhtlqkth4","1920","1080","0","1","0","5edf8803c008532459792282","","null","","","learningBlock2","","","","That was a tob.","null","","","","","",""
"html-keyboard-response","270","375531","0.0-7.0-2.7","FL","kfhtlqkth4","1920","1080","0","1","0","5edf8803c008532459792282","","null","","","learningBlock2","","","","<div style=""font-size:60px;""> </div>","null","FL","learning/Slide88.JPG","That was a tob.","","",""
"image-keyboard-response","271","375707","0.0-7.0-0.8","FL","kfhtlqkth4","1920","1080","0","1","0","5edf8803c008532459792282","","null","","","","","","","learning/Slide89.JPG","null","","","","","",""
"html-keyboard-response","272","376859","0.0-7.0-1.8","FL","kfhtlqkth4","1920","1080","0","1","0","5edf8803c008532459792282","","null","","","learningBlock2","","","","That was a bim.","null","","","","","",""
"html-keyboard-response","273","377862","0.0-7.0-2.8","FL","kfhtlqkth4","1920","1080","0","1","0","5edf8803c008532459792282","","null","","","learningBlock2","","","","<div style=""font-size:60px;""> </div>","null","FL","learning/Slide89.JPG","That was a bim.","","",""
"image-keyboard-response","274","378038","0.0-7.0-0.9","FL","kfhtlqkth4","1920","1080","0","1","0","5edf8803c008532459792282","","null","","","","","","","learning/Slide90.JPG","null","","","","","",""
"html-keyboard-response","275","379189","0.0-7.0-1.9","FL","kfhtlqkth4","1920","1080","0","1","0","5edf8803c008532459792282","","null","","","learningBlock2","","","","That was a dep.","null","","","","","",""
"html-keyboard-response","276","380191","0.0-7.0-2.9","FL","kfhtlqkth4","1920","1080","0","1","0","5edf8803c008532459792282","","null","","","learningBlock2","","","","<div style=""font-size:60px;""> </div>","null","FL","learning/Slide90.JPG","That was a dep.","","",""
"image-keyboard-response","277","380368","0.0-7.0-0.10","FL","kfhtlqkth4","1920","1080","0","1","0","5edf8803c008532459792282","","null","","","","","","","learning/Slide91.JPG","null","","","","","",""
"html-keyboard-response","278","381518","0.0-7.0-1.10","FL","kfhtlqkth4","1920","1080","0","1","0","5edf8803c008532459792282","","null","","","learningBlock2","","","","That was a wug.","null","","","","","",""
"html-keyboard-response","279","382519","0.0-7.0-2.10","FL","kfhtlqkth4","1920","1080","0","1","0","5edf8803c008532459792282","","null","","","learningBlock2","","","","<div style=""font-size:60px;""> </div>","null","FL","learning/Slide91.JPG","That was a wug.","","",""
"image-keyboard-response","280","382696","0.0-7.0-0.11","FL","kfhtlqkth4","1920","1080","0","1","0","5edf8803c008532459792282","","null","","","","","","","learning/Slide92.JPG","null","","","","","",""
"html-keyboard-response","281","383847","0.0-7.0-1.11","FL","kfhtlqkth4","1920","1080","0","1","0","5edf8803c008532459792282","","null","","","learningBlock2","","","","That was a tob.","null","","","","","",""
"html-keyboard-response","282","384849","0.0-7.0-2.11","FL","kfhtlqkth4","1920","1080","0","1","0","5edf8803c008532459792282","","null","","","learningBlock2","","","","<div style=""font-size:60px;""> </div>","null","FL","learning/Slide92.JPG","That was a tob.","","",""
"image-keyboard-response","283","385026","0.0-7.0-0.12","FL","kfhtlqkth4","1920","1080","0","1","0","5edf8803c008532459792282","","null","","","","","","","learning/Slide93.JPG","null","","","","","",""
"html-keyboard-response","284","386178","0.0-7.0-1.12","FL","kfhtlqkth4","1920","1080","0","1","0","5edf8803c008532459792282","","null","","","learningBlock2","","","","That was a bim.","null","","","","","",""
"html-keyboard-response","285","387178","0.0-7.0-2.12","FL","kfhtlqkth4","1920","1080","0","1","0","5edf8803c008532459792282","","null","","","learningBlock2","","","","<div style=""font-size:60px;""> </div>","null","FL","learning/Slide93.JPG","That was a bim.","","",""
"image-keyboard-response","286","387355","0.0-7.0-0.13","FL","kfhtlqkth4","1920","1080","0","1","0","5edf8803c008532459792282","","null","","","","","","","learning/Slide94.JPG","null","","","","","",""
"html-keyboard-response","287","388506","0.0-7.0-1.13","FL","kfhtlqkth4","1920","1080","0","1","0","5edf8803c008532459792282","","null","","","learningBlock2","","","","That was a tob.","null","","","","","",""
"html-keyboard-response","288","389507","0.0-7.0-2.13","FL","kfhtlqkth4","1920","1080","0","1","0","5edf8803c008532459792282","","null","","","learningBlock2","","","","<div style=""font-size:60px;""> </div>","null","FL","learning/Slide94.JPG","That was a tob.","","",""
"image-keyboard-response","289","389684","0.0-7.0-0.14","FL","kfhtlqkth4","1920","1080","0","1","0","5edf8803c008532459792282","","null","","","","","","","learning/Slide95.JPG","null","","","","","",""
"html-keyboard-response","290","390836","0.0-7.0-1.14","FL","kfhtlqkth4","1920","1080","0","1","0","5edf8803c008532459792282","","null","","","learningBlock2","","","","That was a wug.","null","","","","","",""
"html-keyboard-response","291","391837","0.0-7.0-2.14","FL","kfhtlqkth4","1920","1080","0","1","0","5edf8803c008532459792282","","null","","","learningBlock2","","","","<div style=""font-size:60px;""> </div>","null","FL","learning/Slide95.JPG","That was a wug.","","",""
"image-keyboard-response","292","392014","0.0-7.0-0.15","FL","kfhtlqkth4","1920","1080","0","1","0","5edf8803c008532459792282","","null","","","","","","","learning/Slide96.JPG","null","","","","","",""
"html-keyboard-response","293","393166","0.0-7.0-1.15","FL","kfhtlqkth4","1920","1080","0","1","0","5edf8803c008532459792282","","null","","","learningBlock2","","","","That was a tob.","null","","","","","",""
"html-keyboard-response","294","394167","0.0-7.0-2.15","FL","kfhtlqkth4","1920","1080","0","1","0","5edf8803c008532459792282","","null","","","learningBlock2","","","","<div style=""font-size:60px;""> </div>","null","FL","learning/Slide96.JPG","That was a tob.","","",""
"image-keyboard-response","295","394343","0.0-7.0-0.16","FL","kfhtlqkth4","1920","1080","0","1","0","5edf8803c008532459792282","","null","","","","","","","learning/Slide97.JPG","null","","","","","",""
"html-keyboard-response","296","395495","0.0-7.0-1.16","FL","kfhtlqkth4","1920","1080","0","1","0","5edf8803c008532459792282","","null","","","learningBlock2","","","","That was a dep.","null","","","","","",""
"html-keyboard-response","297","396496","0.0-7.0-2.16","FL","kfhtlqkth4","1920","1080","0","1","0","5edf8803c008532459792282","","null","","","learningBlock2","","","","<div style=""font-size:60px;""> </div>","null","FL","learning/Slide97.JPG","That was a dep.","","",""
"image-keyboard-response","298","396672","0.0-7.0-0.17","FL","kfhtlqkth4","1920","1080","0","1","0","5edf8803c008532459792282","","null","","","","","","","learning/Slide98.JPG","null","","","","","",""
"html-keyboard-response","299","397823","0.0-7.0-1.17","FL","kfhtlqkth4","1920","1080","0","1","0","5edf8803c008532459792282","","null","","","learningBlock2","","","","That was a bim.","null","","","","","",""
"html-keyboard-response","300","398824","0.0-7.0-2.17","FL","kfhtlqkth4","1920","1080","0","1","0","5edf8803c008532459792282","","null","","","learningBlock2","","","","<div style=""font-size:60px;""> </div>","null","FL","learning/Slide98.JPG","That was a bim.","","",""
"image-keyboard-response","301","399001","0.0-7.0-0.18","FL","kfhtlqkth4","1920","1080","0","1","0","5edf8803c008532459792282","","null","","","","","","","learning/Slide99.JPG","null","","","","","",""
"html-keyboard-response","302","400153","0.0-7.0-1.18","FL","kfhtlqkth4","1920","1080","0","1","0","5edf8803c008532459792282","","null","","","learningBlock2","","","","That was a dep.","null","","","","","",""
"html-keyboard-response","303","401155","0.0-7.0-2.18","FL","kfhtlqkth4","1920","1080","0","1","0","5edf8803c008532459792282","","null","","","learningBlock2","","","","<div style=""font-size:60px;""> </div>","null","FL","learning/Slide99.JPG","That was a dep.","","",""
"image-keyboard-response","304","401331","0.0-7.0-0.19","FL","kfhtlqkth4","1920","1080","0","1","0","5edf8803c008532459792282","","null","","","","","","","learning/Slide100.JPG","null","","","","","",""
"html-keyboard-response","305","402483","0.0-7.0-1.19","FL","kfhtlqkth4","1920","1080","0","1","0","5edf8803c008532459792282","","null","","","learningBlock2","","","","That was a bim.","null","","","","","",""
"html-keyboard-response","306","403484","0.0-7.0-2.19","FL","kfhtlqkth4","1920","1080","0","1","0","5edf8803c008532459792282","","null","","","learningBlock2","","","","<div style=""font-size:60px;""> </div>","null","FL","learning/Slide100.JPG","That was a bim.","","",""
"image-keyboard-response","307","403660","0.0-7.0-0.20","FL","kfhtlqkth4","1920","1080","0","1","0","5edf8803c008532459792282","","null","","","","","","","learning/Slide101.JPG","null","","","","","",""
"html-keyboard-response","308","404813","0.0-7.0-1.20","FL","kfhtlqkth4","1920","1080","0","1","0","5edf8803c008532459792282","","null","","","learningBlock2","","","","That was a tob.","null","","","","","",""
"html-keyboard-response","309","405814","0.0-7.0-2.20","FL","kfhtlqkth4","1920","1080","0","1","0","5edf8803c008532459792282","","null","","","learningBlock2","","","","<div style=""font-size:60px;""> </div>","null","FL","learning/Slide101.JPG","That was a tob.","","",""
"image-keyboard-response","310","405990","0.0-7.0-0.21","FL","kfhtlqkth4","1920","1080","0","1","0","5edf8803c008532459792282","","null","","","","","","","learning/Slide102.JPG","null","","","","","",""
"html-keyboard-response","311","407142","0.0-7.0-1.21","FL","kfhtlqkth4","1920","1080","0","1","0","5edf8803c008532459792282","","null","","","learningBlock2","","","","That was a bim.","null","","","","","",""
"html-keyboard-response","312","408143","0.0-7.0-2.21","FL","kfhtlqkth4","1920","1080","0","1","0","5edf8803c008532459792282","","null","","","learningBlock2","","","","<div style=""font-size:60px;""> </div>","null","FL","learning/Slide102.JPG","That was a bim.","","",""
"image-keyboard-response","313","408319","0.0-7.0-0.22","FL","kfhtlqkth4","1920","1080","0","1","0","5edf8803c008532459792282","","null","","","","","","","learning/Slide103.JPG","null","","","","","",""
"html-keyboard-response","314","409471","0.0-7.0-1.22","FL","kfhtlqkth4","1920","1080","0","1","0","5edf8803c008532459792282","","null","","","learningBlock2","","","","That was a dep.","null","","","","","",""
"html-keyboard-response","315","410471","0.0-7.0-2.22","FL","kfhtlqkth4","1920","1080","0","1","0","5edf8803c008532459792282","","null","","","learningBlock2","","","","<div style=""font-size:60px;""> </div>","null","FL","learning/Slide103.JPG","That was a dep.","","",""
"image-keyboard-response","316","410648","0.0-7.0-0.23","FL","kfhtlqkth4","1920","1080","0","1","0","5edf8803c008532459792282","","null","","","","","","","learning/Slide104.JPG","null","","","","","",""
"html-keyboard-response","317","411800","0.0-7.0-1.23","FL","kfhtlqkth4","1920","1080","0","1","0","5edf8803c008532459792282","","null","","","learningBlock2","","","","That was a tob.","null","","","","","",""
"html-keyboard-response","318","412801","0.0-7.0-2.23","FL","kfhtlqkth4","1920","1080","0","1","0","5edf8803c008532459792282","","null","","","learningBlock2","","","","<div style=""font-size:60px;""> </div>","null","FL","learning/Slide104.JPG","That was a tob.","","",""
"image-keyboard-response","319","412978","0.0-7.0-0.24","FL","kfhtlqkth4","1920","1080","0","1","0","5edf8803c008532459792282","","null","","","","","","","learning/Slide105.JPG","null","","","","","",""
"html-keyboard-response","320","414129","0.0-7.0-1.24","FL","kfhtlqkth4","1920","1080","0","1","0","5edf8803c008532459792282","","null","","","learningBlock2","","","","That was a dep.","null","","","","","",""
"html-keyboard-response","321","415131","0.0-7.0-2.24","FL","kfhtlqkth4","1920","1080","0","1","0","5edf8803c008532459792282","","null","","","learningBlock2","","","","<div style=""font-size:60px;""> </div>","null","FL","learning/Slide105.JPG","That was a dep.","","",""
"image-keyboard-response","322","415307","0.0-7.0-0.25","FL","kfhtlqkth4","1920","1080","0","1","0","5edf8803c008532459792282","","null","","","","","","","learning/Slide106.JPG","null","","","","","",""
"html-keyboard-response","323","416460","0.0-7.0-1.25","FL","kfhtlqkth4","1920","1080","0","1","0","5edf8803c008532459792282","","null","","","learningBlock2","","","","That was a wug.","null","","","","","",""
"html-keyboard-response","324","417461","0.0-7.0-2.25","FL","kfhtlqkth4","1920","1080","0","1","0","5edf8803c008532459792282","","null","","","learningBlock2","","","","<div style=""font-size:60px;""> </div>","null","FL","learning/Slide106.JPG","That was a wug.","","",""
"image-keyboard-response","325","417638","0.0-7.0-0.26","FL","kfhtlqkth4","1920","1080","0","1","0","5edf8803c008532459792282","","null","","","","","","","learning/Slide107.JPG","null","","","","","",""
"html-keyboard-response","326","418790","0.0-7.0-1.26","FL","kfhtlqkth4","1920","1080","0","1","0","5edf8803c008532459792282","","null","","","learningBlock2","","","","That was a bim.","null","","","","","",""
"html-keyboard-response","327","419792","0.0-7.0-2.26","FL","kfhtlqkth4","1920","1080","0","1","0","5edf8803c008532459792282","","null","","","learningBlock2","","","","<div style=""font-size:60px;""> </div>","null","FL","learning/Slide107.JPG","That was a bim.","","",""
"image-keyboard-response","328","419968","0.0-7.0-0.27","FL","kfhtlqkth4","1920","1080","0","1","0","5edf8803c008532459792282","","null","","","","","","","learning/Slide108.JPG","null","","","","","",""
"html-keyboard-response","329","421120","0.0-7.0-1.27","FL","kfhtlqkth4","1920","1080","0","1","0","5edf8803c008532459792282","","null","","","learningBlock2","","","","That was a dep.","null","","","","","",""
"html-keyboard-response","330","422120","0.0-7.0-2.27","FL","kfhtlqkth4","1920","1080","0","1","0","5edf8803c008532459792282","","null","","","learningBlock2","","","","<div style=""font-size:60px;""> </div>","null","FL","learning/Slide108.JPG","That was a dep.","","",""
"image-keyboard-response","331","422296","0.0-7.0-0.28","FL","kfhtlqkth4","1920","1080","0","1","0","5edf8803c008532459792282","","null","","","","","","","learning/Slide109.JPG","null","","","","","",""
"html-keyboard-response","332","423449","0.0-7.0-1.28","FL","kfhtlqkth4","1920","1080","0","1","0","5edf8803c008532459792282","","null","","","learningBlock2","","","","That was a wug.","null","","","","","",""
"html-keyboard-response","333","424450","0.0-7.0-2.28","FL","kfhtlqkth4","1920","1080","0","1","0","5edf8803c008532459792282","","null","","","learningBlock2","","","","<div style=""font-size:60px;""> </div>","null","FL","learning/Slide109.JPG","That was a wug.","","",""
"image-keyboard-response","334","424626","0.0-7.0-0.29","FL","kfhtlqkth4","1920","1080","0","1","0","5edf8803c008532459792282","","null","","","","","","","learning/Slide110.JPG","null","","","","","",""
"html-keyboard-response","335","425778","0.0-7.0-1.29","FL","kfhtlqkth4","1920","1080","0","1","0","5edf8803c008532459792282","","null","","","learningBlock2","","","","That was a bim.","null","","","","","",""
"html-keyboard-response","336","426779","0.0-7.0-2.29","FL","kfhtlqkth4","1920","1080","0","1","0","5edf8803c008532459792282","","null","","","learningBlock2","","","","<div style=""font-size:60px;""> </div>","null","FL","learning/Slide110.JPG","That was a bim.","","",""
"image-keyboard-response","337","426956","0.0-7.0-0.30","FL","kfhtlqkth4","1920","1080","0","1","0","5edf8803c008532459792282","","null","","","","","","","learning/Slide111.JPG","null","","","","","",""
"html-keyboard-response","338","428107","0.0-7.0-1.30","FL","kfhtlqkth4","1920","1080","0","1","0","5edf8803c008532459792282","","null","","","learningBlock2","","","","That was a tob.","null","","","","","",""
"html-keyboard-response","339","429108","0.0-7.0-2.30","FL","kfhtlqkth4","1920","1080","0","1","0","5edf8803c008532459792282","","null","","","learningBlock2","","","","<div style=""font-size:60px;""> </div>","null","FL","learning/Slide111.JPG","That was a tob.","","",""
"image-keyboard-response","340","429284","0.0-7.0-0.31","FL","kfhtlqkth4","1920","1080","0","1","0","5edf8803c008532459792282","","null","","","","","","","learning/Slide112.JPG","null","","","","","",""
"html-keyboard-response","341","430435","0.0-7.0-1.31","FL","kfhtlqkth4","1920","1080","0","1","0","5edf8803c008532459792282","","null","","","learningBlock2","","","","That was a wug.","null","","","","","",""
"html-keyboard-response","342","431436","0.0-7.0-2.31","FL","kfhtlqkth4","1920","1080","0","1","0","5edf8803c008532459792282","","null","","","learningBlock2","","","","<div style=""font-size:60px;""> </div>","null","FL","learning/Slide112.JPG","That was a wug.","","",""
"image-keyboard-response","343","431613","0.0-7.0-0.32","FL","kfhtlqkth4","1920","1080","0","1","0","5edf8803c008532459792282","","null","","","","","","","learning/Slide113.JPG","null","","","","","",""
"html-keyboard-response","344","432765","0.0-7.0-1.32","FL","kfhtlqkth4","1920","1080","0","1","0","5edf8803c008532459792282","","null","","","learningBlock2","","","","That was a tob.","null","","","","","",""
"html-keyboard-response","345","433767","0.0-7.0-2.32","FL","kfhtlqkth4","1920","1080","0","1","0","5edf8803c008532459792282","","null","","","learningBlock2","","","","<div style=""font-size:60px;""> </div>","null","FL","learning/Slide113.JPG","That was a tob.","","",""
"image-keyboard-response","346","433942","0.0-7.0-0.33","FL","kfhtlqkth4","1920","1080","0","1","0","5edf8803c008532459792282","","null","","","","","","","learning/Slide114.JPG","null","","","","","",""
"html-keyboard-response","347","435094","0.0-7.0-1.33","FL","kfhtlqkth4","1920","1080","0","1","0","5edf8803c008532459792282","","null","","","learningBlock2","","","","That was a wug.","null","","","","","",""
"html-keyboard-response","348","436096","0.0-7.0-2.33","FL","kfhtlqkth4","1920","1080","0","1","0","5edf8803c008532459792282","","null","","","learningBlock2","","","","<div style=""font-size:60px;""> </div>","null","FL","learning/Slide114.JPG","That was a wug.","","",""
"image-keyboard-response","349","436274","0.0-7.0-0.34","FL","kfhtlqkth4","1920","1080","0","1","0","5edf8803c008532459792282","","null","","","","","","","learning/Slide115.JPG","null","","","","","",""
"html-keyboard-response","350","437425","0.0-7.0-1.34","FL","kfhtlqkth4","1920","1080","0","1","0","5edf8803c008532459792282","","null","","","learningBlock2","","","","That was a bim.","null","","","","","",""
"html-keyboard-response","351","438426","0.0-7.0-2.34","FL","kfhtlqkth4","1920","1080","0","1","0","5edf8803c008532459792282","","null","","","learningBlock2","","","","<div style=""font-size:60px;""> </div>","null","FL","learning/Slide115.JPG","That was a bim.","","",""
"image-keyboard-response","352","438602","0.0-7.0-0.35","FL","kfhtlqkth4","1920","1080","0","1","0","5edf8803c008532459792282","","null","","","","","","","learning/Slide116.JPG","null","","","","","",""
"html-keyboard-response","353","439755","0.0-7.0-1.35","FL","kfhtlqkth4","1920","1080","0","1","0","5edf8803c008532459792282","","null","","","learningBlock2","","","","That was a dep.","null","","","","","",""
"html-keyboard-response","354","440756","0.0-7.0-2.35","FL","kfhtlqkth4","1920","1080","0","1","0","5edf8803c008532459792282","","null","","","learningBlock2","","","","<div style=""font-size:60px;""> </div>","null","FL","learning/Slide116.JPG","That was a dep.","","",""
"image-keyboard-response","355","440932","0.0-7.0-0.36","FL","kfhtlqkth4","1920","1080","0","1","0","5edf8803c008532459792282","","null","","","","","","","learning/Slide117.JPG","null","","","","","",""
"html-keyboard-response","356","442084","0.0-7.0-1.36","FL","kfhtlqkth4","1920","1080","0","1","0","5edf8803c008532459792282","","null","","","learningBlock2","","","","That was a tob.","null","","","","","",""
"html-keyboard-response","357","443085","0.0-7.0-2.36","FL","kfhtlqkth4","1920","1080","0","1","0","5edf8803c008532459792282","","null","","","learningBlock2","","","","<div style=""font-size:60px;""> </div>","null","FL","learning/Slide117.JPG","That was a tob.","","",""
"image-keyboard-response","358","443261","0.0-7.0-0.37","FL","kfhtlqkth4","1920","1080","0","1","0","5edf8803c008532459792282","","null","","","","","","","learning/Slide118.JPG","null","","","","","",""
"html-keyboard-response","359","444413","0.0-7.0-1.37","FL","kfhtlqkth4","1920","1080","0","1","0","5edf8803c008532459792282","","null","","","learningBlock2","","","","That was a dep.","null","","","","","",""
"html-keyboard-response","360","445413","0.0-7.0-2.37","FL","kfhtlqkth4","1920","1080","0","1","0","5edf8803c008532459792282","","null","","","learningBlock2","","","","<div style=""font-size:60px;""> </div>","null","FL","learning/Slide118.JPG","That was a dep.","","",""
"image-keyboard-response","361","445589","0.0-7.0-0.38","FL","kfhtlqkth4","1920","1080","0","1","0","5edf8803c008532459792282","","null","","","","","","","learning/Slide119.JPG","null","","","","","",""
"html-keyboard-response","362","446742","0.0-7.0-1.38","FL","kfhtlqkth4","1920","1080","0","1","0","5edf8803c008532459792282","","null","","","learningBlock2","","","","That was a wug.","null","","","","","",""
"html-keyboard-response","363","447743","0.0-7.0-2.38","FL","kfhtlqkth4","1920","1080","0","1","0","5edf8803c008532459792282","","null","","","learningBlock2","","","","<div style=""font-size:60px;""> </div>","null","FL","learning/Slide119.JPG","That was a wug.","","",""
"image-keyboard-response","364","447919","0.0-7.0-0.39","FL","kfhtlqkth4","1920","1080","0","1","0","5edf8803c008532459792282","","null","","","","","","","learning/Slide120.JPG","null","","","","","",""
"html-keyboard-response","365","449072","0.0-7.0-1.39","FL","kfhtlqkth4","1920","1080","0","1","0","5edf8803c008532459792282","","null","","","learningBlock2","","","","That was a dep.","null","","","","","",""
"html-keyboard-response","366","450073","0.0-7.0-2.39","FL","kfhtlqkth4","1920","1080","0","1","0","5edf8803c008532459792282","","null","","","learningBlock2","","","","<div style=""font-size:60px;""> </div>","null","FL","learning/Slide120.JPG","That was a dep.","","",""
"image-keyboard-response","367","450248","0.0-7.0-0.40","FL","kfhtlqkth4","1920","1080","0","1","0","5edf8803c008532459792282","","null","","","","","","","learning/Slide121.JPG","null","","","","","",""
"html-keyboard-response","368","451401","0.0-7.0-1.40","FL","kfhtlqkth4","1920","1080","0","1","0","5edf8803c008532459792282","","null","","","learningBlock2","","","","That was a bim.","null","","","","","",""
"html-keyboard-response","369","452402","0.0-7.0-2.40","FL","kfhtlqkth4","1920","1080","0","1","0","5edf8803c008532459792282","","null","","","learningBlock2","","","","<div style=""font-size:60px;""> </div>","null","FL","learning/Slide121.JPG","That was a bim.","","",""
"image-keyboard-response","370","452579","0.0-7.0-0.41","FL","kfhtlqkth4","1920","1080","0","1","0","5edf8803c008532459792282","","null","","","","","","","learning/Slide122.JPG","null","","","","","",""
"html-keyboard-response","371","453732","0.0-7.0-1.41","FL","kfhtlqkth4","1920","1080","0","1","0","5edf8803c008532459792282","","null","","","learningBlock2","","","","That was a wug.","null","","","","","",""
"html-keyboard-response","372","454733","0.0-7.0-2.41","FL","kfhtlqkth4","1920","1080","0","1","0","5edf8803c008532459792282","","null","","","learningBlock2","","","","<div style=""font-size:60px;""> </div>","null","FL","learning/Slide122.JPG","That was a wug.","","",""
"image-keyboard-response","373","454908","0.0-7.0-0.42","FL","kfhtlqkth4","1920","1080","0","1","0","5edf8803c008532459792282","","null","","","","","","","learning/Slide123.JPG","null","","","","","",""
"html-keyboard-response","374","456061","0.0-7.0-1.42","FL","kfhtlqkth4","1920","1080","0","1","0","5edf8803c008532459792282","","null","","","learningBlock2","","","","That was a bim.","null","","","","","",""
"html-keyboard-response","375","457061","0.0-7.0-2.42","FL","kfhtlqkth4","1920","1080","0","1","0","5edf8803c008532459792282","","null","","","learningBlock2","","","","<div style=""font-size:60px;""> </div>","null","FL","learning/Slide123.JPG","That was a bim.","","",""
"image-keyboard-response","376","457238","0.0-7.0-0.43","FL","kfhtlqkth4","1920","1080","0","1","0","5edf8803c008532459792282","","null","","","","","","","learning/Slide124.JPG","null","","","","","",""
"html-keyboard-response","377","458389","0.0-7.0-1.43","FL","kfhtlqkth4","1920","1080","0","1","0","5edf8803c008532459792282","","null","","","learningBlock2","","","","That was a tob.","null","","","","","",""
"html-keyboard-response","378","459390","0.0-7.0-2.43","FL","kfhtlqkth4","1920","1080","0","1","0","5edf8803c008532459792282","","null","","","learningBlock2","","","","<div style=""font-size:60px;""> </div>","null","FL","learning/Slide124.JPG","That was a tob.","","",""
"image-keyboard-response","379","459566","0.0-7.0-0.44","FL","kfhtlqkth4","1920","1080","0","1","0","5edf8803c008532459792282","","null","","","","","","","learning/Slide125.JPG","null","","","","","",""
"html-keyboard-response","380","460718","0.0-7.0-1.44","FL","kfhtlqkth4","1920","1080","0","1","0","5edf8803c008532459792282","","null","","","learningBlock2","","","","That was a bim.","null","","","","","",""
"html-keyboard-response","381","461720","0.0-7.0-2.44","FL","kfhtlqkth4","1920","1080","0","1","0","5edf8803c008532459792282","","null","","","learningBlock2","","","","<div style=""font-size:60px;""> </div>","null","FL","learning/Slide125.JPG","That was a bim.","","",""
"image-keyboard-response","382","461895","0.0-7.0-0.45","FL","kfhtlqkth4","1920","1080","0","1","0","5edf8803c008532459792282","","null","","","","","","","learning/Slide126.JPG","null","","","","","",""
"html-keyboard-response","383","463047","0.0-7.0-1.45","FL","kfhtlqkth4","1920","1080","0","1","0","5edf8803c008532459792282","","null","","","learningBlock2","","","","That was a tob.","null","","","","","",""
"html-keyboard-response","384","464049","0.0-7.0-2.45","FL","kfhtlqkth4","1920","1080","0","1","0","5edf8803c008532459792282","","null","","","learningBlock2","","","","<div style=""font-size:60px;""> </div>","null","FL","learning/Slide126.JPG","That was a tob.","","",""
"image-keyboard-response","385","464225","0.0-7.0-0.46","FL","kfhtlqkth4","1920","1080","0","1","0","5edf8803c008532459792282","","null","","","","","","","learning/Slide127.JPG","null","","","","","",""
"html-keyboard-response","386","465377","0.0-7.0-1.46","FL","kfhtlqkth4","1920","1080","0","1","0","5edf8803c008532459792282","","null","","","learningBlock2","","","","That was a dep.","null","","","","","",""
"html-keyboard-response","387","466378","0.0-7.0-2.46","FL","kfhtlqkth4","1920","1080","0","1","0","5edf8803c008532459792282","","null","","","learningBlock2","","","","<div style=""font-size:60px;""> </div>","null","FL","learning/Slide127.JPG","That was a dep.","","",""
"image-keyboard-response","388","466555","0.0-7.0-0.47","FL","kfhtlqkth4","1920","1080","0","1","0","5edf8803c008532459792282","","null","","","","","","","learning/Slide128.JPG","null","","","","","",""
"html-keyboard-response","389","467706","0.0-7.0-1.47","FL","kfhtlqkth4","1920","1080","0","1","0","5edf8803c008532459792282","","null","","","learningBlock2","","","","That was a wug.","null","","","","","",""
"html-keyboard-response","390","468708","0.0-7.0-2.47","FL","kfhtlqkth4","1920","1080","0","1","0","5edf8803c008532459792282","","null","","","learningBlock2","","","","<div style=""font-size:60px;""> </div>","null","FL","learning/Slide128.JPG","That was a wug.","","",""
"image-keyboard-response","391","468884","0.0-7.0-0.48","FL","kfhtlqkth4","1920","1080","0","1","0","5edf8803c008532459792282","","null","","","","","","","learning/Slide129.JPG","null","","","","","",""
"html-keyboard-response","392","470036","0.0-7.0-1.48","FL","kfhtlqkth4","1920","1080","0","1","0","5edf8803c008532459792282","","null","","","learningBlock2","","","","That was a tob.","null","","","","","",""
"html-keyboard-response","393","471038","0.0-7.0-2.48","FL","kfhtlqkth4","1920","1080","0","1","0","5edf8803c008532459792282","","null","","","learningBlock2","","","","<div style=""font-size:60px;""> </div>","null","FL","learning/Slide129.JPG","That was a tob.","","",""
"image-keyboard-response","394","471214","0.0-7.0-0.49","FL","kfhtlqkth4","1920","1080","0","1","0","5edf8803c008532459792282","","null","","","","","","","learning/Slide130.JPG","null","","","","","",""
"html-keyboard-response","395","472365","0.0-7.0-1.49","FL","kfhtlqkth4","1920","1080","0","1","0","5edf8803c008532459792282","","null","","","learningBlock2","","","","That was a wug.","null","","","","","",""
"html-keyboard-response","396","473367","0.0-7.0-2.49","FL","kfhtlqkth4","1920","1080","0","1","0","5edf8803c008532459792282","","null","","","learningBlock2","","","","<div style=""font-size:60px;""> </div>","null","FL","learning/Slide130.JPG","That was a wug.","","",""
"image-keyboard-response","397","473542","0.0-7.0-0.50","FL","kfhtlqkth4","1920","1080","0","1","0","5edf8803c008532459792282","","null","","","","","","","learning/Slide131.JPG","null","","","","","",""
"html-keyboard-response","398","474695","0.0-7.0-1.50","FL","kfhtlqkth4","1920","1080","0","1","0","5edf8803c008532459792282","","null","","","learningBlock2","","","","That was a bim.","null","","","","","",""
"html-keyboard-response","399","475696","0.0-7.0-2.50","FL","kfhtlqkth4","1920","1080","0","1","0","5edf8803c008532459792282","","null","","","learningBlock2","","","","<div style=""font-size:60px;""> </div>","null","FL","learning/Slide131.JPG","That was a bim.","","",""
"image-keyboard-response","400","475872","0.0-7.0-0.51","FL","kfhtlqkth4","1920","1080","0","1","0","5edf8803c008532459792282","","null","","","","","","","learning/Slide132.JPG","null","","","","","",""
"html-keyboard-response","401","477025","0.0-7.0-1.51","FL","kfhtlqkth4","1920","1080","0","1","0","5edf8803c008532459792282","","null","","","learningBlock2","","","","That was a dep.","null","","","","","",""
"html-keyboard-response","402","478026","0.0-7.0-2.51","FL","kfhtlqkth4","1920","1080","0","1","0","5edf8803c008532459792282","","null","","","learningBlock2","","","","<div style=""font-size:60px;""> </div>","null","FL","learning/Slide132.JPG","That was a dep.","","",""
"image-keyboard-response","403","478202","0.0-7.0-0.52","FL","kfhtlqkth4","1920","1080","0","1","0","5edf8803c008532459792282","","null","","","","","","","learning/Slide133.JPG","null","","","","","",""
"html-keyboard-response","404","479355","0.0-7.0-1.52","FL","kfhtlqkth4","1920","1080","0","1","0","5edf8803c008532459792282","","null","","","learningBlock2","","","","That was a tob.","null","","","","","",""
"html-keyboard-response","405","480356","0.0-7.0-2.52","FL","kfhtlqkth4","1920","1080","0","1","0","5edf8803c008532459792282","","null","","","learningBlock2","","","","<div style=""font-size:60px;""> </div>","null","FL","learning/Slide133.JPG","That was a tob.","","",""
"image-keyboard-response","406","480533","0.0-7.0-0.53","FL","kfhtlqkth4","1920","1080","0","1","0","5edf8803c008532459792282","","null","","","","","","","learning/Slide134.JPG","null","","","","","",""
"html-keyboard-response","407","481686","0.0-7.0-1.53","FL","kfhtlqkth4","1920","1080","0","1","0","5edf8803c008532459792282","","null","","","learningBlock2","","","","That was a dep.","null","","","","","",""
"html-keyboard-response","408","482687","0.0-7.0-2.53","FL","kfhtlqkth4","1920","1080","0","1","0","5edf8803c008532459792282","","null","","","learningBlock2","","","","<div style=""font-size:60px;""> </div>","null","FL","learning/Slide134.JPG","That was a dep.","","",""
"image-keyboard-response","409","482862","0.0-7.0-0.54","FL","kfhtlqkth4","1920","1080","0","1","0","5edf8803c008532459792282","","null","","","","","","","learning/Slide135.JPG","null","","","","","",""
"html-keyboard-response","410","484015","0.0-7.0-1.54","FL","kfhtlqkth4","1920","1080","0","1","0","5edf8803c008532459792282","","null","","","learningBlock2","","","","That was a tob.","null","","","","","",""
"html-keyboard-response","411","485016","0.0-7.0-2.54","FL","kfhtlqkth4","1920","1080","0","1","0","5edf8803c008532459792282","","null","","","learningBlock2","","","","<div style=""font-size:60px;""> </div>","null","FL","learning/Slide135.JPG","That was a tob.","","",""
"image-keyboard-response","412","485192","0.0-7.0-0.55","FL","kfhtlqkth4","1920","1080","0","1","0","5edf8803c008532459792282","","null","","","","","","","learning/Slide136.JPG","null","","","","","",""
"html-keyboard-response","413","486344","0.0-7.0-1.55","FL","kfhtlqkth4","1920","1080","0","1","0","5edf8803c008532459792282","","null","","","learningBlock2","","","","That was a wug.","null","","","","","",""
"html-keyboard-response","414","487345","0.0-7.0-2.55","FL","kfhtlqkth4","1920","1080","0","1","0","5edf8803c008532459792282","","null","","","learningBlock2","","","","<div style=""font-size:60px;""> </div>","null","FL","learning/Slide136.JPG","That was a wug.","","",""
"image-keyboard-response","415","487521","0.0-7.0-0.56","FL","kfhtlqkth4","1920","1080","0","1","0","5edf8803c008532459792282","","null","","","","","","","learning/Slide137.JPG","null","","","","","",""
"html-keyboard-response","416","488673","0.0-7.0-1.56","FL","kfhtlqkth4","1920","1080","0","1","0","5edf8803c008532459792282","","null","","","learningBlock2","","","","That was a tob.","null","","","","","",""
"html-keyboard-response","417","489674","0.0-7.0-2.56","FL","kfhtlqkth4","1920","1080","0","1","0","5edf8803c008532459792282","","null","","","learningBlock2","","","","<div style=""font-size:60px;""> </div>","null","FL","learning/Slide137.JPG","That was a tob.","","",""
"image-keyboard-response","418","489851","0.0-7.0-0.57","FL","kfhtlqkth4","1920","1080","0","1","0","5edf8803c008532459792282","","null","","","","","","","learning/Slide138.JPG","null","","","","","",""
"html-keyboard-response","419","491003","0.0-7.0-1.57","FL","kfhtlqkth4","1920","1080","0","1","0","5edf8803c008532459792282","","null","","","learningBlock2","","","","That was a bim.","null","","","","","",""
"html-keyboard-response","420","492003","0.0-7.0-2.57","FL","kfhtlqkth4","1920","1080","0","1","0","5edf8803c008532459792282","","null","","","learningBlock2","","","","<div style=""font-size:60px;""> </div>","null","FL","learning/Slide138.JPG","That was a bim.","","",""
"image-keyboard-response","421","492180","0.0-7.0-0.58","FL","kfhtlqkth4","1920","1080","0","1","0","5edf8803c008532459792282","","null","","","","","","","learning/Slide139.JPG","null","","","","","",""
"html-keyboard-response","422","493332","0.0-7.0-1.58","FL","kfhtlqkth4","1920","1080","0","1","0","5edf8803c008532459792282","","null","","","learningBlock2","","","","That was a wug.","null","","","","","",""
"html-keyboard-response","423","494334","0.0-7.0-2.58","FL","kfhtlqkth4","1920","1080","0","1","0","5edf8803c008532459792282","","null","","","learningBlock2","","","","<div style=""font-size:60px;""> </div>","null","FL","learning/Slide139.JPG","That was a wug.","","",""
"image-keyboard-response","424","494509","0.0-7.0-0.59","FL","kfhtlqkth4","1920","1080","0","1","0","5edf8803c008532459792282","","null","","","","","","","learning/Slide140.JPG","null","","","","","",""
"html-keyboard-response","425","495661","0.0-7.0-1.59","FL","kfhtlqkth4","1920","1080","0","1","0","5edf8803c008532459792282","","null","","","learningBlock2","","","","That was a dep.","null","","","","","",""
"html-keyboard-response","426","496663","0.0-7.0-2.59","FL","kfhtlqkth4","1920","1080","0","1","0","5edf8803c008532459792282","","null","","","learningBlock2","","","","<div style=""font-size:60px;""> </div>","null","FL","learning/Slide140.JPG","That was a dep.","","",""
"image-keyboard-response","427","496840","0.0-7.0-0.60","FL","kfhtlqkth4","1920","1080","0","1","0","5edf8803c008532459792282","","null","","","","","","","learning/Slide141.JPG","null","","","","","",""
"html-keyboard-response","428","497992","0.0-7.0-1.60","FL","kfhtlqkth4","1920","1080","0","1","0","5edf8803c008532459792282","","null","","","learningBlock2","","","","That was a tob.","null","","","","","",""
"html-keyboard-response","429","498993","0.0-7.0-2.60","FL","kfhtlqkth4","1920","1080","0","1","0","5edf8803c008532459792282","","null","","","learningBlock2","","","","<div style=""font-size:60px;""> </div>","null","FL","learning/Slide141.JPG","That was a tob.","","",""
"image-keyboard-response","430","499169","0.0-7.0-0.61","FL","kfhtlqkth4","1920","1080","0","1","0","5edf8803c008532459792282","","null","","","","","","","learning/Slide142.JPG","null","","","","","",""
"html-keyboard-response","431","500322","0.0-7.0-1.61","FL","kfhtlqkth4","1920","1080","0","1","0","5edf8803c008532459792282","","null","","","learningBlock2","","","","That was a wug.","null","","","","","",""
"html-keyboard-response","432","501324","0.0-7.0-2.61","FL","kfhtlqkth4","1920","1080","0","1","0","5edf8803c008532459792282","","null","","","learningBlock2","","","","<div style=""font-size:60px;""> </div>","null","FL","learning/Slide142.JPG","That was a wug.","","",""
"image-keyboard-response","433","501501","0.0-7.0-0.62","FL","kfhtlqkth4","1920","1080","0","1","0","5edf8803c008532459792282","","null","","","","","","","learning/Slide143.JPG","null","","","","","",""
"html-keyboard-response","434","502653","0.0-7.0-1.62","FL","kfhtlqkth4","1920","1080","0","1","0","5edf8803c008532459792282","","null","","","learningBlock2","","","","That was a bim.","null","","","","","",""
